{
  "resourceType": "Bundle",
  "id": "4616513133030",
  "type": "transaction",
  "entry": [ {
    "fullUrl": "https://madie.cms.gov/Patient/a918259c-530d-4645-9339-e71db94323a8",
    "resource": {
      "resourceType": "Patient",
      "id": "a918259c-530d-4645-9339-e71db94323a8",
      "meta": {
        "profile": [ "http://hl7.org/fhir/us/qicore/StructureDefinition/qicore-patient" ]
      },
      "extension": [ {
        "url": "http://hl7.org/fhir/us/core/StructureDefinition/us-core-race",
        "extension": [ {
          "url": "ombCategory",
          "valueCoding": {
            "system": "urn:oid:2.16.840.1.113883.6.238",
            "code": "2076-8",
            "display": "Native Hawaiian or Other Pacific Islander"
          }
        }, {
          "url": "text",
          "valueString": "Native Hawaiian or Other Pacific Islander"
        } ]
      }, {
        "url": "http://hl7.org/fhir/us/core/StructureDefinition/us-core-ethnicity",
        "extension": [ {
          "url": "ombCategory",
          "valueCoding": {
            "system": "urn:oid:2.16.840.1.113883.6.238",
            "code": "2186-5",
            "display": "Not Hispanic or Latino"
          }
        }, {
          "url": "text",
          "valueString": "Not Hispanic or Latino"
        } ]
      } ],
      "identifier": [ {
        "type": {
          "coding": [ {
            "system": "http://terminology.hl7.org/CodeSystem/v2-0203",
            "code": "MR"
          } ]
        },
        "system": "https://bonnie-fhir.healthit.gov/",
        "value": "60d4bda907206d58cd96b128"
      } ],
      "name": [ {
        "family": "NUMERFail",
        "given": [ "InitialDxStaging2023" ]
      } ],
      "gender": "female",
      "birthDate": "1950-12-25"
    },
    "request": {
      "method": "POST",
      "url": "Patient/a918259c-530d-4645-9339-e71db94323a8"
    }
  }, {
    "fullUrl": "https://madie.cms.gov/Encounter/64646103516461",
    "resource": {
      "resourceType": "Encounter",
      "id": "64646103516461",
      "meta": {
        "profile": [ "http://hl7.org/fhir/us/qicore/StructureDefinition/qicore-encounter" ]
      },
      "status": "finished",
      "class": {
        "system": "http://terminology.hl7.org/CodeSystem/v3-ActCode",
        "code": "AMB",
        "display": "ambulatory"
      },
      "type": [ {
        "coding": [ {
          "system": "http://snomed.info/sct",
          "version": "http://snomed.info/sct/731000124108/version/202303",
          "code": "185463005",
          "display": "Visit out of hours (procedure)"
        } ]
      } ],
      "subject": {
        "reference": "Patient/a918259c-530d-4645-9339-e71db94323a8"
      },
      "period": {
        "start": "2025-04-12T08:00:00.000+00:00",
        "end": "2025-04-12T09:15:00.000+00:00"
      }
    },
    "request": {
      "method": "POST",
      "url": "Encounter/64646103516461"
    }
  }, {
    "fullUrl": "https://madie.cms.gov/Condition/64646103516462",
    "resource": {
      "resourceType": "Condition",
      "id": "64646103516462",
      "meta": {
        "profile": [ "http://hl7.org/fhir/us/qicore/StructureDefinition/qicore-condition" ]
      },
      "clinicalStatus": {
        "coding": [ {
          "system": "http://terminology.hl7.org/CodeSystem/condition-clinical",
          "code": "active",
          "display": "Active"
        } ]
      },
      "verificationStatus": {
        "coding": [ {
          "system": "http://terminology.hl7.org/CodeSystem/condition-ver-status",
          "code": "confirmed",
          "display": "Confirmed"
        } ]
      },
      "category": [ {
        "coding": [ {
          "system": "http://terminology.hl7.org/CodeSystem/condition-category",
          "code": "problem-list-item",
          "display": "Problem List Item"
        } ]
      } ],
      "code": {
        "coding": [ {
          "system": "http://hl7.org/fhir/sid/icd-10-cm",
          "version": "2023",
          "code": "C67.1",
          "display": "Malignant neoplasm of dome of bladder"
        } ]
      },
      "subject": {
        "reference": "Patient/a918259c-530d-4645-9339-e71db94323a8"
      },
      "onsetPeriod": {
        "start": "2025-04-12T08:00:00.000+00:00"
      }
    },
    "request": {
      "method": "POST",
      "url": "Condition/64646103516462"
    }
  }, {
    "fullUrl": "https://madie.cms.gov/Procedure/64646103516463",
    "resource": {
      "resourceType": "Procedure",
      "id": "64646103516463",
      "meta": {
        "profile": [ "http://hl7.org/fhir/us/qicore/StructureDefinition/qicore-procedure" ]
      },
      "extension": [ {
        "url": "http://hl7.org/fhir/us/qicore/StructureDefinition/qicore-recorded",
        "valueDateTime": "2025-04-12T08:00:00.000+00:00"
      } ],
      "status": "completed",
      "code": {
        "coding": [ {
          "system": "http://snomed.info/sct",
          "version": "http://snomed.info/sct/731000124108/version/202303",
          "code": "254292007",
          "display": "Tumor staging"
        } ]
      },
      "subject": {
        "reference": "Patient/a918259c-530d-4645-9339-e71db94323a8"
      },
      "performedPeriod": {
        "start": "2025-04-12T08:00:00.000+00:00",
        "end": "2025-04-12T08:15:00.000+00:00"
      }
    },
    "request": {
      "method": "POST",
      "url": "Procedure/64646103516463"
    }
  }, {
    "fullUrl": "https://madie.cms.gov/Observation/64646103516464",
    "resource": {
      "resourceType": "Observation",
      "id": "64646103516464",
      "meta": {
        "profile": [ "http://hl7.org/fhir/us/qicore/StructureDefinition/qicore-observation" ]
      },
      "partOf": [ {
        "reference": "Procedure/64646103516463"
      } ],
      "status": "final",
      "category": [ {
        "coding": [ {
          "system": "http://terminology.hl7.org/CodeSystem/observation-category",
          "code": "procedure",
          "display": "Procedure"
        } ]
      } ],
      "code": {
        "coding": [ {
          "system": "http://loinc.org",
          "version": "2.73",
          "code": "21902-2",
          "display": "Stage group.pathology Cancer"
        } ]
      },
      "subject": {
        "reference": "Patient/a918259c-530d-4645-9339-e71db94323a8"
      },
      "effectivePeriod": {
        "start": "2024-06-01T08:00:00.000+00:00",
        "end": "2025-06-02T08:15:00.000+00:00"
      },
      "issued": "2025-06-02T08:15:00.000+00:00",
      "valueCodeableConcept": {
        "coding": [ {
          "system": "http://snomed.info/sct",
          "version": "http://snomed.info/sct/731000124108/version/202303",
          "code": "369949005",
          "display": "Ta: Noninvasive papillary carcinoma (urinary tract) (finding)"
        } ]
      }
    },
    "request": {
      "method": "POST",
      "url": "Observation/64646103516464"
    }
  }, {
    "fullUrl": "https://madie.cms.gov/Observation/64646103516435",
    "resource": {
      "resourceType": "Observation",
      "id": "64646103516435",
      "meta": {
        "profile": [ "http://hl7.org/fhir/us/qicore/StructureDefinition/qicore-observation" ]
      },
      "partOf": [ {
        "reference": "Procedure/64646103516435"
      } ],
      "status": "final",
      "category": [ {
        "coding": [ {
          "system": "http://terminology.hl7.org/CodeSystem/observation-category",
          "code": "procedure",
          "display": "Procedure"
        } ]
      } ],
      "code": {
        "coding": [ {
          "system": "http://loinc.org",
          "version": "2.73",
          "code": "21902-2",
          "display": "Stage group.pathology Cancer"
        } ]
      },
      "subject": {
        "reference": "Patient/a918259c-530d-4645-9339-e71db94323a8"
      },
      "effectivePeriod": {
        "start": "2024-12-01T08:00:00.000+00:00",
        "end": "2024-12-02T08:15:00.000+00:00"
      },
      "issued": "2024-12-02T08:15:00.000+00:00",
      "valueCodeableConcept": {
        "coding": [ {
          "system": "http://snomed.info/sct",
          "version": "http://snomed.info/sct/731000124108/version/202303",
          "code": "369949005",
          "display": "Ta: Noninvasive papillary carcinoma (urinary tract) (finding)"
        } ]
      }
    },
    "request": {
      "method": "POST",
      "url": "Observation/64646103516435"
    }
  }, {
    "fullUrl": "https://madie.cms.gov/MedicationAdministration/64646103516465",
    "resource": {
      "resourceType": "MedicationAdministration",
      "id": "64646103516465",
      "meta": {
        "profile": [ "http://hl7.org/fhir/us/qicore/StructureDefinition/qicore-medicationadministration" ]
      },
      "status": "completed",
      "medicationCodeableConcept": {
        "coding": [ {
          "system": "http://www.nlm.nih.gov/research/umls/rxnorm",
          "version": "03062023",
          "code": "1653484",
          "display": "BCG, live, Tice strain 50 MG/ML Topical Suspension"
        } ]
      },
      "subject": {
        "reference": "Patient/a918259c-530d-4645-9339-e71db94323a8"
      },
      "effectivePeriod": {
        "start": "2025-04-02T08:00:00.000+00:00",
        "end": "2025-04-02T08:15:00.000+00:00"
      }
    },
    "request": {
      "method": "POST",
      "url": "MedicationAdministration/64646103516465"
    }
  }, {
    "fullUrl": "https://madie.cms.gov/MeasureReport/c9cc4dd0-12b4-4d36-977b-3dba58b755c1",
    "resource": {
      "resourceType": "MeasureReport",
      "id": "c9cc4dd0-12b4-4d36-977b-3dba58b755c1",
      "meta": {
        "profile": [ "http://hl7.org/fhir/us/cqfmeasures/StructureDefinition/test-case-cqfm" ]
      },
      "contained": [ {
        "resourceType": "Parameters",
        "id": "f952ce8b-059c-4d6f-a754-6f3389b38477-parameters",
        "parameter": [ {
          "name": "subject",
          "valueString": "a918259c-530d-4645-9339-e71db94323a8"
        } ]
      } ],
      "extension": [ {
        "url": "http://hl7.org/fhir/us/cqfmeasures/StructureDefinition/cqfm-inputParameters",
        "valueReference": {
          "reference": "#f952ce8b-059c-4d6f-a754-6f3389b38477-parameters"
        }
      }, {
        "url": "http://hl7.org/fhir/us/cqfmeasures/StructureDefinition/cqfm-testCaseDescription",
        "valueMarkdown": "Has Bladder Cancer and Cancer staging in June 2023; waited  6 months to return, staging procedure 12/05/2023;  active dx 4/10/2024; first BCG within 6 months and in the MP but not within 6 months of initial qualifying stagiing -  LCG question. Fails "
      } ],
      "modifierExtension": [ {
        "url": "http://hl7.org/fhir/us/cqfmeasures/StructureDefinition/cqfm-isTestCase",
        "valueBoolean": true
      } ],
      "status": "complete",
      "type": "individual",
      "measure": "https://madie.cms.gov/Measure/IntravesicalBacillusCalmetteGuerinForBladderCancerFHIR",
      "period": {
        "start": "2025-01-01",
        "end": "2025-12-31"
      },
      "group": [ {
        "population": [ {
          "code": {
            "coding": [ {
              "system": "http://terminology.hl7.org/CodeSystem/measure-population",
              "code": "initial-population",
              "display": "Initial Population"
            } ]
          },
          "count": 1
        }, {
          "code": {
            "coding": [ {
              "system": "http://terminology.hl7.org/CodeSystem/measure-population",
              "code": "denominator",
              "display": "Denominator"
            } ]
          },
          "count": 1
        }, {
          "code": {
            "coding": [ {
              "system": "http://terminology.hl7.org/CodeSystem/measure-population",
              "code": "denominator-exclusion",
              "display": "Denominator Exclusion"
            } ]
          },
          "count": 0
        }, {
          "code": {
            "coding": [ {
              "system": "http://terminology.hl7.org/CodeSystem/measure-population",
              "code": "numerator",
              "display": "Numerator"
            } ]
          },
          "count": 0
        }, {
          "code": {
            "coding": [ {
              "system": "http://terminology.hl7.org/CodeSystem/measure-population",
              "code": "denominator-exception",
              "display": "Denominator Exception"
            } ]
          },
          "count": 0
        } ]
      } ],
      "evaluatedResource": [ {
        "reference": "https://madie.cms.gov/Patient/a918259c-530d-4645-9339-e71db94323a8"
      }, {
        "reference": "https://madie.cms.gov/Encounter/64646103516461"
      }, {
        "reference": "https://madie.cms.gov/Condition/64646103516462"
      }, {
        "reference": "https://madie.cms.gov/Procedure/64646103516463"
      }, {
        "reference": "https://madie.cms.gov/Observation/64646103516464"
      }, {
        "reference": "https://madie.cms.gov/Observation/64646103516435"
      }, {
        "reference": "https://madie.cms.gov/MedicationAdministration/64646103516465"
      } ]
    },
    "request": {
      "method": "POST",
      "url": "MeasureReport/c9cc4dd0-12b4-4d36-977b-3dba58b755c1"
    }
  } ]
}