{"resourceType":"Bundle","id":"tests-475f8854-f00c-4799-b1bb-d4bf455e3c32-bundle","type":"transaction","entry":[{"fullUrl":"https://madie.cms.gov/Patient/475f8854-f00c-4799-b1bb-d4bf455e3c32","resource":{"resourceType":"Patient","id":"475f8854-f00c-4799-b1bb-d4bf455e3c32","meta":{"profile":["http://hl7.org/fhir/us/qicore/StructureDefinition/qicore-patient"]},"extension":[{"url":"http://hl7.org/fhir/us/core/StructureDefinition/us-core-race","extension":[{"url":"ombCategory","valueCoding":{"system":"urn:oid:2.16.840.1.113883.6.238","code":"1002-5","display":"American Indian or Alaska Native","userSelected":true}},{"url":"text","valueString":"American Indian or Alaska Native"},{"url":"detailed","valueCoding":{"system":"urn:oid:2.16.840.1.113883.6.238","code":"1653-5","display":"Tohono O'Odham"}}]},{"url":"http://hl7.org/fhir/us/core/StructureDefinition/us-core-ethnicity","extension":[{"url":"ombCategory","valueCoding":{"system":"urn:oid:2.16.840.1.113883.6.238","code":"2135-2","display":"Hispanic or Latino","userSelected":true}},{"url":"text","valueString":"Hispanic or Latino"},{"url":"detailed","valueCoding":{"system":"urn:oid:2.16.840.1.113883.6.238","code":"2153-5","display":"Mexican American Indian"}}]}],"identifier":[{"type":{"coding":[{"system":"http://terminology.hl7.org/CodeSystem/v2-0203","code":"MR"}]},"system":"https://bonnie-fhir.healthit.gov/","value":"62f6847dbc6a474306a95b42"}],"name":[{"family":"NUMERPass","given":["12yoPosAdolDepScreenandFUPrescripWI2DAfterEndOfEnc"]}],"gender":"male","birthDate":"2013-01-01"},"request":{"method":"PUT","url":"Patient/475f8854-f00c-4799-b1bb-d4bf455e3c32"}},{"fullUrl":"https://madie.cms.gov/Encounter/encounter-to-screen-for-depression-cf2d","resource":{"resourceType":"Encounter","id":"52f6cc9b-4f75-4d49-9e09-4135601984ef","meta":{"profile":["http://hl7.org/fhir/us/qicore/StructureDefinition/qicore-encounter"]},"status":"finished","class":{"system":"http://terminology.hl7.org/CodeSystem/v3-ActCode","code":"AMB","display":"ambulatory"},"type":[{"coding":[{"system":"http://snomed.info/sct","version":"2021-09","code":"10197000","display":"Psychiatric interview and evaluation (procedure)","userSelected":true}]}],"subject":{"reference":"Patient/475f8854-f00c-4799-b1bb-d4bf455e3c32"},"period":{"start":"2025-06-21T08:00:00.000+00:00","end":"2025-06-21T08:15:00.000+00:00"}},"request":{"method":"PUT","url":"Encounter/52f6cc9b-4f75-4d49-9e09-4135601984ef"}},{"fullUrl":"https://madie.cms.gov/Observation/adolescent-depression-screening-assessment-cf37","resource":{"resourceType":"Observation","id":"187feb77-62ae-4df6-bdd8-472ca2e1bc3c","meta":{"profile":["http://hl7.org/fhir/us/qicore/StructureDefinition/qicore-observation"]},"status":"final","category":[{"coding":[{"system":"http://terminology.hl7.org/CodeSystem/observation-category","code":"procedure","display":"Procedure"}]}],"code":{"coding":[{"system":"http://loinc.org","code":"73831-0","display":"Adolescent depression screening assessment","userSelected":true}]},"subject":{"reference":"Patient/475f8854-f00c-4799-b1bb-d4bf455e3c32"},"effectiveDateTime":"2025-06-15T08:00:00.000+00:00","valueCodeableConcept":{"coding":[{"system":"http://snomed.info/sct","code":"428181000124104","display":"Depression screening positive (finding)","userSelected":true}]}},"request":{"method":"PUT","url":"Observation/187feb77-62ae-4df6-bdd8-472ca2e1bc3c"}},{"fullUrl":"https://madie.cms.gov/MedicationRequest/adolescent-depression-medications-cf38","resource":{"resourceType":"MedicationRequest","id":"403667cf-9139-4085-8f56-6bd5dbc035f7","meta":{"profile":["http://hl7.org/fhir/us/qicore/StructureDefinition/qicore-medicationrequest"]},"status":"active","intent":"order","doNotPerform":false,"medicationCodeableConcept":{"coding":[{"system":"http://www.nlm.nih.gov/research/umls/rxnorm","code":"1190110","display":"fluoxetine 60 MG Oral Tablet","userSelected":true}]},"subject":{"reference":"Patient/475f8854-f00c-4799-b1bb-d4bf455e3c32"},"authoredOn":"2025-06-22T08:00:00.000+00:00","requester":{"reference":"Practitioner/example"}},"request":{"method":"PUT","url":"MedicationRequest/403667cf-9139-4085-8f56-6bd5dbc035f7"}},{"fullUrl":"https://madie.cms.gov/Coverage/1","resource":{"resourceType":"Coverage","id":"c1d5f96b-44aa-4efe-a07f-7ed1d5a6f043","meta":{"profile":["http://hl7.org/fhir/us/qicore/StructureDefinition/qicore-coverage"]},"status":"active","type":{"coding":[{"system":"https://nahdo.org/sopt","code":"1","display":"MEDICARE"}]},"beneficiary":{"reference":"Patient/475f8854-f00c-4799-b1bb-d4bf455e3c32"},"period":{"start":"2023-12-01T00:00:00+00:00"},"payor":[{"reference":"Organization/3e899f33-84eb-4634-a770-a5a0bd7a80e7"}]},"request":{"method":"PUT","url":"Coverage/c1d5f96b-44aa-4efe-a07f-7ed1d5a6f043"}},{"fullUrl":"https://madie.cms.gov/Organization/123456","resource":{"resourceType":"Organization","id":"3e899f33-84eb-4634-a770-a5a0bd7a80e7","meta":{"profile":["http://hl7.org/fhir/us/qicore/StructureDefinition/qicore-organization"]},"identifier":[{"use":"temp","system":"urn:oid:2.16.840.1.113883.4.4","value":"21-3259825"}],"active":true,"type":[{"coding":[{"system":"http://terminology.hl7.org/CodeSystem/organization-type","code":"pay","display":"Payer"}]}],"name":"Blue Cross Blue Shield of Texas","telecom":[{"system":"phone","value":"(+1) 972-766-6900"}],"address":[{"use":"billing","type":"postal","line":["P.O. Box 660044"],"city":"Dallas","state":"TX","postalCode":"75266-0044","country":"USA"}]},"request":{"method":"PUT","url":"Organization/3e899f33-84eb-4634-a770-a5a0bd7a80e7"}},{"fullUrl":"https://madie.cms.gov/Practitioner/practitioner-123456","resource":{"resourceType":"Practitioner","id":"2857b283-bd80-4a26-8ed6-fe1b653fdb6a","meta":{"profile":["http://hl7.org/fhir/us/qicore/StructureDefinition/qicore-practitioner"]},"identifier":[{"system":"http://hl7.org/fhir/sid/us-npi","value":"123456"}],"name":[{"family":"Evil","prefix":["Dr"]}]},"request":{"method":"PUT","url":"Practitioner/2857b283-bd80-4a26-8ed6-fe1b653fdb6a"}},{"fullUrl":"https://madie.cms.gov/MeasureReport/12760546-c6d6-4347-bd6f-d7cc9d569408","resource":{"resourceType":"MeasureReport","id":"12760546-c6d6-4347-bd6f-d7cc9d569408","meta":{"profile":["http://hl7.org/fhir/us/cqfmeasures/StructureDefinition/test-case-cqfm"]},"contained":[{"resourceType":"Parameters","id":"096f422e-abba-4da2-81e4-a0088a38981e-parameters","parameter":[{"name":"subject","valueString":"475f8854-f00c-4799-b1bb-d4bf455e3c32"}]}],"extension":[{"url":"http://hl7.org/fhir/us/cqfmeasures/StructureDefinition/cqfm-inputParameters","valueReference":{"reference":"#096f422e-abba-4da2-81e4-a0088a38981e-parameters"}},{"url":"http://hl7.org/fhir/us/cqfmeasures/StructureDefinition/cqfm-testCaseDescription","valueMarkdown":"12yo with previous positive adolescent depression screening and medication request follow up within 2 days after end of encounter. SDE details added."}],"modifierExtension":[{"url":"http://hl7.org/fhir/us/cqfmeasures/StructureDefinition/cqfm-isTestCase","valueBoolean":true}],"status":"complete","type":"individual","measure":"https://madie.cms.gov/Measure/PCSDepressionScreenAndFollowUpFHIR","period":{"start":"2025-01-01","end":"2025-12-31"},"group":[{"population":[{"code":{"coding":[{"system":"http://terminology.hl7.org/CodeSystem/measure-population","code":"initial-population","display":"Initial Population"}]},"count":1},{"code":{"coding":[{"system":"http://terminology.hl7.org/CodeSystem/measure-population","code":"denominator","display":"Denominator"}]},"count":1},{"code":{"coding":[{"system":"http://terminology.hl7.org/CodeSystem/measure-population","code":"denominator-exclusion","display":"Denominator Exclusion"}]},"count":0},{"code":{"coding":[{"system":"http://terminology.hl7.org/CodeSystem/measure-population","code":"numerator","display":"Numerator"}]},"count":1},{"code":{"coding":[{"system":"http://terminology.hl7.org/CodeSystem/measure-population","code":"denominator-exception","display":"Denominator Exception"}]},"count":0}]}]},"request":{"method":"PUT","url":"MeasureReport/12760546-c6d6-4347-bd6f-d7cc9d569408"}}]}