{"resourceType":"Bundle","id":"tests-ccf464f9-d990-4bbd-9c87-965e53fa1561-bundle","type":"transaction","entry":[{"fullUrl":"https://madie.cms.gov/Patient/ccf464f9-d990-4bbd-9c87-965e53fa1561","resource":{"resourceType":"Patient","id":"ccf464f9-d990-4bbd-9c87-965e53fa1561","meta":{"profile":["http://hl7.org/fhir/us/qicore/StructureDefinition/qicore-patient"]},"extension":[{"url":"http://hl7.org/fhir/us/core/StructureDefinition/us-core-race","extension":[{"url":"ombCategory","valueCoding":{"system":"urn:oid:2.16.840.1.113883.6.238","code":"1002-5","display":"American Indian or Alaska Native","userSelected":true}},{"url":"text","valueString":"American Indian or Alaska Native"}]},{"url":"http://hl7.org/fhir/us/core/StructureDefinition/us-core-ethnicity","extension":[{"url":"ombCategory","valueCoding":{"system":"urn:oid:2.16.840.1.113883.6.238","code":"2135-2","display":"Hispanic or Latino","userSelected":true}},{"url":"text","valueString":"Hispanic or Latino"}]}],"identifier":[{"type":{"coding":[{"system":"http://terminology.hl7.org/CodeSystem/v2-0203","code":"MR"}]},"system":"https://bonnie-fhir.healthit.gov/","value":"62f6754d5efef5272905e717"}],"name":[{"family":"NUMERPass","given":["12yoPosAdolDepScreenandFollowUpReferral"]}],"gender":"male","birthDate":"2013-01-01"},"request":{"method":"PUT","url":"Patient/ccf464f9-d990-4bbd-9c87-965e53fa1561"}},{"fullUrl":"https://madie.cms.gov/Encounter/encounter-to-screen-for-depression-cf2d","resource":{"resourceType":"Encounter","id":"3430c4dd-a4f1-413d-94a6-38f64fdb546e","meta":{"profile":["http://hl7.org/fhir/us/qicore/StructureDefinition/qicore-encounter"]},"status":"finished","class":{"system":"http://terminology.hl7.org/CodeSystem/v3-ActCode","code":"AMB","display":"ambulatory"},"type":[{"coding":[{"system":"http://snomed.info/sct","version":"2021-09","code":"10197000","display":"Psychiatric interview and evaluation (procedure)","userSelected":true}]}],"subject":{"reference":"Patient/ccf464f9-d990-4bbd-9c87-965e53fa1561"},"period":{"start":"2025-06-15T08:00:00.000+00:00","end":"2025-06-21T08:15:00.000+00:00"}},"request":{"method":"PUT","url":"Encounter/3430c4dd-a4f1-413d-94a6-38f64fdb546e"}},{"fullUrl":"https://madie.cms.gov/Observation/adolescent-depression-screening-assessment-cf37","resource":{"resourceType":"Observation","id":"ef884899-529d-4281-ace3-6fccfb385033","meta":{"profile":["http://hl7.org/fhir/us/qicore/StructureDefinition/qicore-observation"]},"status":"final","category":[{"coding":[{"system":"http://terminology.hl7.org/CodeSystem/observation-category","code":"procedure","display":"Procedure"}]}],"code":{"coding":[{"system":"http://loinc.org","code":"73831-0","display":"Adolescent depression screening assessment","userSelected":true}]},"subject":{"reference":"Patient/ccf464f9-d990-4bbd-9c87-965e53fa1561"},"effectiveDateTime":"2025-06-15T08:00:00.000+00:00","valueCodeableConcept":{"coding":[{"system":"http://snomed.info/sct","code":"428181000124104","display":"Depression screening positive (finding)","userSelected":true}]}},"request":{"method":"PUT","url":"Observation/ef884899-529d-4281-ace3-6fccfb385033"}},{"fullUrl":"https://madie.cms.gov/ServiceRequest/referral-for-adolescent-depression-e718","resource":{"resourceType":"ServiceRequest","id":"358bfc02-434c-446c-a8bd-46b2749b5ad8","meta":{"profile":["http://hl7.org/fhir/us/qicore/StructureDefinition/qicore-servicerequest"]},"status":"active","intent":"order","doNotPerform":false,"code":{"coding":[{"system":"http://snomed.info/sct","version":"2021-09","code":"183524004","display":"Referral to psychiatry service (procedure)","userSelected":true}]},"subject":{"reference":"Patient/ccf464f9-d990-4bbd-9c87-965e53fa1561"},"authoredOn":"2025-06-21T08:00:00.000+00:00"},"request":{"method":"PUT","url":"ServiceRequest/358bfc02-434c-446c-a8bd-46b2749b5ad8"}},{"fullUrl":"https://madie.cms.gov/Coverage/1","resource":{"resourceType":"Coverage","id":"6cec52cf-09fd-42df-beef-682df623e069","meta":{"profile":["http://hl7.org/fhir/us/qicore/StructureDefinition/qicore-coverage"]},"status":"active","beneficiary":{"reference":"Patient/ccf464f9-d990-4bbd-9c87-965e53fa1561"},"payor":[{"reference":"Organization/806b0255-13cb-4f2b-9412-571554dd2169"}]},"request":{"method":"PUT","url":"Coverage/6cec52cf-09fd-42df-beef-682df623e069"}},{"fullUrl":"https://madie.cms.gov/Organization/123456","resource":{"resourceType":"Organization","id":"806b0255-13cb-4f2b-9412-571554dd2169","meta":{"profile":["http://hl7.org/fhir/us/qicore/StructureDefinition/qicore-organization"]},"identifier":[{"use":"temp","system":"urn:oid:2.16.840.1.113883.4.4","value":"21-3259825"}],"active":true,"type":[{"coding":[{"system":"http://terminology.hl7.org/CodeSystem/organization-type","code":"pay","display":"Payer"}]}],"name":"Blue Cross Blue Shield of Texas","telecom":[{"system":"phone","value":"(+1) 972-766-6900"}],"address":[{"use":"billing","type":"postal","line":["P.O. Box 660044"],"city":"Dallas","state":"TX","postalCode":"75266-0044","country":"USA"}]},"request":{"method":"PUT","url":"Organization/806b0255-13cb-4f2b-9412-571554dd2169"}},{"fullUrl":"https://madie.cms.gov/Practitioner/practitioner-123456","resource":{"resourceType":"Practitioner","id":"23d19700-e7fc-439d-9cb3-012f6224e35c","meta":{"profile":["http://hl7.org/fhir/us/qicore/StructureDefinition/qicore-practitioner"]},"identifier":[{"system":"http://hl7.org/fhir/sid/us-npi","value":"123456"}],"name":[{"family":"Evil","prefix":["Dr"]}]},"request":{"method":"PUT","url":"Practitioner/23d19700-e7fc-439d-9cb3-012f6224e35c"}},{"fullUrl":"https://madie.cms.gov/MeasureReport/f651502b-f348-4325-a220-ddc1b08bb1d7","resource":{"resourceType":"MeasureReport","id":"f651502b-f348-4325-a220-ddc1b08bb1d7","meta":{"profile":["http://hl7.org/fhir/us/cqfmeasures/StructureDefinition/test-case-cqfm"]},"contained":[{"resourceType":"Parameters","id":"df17cef2-50e5-472f-8d59-46db7bc23d13-parameters","parameter":[{"name":"subject","valueString":"ccf464f9-d990-4bbd-9c87-965e53fa1561"}]}],"extension":[{"url":"http://hl7.org/fhir/us/cqfmeasures/StructureDefinition/cqfm-inputParameters","valueReference":{"reference":"#df17cef2-50e5-472f-8d59-46db7bc23d13-parameters"}},{"url":"http://hl7.org/fhir/us/cqfmeasures/StructureDefinition/cqfm-testCaseDescription","valueMarkdown":"12yo with previous positive adolescent depression screening and service request follow up"}],"modifierExtension":[{"url":"http://hl7.org/fhir/us/cqfmeasures/StructureDefinition/cqfm-isTestCase","valueBoolean":true}],"status":"complete","type":"individual","measure":"https://madie.cms.gov/Measure/PCSDepressionScreenAndFollowUpFHIR","period":{"start":"2025-01-01","end":"2025-12-31"},"group":[{"population":[{"code":{"coding":[{"system":"http://terminology.hl7.org/CodeSystem/measure-population","code":"initial-population","display":"Initial Population"}]},"count":1},{"code":{"coding":[{"system":"http://terminology.hl7.org/CodeSystem/measure-population","code":"denominator","display":"Denominator"}]},"count":1},{"code":{"coding":[{"system":"http://terminology.hl7.org/CodeSystem/measure-population","code":"denominator-exclusion","display":"Denominator Exclusion"}]},"count":0},{"code":{"coding":[{"system":"http://terminology.hl7.org/CodeSystem/measure-population","code":"numerator","display":"Numerator"}]},"count":1},{"code":{"coding":[{"system":"http://terminology.hl7.org/CodeSystem/measure-population","code":"denominator-exception","display":"Denominator Exception"}]},"count":0}]}]},"request":{"method":"PUT","url":"MeasureReport/f651502b-f348-4325-a220-ddc1b08bb1d7"}}]}