{"resourceType":"Bundle","id":"tests-e4efaf8d-368e-4aff-9b5c-bbc074489b67-bundle","type":"transaction","entry":[{"fullUrl":"https://madie.cms.gov/Patient/e4efaf8d-368e-4aff-9b5c-bbc074489b67","resource":{"resourceType":"Patient","id":"e4efaf8d-368e-4aff-9b5c-bbc074489b67","meta":{"profile":["http://hl7.org/fhir/us/qicore/StructureDefinition/qicore-patient"]},"extension":[{"url":"http://hl7.org/fhir/us/core/StructureDefinition/us-core-race","extension":[{"url":"ombCategory","valueCoding":{"system":"urn:oid:2.16.840.1.113883.6.238","code":"2028-9","display":"Asian","userSelected":true}},{"url":"text","valueString":"Asian"}]},{"url":"http://hl7.org/fhir/us/core/StructureDefinition/us-core-ethnicity","extension":[{"url":"ombCategory","valueCoding":{"system":"urn:oid:2.16.840.1.113883.6.238","code":"2186-5","display":"Not Hispanic or Latino","userSelected":true}},{"url":"text","valueString":"Not Hispanic or Latino"}]}],"identifier":[{"type":{"coding":[{"system":"http://terminology.hl7.org/CodeSystem/v2-0203","code":"MR"}]},"system":"https://bonnie-fhir.healthit.gov/","value":"6109658e98086b538055b9e2"}],"active":true,"name":[{"use":"usual","family":"NUMERPass","given":["DiscExamswithResultsOV"]}],"gender":"male","birthDate":"1962-08-16"},"request":{"method":"PUT","url":"Patient/e4efaf8d-368e-4aff-9b5c-bbc074489b67"}},{"fullUrl":"https://madie.cms.gov/Condition/5c9a433bb8484623838502ba","resource":{"resourceType":"Condition","id":"bf0e86b5-819d-4d95-9e59-f564dd318e02","meta":{"profile":["http://hl7.org/fhir/us/qicore/StructureDefinition/qicore-condition"]},"clinicalStatus":{"coding":[{"system":"http://terminology.hl7.org/CodeSystem/condition-clinical","code":"active","display":"active","userSelected":true}]},"category":[{"coding":[{"system":"http://terminology.hl7.org/CodeSystem/condition-category","code":"problem-list-item","display":"problem-list-item","userSelected":true}]}],"code":{"coding":[{"system":"http://hl7.org/fhir/sid/icd-10-cm","version":"2023","code":"H40.10X0"}]},"subject":{"reference":"Patient/e4efaf8d-368e-4aff-9b5c-bbc074489b67"},"onsetDateTime":"2012-09-27T12:45:00+00:00"},"request":{"method":"PUT","url":"Condition/bf0e86b5-819d-4d95-9e59-f564dd318e02"}},{"fullUrl":"https://madie.cms.gov/Observation/5c9a433bb8484623838502bc","resource":{"resourceType":"Observation","id":"8718abde-179d-4d36-9102-1e3f78864a25","meta":{"profile":["http://hl7.org/fhir/us/qicore/StructureDefinition/qicore-observation"]},"status":"final","category":[{"coding":[{"system":"http://terminology.hl7.org/CodeSystem/observation-category","code":"laboratory","display":"laboratory","userSelected":true}]}],"code":{"coding":[{"system":"http://loinc.org","code":"71484-0"}]},"subject":{"reference":"Patient/e4efaf8d-368e-4aff-9b5c-bbc074489b67"},"effectivePeriod":{"start":"2025-03-09T12:40:00.000+00:00","end":"2025-03-09T13:40:00.000+00:00"},"valueQuantity":{"value":0.7}},"request":{"method":"PUT","url":"Observation/8718abde-179d-4d36-9102-1e3f78864a25"}},{"fullUrl":"https://madie.cms.gov/Observation/5c9a433bb8484623838502be","resource":{"resourceType":"Observation","id":"b2559df0-fdd2-47c1-94fd-5487a15c3b59","meta":{"profile":["http://hl7.org/fhir/us/qicore/StructureDefinition/qicore-observation"]},"status":"final","category":[{"coding":[{"system":"http://terminology.hl7.org/CodeSystem/observation-category","code":"laboratory","display":"laboratory","userSelected":true}]}],"code":{"coding":[{"system":"http://loinc.org","version":"2.73","code":"71486-5"}]},"subject":{"reference":"Patient/e4efaf8d-368e-4aff-9b5c-bbc074489b67"},"effectivePeriod":{"start":"2025-03-09T12:40:00.000+00:00","end":"2025-03-09T13:40:00.000+00:00"},"valueCodeableConcept":{"coding":[{"system":"http://loinc.org","code":"71486-5","display":"Optic Disc Exam for Structural Abnormalities"}]}},"request":{"method":"PUT","url":"Observation/b2559df0-fdd2-47c1-94fd-5487a15c3b59"}},{"fullUrl":"https://madie.cms.gov/Encounter/5c9a433bb8484623838502bb","resource":{"resourceType":"Encounter","id":"b077d54b-bc3d-45a1-a099-fff12b1b6362","meta":{"profile":["http://hl7.org/fhir/us/qicore/StructureDefinition/qicore-encounter"]},"status":"finished","class":{"system":"http://terminology.hl7.org/CodeSystem/v3-ActCode","code":"AMB","display":"ambulatory","userSelected":true},"type":[{"coding":[{"system":"http://www.ama-assn.org/go/cpt","version":"2023","code":"99213"}]}],"subject":{"reference":"Patient/e4efaf8d-368e-4aff-9b5c-bbc074489b67"},"period":{"start":"2025-03-09T12:40:00.000+00:00","end":"2025-03-09T13:40:00.000+00:00"},"length":{"value":0.0,"unit":"days"}},"request":{"method":"PUT","url":"Encounter/b077d54b-bc3d-45a1-a099-fff12b1b6362"}},{"fullUrl":"https://madie.cms.gov/Coverage/6846813516441","resource":{"resourceType":"Coverage","id":"dab4dfc3-c3f3-4070-82d5-af0767e0ebcd","meta":{"profile":["http://hl7.org/fhir/us/qicore/StructureDefinition/qicore-coverage"]},"identifier":[{"system":"http://benefitsinc.com/certificate","value":"12345"}],"status":"active","type":{"coding":[{"system":"https://nahdo.org/sopt","version":"9.2","code":"59","display":"Other Private Insurance"}]},"beneficiary":{"reference":"Patient/e4efaf8d-368e-4aff-9b5c-bbc074489b67"},"dependent":"0","relationship":{"coding":[{"system":"http://terminology.hl7.org/CodeSystem/subscriber-relationship","code":"self"}]},"period":{"start":"2015-05-23","end":"2025-05-23"},"payor":[{"reference":"Organization/f7da4368-fb6d-4d73-a75b-f78024cbb18d"}],"order":9},"request":{"method":"PUT","url":"Coverage/dab4dfc3-c3f3-4070-82d5-af0767e0ebcd"}},{"fullUrl":"https://madie.cms.gov/Organization/4654531645616","resource":{"resourceType":"Organization","id":"f7da4368-fb6d-4d73-a75b-f78024cbb18d","meta":{"profile":["http://hl7.org/fhir/us/qicore/StructureDefinition/qicore-organization"]},"identifier":[{"use":"temp","system":"http://terminology.hl7.org/NamingSystem/USEIN","value":"48915164351354"}],"active":true,"type":[{"coding":[{"system":"http://terminology.hl7.org/CodeSystem/organization-type","code":"team","display":"Organizational team"}]}],"name":"Good Healthcare, LLC","telecom":[{"system":"phone","value":"(+1) 901-683-7777"},{"system":"fax","value":"(+1) 901-683-6622"},{"system":"email","value":"BetterYourHealth@GoodHealthcare.com"}],"address":[{"line":["3651 Wentrow Blvd, Suite 227"],"city":"Germantown","state":"TN","postalCode":"38138","country":"USA"}]},"request":{"method":"PUT","url":"Organization/f7da4368-fb6d-4d73-a75b-f78024cbb18d"}},{"fullUrl":"https://madie.cms.gov/MeasureReport/b0835544-93b1-485e-b632-686afab788ec","resource":{"resourceType":"MeasureReport","id":"b0835544-93b1-485e-b632-686afab788ec","meta":{"profile":["http://hl7.org/fhir/us/cqfmeasures/StructureDefinition/test-case-cqfm"]},"contained":[{"resourceType":"Parameters","id":"5e2f2b74-6e81-417a-a171-e68d543a1aee-parameters","parameter":[{"name":"subject","valueString":"e4efaf8d-368e-4aff-9b5c-bbc074489b67"}]}],"extension":[{"url":"http://hl7.org/fhir/us/cqfmeasures/StructureDefinition/cqfm-inputParameters","valueReference":{"reference":"#5e2f2b74-6e81-417a-a171-e68d543a1aee-parameters"}},{"url":"http://hl7.org/fhir/us/cqfmeasures/StructureDefinition/cqfm-testCaseDescription","valueMarkdown":"Patient with glaucoma, office visit with both exams performed"}],"modifierExtension":[{"url":"http://hl7.org/fhir/us/cqfmeasures/StructureDefinition/cqfm-isTestCase","valueBoolean":true}],"status":"complete","type":"individual","measure":"https://madie.cms.gov/Measure/POAGOpticNerveEvaluationFHIR","period":{"start":"2025-01-01","end":"2025-12-31"},"group":[{"population":[{"code":{"coding":[{"system":"http://terminology.hl7.org/CodeSystem/measure-population","code":"initial-population","display":"Initial Population"}]},"count":1},{"code":{"coding":[{"system":"http://terminology.hl7.org/CodeSystem/measure-population","code":"denominator","display":"Denominator"}]},"count":1},{"code":{"coding":[{"system":"http://terminology.hl7.org/CodeSystem/measure-population","code":"denominator-exception","display":"Denominator Exception"}]},"count":0},{"code":{"coding":[{"system":"http://terminology.hl7.org/CodeSystem/measure-population","code":"numerator","display":"Numerator"}]},"count":1}]}]},"request":{"method":"PUT","url":"MeasureReport/b0835544-93b1-485e-b632-686afab788ec"}}]}