{"resourceType":"Bundle","id":"tests-43ee785f-3738-406e-8e98-c8755db82226-bundle","type":"transaction","entry":[{"fullUrl":"https://madie.cms.gov/Patient/43ee785f-3738-406e-8e98-c8755db82226","resource":{"resourceType":"Patient","id":"43ee785f-3738-406e-8e98-c8755db82226","meta":{"profile":["http://hl7.org/fhir/us/qicore/StructureDefinition/qicore-patient"]},"text":{"status":"generated","div":"<div xmlns=\"http://www.w3.org/1999/xhtml\"><div class=\"hapiHeaderText\">AssPrfDELRelvDt_EQIPStart <b>DENOMPASS </b></div><table class=\"hapiPropertyTable\"><tbody><tr><td>Date of birth</td><td><span>01 February 2004</span></td></tr></tbody></table></div>"},"extension":[{"url":"http://hl7.org/fhir/us/core/StructureDefinition/us-core-race","extension":[{"url":"ombCategory","valueCoding":{"system":"urn:oid:2.16.840.1.113883.6.238","code":"1002-5","display":"American Indian or Alaska Native","userSelected":true}},{"url":"text","valueString":"American Indian or Alaska Native"}]},{"url":"http://hl7.org/fhir/us/core/StructureDefinition/us-core-ethnicity","extension":[{"url":"ombCategory","valueCoding":{"system":"urn:oid:2.16.840.1.113883.6.238","code":"2135-2","display":"Hispanic or Latino","userSelected":true}},{"url":"text","valueString":"Hispanic or Latino"}]}],"identifier":[{"type":{"coding":[{"system":"http://terminology.hl7.org/CodeSystem/v2-0203","code":"MR"}]},"system":"https://bonnie-fhir.healthit.gov/","value":"6356d23754e383debade75a1"}],"active":true,"name":[{"use":"usual","family":"DENEXCPass","given":["CovidDxCovidProcedure"]}],"gender":"female","birthDate":"2004-02-01"},"request":{"method":"PUT","url":"Patient/43ee785f-3738-406e-8e98-c8755db82226"}},{"fullUrl":"https://madie.cms.gov/Observation/5f29baa26f0b7100008d8af1","resource":{"resourceType":"Observation","id":"7e2a143f-43de-4dba-8199-1118294030ee","meta":{"profile":["http://hl7.org/fhir/us/qicore/StructureDefinition/qicore-observation"]},"status":"final","category":[{"coding":[{"system":"http://terminology.hl7.org/CodeSystem/observation-category","code":"exam","display":"exam","userSelected":true}]}],"code":{"coding":[{"system":"http://loinc.org","code":"93857-1"}]},"subject":{"reference":"Patient/43ee785f-3738-406e-8e98-c8755db82226"},"effectiveDateTime":"2025-02-01T08:00:00.000+00:00","valueDateTime":"2025-02-01T08:00:00.000+00:00"},"request":{"method":"PUT","url":"Observation/7e2a143f-43de-4dba-8199-1118294030ee"}},{"fullUrl":"https://madie.cms.gov/Observation/5f29bb016f0b7100008d8b15","resource":{"resourceType":"Observation","id":"5dbaa8e1-a8ea-4e4e-bdb8-436e1917fd71","meta":{"profile":["http://hl7.org/fhir/us/qicore/StructureDefinition/qicore-observation"]},"status":"final","category":[{"coding":[{"system":"http://terminology.hl7.org/CodeSystem/observation-category","code":"exam","display":"exam","userSelected":true}]}],"code":{"coding":[{"system":"http://loinc.org","code":"11778-8"}]},"subject":{"reference":"Patient/43ee785f-3738-406e-8e98-c8755db82226"},"effectiveDateTime":"2025-02-01T08:00:00.000+00:00","valueDateTime":"2025-02-01T08:00:00.000+00:00"},"request":{"method":"PUT","url":"Observation/5dbaa8e1-a8ea-4e4e-bdb8-436e1917fd71"}},{"fullUrl":"https://madie.cms.gov/Encounter/5f21e66daca3e40000cb86cf","resource":{"resourceType":"Encounter","id":"989ad604-9a0f-4483-b7db-a9db7c10004a","meta":{"profile":["http://hl7.org/fhir/us/qicore/StructureDefinition/qicore-encounter"]},"status":"finished","class":{"system":"http://terminology.hl7.org/CodeSystem/v3-ActCode","code":"IMP","display":"inpatient encounter"},"type":[{"coding":[{"system":"http://snomed.info/sct","code":"183452005"}]}],"subject":{"reference":"Patient/43ee785f-3738-406e-8e98-c8755db82226"},"period":{"start":"2025-02-01T08:00:00.000Z","end":"2025-02-05T08:15:00.000Z"},"diagnosis":[{"condition":{"reference":"Condition/covid-19-confirmed-759f"}}]},"request":{"method":"PUT","url":"Encounter/989ad604-9a0f-4483-b7db-a9db7c10004a"}},{"fullUrl":"https://madie.cms.gov/Procedure/5f21e716aca3e40000cb87ee","resource":{"resourceType":"Procedure","id":"87851185-2175-48e8-b27e-cabda39841de","meta":{"profile":["http://hl7.org/fhir/us/qicore/StructureDefinition/qicore-procedure"]},"extension":[{"url":"http://hl7.org/fhir/us/qicore/StructureDefinition/qicore-recorded","valueDateTime":"2013-04-05T09:35:00-04:00"}],"status":"completed","code":{"coding":[{"system":"http://snomed.info/sct","code":"10745001"}]},"subject":{"reference":"Patient/43ee785f-3738-406e-8e98-c8755db82226"},"performedPeriod":{"start":"2025-02-01T08:00:00.000Z","end":"2025-02-05T08:15:00.000Z"}},"request":{"method":"PUT","url":"Procedure/87851185-2175-48e8-b27e-cabda39841de"}},{"fullUrl":"https://madie.cms.gov/Condition/covid-19-confirmed-759f","resource":{"resourceType":"Condition","id":"cc3c25c5-ca5b-432e-9551-d47749b033d8","meta":{"profile":["http://hl7.org/fhir/us/qicore/StructureDefinition/qicore-condition"]},"category":[{"coding":[{"system":"http://terminology.hl7.org/CodeSystem/condition-category","code":"encounter-diagnosis","display":"Encounter Diagnosis"}]}],"code":{"coding":[{"system":"http://snomed.info/sct","version":"2022-09","code":"840539006","display":"Disease caused by severe acute respiratory syndrome coronavirus 2 (disorder)","userSelected":true}]},"subject":{"reference":"Patient/43ee785f-3738-406e-8e98-c8755db82226"}},"request":{"method":"PUT","url":"Condition/cc3c25c5-ca5b-432e-9551-d47749b033d8"}},{"fullUrl":"https://madie.cms.gov/Procedure/respiratory-support-procedures-related-to-covid-19-75a2","resource":{"resourceType":"Procedure","id":"849fd84f-14b9-41f7-97ea-33dd915af1b5","meta":{"profile":["http://hl7.org/fhir/us/qicore/StructureDefinition/qicore-procedure"]},"extension":[{"url":"http://hl7.org/fhir/us/qicore/StructureDefinition/qicore-recorded","valueDateTime":"2013-04-05T09:35:00-04:00"}],"status":"completed","code":{"coding":[{"system":"http://snomed.info/sct","version":"2022-09","code":"233573008","display":"Extracorporeal membrane oxygenation (procedure)","userSelected":true}]},"subject":{"reference":"Patient/43ee785f-3738-406e-8e98-c8755db82226"},"performedDateTime":"2025-02-02T08:00:00.000+00:00"},"request":{"method":"PUT","url":"Procedure/849fd84f-14b9-41f7-97ea-33dd915af1b5"}},{"fullUrl":"https://madie.cms.gov/Coverage/1","resource":{"resourceType":"Coverage","id":"a222c3a5-2354-461c-be29-815a9d53b97c","meta":{"profile":["http://hl7.org/fhir/us/qicore/StructureDefinition/qicore-coverage"]},"status":"active","beneficiary":{"reference":"Patient/43ee785f-3738-406e-8e98-c8755db82226"},"payor":[{"reference":"Organization/aeb2c6be-6577-4bba-a6b6-6eab95111f1b"}]},"request":{"method":"PUT","url":"Coverage/a222c3a5-2354-461c-be29-815a9d53b97c"}},{"fullUrl":"https://madie.cms.gov/Organization/123456","resource":{"resourceType":"Organization","id":"aeb2c6be-6577-4bba-a6b6-6eab95111f1b","meta":{"profile":["http://hl7.org/fhir/us/qicore/StructureDefinition/qicore-organization"]},"identifier":[{"use":"temp","system":"urn:oid:2.16.840.1.113883.4.4","value":"21-3259825"}],"active":true,"type":[{"coding":[{"system":"http://terminology.hl7.org/CodeSystem/organization-type","code":"pay","display":"Payer"}]}],"name":"Blue Cross Blue Shield of Texas","telecom":[{"system":"phone","value":"(+1) 972-766-6900"}],"address":[{"use":"billing","type":"postal","line":["P.O. Box 660044"],"city":"Dallas","state":"TX","postalCode":"75266-0044","country":"USA"}]},"request":{"method":"PUT","url":"Organization/aeb2c6be-6577-4bba-a6b6-6eab95111f1b"}},{"fullUrl":"https://madie.cms.gov/Practitioner/practitioner-123456","resource":{"resourceType":"Practitioner","id":"5cc62a91-84a9-4b7d-924a-907c9d08d8d3","identifier":[{"system":"http://hl7.org/fhir/sid/us-npi","value":"123456"}],"name":[{"family":"Evil","prefix":["Dr"]}]},"request":{"method":"PUT","url":"Practitioner/5cc62a91-84a9-4b7d-924a-907c9d08d8d3"}},{"fullUrl":"https://madie.cms.gov/MeasureReport/a6400389-cdfc-4fc6-9cae-f3a87d57105f","resource":{"resourceType":"MeasureReport","id":"a6400389-cdfc-4fc6-9cae-f3a87d57105f","meta":{"profile":["http://hl7.org/fhir/us/cqfmeasures/StructureDefinition/test-case-cqfm"]},"contained":[{"resourceType":"Parameters","id":"696018f3-3412-4e73-aa48-5574527a523c-parameters","parameter":[{"name":"subject","valueString":"43ee785f-3738-406e-8e98-c8755db82226"}]}],"extension":[{"url":"http://hl7.org/fhir/us/cqfmeasures/StructureDefinition/cqfm-inputParameters","valueReference":{"reference":"#696018f3-3412-4e73-aa48-5574527a523c-parameters"}},{"url":"http://hl7.org/fhir/us/cqfmeasures/StructureDefinition/cqfm-testCaseDescription","valueMarkdown":"Patient with confirmed COVID diagnosis and COVID related procedure\n"}],"modifierExtension":[{"url":"http://hl7.org/fhir/us/cqfmeasures/StructureDefinition/cqfm-isTestCase","valueBoolean":true}],"status":"complete","type":"individual","measure":"https://madie.cms.gov/Measure/SevereObstetricComplicationsFHIR","period":{"start":"2025-01-01","end":"2025-12-31"},"group":[{"population":[{"code":{"coding":[{"system":"http://terminology.hl7.org/CodeSystem/measure-population","code":"initial-population","display":"Initial Population"}]},"count":1},{"code":{"coding":[{"system":"http://terminology.hl7.org/CodeSystem/measure-population","code":"denominator","display":"Denominator"}]},"count":1},{"code":{"coding":[{"system":"http://terminology.hl7.org/CodeSystem/measure-population","code":"denominator-exclusion","display":"Denominator Exclusion"}]},"count":1},{"code":{"coding":[{"system":"http://terminology.hl7.org/CodeSystem/measure-population","code":"numerator","display":"Numerator"}]},"count":0},{"code":{"coding":[{"system":"http://terminology.hl7.org/CodeSystem/measure-population","code":"numerator-exclusion","display":"Numerator Exclusion"}]},"count":0}]}]},"request":{"method":"PUT","url":"MeasureReport/a6400389-cdfc-4fc6-9cae-f3a87d57105f"}}]}