{"resourceType":"Bundle","id":"tests-76aeb357-2421-49ed-af1b-6a8b772b676c-bundle","type":"transaction","entry":[{"fullUrl":"https://madie.cms.gov/Patient/76aeb357-2421-49ed-af1b-6a8b772b676c","resource":{"resourceType":"Patient","id":"76aeb357-2421-49ed-af1b-6a8b772b676c","meta":{"profile":["http://hl7.org/fhir/us/qicore/StructureDefinition/qicore-patient"]},"extension":[{"url":"http://hl7.org/fhir/us/core/StructureDefinition/us-core-race","extension":[{"url":"ombCategory","valueCoding":{"system":"urn:oid:2.16.840.1.113883.6.238","code":"1002-5","display":"American Indian or Alaska Native","userSelected":true}},{"url":"text","valueString":"American Indian or Alaska Native"}]},{"url":"http://hl7.org/fhir/us/core/StructureDefinition/us-core-ethnicity","extension":[{"url":"ombCategory","valueCoding":{"system":"urn:oid:2.16.840.1.113883.6.238","code":"2135-2","display":"Hispanic or Latino","userSelected":true}},{"url":"text","valueString":"Hispanic or Latino"}]}],"identifier":[{"type":{"coding":[{"system":"http://terminology.hl7.org/CodeSystem/v2-0203","code":"MR"}]},"system":"https://bonnie-fhir.healthit.gov/","value":"63530b4c224f3b053967124f"}],"name":[{"family":"DENOMPass","given":["LastAssPrfEDDRelvTm42WksB4DELRsltDtTime "]}],"gender":"female","birthDate":"2000-02-01"},"request":{"method":"PUT","url":"Patient/76aeb357-2421-49ed-af1b-6a8b772b676c"}},{"fullUrl":"https://madie.cms.gov/Encounter/encounter-inpatient-1248","resource":{"resourceType":"Encounter","id":"e8620c69-655a-4fde-90d9-215b81f0c23b","meta":{"profile":["http://hl7.org/fhir/us/qicore/StructureDefinition/qicore-encounter"]},"status":"finished","class":{"system":"http://terminology.hl7.org/CodeSystem/v3-ActCode","code":"IMP","display":"inpatient encounter"},"type":[{"coding":[{"system":"http://snomed.info/sct","version":"2022-09","code":"183452005","display":"Emergency hospital admission (procedure)","userSelected":true}]}],"subject":{"reference":"Patient/76aeb357-2421-49ed-af1b-6a8b772b676c"},"period":{"start":"2025-01-30T08:00:00.000+00:00","end":"2025-02-05T08:15:00.000+00:00"}},"request":{"method":"PUT","url":"Encounter/e8620c69-655a-4fde-90d9-215b81f0c23b"}},{"fullUrl":"https://madie.cms.gov/Procedure/delivery-procedures-1249","resource":{"resourceType":"Procedure","id":"1f8caac1-1ada-477c-8d8f-dd26a53b40ff","meta":{"profile":["http://hl7.org/fhir/us/qicore/StructureDefinition/qicore-procedure"]},"extension":[{"url":"http://hl7.org/fhir/us/qicore/StructureDefinition/qicore-recorded","valueDateTime":"2013-04-05T09:35:00-04:00"}],"status":"completed","code":{"coding":[{"system":"http://snomed.info/sct","version":"2022-09","code":"10745001","display":"Delivery of transverse presentation (procedure)","userSelected":true}]},"subject":{"reference":"Patient/76aeb357-2421-49ed-af1b-6a8b772b676c"},"performedPeriod":{"start":"2025-02-01T08:00:00.000+00:00","end":"2025-02-05T08:15:00.000+00:00"}},"request":{"method":"PUT","url":"Procedure/1f8caac1-1ada-477c-8d8f-dd26a53b40ff"}},{"fullUrl":"https://madie.cms.gov/Observation/date-and-time-of-obstetric-delivery-124a","resource":{"resourceType":"Observation","id":"e02d19b7-142e-4f20-b274-df9bdb9cd36f","meta":{"profile":["http://hl7.org/fhir/us/qicore/StructureDefinition/qicore-observation"]},"status":"final","category":[{"coding":[{"system":"http://terminology.hl7.org/CodeSystem/observation-category","code":"exam","display":"exam","userSelected":true}]}],"code":{"coding":[{"system":"http://loinc.org","code":"93857-1","display":"Date and time of obstetric delivery","userSelected":true}]},"subject":{"reference":"Patient/76aeb357-2421-49ed-af1b-6a8b772b676c"},"effectiveDateTime":"2025-02-01T08:00:00.000+00:00","valueDateTime":"2025-02-01T08:00:00.000+00:00"},"request":{"method":"PUT","url":"Observation/e02d19b7-142e-4f20-b274-df9bdb9cd36f"}},{"fullUrl":"https://madie.cms.gov/Observation/delivery-date-estimated-124b","resource":{"resourceType":"Observation","id":"8eebed77-090a-48ca-889c-6f45daa44f24","meta":{"profile":["http://hl7.org/fhir/us/qicore/StructureDefinition/qicore-observation"]},"status":"final","category":[{"coding":[{"system":"http://terminology.hl7.org/CodeSystem/observation-category","code":"exam","display":"exam","userSelected":true}]}],"code":{"coding":[{"system":"http://loinc.org","code":"11778-8","display":"Delivery date Estimated","userSelected":true}]},"subject":{"reference":"Patient/76aeb357-2421-49ed-af1b-6a8b772b676c"},"effectiveDateTime":"2024-04-13T08:00:00.000+00:00","valueDateTime":"2025-02-01T08:00:00.000+00:00"},"request":{"method":"PUT","url":"Observation/8eebed77-090a-48ca-889c-6f45daa44f24"}},{"fullUrl":"https://madie.cms.gov/Coverage/1","resource":{"resourceType":"Coverage","id":"495b81a6-d238-4577-a709-011b27ff73c8","meta":{"profile":["http://hl7.org/fhir/us/qicore/StructureDefinition/qicore-coverage"]},"status":"active","beneficiary":{"reference":"Patient/76aeb357-2421-49ed-af1b-6a8b772b676c"},"payor":[{"reference":"Organization/77e4d06f-5e3c-436a-a598-80cefcca5028"}]},"request":{"method":"PUT","url":"Coverage/495b81a6-d238-4577-a709-011b27ff73c8"}},{"fullUrl":"https://madie.cms.gov/Organization/123456","resource":{"resourceType":"Organization","id":"77e4d06f-5e3c-436a-a598-80cefcca5028","meta":{"profile":["http://hl7.org/fhir/us/qicore/StructureDefinition/qicore-organization"]},"identifier":[{"use":"temp","system":"urn:oid:2.16.840.1.113883.4.4","value":"21-3259825"}],"active":true,"type":[{"coding":[{"system":"http://terminology.hl7.org/CodeSystem/organization-type","code":"pay","display":"Payer"}]}],"name":"Blue Cross Blue Shield of Texas","telecom":[{"system":"phone","value":"(+1) 972-766-6900"}],"address":[{"use":"billing","type":"postal","line":["P.O. Box 660044"],"city":"Dallas","state":"TX","postalCode":"75266-0044","country":"USA"}]},"request":{"method":"PUT","url":"Organization/77e4d06f-5e3c-436a-a598-80cefcca5028"}},{"fullUrl":"https://madie.cms.gov/Practitioner/practitioner-123456","resource":{"resourceType":"Practitioner","id":"223d486a-a661-42c3-93dc-f35d5b0276a8","identifier":[{"system":"http://hl7.org/fhir/sid/us-npi","value":"123456"}],"name":[{"family":"Evil","prefix":["Dr"]}]},"request":{"method":"PUT","url":"Practitioner/223d486a-a661-42c3-93dc-f35d5b0276a8"}},{"fullUrl":"https://madie.cms.gov/MeasureReport/9061eb74-3ae6-43c1-94ae-5c09b02b2e84","resource":{"resourceType":"MeasureReport","id":"9061eb74-3ae6-43c1-94ae-5c09b02b2e84","meta":{"profile":["http://hl7.org/fhir/us/cqfmeasures/StructureDefinition/test-case-cqfm"]},"contained":[{"resourceType":"Parameters","id":"14c2cd13-47aa-49a4-8ca7-7a0812f3d309-parameters","parameter":[{"name":"subject","valueString":"76aeb357-2421-49ed-af1b-6a8b772b676c"}]}],"extension":[{"url":"http://hl7.org/fhir/us/cqfmeasures/StructureDefinition/cqfm-inputParameters","valueReference":{"reference":"#14c2cd13-47aa-49a4-8ca7-7a0812f3d309-parameters"}},{"url":"http://hl7.org/fhir/us/cqfmeasures/StructureDefinition/cqfm-testCaseDescription","valueMarkdown":"Last assessment Performed, Estimated Delivery Date, Relevant time, 42 weeks before Delivery Result Date/Time\n"}],"modifierExtension":[{"url":"http://hl7.org/fhir/us/cqfmeasures/StructureDefinition/cqfm-isTestCase","valueBoolean":true}],"status":"complete","type":"individual","measure":"https://madie.cms.gov/Measure/SevereObstetricComplicationsFHIR","period":{"start":"2025-01-01","end":"2025-12-31"},"group":[{"population":[{"code":{"coding":[{"system":"http://terminology.hl7.org/CodeSystem/measure-population","code":"initial-population","display":"Initial Population"}]},"count":1},{"code":{"coding":[{"system":"http://terminology.hl7.org/CodeSystem/measure-population","code":"denominator","display":"Denominator"}]},"count":1},{"code":{"coding":[{"system":"http://terminology.hl7.org/CodeSystem/measure-population","code":"denominator-exclusion","display":"Denominator Exclusion"}]},"count":0},{"code":{"coding":[{"system":"http://terminology.hl7.org/CodeSystem/measure-population","code":"numerator","display":"Numerator"}]},"count":0},{"code":{"coding":[{"system":"http://terminology.hl7.org/CodeSystem/measure-population","code":"numerator-exclusion","display":"Numerator Exclusion"}]},"count":0}]}]},"request":{"method":"PUT","url":"MeasureReport/9061eb74-3ae6-43c1-94ae-5c09b02b2e84"}}]}