{"resourceType":"Bundle","id":"tests-971a20ab-c583-4260-954f-101d4b96554d-bundle","type":"transaction","entry":[{"fullUrl":"https://madie.cms.gov/Patient/971a20ab-c583-4260-954f-101d4b96554d","resource":{"resourceType":"Patient","id":"971a20ab-c583-4260-954f-101d4b96554d","meta":{"profile":["http://hl7.org/fhir/us/qicore/StructureDefinition/qicore-patient"]},"extension":[{"url":"http://hl7.org/fhir/us/core/StructureDefinition/us-core-race","extension":[{"url":"ombCategory","valueCoding":{"system":"urn:oid:2.16.840.1.113883.6.238","code":"1002-5","display":"American Indian or Alaska Native","userSelected":true}},{"url":"text","valueString":"American Indian or Alaska Native"}]},{"url":"http://hl7.org/fhir/us/core/StructureDefinition/us-core-ethnicity","extension":[{"url":"ombCategory","valueCoding":{"system":"urn:oid:2.16.840.1.113883.6.238","code":"2135-2","display":"Hispanic or Latino","userSelected":true}},{"url":"text","valueString":"Hispanic or Latino"}]}],"identifier":[{"type":{"coding":[{"system":"http://terminology.hl7.org/CodeSystem/v2-0203","code":"MR"}]},"system":"https://bonnie-fhir.healthit.gov/","value":"635300f1224f3b0539671247"}],"name":[{"family":"DENOMPass","given":["EDDDateOnly"]}],"gender":"female","birthDate":"2004-02-01"},"request":{"method":"PUT","url":"Patient/971a20ab-c583-4260-954f-101d4b96554d"}},{"fullUrl":"https://madie.cms.gov/Encounter/encounter-inpatient-1248","resource":{"resourceType":"Encounter","id":"dac41498-d696-4f91-8e8f-a21a39105220","meta":{"profile":["http://hl7.org/fhir/us/qicore/StructureDefinition/qicore-encounter"]},"status":"finished","class":{"system":"http://terminology.hl7.org/CodeSystem/v3-ActCode","code":"IMP","display":"inpatient encounter"},"type":[{"coding":[{"system":"http://snomed.info/sct","version":"2022-09","code":"183452005","display":"Emergency hospital admission (procedure)","userSelected":true}]}],"subject":{"reference":"Patient/971a20ab-c583-4260-954f-101d4b96554d"},"period":{"start":"2025-02-01T08:00:00.000+00:00","end":"2025-02-05T08:15:00.000+00:00"}},"request":{"method":"PUT","url":"Encounter/dac41498-d696-4f91-8e8f-a21a39105220"}},{"fullUrl":"https://madie.cms.gov/Procedure/delivery-procedures-1249","resource":{"resourceType":"Procedure","id":"d193b573-52f6-4652-9b32-077aa7131c64","meta":{"profile":["http://hl7.org/fhir/us/qicore/StructureDefinition/qicore-procedure"]},"extension":[{"url":"http://hl7.org/fhir/us/qicore/StructureDefinition/qicore-recorded","valueDateTime":"2013-04-05T09:35:00-04:00"}],"status":"completed","code":{"coding":[{"system":"http://snomed.info/sct","version":"2022-09","code":"10745001","display":"Delivery of transverse presentation (procedure)","userSelected":true}]},"subject":{"reference":"Patient/971a20ab-c583-4260-954f-101d4b96554d"},"performedPeriod":{"start":"2025-02-01T08:00:00.000+00:00","end":"2025-02-05T08:15:00.000+00:00"}},"request":{"method":"PUT","url":"Procedure/d193b573-52f6-4652-9b32-077aa7131c64"}},{"fullUrl":"https://madie.cms.gov/Observation/date-and-time-of-obstetric-delivery-124a","resource":{"resourceType":"Observation","id":"01b701b3-25bb-424d-994e-704e20bf8c07","meta":{"profile":["http://hl7.org/fhir/us/qicore/StructureDefinition/qicore-observation"]},"status":"final","category":[{"coding":[{"system":"http://terminology.hl7.org/CodeSystem/observation-category","code":"exam","display":"exam","userSelected":true}]}],"code":{"coding":[{"system":"http://loinc.org","code":"93857-1","display":"Date and time of obstetric delivery","userSelected":true}]},"subject":{"reference":"Patient/971a20ab-c583-4260-954f-101d4b96554d"},"effectiveDateTime":"2025-02-01T08:00:00.000+00:00","valueDateTime":"2025-02-01T08:00:00.000+00:00"},"request":{"method":"PUT","url":"Observation/01b701b3-25bb-424d-994e-704e20bf8c07"}},{"fullUrl":"https://madie.cms.gov/Observation/delivery-date-estimated-124b","resource":{"resourceType":"Observation","id":"de585cd6-0ecc-4a43-a51c-bf2e81913479","meta":{"profile":["http://hl7.org/fhir/us/qicore/StructureDefinition/qicore-observation"]},"status":"final","category":[{"coding":[{"system":"http://terminology.hl7.org/CodeSystem/observation-category","code":"exam","display":"exam","userSelected":true}]}],"code":{"coding":[{"system":"http://loinc.org","code":"11778-8","display":"Delivery date Estimated","userSelected":true}]},"subject":{"reference":"Patient/971a20ab-c583-4260-954f-101d4b96554d"},"effectiveDateTime":"2025-01-31T08:00:00.000+00:00","valueDateTime":"2025-01-31"},"request":{"method":"PUT","url":"Observation/de585cd6-0ecc-4a43-a51c-bf2e81913479"}},{"fullUrl":"https://madie.cms.gov/Coverage/1","resource":{"resourceType":"Coverage","id":"539a6e14-73f7-4d8c-9ac6-975e65b0f356","meta":{"profile":["http://hl7.org/fhir/us/qicore/StructureDefinition/qicore-coverage"]},"status":"active","beneficiary":{"reference":"Patient/971a20ab-c583-4260-954f-101d4b96554d"},"payor":[{"reference":"Organization/9e9b3f13-a353-4173-b29b-947d6f1f2031"}]},"request":{"method":"PUT","url":"Coverage/539a6e14-73f7-4d8c-9ac6-975e65b0f356"}},{"fullUrl":"https://madie.cms.gov/Organization/123456","resource":{"resourceType":"Organization","id":"9e9b3f13-a353-4173-b29b-947d6f1f2031","meta":{"profile":["http://hl7.org/fhir/us/qicore/StructureDefinition/qicore-organization"]},"identifier":[{"use":"temp","system":"urn:oid:2.16.840.1.113883.4.4","value":"21-3259825"}],"active":true,"type":[{"coding":[{"system":"http://terminology.hl7.org/CodeSystem/organization-type","code":"pay","display":"Payer"}]}],"name":"Blue Cross Blue Shield of Texas","telecom":[{"system":"phone","value":"(+1) 972-766-6900"}],"address":[{"use":"billing","type":"postal","line":["P.O. Box 660044"],"city":"Dallas","state":"TX","postalCode":"75266-0044","country":"USA"}]},"request":{"method":"PUT","url":"Organization/9e9b3f13-a353-4173-b29b-947d6f1f2031"}},{"fullUrl":"https://madie.cms.gov/Practitioner/practitioner-123456","resource":{"resourceType":"Practitioner","id":"fdefe268-a8ce-4daa-8598-d765fec38869","identifier":[{"system":"http://hl7.org/fhir/sid/us-npi","value":"123456"}],"name":[{"family":"Evil","prefix":["Dr"]}]},"request":{"method":"PUT","url":"Practitioner/fdefe268-a8ce-4daa-8598-d765fec38869"}},{"fullUrl":"https://madie.cms.gov/MeasureReport/32532c7c-684a-4611-bc9a-9926c5422c8d","resource":{"resourceType":"MeasureReport","id":"32532c7c-684a-4611-bc9a-9926c5422c8d","meta":{"profile":["http://hl7.org/fhir/us/cqfmeasures/StructureDefinition/test-case-cqfm"]},"contained":[{"resourceType":"Parameters","id":"930d110b-c106-4396-9451-566aa93da7a1-parameters","parameter":[{"name":"subject","valueString":"971a20ab-c583-4260-954f-101d4b96554d"}]}],"extension":[{"url":"http://hl7.org/fhir/us/cqfmeasures/StructureDefinition/cqfm-inputParameters","valueReference":{"reference":"#930d110b-c106-4396-9451-566aa93da7a1-parameters"}},{"url":"http://hl7.org/fhir/us/cqfmeasures/StructureDefinition/cqfm-testCaseDescription","valueMarkdown":"Last assessment Performed, Estimated Delivery Date, Relevant time, 24 hours 1 min before Delivery Result Date/Time.  EDD has date only\n"}],"modifierExtension":[{"url":"http://hl7.org/fhir/us/cqfmeasures/StructureDefinition/cqfm-isTestCase","valueBoolean":true}],"status":"complete","type":"individual","measure":"https://madie.cms.gov/Measure/SevereObstetricComplicationsFHIR","period":{"start":"2025-01-01","end":"2025-12-31"},"group":[{"population":[{"code":{"coding":[{"system":"http://terminology.hl7.org/CodeSystem/measure-population","code":"initial-population","display":"Initial Population"}]},"count":1},{"code":{"coding":[{"system":"http://terminology.hl7.org/CodeSystem/measure-population","code":"denominator","display":"Denominator"}]},"count":1},{"code":{"coding":[{"system":"http://terminology.hl7.org/CodeSystem/measure-population","code":"denominator-exclusion","display":"Denominator Exclusion"}]},"count":0},{"code":{"coding":[{"system":"http://terminology.hl7.org/CodeSystem/measure-population","code":"numerator","display":"Numerator"}]},"count":0},{"code":{"coding":[{"system":"http://terminology.hl7.org/CodeSystem/measure-population","code":"numerator-exclusion","display":"Numerator Exclusion"}]},"count":0}]}]},"request":{"method":"PUT","url":"MeasureReport/32532c7c-684a-4611-bc9a-9926c5422c8d"}}]}