{"resourceType":"Bundle","id":"tests-bec38daa-8a0d-435d-95e7-05ad5af182f6-bundle","type":"transaction","entry":[{"fullUrl":"https://madie.cms.gov/Patient/bec38daa-8a0d-435d-95e7-05ad5af182f6","resource":{"resourceType":"Patient","id":"bec38daa-8a0d-435d-95e7-05ad5af182f6","meta":{"profile":["http://hl7.org/fhir/us/qicore/StructureDefinition/qicore-patient"]},"text":{"status":"generated","div":"<div xmlns=\"http://www.w3.org/1999/xhtml\"><div class=\"hapiHeaderText\">CalcAndEGA19WksDxCode20Weeks  <b>DENOMFAIL </b></div><table class=\"hapiPropertyTable\"><tbody><tr><td>Date of birth</td><td><span>01 February 2004</span></td></tr></tbody></table></div>"},"extension":[{"url":"http://hl7.org/fhir/us/core/StructureDefinition/us-core-race","extension":[{"url":"ombCategory","valueCoding":{"system":"urn:oid:2.16.840.1.113883.6.238","code":"1002-5","display":"American Indian or Alaska Native","userSelected":true}},{"url":"text","valueString":"American Indian or Alaska Native"}]},{"url":"http://hl7.org/fhir/us/core/StructureDefinition/us-core-ethnicity","extension":[{"url":"ombCategory","valueCoding":{"system":"urn:oid:2.16.840.1.113883.6.238","code":"2135-2","display":"Hispanic or Latino","userSelected":true}},{"url":"text","valueString":"Hispanic or Latino"}]}],"identifier":[{"type":{"coding":[{"system":"http://terminology.hl7.org/CodeSystem/v2-0203","code":"MR"}]},"system":"https://bonnie-fhir.healthit.gov/","value":"6356d03854e383debade759e"}],"active":true,"name":[{"use":"usual","family":"DENOMFail","given":["CalcAndEGA19WksDxCode20Weeks "]}],"gender":"female","birthDate":"2004-02-01"},"request":{"method":"PUT","url":"Patient/bec38daa-8a0d-435d-95e7-05ad5af182f6"}},{"fullUrl":"https://madie.cms.gov/Observation/5f32bf4551476200007ab6d3","resource":{"resourceType":"Observation","id":"26cf6313-eedd-44a4-8b44-12a9e6bec156","meta":{"profile":["http://hl7.org/fhir/us/qicore/StructureDefinition/qicore-observation"]},"status":"final","category":[{"coding":[{"system":"http://terminology.hl7.org/CodeSystem/observation-category","code":"exam","display":"exam","userSelected":true}]}],"code":{"coding":[{"system":"http://loinc.org","code":"11884-4"}]},"subject":{"reference":"Patient/bec38daa-8a0d-435d-95e7-05ad5af182f6"},"effectiveDateTime":"2025-01-15T08:00:00.000+00:00","valueQuantity":{"value":19.0,"unit":"wk"}},"request":{"method":"PUT","url":"Observation/26cf6313-eedd-44a4-8b44-12a9e6bec156"}},{"fullUrl":"https://madie.cms.gov/Observation/5f29baa26f0b7100008d8af1","resource":{"resourceType":"Observation","id":"f8328280-80e6-45d9-b442-6636ae32a246","meta":{"profile":["http://hl7.org/fhir/us/qicore/StructureDefinition/qicore-observation"]},"status":"final","category":[{"coding":[{"system":"http://terminology.hl7.org/CodeSystem/observation-category","code":"exam","display":"exam","userSelected":true}]}],"code":{"coding":[{"system":"http://loinc.org","code":"93857-1"}]},"subject":{"reference":"Patient/bec38daa-8a0d-435d-95e7-05ad5af182f6"},"effectiveDateTime":"2025-01-15T08:00:00.000+00:00","valueDateTime":"2025-01-15T08:00:00.000+00:00"},"request":{"method":"PUT","url":"Observation/f8328280-80e6-45d9-b442-6636ae32a246"}},{"fullUrl":"https://madie.cms.gov/Encounter/5f21e66daca3e40000cb86cf","resource":{"resourceType":"Encounter","id":"2194ad3f-21e3-4bae-9f4d-bb79c51d5064","meta":{"profile":["http://hl7.org/fhir/us/qicore/StructureDefinition/qicore-encounter"]},"status":"finished","class":{"system":"http://terminology.hl7.org/CodeSystem/v3-ActCode","code":"IMP","display":"inpatient encounter"},"type":[{"coding":[{"system":"http://snomed.info/sct","code":"183452005"}]}],"subject":{"reference":"Patient/bec38daa-8a0d-435d-95e7-05ad5af182f6"},"period":{"start":"2025-01-01T08:00:00.000Z","end":"2025-02-05T08:15:00.000Z"},"diagnosis":[{"condition":{"reference":"Condition/20-TO-42-Plus-Weeks-Gestation-19-75a0"}}]},"request":{"method":"PUT","url":"Encounter/2194ad3f-21e3-4bae-9f4d-bb79c51d5064"}},{"fullUrl":"https://madie.cms.gov/Observation/5f2b21b26f0b7100008d9986","resource":{"resourceType":"Observation","id":"701d8f00-32b0-453f-b23d-223ae5c3ffc7","meta":{"profile":["http://hl7.org/fhir/us/qicore/StructureDefinition/qicore-observation"]},"status":"final","category":[{"coding":[{"system":"http://terminology.hl7.org/CodeSystem/observation-category","code":"exam","display":"exam","userSelected":true}]}],"code":{"coding":[{"system":"http://loinc.org","code":"11778-8"}]},"subject":{"reference":"Patient/bec38daa-8a0d-435d-95e7-05ad5af182f6"},"effectiveDateTime":"2025-01-15T08:00:00.000+00:00","valueDateTime":"2025-06-05T08:00:00.000+00:00"},"request":{"method":"PUT","url":"Observation/701d8f00-32b0-453f-b23d-223ae5c3ffc7"}},{"fullUrl":"https://madie.cms.gov/Procedure/5f21e716aca3e40000cb87ee","resource":{"resourceType":"Procedure","id":"56e84c38-de43-4f8f-bed4-e11f2bb6813a","meta":{"profile":["http://hl7.org/fhir/us/qicore/StructureDefinition/qicore-procedure"]},"extension":[{"url":"http://hl7.org/fhir/us/qicore/StructureDefinition/qicore-recorded","valueDateTime":"2013-04-05T09:35:00-04:00"}],"status":"completed","code":{"coding":[{"system":"http://snomed.info/sct","code":"10745001"}]},"subject":{"reference":"Patient/bec38daa-8a0d-435d-95e7-05ad5af182f6"},"performedPeriod":{"start":"2025-01-01T08:00:00.000Z","end":"2025-01-01T08:15:00.000Z"}},"request":{"method":"PUT","url":"Procedure/56e84c38-de43-4f8f-bed4-e11f2bb6813a"}},{"fullUrl":"https://madie.cms.gov/Condition/20-TO-42-Plus-Weeks-Gestation-19-75a0","resource":{"resourceType":"Condition","id":"b922126a-3faf-4ddc-9124-416555b7eb79","meta":{"profile":["http://hl7.org/fhir/us/qicore/StructureDefinition/qicore-condition"]},"category":[{"coding":[{"system":"http://terminology.hl7.org/CodeSystem/condition-category","code":"encounter-diagnosis","display":"Encounter Diagnosis"}]}],"code":{"coding":[{"system":"http://snomed.info/sct","version":"2024-03","code":"23464008","display":"Gestation period, 20 weeks","userSelected":true}]},"subject":{"reference":"Patient/bec38daa-8a0d-435d-95e7-05ad5af182f6"},"recordedDate":"2025-10-24T08:00:00.000+00:00"},"request":{"method":"PUT","url":"Condition/b922126a-3faf-4ddc-9124-416555b7eb79"}},{"fullUrl":"https://madie.cms.gov/Coverage/1","resource":{"resourceType":"Coverage","id":"ff7fef2f-5d44-48ca-b3cd-4377f5d573b3","meta":{"profile":["http://hl7.org/fhir/us/qicore/StructureDefinition/qicore-coverage"]},"status":"active","beneficiary":{"reference":"Patient/bec38daa-8a0d-435d-95e7-05ad5af182f6"},"payor":[{"reference":"Organization/3778262e-e084-4bb5-9a47-1a144735f786"}]},"request":{"method":"PUT","url":"Coverage/ff7fef2f-5d44-48ca-b3cd-4377f5d573b3"}},{"fullUrl":"https://madie.cms.gov/Organization/123456","resource":{"resourceType":"Organization","id":"3778262e-e084-4bb5-9a47-1a144735f786","meta":{"profile":["http://hl7.org/fhir/us/qicore/StructureDefinition/qicore-organization"]},"identifier":[{"use":"temp","system":"urn:oid:2.16.840.1.113883.4.4","value":"21-3259825"}],"active":true,"type":[{"coding":[{"system":"http://terminology.hl7.org/CodeSystem/organization-type","code":"pay","display":"Payer"}]}],"name":"Blue Cross Blue Shield of Texas","telecom":[{"system":"phone","value":"(+1) 972-766-6900"}],"address":[{"use":"billing","type":"postal","line":["P.O. Box 660044"],"city":"Dallas","state":"TX","postalCode":"75266-0044","country":"USA"}]},"request":{"method":"PUT","url":"Organization/3778262e-e084-4bb5-9a47-1a144735f786"}},{"fullUrl":"https://madie.cms.gov/Practitioner/practitioner-123456","resource":{"resourceType":"Practitioner","id":"75e6e4fc-bab6-4932-b27c-d932e2db8826","identifier":[{"system":"http://hl7.org/fhir/sid/us-npi","value":"123456"}],"name":[{"family":"Evil","prefix":["Dr"]}]},"request":{"method":"PUT","url":"Practitioner/75e6e4fc-bab6-4932-b27c-d932e2db8826"}},{"fullUrl":"https://madie.cms.gov/MeasureReport/63080855-a1aa-4dcc-99a1-bf7b142d10a3","resource":{"resourceType":"MeasureReport","id":"63080855-a1aa-4dcc-99a1-bf7b142d10a3","meta":{"profile":["http://hl7.org/fhir/us/cqfmeasures/StructureDefinition/test-case-cqfm"]},"contained":[{"resourceType":"Parameters","id":"e9a0b663-f2f6-4a7e-9bb5-fc1c7624f8d8-parameters","parameter":[{"name":"subject","valueString":"bec38daa-8a0d-435d-95e7-05ad5af182f6"}]}],"extension":[{"url":"http://hl7.org/fhir/us/cqfmeasures/StructureDefinition/cqfm-inputParameters","valueReference":{"reference":"#e9a0b663-f2f6-4a7e-9bb5-fc1c7624f8d8-parameters"}},{"url":"http://hl7.org/fhir/us/cqfmeasures/StructureDefinition/cqfm-testCaseDescription","valueMarkdown":"Calculated and Estimated GA  = 19 weeks.  Diagnosis code = 20 weeks.  Denom fails based on hierarchy.\n"}],"modifierExtension":[{"url":"http://hl7.org/fhir/us/cqfmeasures/StructureDefinition/cqfm-isTestCase","valueBoolean":true}],"status":"complete","type":"individual","measure":"https://madie.cms.gov/Measure/SevereObstetricComplicationsFHIR","period":{"start":"2025-01-01","end":"2025-12-31"},"group":[{"population":[{"code":{"coding":[{"system":"http://terminology.hl7.org/CodeSystem/measure-population","code":"initial-population","display":"Initial Population"}]},"count":1},{"code":{"coding":[{"system":"http://terminology.hl7.org/CodeSystem/measure-population","code":"denominator","display":"Denominator"}]},"count":0},{"code":{"coding":[{"system":"http://terminology.hl7.org/CodeSystem/measure-population","code":"denominator-exclusion","display":"Denominator Exclusion"}]},"count":0},{"code":{"coding":[{"system":"http://terminology.hl7.org/CodeSystem/measure-population","code":"numerator","display":"Numerator"}]},"count":0},{"code":{"coding":[{"system":"http://terminology.hl7.org/CodeSystem/measure-population","code":"numerator-exclusion","display":"Numerator Exclusion"}]},"count":0}]}]},"request":{"method":"PUT","url":"MeasureReport/63080855-a1aa-4dcc-99a1-bf7b142d10a3"}}]}