{"resourceType":"Bundle","id":"tests-d128dd74-b827-4442-99d6-d9437ad09e07-bundle","type":"transaction","entry":[{"fullUrl":"https://madie.cms.gov/Patient/d128dd74-b827-4442-99d6-d9437ad09e07","resource":{"resourceType":"Patient","id":"d128dd74-b827-4442-99d6-d9437ad09e07","meta":{"profile":["http://hl7.org/fhir/us/qicore/StructureDefinition/qicore-patient"]},"text":{"status":"generated","div":"<div xmlns=\"http://www.w3.org/1999/xhtml\"><div class=\"hapiHeaderText\">2HCT1stMeets2ndDoesNot <b>RISKPass </b></div><table class=\"hapiPropertyTable\"><tbody><tr><td>Date of birth</td><td><span>01 February 2004</span></td></tr></tbody></table></div>"},"extension":[{"url":"http://hl7.org/fhir/us/core/StructureDefinition/us-core-race","extension":[{"url":"ombCategory","valueCoding":{"system":"urn:oid:2.16.840.1.113883.6.238","code":"1002-5","display":"American Indian or Alaska Native","userSelected":true}},{"url":"text","valueString":"American Indian or Alaska Native"}]},{"url":"http://hl7.org/fhir/us/core/StructureDefinition/us-core-ethnicity","extension":[{"url":"ombCategory","valueCoding":{"system":"urn:oid:2.16.840.1.113883.6.238","code":"2135-2","display":"Hispanic or Latino","userSelected":true}},{"url":"text","valueString":"Hispanic or Latino"}]}],"identifier":[{"type":{"coding":[{"system":"http://terminology.hl7.org/CodeSystem/v2-0203","code":"MR"}]},"system":"https://bonnie-fhir.healthit.gov/","value":"6359776b6aee9629c8298235"}],"active":true,"name":[{"use":"usual","family":"RiskPass","given":["2HCT1stMeets2ndDoesNot"]}],"gender":"female","birthDate":"2004-02-01"},"request":{"method":"PUT","url":"Patient/d128dd74-b827-4442-99d6-d9437ad09e07"}},{"fullUrl":"https://madie.cms.gov/Observation/5f29baa26f0b7100008d8af1","resource":{"resourceType":"Observation","id":"6b351b25-20d2-4f50-9b71-5cbae25eccbb","meta":{"profile":["http://hl7.org/fhir/us/qicore/StructureDefinition/qicore-observation"]},"status":"final","category":[{"coding":[{"system":"http://terminology.hl7.org/CodeSystem/observation-category","code":"exam","display":"exam","userSelected":true}]}],"code":{"coding":[{"system":"http://loinc.org","code":"93857-1"}]},"subject":{"reference":"Patient/d128dd74-b827-4442-99d6-d9437ad09e07"},"effectiveDateTime":"2025-02-01T08:00:00.000+00:00","valueDateTime":"2025-02-01T08:00:00+00:00"},"request":{"method":"PUT","url":"Observation/6b351b25-20d2-4f50-9b71-5cbae25eccbb"}},{"fullUrl":"https://madie.cms.gov/Observation/5f32bf4551476200007ab6d3","resource":{"resourceType":"Observation","id":"532ae2c6-be86-400c-bd9c-4a64d2ffef4d","meta":{"profile":["http://hl7.org/fhir/us/qicore/StructureDefinition/qicore-observation"]},"status":"final","category":[{"coding":[{"system":"http://terminology.hl7.org/CodeSystem/observation-category","code":"exam","display":"exam","userSelected":true}]}],"code":{"coding":[{"system":"http://loinc.org","code":"11884-4"}]},"subject":{"reference":"Patient/d128dd74-b827-4442-99d6-d9437ad09e07"},"effectiveDateTime":"2025-02-01T08:00:00.000+00:00","valueQuantity":{"value":21.0,"system":"http://unitsofmeasure.org","code":"wk"}},"request":{"method":"PUT","url":"Observation/532ae2c6-be86-400c-bd9c-4a64d2ffef4d"}},{"fullUrl":"https://madie.cms.gov/Encounter/5f21e66daca3e40000cb86cf","resource":{"resourceType":"Encounter","id":"4f9ab90d-fbbf-4e05-a9cc-c994bcba4c96","meta":{"profile":["http://hl7.org/fhir/us/qicore/StructureDefinition/qicore-encounter"]},"status":"finished","class":{"system":"http://terminology.hl7.org/CodeSystem/v3-ActCode","code":"IMP","display":"inpatient encounter"},"type":[{"coding":[{"system":"http://snomed.info/sct","code":"183452005"}]}],"subject":{"reference":"Patient/d128dd74-b827-4442-99d6-d9437ad09e07"},"period":{"start":"2025-02-01T08:00:00.000Z","end":"2025-02-05T08:15:00.000Z"}},"request":{"method":"PUT","url":"Encounter/4f9ab90d-fbbf-4e05-a9cc-c994bcba4c96"}},{"fullUrl":"https://madie.cms.gov/Encounter/6001e814bd87590000ceb183","resource":{"resourceType":"Encounter","id":"aba4f23d-7a08-4d34-98fb-45cd373cefef","meta":{"profile":["http://hl7.org/fhir/us/qicore/StructureDefinition/qicore-encounter"]},"status":"finished","class":{"system":"http://terminology.hl7.org/CodeSystem/v3-ActCode","code":"EMER","display":"emergency"},"type":[{"coding":[{"system":"http://snomed.info/sct","code":"4525004"}]}],"subject":{"reference":"Patient/d128dd74-b827-4442-99d6-d9437ad09e07"},"period":{"start":"2025-02-01T07:00:00.000Z","end":"2025-02-01T07:59:00.000Z"}},"request":{"method":"PUT","url":"Encounter/aba4f23d-7a08-4d34-98fb-45cd373cefef"}},{"fullUrl":"https://madie.cms.gov/Procedure/5f21e716aca3e40000cb87ee","resource":{"resourceType":"Procedure","id":"5adcd12f-1244-4b7e-ad27-b6fb0a0e20c4","meta":{"profile":["http://hl7.org/fhir/us/qicore/StructureDefinition/qicore-procedure"]},"extension":[{"url":"http://hl7.org/fhir/us/qicore/StructureDefinition/qicore-recorded","valueDateTime":"2025-02-04T09:35:00-04:00"}],"status":"completed","code":{"coding":[{"system":"http://snomed.info/sct","code":"10745001"}]},"subject":{"reference":"Patient/d128dd74-b827-4442-99d6-d9437ad09e07"},"performedPeriod":{"start":"2025-02-01T08:00:00.000Z","end":"2025-02-05T08:15:00.000Z"}},"request":{"method":"PUT","url":"Procedure/5adcd12f-1244-4b7e-ad27-b6fb0a0e20c4"}},{"fullUrl":"https://madie.cms.gov/Observation/hematocrit-count-lab-test-8236","resource":{"resourceType":"Observation","id":"0e84e439-455d-4d46-8b43-00b87e59bca8","meta":{"profile":["http://hl7.org/fhir/us/core/StructureDefinition/us-core-observation-lab"]},"status":"final","category":[{"coding":[{"system":"http://terminology.hl7.org/CodeSystem/observation-category","code":"laboratory","display":"laboratory","userSelected":true}]}],"code":{"coding":[{"system":"http://loinc.org","version":"2.73","code":"20570-8","display":"Hematocrit [Volume Fraction] in Blood","userSelected":true}]},"subject":{"reference":"Patient/d128dd74-b827-4442-99d6-d9437ad09e07"},"effectiveDateTime":"2025-02-01T07:59:00.000+00:00","issued":"2025-02-01T07:59:00.000+00:00","valueQuantity":{"value":20,"unit":"%"}},"request":{"method":"PUT","url":"Observation/0e84e439-455d-4d46-8b43-00b87e59bca8"}},{"fullUrl":"https://madie.cms.gov/Observation/hematocrit-count-lab-test-8236-b","resource":{"resourceType":"Observation","id":"31563e4b-ea37-4648-b128-db2987fc0176","meta":{"profile":["http://hl7.org/fhir/us/core/StructureDefinition/us-core-observation-lab"]},"status":"final","category":[{"coding":[{"system":"http://terminology.hl7.org/CodeSystem/observation-category","code":"laboratory","display":"laboratory","userSelected":true}]}],"code":{"coding":[{"system":"http://loinc.org","version":"2.73","code":"20570-8","display":"Hematocrit [Volume Fraction] in Blood","userSelected":true}]},"subject":{"reference":"Patient/d128dd74-b827-4442-99d6-d9437ad09e07"},"effectiveDateTime":"2025-02-01T07:59:00.000+00:00","issued":"2025-02-01T08:00:00.000+00:00","valueQuantity":{"value":20,"unit":"%"}},"request":{"method":"PUT","url":"Observation/31563e4b-ea37-4648-b128-db2987fc0176"}},{"fullUrl":"https://madie.cms.gov/MeasureReport/7c2a6daf-aad2-4a98-9d3e-675e37d06c05","resource":{"resourceType":"MeasureReport","id":"7c2a6daf-aad2-4a98-9d3e-675e37d06c05","meta":{"profile":["http://hl7.org/fhir/us/cqfmeasures/StructureDefinition/test-case-cqfm"]},"contained":[{"resourceType":"Parameters","id":"bc4e6594-9446-43ac-8552-b4d5048ef07e-parameters","parameter":[{"name":"subject","valueString":"d128dd74-b827-4442-99d6-d9437ad09e07"}]}],"extension":[{"url":"http://hl7.org/fhir/us/cqfmeasures/StructureDefinition/cqfm-inputParameters","valueReference":{"reference":"#bc4e6594-9446-43ac-8552-b4d5048ef07e-parameters"}},{"url":"http://hl7.org/fhir/us/cqfmeasures/StructureDefinition/cqfm-testCaseDescription","valueMarkdown":"Patient with 2 hematocrits during encounter.  1st one meets timing parameter, second does not.\n"}],"modifierExtension":[{"url":"http://hl7.org/fhir/us/cqfmeasures/StructureDefinition/cqfm-isTestCase","valueBoolean":true}],"status":"complete","type":"individual","measure":"https://madie.cms.gov/Measure/SevereObstetricComplicationsFHIR","period":{"start":"2025-01-01","end":"2025-12-31"},"group":[{"population":[{"code":{"coding":[{"system":"http://terminology.hl7.org/CodeSystem/measure-population","code":"initial-population","display":"Initial Population"}]},"count":1},{"code":{"coding":[{"system":"http://terminology.hl7.org/CodeSystem/measure-population","code":"denominator","display":"Denominator"}]},"count":1},{"code":{"coding":[{"system":"http://terminology.hl7.org/CodeSystem/measure-population","code":"denominator-exclusion","display":"Denominator Exclusion"}]},"count":0},{"code":{"coding":[{"system":"http://terminology.hl7.org/CodeSystem/measure-population","code":"numerator","display":"Numerator"}]},"count":0},{"code":{"coding":[{"system":"http://terminology.hl7.org/CodeSystem/measure-population","code":"numerator-exclusion","display":"Numerator Exclusion"}]},"count":0}]}]},"request":{"method":"PUT","url":"MeasureReport/7c2a6daf-aad2-4a98-9d3e-675e37d06c05"}}]}