{"resourceType":"Bundle","id":"tests-e0935b52-8ecc-4269-a87c-20055b6fd9e3-bundle","type":"transaction","entry":[{"fullUrl":"https://madie.cms.gov/Patient/e0935b52-8ecc-4269-a87c-20055b6fd9e3","resource":{"resourceType":"Patient","id":"e0935b52-8ecc-4269-a87c-20055b6fd9e3","meta":{"profile":["http://hl7.org/fhir/us/qicore/StructureDefinition/qicore-patient"]},"text":{"status":"generated","div":"<div xmlns=\"http://www.w3.org/1999/xhtml\"><div class=\"hapiHeaderText\">RISKHRRelDtTimeEQDelStartless1Min <b>RISKPass </b></div><table class=\"hapiPropertyTable\"><tbody><tr><td>Date of birth</td><td><span>01 February 2004</span></td></tr></tbody></table></div>"},"extension":[{"url":"http://hl7.org/fhir/us/core/StructureDefinition/us-core-race","extension":[{"url":"ombCategory","valueCoding":{"system":"urn:oid:2.16.840.1.113883.6.238","code":"1002-5","display":"American Indian or Alaska Native","userSelected":true}},{"url":"text","valueString":"American Indian or Alaska Native"}]},{"url":"http://hl7.org/fhir/us/core/StructureDefinition/us-core-ethnicity","extension":[{"url":"ombCategory","valueCoding":{"system":"urn:oid:2.16.840.1.113883.6.238","code":"2135-2","display":"Hispanic or Latino","userSelected":true}},{"url":"text","valueString":"Hispanic or Latino"}]}],"identifier":[{"type":{"coding":[{"system":"http://terminology.hl7.org/CodeSystem/v2-0203","code":"MR"}]},"system":"https://bonnie-fhir.healthit.gov/","value":"63598dd9c35f1c19df09adbd"}],"active":true,"name":[{"use":"usual","family":"RiskPass","given":["RISKHRRelDtTimeEQDelStartless1Min"]}],"gender":"female","birthDate":"2004-02-01"},"request":{"method":"PUT","url":"Patient/e0935b52-8ecc-4269-a87c-20055b6fd9e3"}},{"fullUrl":"https://madie.cms.gov/Observation/5f29baa26f0b7100008d8af1","resource":{"resourceType":"Observation","id":"34f20e52-e8e7-4bbe-9921-52f5219f8ea9","meta":{"profile":["http://hl7.org/fhir/us/qicore/StructureDefinition/qicore-observation"]},"status":"final","category":[{"coding":[{"system":"http://terminology.hl7.org/CodeSystem/observation-category","code":"exam","display":"exam","userSelected":true}]}],"code":{"coding":[{"system":"http://loinc.org","code":"93857-1"}]},"subject":{"reference":"Patient/e0935b52-8ecc-4269-a87c-20055b6fd9e3"},"effectiveDateTime":"2025-02-01T08:00:00.000+00:00","valueDateTime":"2025-02-01T08:00:00+00:00"},"request":{"method":"PUT","url":"Observation/34f20e52-e8e7-4bbe-9921-52f5219f8ea9"}},{"fullUrl":"https://madie.cms.gov/Observation/5f32bf4551476200007ab6d3","resource":{"resourceType":"Observation","id":"77683e02-15e7-4bdd-80ff-90ac1f9a6c68","meta":{"profile":["http://hl7.org/fhir/us/qicore/StructureDefinition/qicore-observation"]},"status":"final","category":[{"coding":[{"system":"http://terminology.hl7.org/CodeSystem/observation-category","code":"exam","display":"exam","userSelected":true}]}],"code":{"coding":[{"system":"http://loinc.org","code":"11884-4"}]},"subject":{"reference":"Patient/e0935b52-8ecc-4269-a87c-20055b6fd9e3"},"effectiveDateTime":"2025-02-01T08:00:00.000+00:00","valueQuantity":{"value":21,"system":"http://unitsofmeasure.org","code":"wk"}},"request":{"method":"PUT","url":"Observation/77683e02-15e7-4bdd-80ff-90ac1f9a6c68"}},{"fullUrl":"https://madie.cms.gov/Encounter/5f21e66daca3e40000cb86cg","resource":{"resourceType":"Encounter","id":"b10b6b04-774b-467e-a42a-d1abdcae242b","meta":{"profile":["http://hl7.org/fhir/us/qicore/StructureDefinition/qicore-encounter"]},"status":"finished","class":{"system":"http://terminology.hl7.org/CodeSystem/v3-ActCode","code":"IMP","display":"inpatient encounter"},"type":[{"coding":[{"system":"http://snomed.info/sct","code":"183452005"}]}],"subject":{"reference":"Patient/e0935b52-8ecc-4269-a87c-20055b6fd9e3"},"period":{"start":"2025-02-01T08:00:00.000+00:00","end":"2025-02-05T08:15:00.000+00:00"}},"request":{"method":"PUT","url":"Encounter/b10b6b04-774b-467e-a42a-d1abdcae242b"}},{"fullUrl":"https://madie.cms.gov/Encounter/6001e814bd87590000ceb183","resource":{"resourceType":"Encounter","id":"85c9ad46-1857-48cd-aa72-c8424e082b5c","meta":{"profile":["http://hl7.org/fhir/us/qicore/StructureDefinition/qicore-encounter"]},"status":"finished","class":{"system":"http://terminology.hl7.org/CodeSystem/v3-ActCode","code":"EMER","display":"emergency"},"type":[{"coding":[{"system":"http://snomed.info/sct","code":"4525004"}]}],"subject":{"reference":"Patient/e0935b52-8ecc-4269-a87c-20055b6fd9e3"},"period":{"start":"2025-02-01T07:00:00.000+00:00","end":"2025-02-01T07:59:00.000+00:00"}},"request":{"method":"PUT","url":"Encounter/85c9ad46-1857-48cd-aa72-c8424e082b5c"}},{"fullUrl":"https://madie.cms.gov/Procedure/5f21e716aca3e40000cb87ee","resource":{"resourceType":"Procedure","id":"bfb9dc99-ff6e-4c68-b1dc-b96ea9037f1f","meta":{"profile":["http://hl7.org/fhir/us/qicore/StructureDefinition/qicore-procedure"]},"extension":[{"url":"http://hl7.org/fhir/us/qicore/StructureDefinition/qicore-recorded","valueDateTime":"2025-02-04T09:35:00-04:00"}],"status":"completed","code":{"coding":[{"system":"http://snomed.info/sct","code":"10745001"}]},"subject":{"reference":"Patient/e0935b52-8ecc-4269-a87c-20055b6fd9e3"},"performedPeriod":{"start":"2025-02-01T08:00:00.000+00:00","end":"2025-02-05T08:15:00.000+00:00"}},"request":{"method":"PUT","url":"Procedure/bfb9dc99-ff6e-4c68-b1dc-b96ea9037f1f"}},{"fullUrl":"https://madie.cms.gov/Observation/heart-rate-adb72","resource":{"resourceType":"Observation","id":"e82738ef-6941-4c04-a0a9-bb3cf31e1e76","meta":{"profile":["http://hl7.org/fhir/StructureDefinition/heartrate"]},"status":"final","category":[{"coding":[{"system":"http://terminology.hl7.org/CodeSystem/observation-category","code":"vital-signs","display":"vital-signs","userSelected":true}]}],"code":{"coding":[{"system":"http://loinc.org","version":"2.73","code":"8867-4","display":"Heart Rate"}]},"subject":{"reference":"Patient/e0935b52-8ecc-4269-a87c-20055b6fd9e3"},"effectiveDateTime":"2025-02-01T07:00:00.000+00:00","valueQuantity":{"value":85,"unit":"/min","system":"http://unitsofmeasure.org","code":"/min"}},"request":{"method":"PUT","url":"Observation/e82738ef-6941-4c04-a0a9-bb3cf31e1e76"}},{"fullUrl":"https://madie.cms.gov/Observation/5f29baa26f0b7100008d8af1a","resource":{"resourceType":"Observation","id":"9cd98c11-8386-48bb-b2e0-e0a089876e26","meta":{"profile":["http://hl7.org/fhir/us/qicore/StructureDefinition/qicore-observation"]},"status":"final","category":[{"coding":[{"system":"http://terminology.hl7.org/CodeSystem/observation-category","code":"exam","display":"exam","userSelected":true}]}],"code":{"coding":[{"system":"http://loinc.org","code":"93857-1"}]},"subject":{"reference":"Patient/e0935b52-8ecc-4269-a87c-20055b6fd9e3"},"effectiveDateTime":"2025-12-01T08:00:00.000+00:00","valueDateTime":"2025-12-01T08:00:00+00:00"},"request":{"method":"PUT","url":"Observation/9cd98c11-8386-48bb-b2e0-e0a089876e26"}},{"fullUrl":"https://madie.cms.gov/Observation/5f32bf4551476200007ab6d3a","resource":{"resourceType":"Observation","id":"ba88eb7a-fcb7-4391-abaa-830655e95d4d","meta":{"profile":["http://hl7.org/fhir/us/qicore/StructureDefinition/qicore-observation"]},"status":"final","category":[{"coding":[{"system":"http://terminology.hl7.org/CodeSystem/observation-category","code":"exam","display":"exam","userSelected":true}]}],"code":{"coding":[{"system":"http://loinc.org","code":"11884-4"}]},"subject":{"reference":"Patient/e0935b52-8ecc-4269-a87c-20055b6fd9e3"},"effectiveDateTime":"2025-12-01T08:00:00.000+00:00","valueQuantity":{"value":21,"system":"http://unitsofmeasure.org","code":"wk"}},"request":{"method":"PUT","url":"Observation/ba88eb7a-fcb7-4391-abaa-830655e95d4d"}},{"fullUrl":"https://madie.cms.gov/Encounter/5f21e66daca3e40000cb86cga","resource":{"resourceType":"Encounter","id":"f9fee963-9700-4c8b-ae1b-0de18fe5bada","meta":{"profile":["http://hl7.org/fhir/us/qicore/StructureDefinition/qicore-encounter"]},"status":"finished","class":{"system":"http://terminology.hl7.org/CodeSystem/v3-ActCode","code":"IMP","display":"inpatient encounter"},"type":[{"coding":[{"system":"http://snomed.info/sct","code":"183452005"}]}],"subject":{"reference":"Patient/e0935b52-8ecc-4269-a87c-20055b6fd9e3"},"period":{"start":"2025-12-01T08:00:00.000+00:00","end":"2025-12-05T08:15:00.000+00:00"}},"request":{"method":"PUT","url":"Encounter/f9fee963-9700-4c8b-ae1b-0de18fe5bada"}},{"fullUrl":"https://madie.cms.gov/Encounter/6001e814bd87590000ceb183a","resource":{"resourceType":"Encounter","id":"d5b59c11-e254-459a-9ff5-a3105b3bc4c1","meta":{"profile":["http://hl7.org/fhir/us/qicore/StructureDefinition/qicore-encounter"]},"status":"finished","class":{"system":"http://terminology.hl7.org/CodeSystem/v3-ActCode","code":"EMER","display":"emergency"},"type":[{"coding":[{"system":"http://snomed.info/sct","code":"4525004"}]}],"subject":{"reference":"Patient/e0935b52-8ecc-4269-a87c-20055b6fd9e3"},"period":{"start":"2025-12-01T07:00:00.000+00:00","end":"2025-12-01T07:59:00.000+00:00"}},"request":{"method":"PUT","url":"Encounter/d5b59c11-e254-459a-9ff5-a3105b3bc4c1"}},{"fullUrl":"https://madie.cms.gov/Procedure/5f21e716aca3e40000cb87eea","resource":{"resourceType":"Procedure","id":"a35c718a-7cb7-4de2-84fd-1331b3dbf1f1","meta":{"profile":["http://hl7.org/fhir/us/qicore/StructureDefinition/qicore-procedure"]},"extension":[{"url":"http://hl7.org/fhir/us/qicore/StructureDefinition/qicore-recorded","valueDateTime":"2025-12-04T09:35:00-04:00"}],"status":"completed","code":{"coding":[{"system":"http://snomed.info/sct","code":"10745001"}]},"subject":{"reference":"Patient/e0935b52-8ecc-4269-a87c-20055b6fd9e3"},"performedPeriod":{"start":"2025-12-01T08:00:00.000+00:00","end":"2025-12-05T08:15:00.000+00:00"}},"request":{"method":"PUT","url":"Procedure/a35c718a-7cb7-4de2-84fd-1331b3dbf1f1"}},{"fullUrl":"https://madie.cms.gov/Observation/heart-rate-adb72a","resource":{"resourceType":"Observation","id":"59b7df36-6338-4367-a49b-7ebfa59bb150","meta":{"profile":["http://hl7.org/fhir/StructureDefinition/heartrate"]},"status":"final","category":[{"coding":[{"system":"http://terminology.hl7.org/CodeSystem/observation-category","code":"vital-signs","display":"vital-signs","userSelected":true}]}],"code":{"coding":[{"system":"http://loinc.org","version":"2.73","code":"8867-4","display":"Heart Rate"}]},"subject":{"reference":"Patient/e0935b52-8ecc-4269-a87c-20055b6fd9e3"},"effectiveDateTime":"2025-12-01T07:00:00.000+00:00","valueQuantity":{"value":90,"unit":"/min","system":"http://unitsofmeasure.org","code":"/min"}},"request":{"method":"PUT","url":"Observation/59b7df36-6338-4367-a49b-7ebfa59bb150"}},{"fullUrl":"https://madie.cms.gov/MeasureReport/50ec76bb-c995-4c32-9786-76f534dd1de4","resource":{"resourceType":"MeasureReport","id":"50ec76bb-c995-4c32-9786-76f534dd1de4","meta":{"profile":["http://hl7.org/fhir/us/cqfmeasures/StructureDefinition/test-case-cqfm"]},"contained":[{"resourceType":"Parameters","id":"90538aa2-673f-45cb-9728-10e06e0070d1-parameters","parameter":[{"name":"subject","valueString":"e0935b52-8ecc-4269-a87c-20055b6fd9e3"}]}],"extension":[{"url":"http://hl7.org/fhir/us/cqfmeasures/StructureDefinition/cqfm-inputParameters","valueReference":{"reference":"#90538aa2-673f-45cb-9728-10e06e0070d1-parameters"}},{"url":"http://hl7.org/fhir/us/cqfmeasures/StructureDefinition/cqfm-testCaseDescription","valueMarkdown":"2 encounters with heart rate.   No way to determine this in MADIE.\n"}],"modifierExtension":[{"url":"http://hl7.org/fhir/us/cqfmeasures/StructureDefinition/cqfm-isTestCase","valueBoolean":true}],"status":"complete","type":"individual","measure":"https://madie.cms.gov/Measure/SevereObstetricComplicationsFHIR","period":{"start":"2025-01-01","end":"2025-12-31"},"group":[{"population":[{"code":{"coding":[{"system":"http://terminology.hl7.org/CodeSystem/measure-population","code":"initial-population","display":"Initial Population"}]},"count":2},{"code":{"coding":[{"system":"http://terminology.hl7.org/CodeSystem/measure-population","code":"denominator","display":"Denominator"}]},"count":2},{"code":{"coding":[{"system":"http://terminology.hl7.org/CodeSystem/measure-population","code":"denominator-exclusion","display":"Denominator Exclusion"}]},"count":0},{"code":{"coding":[{"system":"http://terminology.hl7.org/CodeSystem/measure-population","code":"numerator","display":"Numerator"}]},"count":0},{"code":{"coding":[{"system":"http://terminology.hl7.org/CodeSystem/measure-population","code":"numerator-exclusion","display":"Numerator Exclusion"}]},"count":0}]}]},"request":{"method":"PUT","url":"MeasureReport/50ec76bb-c995-4c32-9786-76f534dd1de4"}}]}