{"resourceType":"Bundle","id":"tests-e0c0397d-6e84-4b88-a18d-b09a3b71fd4b-bundle","type":"transaction","entry":[{"fullUrl":"https://madie.cms.gov/Patient/e0c0397d-6e84-4b88-a18d-b09a3b71fd4b","resource":{"resourceType":"Patient","id":"e0c0397d-6e84-4b88-a18d-b09a3b71fd4b","meta":{"profile":["http://hl7.org/fhir/us/qicore/StructureDefinition/qicore-patient"]},"text":{"status":"generated","div":"<div xmlns=\"http://www.w3.org/1999/xhtml\"><div class=\"hapiHeaderText\">RISKHRRelDtTimeEQDelStartless1Min <b>RISKPass </b></div><table class=\"hapiPropertyTable\"><tbody><tr><td>Date of birth</td><td><span>01 February 2004</span></td></tr></tbody></table></div>"},"extension":[{"url":"http://hl7.org/fhir/us/core/StructureDefinition/us-core-race","extension":[{"url":"ombCategory","valueCoding":{"system":"urn:oid:2.16.840.1.113883.6.238","code":"1002-5","display":"American Indian or Alaska Native","userSelected":true}},{"url":"text","valueString":"American Indian or Alaska Native"}]},{"url":"http://hl7.org/fhir/us/core/StructureDefinition/us-core-ethnicity","extension":[{"url":"ombCategory","valueCoding":{"system":"urn:oid:2.16.840.1.113883.6.238","code":"2135-2","display":"Hispanic or Latino","userSelected":true}},{"url":"text","valueString":"Hispanic or Latino"}]}],"identifier":[{"type":{"coding":[{"system":"http://terminology.hl7.org/CodeSystem/v2-0203","code":"MR"}]},"system":"https://bonnie-fhir.healthit.gov/","value":"63598dd9c35f1c19df09adbd"}],"active":true,"name":[{"use":"usual","family":"RiskPass","given":["RISKHRRelDtTimeEQDelStartless1Min"]}],"gender":"female","birthDate":"2004-02-01"},"request":{"method":"PUT","url":"Patient/e0c0397d-6e84-4b88-a18d-b09a3b71fd4b"}},{"fullUrl":"https://madie.cms.gov/Observation/5f29baa26f0b7100008d8af1","resource":{"resourceType":"Observation","id":"bae95569-b4e2-4760-81a7-44fbdeb0a25b","meta":{"profile":["http://hl7.org/fhir/us/qicore/StructureDefinition/qicore-observation"]},"status":"final","category":[{"coding":[{"system":"http://terminology.hl7.org/CodeSystem/observation-category","code":"exam","display":"exam","userSelected":true}]}],"code":{"coding":[{"system":"http://loinc.org","code":"93857-1"}]},"subject":{"reference":"Patient/e0c0397d-6e84-4b88-a18d-b09a3b71fd4b"},"effectiveDateTime":"2025-02-01T08:00:00.000+00:00","valueDateTime":"2025-02-01T08:00:00+00:00"},"request":{"method":"PUT","url":"Observation/bae95569-b4e2-4760-81a7-44fbdeb0a25b"}},{"fullUrl":"https://madie.cms.gov/Observation/5f32bf4551476200007ab6d3","resource":{"resourceType":"Observation","id":"765a33ff-e83a-4d64-87ff-c4845dfaea2f","meta":{"profile":["http://hl7.org/fhir/us/qicore/StructureDefinition/qicore-observation"]},"status":"final","category":[{"coding":[{"system":"http://terminology.hl7.org/CodeSystem/observation-category","code":"exam","display":"exam","userSelected":true}]}],"code":{"coding":[{"system":"http://loinc.org","code":"11884-4"}]},"subject":{"reference":"Patient/e0c0397d-6e84-4b88-a18d-b09a3b71fd4b"},"effectiveDateTime":"2025-02-01T08:00:00.000+00:00","valueQuantity":{"value":21.0,"system":"http://unitsofmeasure.org","code":"wk"}},"request":{"method":"PUT","url":"Observation/765a33ff-e83a-4d64-87ff-c4845dfaea2f"}},{"fullUrl":"https://madie.cms.gov/Encounter/5f21e66daca3e40000cb86cf","resource":{"resourceType":"Encounter","id":"268fd5d0-adba-4ab6-8da3-73295d9bfc34","meta":{"profile":["http://hl7.org/fhir/us/qicore/StructureDefinition/qicore-encounter"]},"status":"finished","class":{"system":"http://terminology.hl7.org/CodeSystem/v3-ActCode","code":"IMP","display":"inpatient encounter"},"type":[{"coding":[{"system":"http://snomed.info/sct","code":"183452005"}]}],"subject":{"reference":"Patient/e0c0397d-6e84-4b88-a18d-b09a3b71fd4b"},"period":{"start":"2025-02-01T08:00:00.000+00:00","end":"2025-02-05T08:15:00.000+00:00"}},"request":{"method":"PUT","url":"Encounter/268fd5d0-adba-4ab6-8da3-73295d9bfc34"}},{"fullUrl":"https://madie.cms.gov/Encounter/6001e814bd87590000ceb183","resource":{"resourceType":"Encounter","id":"eb55f649-6685-4de4-aa31-e92e8d30b53a","meta":{"profile":["http://hl7.org/fhir/us/qicore/StructureDefinition/qicore-encounter"]},"status":"finished","class":{"system":"http://terminology.hl7.org/CodeSystem/v3-ActCode","code":"EMER","display":"emergency"},"type":[{"coding":[{"system":"http://snomed.info/sct","code":"4525004"}]}],"subject":{"reference":"Patient/e0c0397d-6e84-4b88-a18d-b09a3b71fd4b"},"period":{"start":"2025-02-01T07:00:00.000+00:00","end":"2025-02-01T07:59:00.000+00:00"}},"request":{"method":"PUT","url":"Encounter/eb55f649-6685-4de4-aa31-e92e8d30b53a"}},{"fullUrl":"https://madie.cms.gov/Procedure/5f21e716aca3e40000cb87ee","resource":{"resourceType":"Procedure","id":"d1ed192d-a8af-4d4c-9c82-98c78ee89e75","meta":{"profile":["http://hl7.org/fhir/us/qicore/StructureDefinition/qicore-procedure"]},"extension":[{"url":"http://hl7.org/fhir/us/qicore/StructureDefinition/qicore-recorded","valueDateTime":"2025-02-04T09:35:00-04:00"}],"status":"completed","code":{"coding":[{"system":"http://snomed.info/sct","code":"10745001"}]},"subject":{"reference":"Patient/e0c0397d-6e84-4b88-a18d-b09a3b71fd4b"},"performedPeriod":{"start":"2025-02-01T08:00:00.000+00:00","end":"2025-02-05T08:15:00.000+00:00"}},"request":{"method":"PUT","url":"Procedure/d1ed192d-a8af-4d4c-9c82-98c78ee89e75"}},{"fullUrl":"https://madie.cms.gov/Observation/heart-rate-adb7","resource":{"resourceType":"Observation","id":"12e335a1-18a3-4b61-ac18-71f93405c830","meta":{"profile":["http://hl7.org/fhir/StructureDefinition/heartrate"]},"status":"final","category":[{"coding":[{"system":"http://terminology.hl7.org/CodeSystem/observation-category","code":"vital-signs","display":"vital-signs","userSelected":true}]}],"code":{"coding":[{"system":"http://loinc.org","version":"2.73","code":"8867-4","display":"Heart Rate"}]},"subject":{"reference":"Patient/e0c0397d-6e84-4b88-a18d-b09a3b71fd4b"},"effectiveDateTime":"2025-02-01T07:59:00.000+00:00","valueQuantity":{"value":85,"unit":"/min","system":"http://unitsofmeasure.org","code":"/min"}},"request":{"method":"PUT","url":"Observation/12e335a1-18a3-4b61-ac18-71f93405c830"}},{"fullUrl":"https://madie.cms.gov/MeasureReport/bdf4f907-2bb1-4006-8691-31100b719f2d","resource":{"resourceType":"MeasureReport","id":"bdf4f907-2bb1-4006-8691-31100b719f2d","meta":{"profile":["http://hl7.org/fhir/us/cqfmeasures/StructureDefinition/test-case-cqfm"]},"contained":[{"resourceType":"Parameters","id":"12f3453c-f40e-4741-b357-5af6eff1e68d-parameters","parameter":[{"name":"subject","valueString":"e0c0397d-6e84-4b88-a18d-b09a3b71fd4b"}]}],"extension":[{"url":"http://hl7.org/fhir/us/cqfmeasures/StructureDefinition/cqfm-inputParameters","valueReference":{"reference":"#12f3453c-f40e-4741-b357-5af6eff1e68d-parameters"}},{"url":"http://hl7.org/fhir/us/cqfmeasures/StructureDefinition/cqfm-testCaseDescription","valueMarkdown":"Patient with heart rate relevant date/time = delivery date/time minus 1 minute\n"}],"modifierExtension":[{"url":"http://hl7.org/fhir/us/cqfmeasures/StructureDefinition/cqfm-isTestCase","valueBoolean":true}],"status":"complete","type":"individual","measure":"https://madie.cms.gov/Measure/SevereObstetricComplicationsFHIR","period":{"start":"2025-01-01","end":"2025-12-31"},"group":[{"population":[{"code":{"coding":[{"system":"http://terminology.hl7.org/CodeSystem/measure-population","code":"initial-population","display":"Initial Population"}]},"count":1},{"code":{"coding":[{"system":"http://terminology.hl7.org/CodeSystem/measure-population","code":"denominator","display":"Denominator"}]},"count":1},{"code":{"coding":[{"system":"http://terminology.hl7.org/CodeSystem/measure-population","code":"denominator-exclusion","display":"Denominator Exclusion"}]},"count":0},{"code":{"coding":[{"system":"http://terminology.hl7.org/CodeSystem/measure-population","code":"numerator","display":"Numerator"}]},"count":0},{"code":{"coding":[{"system":"http://terminology.hl7.org/CodeSystem/measure-population","code":"numerator-exclusion","display":"Numerator Exclusion"}]},"count":0}]}]},"request":{"method":"PUT","url":"MeasureReport/bdf4f907-2bb1-4006-8691-31100b719f2d"}}]}