{"resourceType":"Bundle","id":"tests-55b73e66-5046-48c9-aba9-4f19cb0816dc-bundle","type":"transaction","entry":[{"fullUrl":"https://madie.cms.gov/Patient/55b73e66-5046-48c9-aba9-4f19cb0816dc","resource":{"resourceType":"Patient","id":"55b73e66-5046-48c9-aba9-4f19cb0816dc","meta":{"profile":["http://hl7.org/fhir/us/qicore/StructureDefinition/qicore-patient"]},"text":{"status":"generated","div":"<div xmlns=\"http://www.w3.org/1999/xhtml\"><div class=\"hapiHeaderText\">SMMProcedureNoTimeDayOfEDVist <b>NUMPass </b></div><table class=\"hapiPropertyTable\"><tbody><tr><td>Date of birth</td><td><span>01 February 2004</span></td></tr></tbody></table></div>"},"extension":[{"url":"http://hl7.org/fhir/us/core/StructureDefinition/us-core-race","extension":[{"url":"ombCategory","valueCoding":{"system":"urn:oid:2.16.840.1.113883.6.238","code":"1002-5","display":"American Indian or Alaska Native","userSelected":true}},{"url":"text","valueString":"American Indian or Alaska Native"}]},{"url":"http://hl7.org/fhir/us/core/StructureDefinition/us-core-ethnicity","extension":[{"url":"ombCategory","valueCoding":{"system":"urn:oid:2.16.840.1.113883.6.238","code":"2135-2","display":"Hispanic or Latino","userSelected":true}},{"url":"text","valueString":"Hispanic or Latino"}]}],"identifier":[{"type":{"coding":[{"system":"http://terminology.hl7.org/CodeSystem/v2-0203","code":"MR"}]},"system":"https://bonnie-fhir.healthit.gov/","value":"633b3f9f0968f80122503cdb"}],"active":true,"name":[{"use":"usual","family":"NUMPass","given":["SMMProcedureNoTimeDayOfEDVist"]}],"gender":"female","birthDate":"2004-02-01"},"request":{"method":"PUT","url":"Patient/55b73e66-5046-48c9-aba9-4f19cb0816dc"}},{"fullUrl":"https://madie.cms.gov/Observation/5f29baa26f0b7100008d8af1","resource":{"resourceType":"Observation","id":"63ce5d77-ca64-4347-9ccd-cb0ae9ebbcc5","meta":{"profile":["http://hl7.org/fhir/us/qicore/StructureDefinition/qicore-observation"]},"status":"final","category":[{"coding":[{"system":"http://terminology.hl7.org/CodeSystem/observation-category","code":"exam","display":"exam","userSelected":true}]}],"code":{"coding":[{"system":"http://loinc.org","code":"93857-1"}]},"subject":{"reference":"Patient/55b73e66-5046-48c9-aba9-4f19cb0816dc"},"effectiveDateTime":"2025-02-01T08:00:00.000+00:00","valueDateTime":"2025-02-01T08:00:00+00:00"},"request":{"method":"PUT","url":"Observation/63ce5d77-ca64-4347-9ccd-cb0ae9ebbcc5"}},{"fullUrl":"https://madie.cms.gov/Observation/5f2b23e36f0b7100008d9b59","resource":{"resourceType":"Observation","id":"fc970183-4464-4e16-b960-8e3f35495c43","meta":{"profile":["http://hl7.org/fhir/us/qicore/StructureDefinition/qicore-observation"]},"status":"final","category":[{"coding":[{"system":"http://terminology.hl7.org/CodeSystem/observation-category","code":"exam","display":"exam","userSelected":true}]}],"code":{"coding":[{"system":"http://loinc.org","code":"11884-4"}]},"subject":{"reference":"Patient/55b73e66-5046-48c9-aba9-4f19cb0816dc"},"effectiveDateTime":"2025-02-01T08:00:00.000+00:00","valueQuantity":{"value":20.0,"system":"http://unitsofmeasure.org","code":"wk"}},"request":{"method":"PUT","url":"Observation/fc970183-4464-4e16-b960-8e3f35495c43"}},{"fullUrl":"https://madie.cms.gov/Observation/5f2b24a96f0b7100008d9c0d","resource":{"resourceType":"Observation","id":"4ac99585-bcb6-4084-b9ce-19ecc1e8df9a","meta":{"profile":["http://hl7.org/fhir/us/qicore/StructureDefinition/qicore-observation"]},"status":"final","category":[{"coding":[{"system":"http://terminology.hl7.org/CodeSystem/observation-category","code":"exam","display":"exam","userSelected":true}]}],"code":{"coding":[{"system":"http://loinc.org","code":"11884-4"}]},"subject":{"reference":"Patient/55b73e66-5046-48c9-aba9-4f19cb0816dc"},"effectiveDateTime":"2025-02-01T08:01:00.000+00:00"},"request":{"method":"PUT","url":"Observation/4ac99585-bcb6-4084-b9ce-19ecc1e8df9a"}},{"fullUrl":"https://madie.cms.gov/Encounter/5f21e66daca3e40000cb86cf","resource":{"resourceType":"Encounter","id":"180b966c-4b64-4b76-a553-630161be731e","meta":{"profile":["http://hl7.org/fhir/us/qicore/StructureDefinition/qicore-encounter"]},"status":"finished","class":{"system":"http://terminology.hl7.org/CodeSystem/v3-ActCode","code":"IMP","display":"inpatient encounter"},"type":[{"coding":[{"system":"http://snomed.info/sct","code":"183452005"}]}],"subject":{"reference":"Patient/55b73e66-5046-48c9-aba9-4f19cb0816dc"},"period":{"start":"2025-02-01T00:10:00.000Z","end":"2025-02-05T08:15:00.000Z"}},"request":{"method":"PUT","url":"Encounter/180b966c-4b64-4b76-a553-630161be731e"}},{"fullUrl":"https://madie.cms.gov/Encounter/5f21e66daca3e40000cb86cf2","resource":{"resourceType":"Encounter","id":"6c9ece6a-2d91-4e8f-b36c-485e5659d1ab","meta":{"profile":["http://hl7.org/fhir/us/qicore/StructureDefinition/qicore-encounter"]},"status":"finished","class":{"system":"http://terminology.hl7.org/CodeSystem/v3-ActCode","code":"IMP","display":"inpatient encounter"},"type":[{"coding":[{"system":"http://snomed.info/sct","code":"4525004"}]}],"subject":{"reference":"Patient/55b73e66-5046-48c9-aba9-4f19cb0816dc"},"period":{"start":"2025-01-31T08:00:00.000Z","end":"2025-01-31T23:59:00.000Z"}},"request":{"method":"PUT","url":"Encounter/6c9ece6a-2d91-4e8f-b36c-485e5659d1ab"}},{"fullUrl":"https://madie.cms.gov/Coverage/5f2c54181c76ba5c99605813","resource":{"resourceType":"Coverage","id":"af7155e9-e1d1-468a-841a-64e762854188","status":"active","beneficiary":{"reference":"Patient/55b73e66-5046-48c9-aba9-4f19cb0816dc"},"period":{"start":"2004-02-01T08:00:00.000Z"},"payor":[{"reference":"Organization/9e9b3f13-a353-4173-b29b-947d6f1f2031"}]},"request":{"method":"PUT","url":"Coverage/af7155e9-e1d1-468a-841a-64e762854188"}},{"fullUrl":"https://madie.cms.gov/Procedure/5f21e716aca3e40000cb87ee","resource":{"resourceType":"Procedure","id":"09428849-9ec2-4331-b6f4-a8a52d2db078","meta":{"profile":["http://hl7.org/fhir/us/qicore/StructureDefinition/qicore-procedure"]},"extension":[{"url":"http://hl7.org/fhir/us/qicore/StructureDefinition/qicore-recorded","valueDateTime":"2013-04-05T09:35:00-04:00"}],"status":"completed","code":{"coding":[{"system":"http://snomed.info/sct","code":"10745001"}]},"subject":{"reference":"Patient/55b73e66-5046-48c9-aba9-4f19cb0816dc"},"performedPeriod":{"start":"2025-02-01T08:00:00.000Z","end":"2025-02-05T08:15:00.000Z"}},"request":{"method":"PUT","url":"Procedure/09428849-9ec2-4331-b6f4-a8a52d2db078"}},{"fullUrl":"https://madie.cms.gov/Procedure/SMMProcedure","resource":{"resourceType":"Procedure","id":"66212228-76b2-40c3-a62f-48a542f0b890","meta":{"profile":["http://hl7.org/fhir/us/qicore/StructureDefinition/qicore-procedure"]},"extension":[{"url":"http://hl7.org/fhir/us/qicore/StructureDefinition/qicore-recorded","valueDateTime":"2025-02-01T00:01:00-04:00"}],"status":"completed","code":{"coding":[{"system":"http://snomed.info/sct","code":"11397000"}]},"subject":{"reference":"Patient/55b73e66-5046-48c9-aba9-4f19cb0816dc"},"performedPeriod":{"start":"2025-01-31","end":"2025-02-01T11:59:00.000Z"}},"request":{"method":"PUT","url":"Procedure/66212228-76b2-40c3-a62f-48a542f0b890"}},{"fullUrl":"https://madie.cms.gov/Organization/123456","resource":{"resourceType":"Organization","id":"9e9b3f13-a353-4173-b29b-947d6f1f2031","meta":{"profile":["http://hl7.org/fhir/us/qicore/StructureDefinition/qicore-organization"]},"identifier":[{"use":"temp","system":"urn:oid:2.16.840.1.113883.4.4","value":"21-3259825"}],"active":true,"type":[{"coding":[{"system":"http://terminology.hl7.org/CodeSystem/organization-type","code":"pay","display":"Payer"}]}],"name":"Blue Cross Blue Shield of Texas","telecom":[{"system":"phone","value":"(+1) 972-766-6900"}],"address":[{"use":"billing","type":"postal","line":["P.O. Box 660044"],"city":"Dallas","state":"TX","postalCode":"75266-0044","country":"USA"}]},"request":{"method":"PUT","url":"Organization/9e9b3f13-a353-4173-b29b-947d6f1f2031"}},{"fullUrl":"https://madie.cms.gov/Practitioner/practitioner-123456","resource":{"resourceType":"Practitioner","id":"822423db-20d7-4d98-aef6-4beb42905deb","identifier":[{"system":"http://hl7.org/fhir/sid/us-npi","value":"123456"}],"name":[{"family":"Evil","prefix":["Dr"]}]},"request":{"method":"PUT","url":"Practitioner/822423db-20d7-4d98-aef6-4beb42905deb"}},{"fullUrl":"https://madie.cms.gov/MeasureReport/ee465a66-eada-4c90-94eb-75e9351dc315","resource":{"resourceType":"MeasureReport","id":"ee465a66-eada-4c90-94eb-75e9351dc315","meta":{"profile":["http://hl7.org/fhir/us/cqfmeasures/StructureDefinition/test-case-cqfm"]},"contained":[{"resourceType":"Parameters","id":"38c44f25-191d-456b-8aa4-a89a3ae99cc5-parameters","parameter":[{"name":"subject","valueString":"55b73e66-5046-48c9-aba9-4f19cb0816dc"}]}],"extension":[{"url":"http://hl7.org/fhir/us/cqfmeasures/StructureDefinition/cqfm-inputParameters","valueReference":{"reference":"#38c44f25-191d-456b-8aa4-a89a3ae99cc5-parameters"}},{"url":"http://hl7.org/fhir/us/cqfmeasures/StructureDefinition/cqfm-testCaseDescription","valueMarkdown":"Patient had a SMM Procedure.  No time. Start date is day of ED Visit.  Testing day of operator.\n"}],"modifierExtension":[{"url":"http://hl7.org/fhir/us/cqfmeasures/StructureDefinition/cqfm-isTestCase","valueBoolean":true}],"status":"complete","type":"individual","measure":"https://madie.cms.gov/Measure/SevereObstetricComplicationsFHIR","period":{"start":"2025-01-01","end":"2025-12-31"},"group":[{"population":[{"code":{"coding":[{"system":"http://terminology.hl7.org/CodeSystem/measure-population","code":"initial-population","display":"Initial Population"}]},"count":1},{"code":{"coding":[{"system":"http://terminology.hl7.org/CodeSystem/measure-population","code":"denominator","display":"Denominator"}]},"count":1},{"code":{"coding":[{"system":"http://terminology.hl7.org/CodeSystem/measure-population","code":"denominator-exclusion","display":"Denominator Exclusion"}]},"count":0},{"code":{"coding":[{"system":"http://terminology.hl7.org/CodeSystem/measure-population","code":"numerator","display":"Numerator"}]},"count":1},{"code":{"coding":[{"system":"http://terminology.hl7.org/CodeSystem/measure-population","code":"numerator-exclusion","display":"Numerator Exclusion"}]},"count":0}]}]},"request":{"method":"PUT","url":"MeasureReport/ee465a66-eada-4c90-94eb-75e9351dc315"}}]}