{"resourceType":"Bundle","id":"tests-bec38daa-8a0d-435d-95e7-05ad5af182f6-bundle","type":"transaction","entry":[{"fullUrl":"https://madie.cms.gov/Patient/bec38daa-8a0d-435d-95e7-05ad5af182f6","resource":{"resourceType":"Patient","id":"bec38daa-8a0d-435d-95e7-05ad5af182f6","meta":{"profile":["http://hl7.org/fhir/us/qicore/StructureDefinition/qicore-patient"]},"text":{"status":"generated","div":"<div xmlns=\"http://www.w3.org/1999/xhtml\"><div class=\"hapiHeaderText\">CalcAndEGA19WksDxCode20Weeks  <b>DENOMFAIL </b></div><table class=\"hapiPropertyTable\"><tbody><tr><td>Date of birth</td><td><span>01 February 2004</span></td></tr></tbody></table></div>"},"extension":[{"url":"http://hl7.org/fhir/us/core/StructureDefinition/us-core-race","extension":[{"url":"ombCategory","valueCoding":{"system":"urn:oid:2.16.840.1.113883.6.238","code":"1002-5","display":"American Indian or Alaska Native","userSelected":true}},{"url":"text","valueString":"American Indian or Alaska Native"}]},{"url":"http://hl7.org/fhir/us/core/StructureDefinition/us-core-ethnicity","extension":[{"url":"ombCategory","valueCoding":{"system":"urn:oid:2.16.840.1.113883.6.238","code":"2135-2","display":"Hispanic or Latino","userSelected":true}},{"url":"text","valueString":"Hispanic or Latino"}]}],"identifier":[{"type":{"coding":[{"system":"http://terminology.hl7.org/CodeSystem/v2-0203","code":"MR"}]},"system":"https://bonnie-fhir.healthit.gov/","value":"6356d03854e383debade759e"}],"active":true,"name":[{"use":"usual","family":"DENOMFail","given":["CalcAndEGA19WksDxCode20Weeks "]}],"gender":"female","birthDate":"2004-02-01"},"request":{"method":"PUT","url":"Patient/bec38daa-8a0d-435d-95e7-05ad5af182f6"}},{"fullUrl":"https://madie.cms.gov/Observation/5f32bf4551476200007ab6d3","resource":{"resourceType":"Observation","id":"91fd8f8d-c6c7-454a-8132-41689c1e84a6","meta":{"profile":["http://hl7.org/fhir/us/qicore/StructureDefinition/qicore-observation"]},"status":"final","category":[{"coding":[{"system":"http://terminology.hl7.org/CodeSystem/observation-category","code":"exam","display":"exam","userSelected":true}]}],"code":{"coding":[{"system":"http://loinc.org","code":"11884-4"}]},"subject":{"reference":"Patient/bec38daa-8a0d-435d-95e7-05ad5af182f6"},"effectiveDateTime":"2025-01-15T08:00:00.000+00:00","valueQuantity":{"value":19.0,"unit":"wk"}},"request":{"method":"PUT","url":"Observation/91fd8f8d-c6c7-454a-8132-41689c1e84a6"}},{"fullUrl":"https://madie.cms.gov/Observation/5f29baa26f0b7100008d8af1","resource":{"resourceType":"Observation","id":"d2e1d617-4f3b-4055-8577-d3ffa802f14b","meta":{"profile":["http://hl7.org/fhir/us/qicore/StructureDefinition/qicore-observation"]},"status":"final","category":[{"coding":[{"system":"http://terminology.hl7.org/CodeSystem/observation-category","code":"exam","display":"exam","userSelected":true}]}],"code":{"coding":[{"system":"http://loinc.org","code":"93857-1"}]},"subject":{"reference":"Patient/bec38daa-8a0d-435d-95e7-05ad5af182f6"},"effectiveDateTime":"2025-01-15T08:00:00.000+00:00","valueDateTime":"2025-01-15T08:00:00.000+00:00"},"request":{"method":"PUT","url":"Observation/d2e1d617-4f3b-4055-8577-d3ffa802f14b"}},{"fullUrl":"https://madie.cms.gov/Encounter/5f21e66daca3e40000cb86cf","resource":{"resourceType":"Encounter","id":"1e4e4cac-a219-4faa-a228-160e15e4ff79","meta":{"profile":["http://hl7.org/fhir/us/qicore/StructureDefinition/qicore-encounter"]},"status":"finished","class":{"system":"http://terminology.hl7.org/CodeSystem/v3-ActCode","code":"IMP","display":"inpatient encounter"},"type":[{"coding":[{"system":"http://snomed.info/sct","code":"183452005"}]}],"subject":{"reference":"Patient/bec38daa-8a0d-435d-95e7-05ad5af182f6"},"period":{"start":"2025-01-01T08:00:00.000Z","end":"2025-02-05T08:15:00.000Z"},"diagnosis":[{"condition":{"reference":"Condition/20-TO-42-Plus-Weeks-Gestation-19-75a0"}}]},"request":{"method":"PUT","url":"Encounter/1e4e4cac-a219-4faa-a228-160e15e4ff79"}},{"fullUrl":"https://madie.cms.gov/Observation/5f2b21b26f0b7100008d9986","resource":{"resourceType":"Observation","id":"46b2bcab-b3b2-470f-8a93-f500ef5462da","meta":{"profile":["http://hl7.org/fhir/us/qicore/StructureDefinition/qicore-observation"]},"status":"final","category":[{"coding":[{"system":"http://terminology.hl7.org/CodeSystem/observation-category","code":"exam","display":"exam","userSelected":true}]}],"code":{"coding":[{"system":"http://loinc.org","code":"11778-8"}]},"subject":{"reference":"Patient/bec38daa-8a0d-435d-95e7-05ad5af182f6"},"effectiveDateTime":"2025-01-15T08:00:00.000+00:00","valueDateTime":"2025-06-05T08:00:00.000+00:00"},"request":{"method":"PUT","url":"Observation/46b2bcab-b3b2-470f-8a93-f500ef5462da"}},{"fullUrl":"https://madie.cms.gov/Procedure/5f21e716aca3e40000cb87ee","resource":{"resourceType":"Procedure","id":"0f2392ae-320b-4187-9881-41cef4cdd389","meta":{"profile":["http://hl7.org/fhir/us/qicore/StructureDefinition/qicore-procedure"]},"extension":[{"url":"http://hl7.org/fhir/us/qicore/StructureDefinition/qicore-recorded","valueDateTime":"2013-04-05T09:35:00-04:00"}],"status":"completed","code":{"coding":[{"system":"http://snomed.info/sct","code":"10745001"}]},"subject":{"reference":"Patient/bec38daa-8a0d-435d-95e7-05ad5af182f6"},"performedPeriod":{"start":"2025-01-01T08:00:00.000Z","end":"2025-01-01T08:15:00.000Z"}},"request":{"method":"PUT","url":"Procedure/0f2392ae-320b-4187-9881-41cef4cdd389"}},{"fullUrl":"https://madie.cms.gov/Condition/20-TO-42-Plus-Weeks-Gestation-19-75a0","resource":{"resourceType":"Condition","id":"160e07d5-b6db-46c6-a31b-d77c3e9dfffb","meta":{"profile":["http://hl7.org/fhir/us/qicore/StructureDefinition/qicore-condition"]},"category":[{"coding":[{"system":"http://terminology.hl7.org/CodeSystem/condition-category","code":"encounter-diagnosis","display":"Encounter Diagnosis"}]}],"code":{"coding":[{"system":"http://snomed.info/sct","version":"2024-03","code":"23464008","display":"Gestation period, 20 weeks","userSelected":true}]},"subject":{"reference":"Patient/bec38daa-8a0d-435d-95e7-05ad5af182f6"},"recordedDate":"2025-10-24T08:00:00.000+00:00"},"request":{"method":"PUT","url":"Condition/160e07d5-b6db-46c6-a31b-d77c3e9dfffb"}},{"fullUrl":"https://madie.cms.gov/Coverage/1","resource":{"resourceType":"Coverage","id":"7a734c6b-41d3-4654-8dbe-94250d24b78b","meta":{"profile":["http://hl7.org/fhir/us/qicore/StructureDefinition/qicore-coverage"]},"status":"active","beneficiary":{"reference":"Patient/bec38daa-8a0d-435d-95e7-05ad5af182f6"},"payor":[{"reference":"Organization/806b0255-13cb-4f2b-9412-571554dd2169"}]},"request":{"method":"PUT","url":"Coverage/7a734c6b-41d3-4654-8dbe-94250d24b78b"}},{"fullUrl":"https://madie.cms.gov/Organization/123456","resource":{"resourceType":"Organization","id":"806b0255-13cb-4f2b-9412-571554dd2169","meta":{"profile":["http://hl7.org/fhir/us/qicore/StructureDefinition/qicore-organization"]},"identifier":[{"use":"temp","system":"urn:oid:2.16.840.1.113883.4.4","value":"21-3259825"}],"active":true,"type":[{"coding":[{"system":"http://terminology.hl7.org/CodeSystem/organization-type","code":"pay","display":"Payer"}]}],"name":"Blue Cross Blue Shield of Texas","telecom":[{"system":"phone","value":"(+1) 972-766-6900"}],"address":[{"use":"billing","type":"postal","line":["P.O. Box 660044"],"city":"Dallas","state":"TX","postalCode":"75266-0044","country":"USA"}]},"request":{"method":"PUT","url":"Organization/806b0255-13cb-4f2b-9412-571554dd2169"}},{"fullUrl":"https://madie.cms.gov/Practitioner/practitioner-123456","resource":{"resourceType":"Practitioner","id":"644771ce-3bf9-434e-9622-728cd779b3bd","identifier":[{"system":"http://hl7.org/fhir/sid/us-npi","value":"123456"}],"name":[{"family":"Evil","prefix":["Dr"]}]},"request":{"method":"PUT","url":"Practitioner/644771ce-3bf9-434e-9622-728cd779b3bd"}},{"fullUrl":"https://madie.cms.gov/MeasureReport/63080855-a1aa-4dcc-99a1-bf7b142d10a3","resource":{"resourceType":"MeasureReport","id":"63080855-a1aa-4dcc-99a1-bf7b142d10a3","meta":{"profile":["http://hl7.org/fhir/us/cqfmeasures/StructureDefinition/test-case-cqfm"]},"contained":[{"resourceType":"Parameters","id":"e9a0b663-f2f6-4a7e-9bb5-fc1c7624f8d8-parameters","parameter":[{"name":"subject","valueString":"bec38daa-8a0d-435d-95e7-05ad5af182f6"}]}],"extension":[{"url":"http://hl7.org/fhir/us/cqfmeasures/StructureDefinition/cqfm-inputParameters","valueReference":{"reference":"#e9a0b663-f2f6-4a7e-9bb5-fc1c7624f8d8-parameters"}},{"url":"http://hl7.org/fhir/us/cqfmeasures/StructureDefinition/cqfm-testCaseDescription","valueMarkdown":"Calculated and Estimated GA  = 19 weeks.  Diagnosis code = 20 weeks.  Denom fails based on hierarchy.\n"}],"modifierExtension":[{"url":"http://hl7.org/fhir/us/cqfmeasures/StructureDefinition/cqfm-isTestCase","valueBoolean":true}],"status":"complete","type":"individual","measure":"https://madie.cms.gov/Measure/SevereObstetricComplicationsFHIR","period":{"start":"2025-01-01","end":"2025-12-31"},"group":[{"population":[{"code":{"coding":[{"system":"http://terminology.hl7.org/CodeSystem/measure-population","code":"initial-population","display":"Initial Population"}]},"count":1},{"code":{"coding":[{"system":"http://terminology.hl7.org/CodeSystem/measure-population","code":"denominator","display":"Denominator"}]},"count":0},{"code":{"coding":[{"system":"http://terminology.hl7.org/CodeSystem/measure-population","code":"denominator-exclusion","display":"Denominator Exclusion"}]},"count":0},{"code":{"coding":[{"system":"http://terminology.hl7.org/CodeSystem/measure-population","code":"numerator","display":"Numerator"}]},"count":0},{"code":{"coding":[{"system":"http://terminology.hl7.org/CodeSystem/measure-population","code":"numerator-exclusion","display":"Numerator Exclusion"}]},"count":0}]}]},"request":{"method":"PUT","url":"MeasureReport/63080855-a1aa-4dcc-99a1-bf7b142d10a3"}}]}