{"resourceType":"Bundle","id":"tests-255bb207-c5b4-470f-8b40-bca6506cc159-bundle","type":"transaction","entry":[{"fullUrl":"https://madie.cms.gov/Patient/255bb207-c5b4-470f-8b40-bca6506cc159","resource":{"resourceType":"Patient","id":"255bb207-c5b4-470f-8b40-bca6506cc159","meta":{"profile":["http://hl7.org/fhir/us/qicore/StructureDefinition/qicore-patient"]},"extension":[{"url":"http://hl7.org/fhir/us/core/StructureDefinition/us-core-race","extension":[{"url":"ombCategory","valueCoding":{"system":"urn:oid:2.16.840.1.113883.6.238","code":"1002-5","display":"American Indian or Alaska Native","userSelected":true}},{"url":"text","valueString":"American Indian or Alaska Native"}]},{"url":"http://hl7.org/fhir/us/core/StructureDefinition/us-core-ethnicity","extension":[{"url":"ombCategory","valueCoding":{"system":"urn:oid:2.16.840.1.113883.6.238","code":"2135-2","display":"Hispanic or Latino","userSelected":true}},{"url":"text","valueString":"Hispanic or Latino"}]}],"identifier":[{"type":{"coding":[{"system":"http://terminology.hl7.org/CodeSystem/v2-0203","code":"MR"}]},"system":"https://bonnie-fhir.healthit.gov/","value":"635307b6224f3b053967124e"}],"name":[{"family":"DENOMPass","given":["LastAssPrfEDDRelvTm1MinShortOf42WksB4DELRsltDtTime "]}],"gender":"female","birthDate":"2000-02-01"},"request":{"method":"PUT","url":"Patient/255bb207-c5b4-470f-8b40-bca6506cc159"}},{"fullUrl":"https://madie.cms.gov/Encounter/encounter-inpatient-1248","resource":{"resourceType":"Encounter","id":"ef68d9e0-b1b7-453f-ba63-74ee63394ea0","meta":{"profile":["http://hl7.org/fhir/us/qicore/StructureDefinition/qicore-encounter"]},"status":"finished","class":{"system":"http://terminology.hl7.org/CodeSystem/v3-ActCode","code":"IMP","display":"inpatient encounter"},"type":[{"coding":[{"system":"http://snomed.info/sct","version":"2022-09","code":"183452005","display":"Emergency hospital admission (procedure)","userSelected":true}]}],"subject":{"reference":"Patient/255bb207-c5b4-470f-8b40-bca6506cc159"},"period":{"start":"2025-01-30T08:00:00.000+00:00","end":"2025-02-05T08:15:00.000+00:00"}},"request":{"method":"PUT","url":"Encounter/ef68d9e0-b1b7-453f-ba63-74ee63394ea0"}},{"fullUrl":"https://madie.cms.gov/Procedure/delivery-procedures-1249","resource":{"resourceType":"Procedure","id":"3c47bc66-4ff4-4d2d-bdba-09258ac0cd9b","meta":{"profile":["http://hl7.org/fhir/us/qicore/StructureDefinition/qicore-procedure"]},"extension":[{"url":"http://hl7.org/fhir/us/qicore/StructureDefinition/qicore-recorded","valueDateTime":"2013-04-05T09:35:00-04:00"}],"status":"completed","code":{"coding":[{"system":"http://snomed.info/sct","version":"2022-09","code":"10745001","display":"Delivery of transverse presentation (procedure)","userSelected":true}]},"subject":{"reference":"Patient/255bb207-c5b4-470f-8b40-bca6506cc159"},"performedPeriod":{"start":"2025-02-01T08:00:00.000+00:00","end":"2025-02-05T08:15:00.000+00:00"}},"request":{"method":"PUT","url":"Procedure/3c47bc66-4ff4-4d2d-bdba-09258ac0cd9b"}},{"fullUrl":"https://madie.cms.gov/Observation/date-and-time-of-obstetric-delivery-124a","resource":{"resourceType":"Observation","id":"4fb0afa3-c141-45c6-9e86-02161df436c8","meta":{"profile":["http://hl7.org/fhir/us/qicore/StructureDefinition/qicore-observation"]},"status":"final","category":[{"coding":[{"system":"http://terminology.hl7.org/CodeSystem/observation-category","code":"exam","display":"exam","userSelected":true}]}],"code":{"coding":[{"system":"http://loinc.org","code":"93857-1","display":"Date and time of obstetric delivery","userSelected":true}]},"subject":{"reference":"Patient/255bb207-c5b4-470f-8b40-bca6506cc159"},"effectiveDateTime":"2025-02-01T08:00:00.000+00:00","valueDateTime":"2025-02-01T08:00:00.000+00:00"},"request":{"method":"PUT","url":"Observation/4fb0afa3-c141-45c6-9e86-02161df436c8"}},{"fullUrl":"https://madie.cms.gov/Observation/delivery-date-estimated-124b","resource":{"resourceType":"Observation","id":"82ee3586-5987-427c-bd56-e42ff68d836e","meta":{"profile":["http://hl7.org/fhir/us/qicore/StructureDefinition/qicore-observation"]},"status":"final","category":[{"coding":[{"system":"http://terminology.hl7.org/CodeSystem/observation-category","code":"exam","display":"exam","userSelected":true}]}],"code":{"coding":[{"system":"http://loinc.org","code":"11778-8","display":"Delivery date Estimated","userSelected":true}]},"subject":{"reference":"Patient/255bb207-c5b4-470f-8b40-bca6506cc159"},"effectiveDateTime":"2024-04-13T08:01:00.000+00:00","valueDateTime":"2025-02-01T08:00:00.000+00:00"},"request":{"method":"PUT","url":"Observation/82ee3586-5987-427c-bd56-e42ff68d836e"}},{"fullUrl":"https://madie.cms.gov/Coverage/1","resource":{"resourceType":"Coverage","id":"06c586d0-5c51-44bc-8acd-31db3a464190","meta":{"profile":["http://hl7.org/fhir/us/qicore/StructureDefinition/qicore-coverage"]},"status":"active","beneficiary":{"reference":"Patient/255bb207-c5b4-470f-8b40-bca6506cc159"},"payor":[{"reference":"Organization/3778262e-e084-4bb5-9a47-1a144735f786"}]},"request":{"method":"PUT","url":"Coverage/06c586d0-5c51-44bc-8acd-31db3a464190"}},{"fullUrl":"https://madie.cms.gov/Organization/123456","resource":{"resourceType":"Organization","id":"3778262e-e084-4bb5-9a47-1a144735f786","meta":{"profile":["http://hl7.org/fhir/us/qicore/StructureDefinition/qicore-organization"]},"identifier":[{"use":"temp","system":"urn:oid:2.16.840.1.113883.4.4","value":"21-3259825"}],"active":true,"type":[{"coding":[{"system":"http://terminology.hl7.org/CodeSystem/organization-type","code":"pay","display":"Payer"}]}],"name":"Blue Cross Blue Shield of Texas","telecom":[{"system":"phone","value":"(+1) 972-766-6900"}],"address":[{"use":"billing","type":"postal","line":["P.O. Box 660044"],"city":"Dallas","state":"TX","postalCode":"75266-0044","country":"USA"}]},"request":{"method":"PUT","url":"Organization/3778262e-e084-4bb5-9a47-1a144735f786"}},{"fullUrl":"https://madie.cms.gov/Practitioner/practitioner-123456","resource":{"resourceType":"Practitioner","id":"7337562b-815c-4caa-a4b0-db0e545f7c15","identifier":[{"system":"http://hl7.org/fhir/sid/us-npi","value":"123456"}],"name":[{"family":"Evil","prefix":["Dr"]}]},"request":{"method":"PUT","url":"Practitioner/7337562b-815c-4caa-a4b0-db0e545f7c15"}},{"fullUrl":"https://madie.cms.gov/MeasureReport/ceaba99d-494d-41ff-9b7e-6a1b96adafae","resource":{"resourceType":"MeasureReport","id":"ceaba99d-494d-41ff-9b7e-6a1b96adafae","meta":{"profile":["http://hl7.org/fhir/us/cqfmeasures/StructureDefinition/test-case-cqfm"]},"contained":[{"resourceType":"Parameters","id":"50fa17fa-6bda-4748-b6a7-76bd2d517110-parameters","parameter":[{"name":"subject","valueString":"255bb207-c5b4-470f-8b40-bca6506cc159"}]}],"extension":[{"url":"http://hl7.org/fhir/us/cqfmeasures/StructureDefinition/cqfm-inputParameters","valueReference":{"reference":"#50fa17fa-6bda-4748-b6a7-76bd2d517110-parameters"}},{"url":"http://hl7.org/fhir/us/cqfmeasures/StructureDefinition/cqfm-testCaseDescription","valueMarkdown":"Last assessment Performed, Estimated Delivery Date, Relevant time, 1 minute short of 42 weeks before Delivery Result Date/Time\n"}],"modifierExtension":[{"url":"http://hl7.org/fhir/us/cqfmeasures/StructureDefinition/cqfm-isTestCase","valueBoolean":true}],"status":"complete","type":"individual","measure":"https://madie.cms.gov/Measure/SevereObstetricComplicationsFHIR","period":{"start":"2025-01-01","end":"2025-12-31"},"group":[{"population":[{"code":{"coding":[{"system":"http://terminology.hl7.org/CodeSystem/measure-population","code":"initial-population","display":"Initial Population"}]},"count":1},{"code":{"coding":[{"system":"http://terminology.hl7.org/CodeSystem/measure-population","code":"denominator","display":"Denominator"}]},"count":1},{"code":{"coding":[{"system":"http://terminology.hl7.org/CodeSystem/measure-population","code":"denominator-exclusion","display":"Denominator Exclusion"}]},"count":0},{"code":{"coding":[{"system":"http://terminology.hl7.org/CodeSystem/measure-population","code":"numerator","display":"Numerator"}]},"count":0},{"code":{"coding":[{"system":"http://terminology.hl7.org/CodeSystem/measure-population","code":"numerator-exclusion","display":"Numerator Exclusion"}]},"count":0}]}]},"request":{"method":"PUT","url":"MeasureReport/ceaba99d-494d-41ff-9b7e-6a1b96adafae"}}]}