{"resourceType":"Bundle","id":"tests-516e96fa-20cc-458c-8b63-435d78a8bd9a-bundle","type":"transaction","entry":[{"fullUrl":"https://madie.cms.gov/Patient/516e96fa-20cc-458c-8b63-435d78a8bd9a","resource":{"resourceType":"Patient","id":"516e96fa-20cc-458c-8b63-435d78a8bd9a","meta":{"profile":["http://hl7.org/fhir/us/qicore/StructureDefinition/qicore-patient"]},"text":{"status":"generated","div":"<div xmlns=\"http://www.w3.org/1999/xhtml\"><div class=\"hapiHeaderText\">DelProcRelDtTmEQEDStart <b>IPPASS </b></div><table class=\"hapiPropertyTable\"><tbody><tr><td>Date of birth</td><td><span>31 January 2004</span></td></tr></tbody></table></div>"},"extension":[{"url":"http://hl7.org/fhir/us/core/StructureDefinition/us-core-race","extension":[{"url":"ombCategory","valueCoding":{"system":"urn:oid:2.16.840.1.113883.6.238","code":"1002-5","display":"American Indian or Alaska Native","userSelected":true}},{"url":"text","valueString":"American Indian or Alaska Native"}]},{"url":"http://hl7.org/fhir/us/core/StructureDefinition/us-core-ethnicity","extension":[{"url":"ombCategory","valueCoding":{"system":"urn:oid:2.16.840.1.113883.6.238","code":"2135-2","display":"Hispanic or Latino","userSelected":true}},{"url":"text","valueString":"Hispanic or Latino"}]}],"identifier":[{"type":{"coding":[{"system":"http://terminology.hl7.org/CodeSystem/v2-0203","code":"MR"}]},"system":"https://bonnie-fhir.healthit.gov/","value":"633b3fa00968f80122503d13"}],"active":true,"name":[{"use":"usual","family":"IPPass","given":["DelProcRelDtTmEQEDStart"]}],"gender":"female","birthDate":"2004-01-31"},"request":{"method":"PUT","url":"Patient/516e96fa-20cc-458c-8b63-435d78a8bd9a"}},{"fullUrl":"https://madie.cms.gov/Encounter/5f21e66daca3e40000cb86cf","resource":{"resourceType":"Encounter","id":"fdfa0fef-e38c-4760-8935-8d820f6062e9","meta":{"profile":["http://hl7.org/fhir/us/qicore/StructureDefinition/qicore-encounter"]},"status":"finished","class":{"system":"http://terminology.hl7.org/CodeSystem/v3-ActCode","code":"IMP","display":"inpatient encounter"},"type":[{"coding":[{"system":"http://snomed.info/sct","code":"183452005"}]}],"subject":{"reference":"Patient/516e96fa-20cc-458c-8b63-435d78a8bd9a"},"period":{"start":"2025-02-01T09:00:00.000Z","end":"2025-02-05T08:15:00.000Z"}},"request":{"method":"PUT","url":"Encounter/fdfa0fef-e38c-4760-8935-8d820f6062e9"}},{"fullUrl":"https://madie.cms.gov/Encounter/6008b987d198200000ecc735","resource":{"resourceType":"Encounter","id":"7e55f1a1-a16b-4df2-bd58-3d9f27fdb1c5","meta":{"profile":["http://hl7.org/fhir/us/qicore/StructureDefinition/qicore-encounter"]},"status":"finished","class":{"system":"http://terminology.hl7.org/CodeSystem/v3-ActCode","code":"IMP","display":"inpatient encounter"},"type":[{"coding":[{"system":"http://snomed.info/sct","code":"448951000124107"}]}],"subject":{"reference":"Patient/516e96fa-20cc-458c-8b63-435d78a8bd9a"},"period":{"start":"2025-02-01T08:00:00.000Z","end":"2025-02-01T08:59:00.000Z"}},"request":{"method":"PUT","url":"Encounter/7e55f1a1-a16b-4df2-bd58-3d9f27fdb1c5"}},{"fullUrl":"https://madie.cms.gov/Encounter/6008b98bd198200000ecc753","resource":{"resourceType":"Encounter","id":"b70fb9fa-75e8-470d-a181-207208d64914","meta":{"profile":["http://hl7.org/fhir/us/qicore/StructureDefinition/qicore-encounter"]},"status":"finished","class":{"system":"http://terminology.hl7.org/CodeSystem/v3-ActCode","code":"IMP","display":"inpatient encounter"},"type":[{"coding":[{"system":"http://snomed.info/sct","code":"4525004"}]}],"subject":{"reference":"Patient/516e96fa-20cc-458c-8b63-435d78a8bd9a"},"period":{"start":"2025-02-01T07:00:00.000Z","end":"2025-02-01T07:59:00.000Z"}},"request":{"method":"PUT","url":"Encounter/b70fb9fa-75e8-470d-a181-207208d64914"}},{"fullUrl":"https://madie.cms.gov/Procedure/5f21e716aca3e40000cb87ee","resource":{"resourceType":"Procedure","id":"0d32e4d2-550e-4013-b1d0-10b013fe7abd","meta":{"profile":["http://hl7.org/fhir/us/qicore/StructureDefinition/qicore-procedure"]},"extension":[{"url":"http://hl7.org/fhir/us/qicore/StructureDefinition/qicore-recorded","valueDateTime":"2013-04-05T09:35:00-04:00"}],"status":"completed","code":{"coding":[{"system":"http://snomed.info/sct","code":"10745001"}]},"subject":{"reference":"Patient/516e96fa-20cc-458c-8b63-435d78a8bd9a"},"performedDateTime":"2025-02-01T07:00:00.000+00:00"},"request":{"method":"PUT","url":"Procedure/0d32e4d2-550e-4013-b1d0-10b013fe7abd"}},{"fullUrl":"https://madie.cms.gov/Coverage/1","resource":{"resourceType":"Coverage","id":"f3e2f35c-5462-4343-a5e5-8da0d30ae9b2","meta":{"profile":["http://hl7.org/fhir/us/qicore/StructureDefinition/qicore-coverage"]},"status":"active","beneficiary":{"reference":"Patient/516e96fa-20cc-458c-8b63-435d78a8bd9a"},"payor":[{"reference":"Organization/9e9b3f13-a353-4173-b29b-947d6f1f2031"}]},"request":{"method":"PUT","url":"Coverage/f3e2f35c-5462-4343-a5e5-8da0d30ae9b2"}},{"fullUrl":"https://madie.cms.gov/Organization/123456","resource":{"resourceType":"Organization","id":"9e9b3f13-a353-4173-b29b-947d6f1f2031","meta":{"profile":["http://hl7.org/fhir/us/qicore/StructureDefinition/qicore-organization"]},"identifier":[{"use":"temp","system":"urn:oid:2.16.840.1.113883.4.4","value":"21-3259825"}],"active":true,"type":[{"coding":[{"system":"http://terminology.hl7.org/CodeSystem/organization-type","code":"pay","display":"Payer"}]}],"name":"Blue Cross Blue Shield of Texas","telecom":[{"system":"phone","value":"(+1) 972-766-6900"}],"address":[{"use":"billing","type":"postal","line":["P.O. Box 660044"],"city":"Dallas","state":"TX","postalCode":"75266-0044","country":"USA"}]},"request":{"method":"PUT","url":"Organization/9e9b3f13-a353-4173-b29b-947d6f1f2031"}},{"fullUrl":"https://madie.cms.gov/Practitioner/practitioner-123456","resource":{"resourceType":"Practitioner","id":"a543e9cf-b8e9-4ef7-921b-0bc6908ea504","identifier":[{"system":"http://hl7.org/fhir/sid/us-npi","value":"123456"}],"name":[{"family":"Evil","prefix":["Dr"]}]},"request":{"method":"PUT","url":"Practitioner/a543e9cf-b8e9-4ef7-921b-0bc6908ea504"}},{"fullUrl":"https://madie.cms.gov/MeasureReport/78e7ae66-542e-4286-bbd0-60252493fd53","resource":{"resourceType":"MeasureReport","id":"78e7ae66-542e-4286-bbd0-60252493fd53","meta":{"profile":["http://hl7.org/fhir/us/cqfmeasures/StructureDefinition/test-case-cqfm"]},"contained":[{"resourceType":"Parameters","id":"fe79e59a-c55c-45c0-994b-d4bfb8f15965-parameters","parameter":[{"name":"subject","valueString":"516e96fa-20cc-458c-8b63-435d78a8bd9a"}]}],"extension":[{"url":"http://hl7.org/fhir/us/cqfmeasures/StructureDefinition/cqfm-inputParameters","valueReference":{"reference":"#fe79e59a-c55c-45c0-994b-d4bfb8f15965-parameters"}},{"url":"http://hl7.org/fhir/us/cqfmeasures/StructureDefinition/cqfm-testCaseDescription","valueMarkdown":"Delivery Procedure rel date/time = ED start.  ED/OBS/IP all meet global hospitalization criteria.\n"}],"modifierExtension":[{"url":"http://hl7.org/fhir/us/cqfmeasures/StructureDefinition/cqfm-isTestCase","valueBoolean":true}],"status":"complete","type":"individual","measure":"https://madie.cms.gov/Measure/SevereObstetricComplicationsFHIR","period":{"start":"2025-01-01","end":"2025-12-31"},"group":[{"population":[{"code":{"coding":[{"system":"http://terminology.hl7.org/CodeSystem/measure-population","code":"initial-population","display":"Initial Population"}]},"count":1},{"code":{"coding":[{"system":"http://terminology.hl7.org/CodeSystem/measure-population","code":"denominator","display":"Denominator"}]},"count":0},{"code":{"coding":[{"system":"http://terminology.hl7.org/CodeSystem/measure-population","code":"denominator-exclusion","display":"Denominator Exclusion"}]},"count":0},{"code":{"coding":[{"system":"http://terminology.hl7.org/CodeSystem/measure-population","code":"numerator","display":"Numerator"}]},"count":0},{"code":{"coding":[{"system":"http://terminology.hl7.org/CodeSystem/measure-population","code":"numerator-exclusion","display":"Numerator Exclusion"}]},"count":0}]}]},"request":{"method":"PUT","url":"MeasureReport/78e7ae66-542e-4286-bbd0-60252493fd53"}}]}