{"resourceType":"Bundle","id":"tests-1cf4f9fa-f716-489a-82f0-a5481c7d1b54-bundle","type":"transaction","entry":[{"fullUrl":"https://madie.cms.gov/Patient/1cf4f9fa-f716-489a-82f0-a5481c7d1b54","resource":{"resourceType":"Patient","id":"1cf4f9fa-f716-489a-82f0-a5481c7d1b54","meta":{"profile":["http://hl7.org/fhir/us/qicore/StructureDefinition/qicore-patient"]},"extension":[{"url":"http://hl7.org/fhir/us/core/StructureDefinition/us-core-race","extension":[{"url":"ombCategory","valueCoding":{"system":"urn:oid:2.16.840.1.113883.6.238","code":"1002-5","display":"American Indian or Alaska Native","userSelected":true}},{"url":"text","valueString":"American Indian or Alaska Native"}]},{"url":"http://hl7.org/fhir/us/core/StructureDefinition/us-core-ethnicity","extension":[{"url":"ombCategory","valueCoding":{"system":"urn:oid:2.16.840.1.113883.6.238","code":"2135-2","display":"Hispanic or Latino","userSelected":true}},{"url":"text","valueString":"Hispanic or Latino"}]}],"identifier":[{"type":{"coding":[{"system":"http://terminology.hl7.org/CodeSystem/v2-0203","code":"MR"}]},"system":"https://bonnie-fhir.healthit.gov/","value":"634efa0b94ec3c7cd8c85e07"}],"name":[{"family":"IPPass","given":["2DeliveryEnc11MosApart"]}],"gender":"female","birthDate":"2000-02-02"},"request":{"method":"PUT","url":"Patient/1cf4f9fa-f716-489a-82f0-a5481c7d1b54"}},{"fullUrl":"https://madie.cms.gov/Encounter/encounter-inpatient-5e08","resource":{"resourceType":"Encounter","id":"17cd09de-804f-40e7-9e7b-db655a4e97db","meta":{"profile":["http://hl7.org/fhir/us/qicore/StructureDefinition/qicore-encounter"]},"status":"finished","class":{"system":"http://terminology.hl7.org/CodeSystem/v3-ActCode","code":"IMP","display":"inpatient encounter"},"type":[{"coding":[{"system":"http://snomed.info/sct","version":"2022-09","code":"183452005","display":"Emergency hospital admission (procedure)","userSelected":true}]}],"subject":{"reference":"Patient/1cf4f9fa-f716-489a-82f0-a5481c7d1b54"},"period":{"start":"2025-01-01T08:00:00.000+00:00","end":"2025-01-05T08:15:00.000+00:00"}},"request":{"method":"PUT","url":"Encounter/17cd09de-804f-40e7-9e7b-db655a4e97db"}},{"fullUrl":"https://madie.cms.gov/Encounter/encounter-inpatient-5e09","resource":{"resourceType":"Encounter","id":"017a3ec7-aa6c-43a1-981e-cb065bada795","meta":{"profile":["http://hl7.org/fhir/us/qicore/StructureDefinition/qicore-encounter"]},"status":"finished","class":{"system":"http://terminology.hl7.org/CodeSystem/v3-ActCode","code":"IMP","display":"inpatient encounter"},"type":[{"coding":[{"system":"http://snomed.info/sct","version":"2022-09","code":"183452005","display":"Emergency hospital admission (procedure)","userSelected":true}]}],"subject":{"reference":"Patient/1cf4f9fa-f716-489a-82f0-a5481c7d1b54"},"period":{"start":"2025-02-01T08:00:00.000+00:00","end":"2025-12-05T08:15:00.000+00:00"}},"request":{"method":"PUT","url":"Encounter/017a3ec7-aa6c-43a1-981e-cb065bada795"}},{"fullUrl":"https://madie.cms.gov/Procedure/delivery-procedures-5e0a","resource":{"resourceType":"Procedure","id":"c0e3466f-b1a4-4352-b962-5bc9c1fed7ee","meta":{"profile":["http://hl7.org/fhir/us/qicore/StructureDefinition/qicore-procedure"]},"extension":[{"url":"http://hl7.org/fhir/us/qicore/StructureDefinition/qicore-recorded","valueDateTime":"2013-04-05T09:35:00-04:00"}],"status":"completed","code":{"coding":[{"system":"http://snomed.info/sct","version":"2022-09","code":"10745001","display":"Delivery of transverse presentation (procedure)","userSelected":true}]},"subject":{"reference":"Patient/1cf4f9fa-f716-489a-82f0-a5481c7d1b54"},"performedDateTime":"2025-01-01T08:00:00.000+00:00"},"request":{"method":"PUT","url":"Procedure/c0e3466f-b1a4-4352-b962-5bc9c1fed7ee"}},{"fullUrl":"https://madie.cms.gov/Procedure/delivery-procedures-5e0b","resource":{"resourceType":"Procedure","id":"1c54df0c-7f98-44cf-9cf2-5495e990e247","meta":{"profile":["http://hl7.org/fhir/us/qicore/StructureDefinition/qicore-procedure"]},"extension":[{"url":"http://hl7.org/fhir/us/qicore/StructureDefinition/qicore-recorded","valueDateTime":"2013-04-05T09:35:00-04:00"}],"status":"completed","code":{"coding":[{"system":"http://snomed.info/sct","version":"2022-09","code":"10745001","display":"Delivery of transverse presentation (procedure)","userSelected":true}]},"subject":{"reference":"Patient/1cf4f9fa-f716-489a-82f0-a5481c7d1b54"},"performedDateTime":"2025-12-01T08:00:00.000+00:00"},"request":{"method":"PUT","url":"Procedure/1c54df0c-7f98-44cf-9cf2-5495e990e247"}},{"fullUrl":"https://madie.cms.gov/Coverage/1","resource":{"resourceType":"Coverage","id":"9f709546-8552-4e82-92d8-52a521d0603c","meta":{"profile":["http://hl7.org/fhir/us/qicore/StructureDefinition/qicore-coverage"]},"status":"active","beneficiary":{"reference":"Patient/1cf4f9fa-f716-489a-82f0-a5481c7d1b54"},"payor":[{"reference":"Organization/f4907415-83c5-4eae-ab0b-cb63a840880d"}]},"request":{"method":"PUT","url":"Coverage/9f709546-8552-4e82-92d8-52a521d0603c"}},{"fullUrl":"https://madie.cms.gov/Organization/123456","resource":{"resourceType":"Organization","id":"f4907415-83c5-4eae-ab0b-cb63a840880d","meta":{"profile":["http://hl7.org/fhir/us/qicore/StructureDefinition/qicore-organization"]},"identifier":[{"use":"temp","system":"urn:oid:2.16.840.1.113883.4.4","value":"21-3259825"}],"active":true,"type":[{"coding":[{"system":"http://terminology.hl7.org/CodeSystem/organization-type","code":"pay","display":"Payer"}]}],"name":"Blue Cross Blue Shield of Texas","telecom":[{"system":"phone","value":"(+1) 972-766-6900"}],"address":[{"use":"billing","type":"postal","line":["P.O. Box 660044"],"city":"Dallas","state":"TX","postalCode":"75266-0044","country":"USA"}]},"request":{"method":"PUT","url":"Organization/f4907415-83c5-4eae-ab0b-cb63a840880d"}},{"fullUrl":"https://madie.cms.gov/Practitioner/practitioner-123456","resource":{"resourceType":"Practitioner","id":"16d68001-cc71-465d-8ab1-7950e8fbc8c0","identifier":[{"system":"http://hl7.org/fhir/sid/us-npi","value":"123456"}],"name":[{"family":"Evil","prefix":["Dr"]}]},"request":{"method":"PUT","url":"Practitioner/16d68001-cc71-465d-8ab1-7950e8fbc8c0"}},{"fullUrl":"https://madie.cms.gov/MeasureReport/0041aade-353f-400c-ab1a-75a02630b8b3","resource":{"resourceType":"MeasureReport","id":"0041aade-353f-400c-ab1a-75a02630b8b3","meta":{"profile":["http://hl7.org/fhir/us/cqfmeasures/StructureDefinition/test-case-cqfm"]},"contained":[{"resourceType":"Parameters","id":"61647725-c9c0-4c2d-95e7-afa1aa93dc7f-parameters","parameter":[{"name":"subject","valueString":"1cf4f9fa-f716-489a-82f0-a5481c7d1b54"}]}],"extension":[{"url":"http://hl7.org/fhir/us/cqfmeasures/StructureDefinition/cqfm-inputParameters","valueReference":{"reference":"#61647725-c9c0-4c2d-95e7-afa1aa93dc7f-parameters"}},{"url":"http://hl7.org/fhir/us/cqfmeasures/StructureDefinition/cqfm-testCaseDescription","valueMarkdown":"2 Delivery procedures 11 months apart.\n"}],"modifierExtension":[{"url":"http://hl7.org/fhir/us/cqfmeasures/StructureDefinition/cqfm-isTestCase","valueBoolean":true}],"status":"complete","type":"individual","measure":"https://madie.cms.gov/Measure/SevereObstetricComplicationsFHIR","period":{"start":"2025-01-01","end":"2025-12-31"},"group":[{"population":[{"code":{"coding":[{"system":"http://terminology.hl7.org/CodeSystem/measure-population","code":"initial-population","display":"Initial Population"}]},"count":2},{"code":{"coding":[{"system":"http://terminology.hl7.org/CodeSystem/measure-population","code":"denominator","display":"Denominator"}]},"count":0},{"code":{"coding":[{"system":"http://terminology.hl7.org/CodeSystem/measure-population","code":"denominator-exclusion","display":"Denominator Exclusion"}]},"count":0},{"code":{"coding":[{"system":"http://terminology.hl7.org/CodeSystem/measure-population","code":"numerator","display":"Numerator"}]},"count":0},{"code":{"coding":[{"system":"http://terminology.hl7.org/CodeSystem/measure-population","code":"numerator-exclusion","display":"Numerator Exclusion"}]},"count":0}]}]},"request":{"method":"PUT","url":"MeasureReport/0041aade-353f-400c-ab1a-75a02630b8b3"}}]}