{"resourceType":"Bundle","id":"tests-839e7c3a-a94f-418f-96cb-d356bf6de1da-bundle","type":"transaction","entry":[{"fullUrl":"https://madie.cms.gov/Patient/839e7c3a-a94f-418f-96cb-d356bf6de1da","resource":{"resourceType":"Patient","id":"839e7c3a-a94f-418f-96cb-d356bf6de1da","meta":{"profile":["http://hl7.org/fhir/us/qicore/StructureDefinition/qicore-patient"]},"extension":[{"url":"http://hl7.org/fhir/us/core/StructureDefinition/us-core-race","extension":[{"url":"ombCategory","valueCoding":{"system":"urn:oid:2.16.840.1.113883.6.238","code":"2028-9","display":"Asian"}},{"url":"text","valueString":"Asian"}]},{"url":"http://hl7.org/fhir/us/core/StructureDefinition/us-core-ethnicity","extension":[{"url":"ombCategory","valueCoding":{"system":"urn:oid:2.16.840.1.113883.6.238","code":"2135-2","display":"Hispanic or Latino"}},{"url":"text","valueString":"Hispanic or Latino"}]}],"identifier":[{"system":"http://hospital.smarthealthit.org","value":"999999995"}],"name":[{"family":"Bertha","given":["Betty"]}],"gender":"female","birthDate":"1960-01-01"},"request":{"method":"PUT","url":"Patient/839e7c3a-a94f-418f-96cb-d356bf6de1da"}},{"fullUrl":"https://madie.cms.gov/Encounter/Encounter-6","resource":{"resourceType":"Encounter","id":"Encounter-6","meta":{"profile":["http://hl7.org/fhir/us/qicore/StructureDefinition/qicore-encounter"]},"status":"finished","class":{"system":"http://terminology.hl7.org/CodeSystem/v3-ActCode","code":"AMB","display":"ambulatory"},"type":[{"coding":[{"system":"http://snomed.info/sct","code":"78831002","display":"Comprehensive eye examination (procedure)"}]}],"subject":{"reference":"Patient/839e7c3a-a94f-418f-96cb-d356bf6de1da"},"period":{"start":"2025-01-01T00:00:00.000Z","end":"2025-01-01T00:15:00.000Z"}},"request":{"method":"PUT","url":"Encounter/Encounter-6"}},{"fullUrl":"https://madie.cms.gov/Encounter/Encounter-7","resource":{"resourceType":"Encounter","id":"Encounter-7","meta":{"profile":["http://hl7.org/fhir/us/qicore/StructureDefinition/qicore-encounter"]},"status":"finished","class":{"system":"http://terminology.hl7.org/CodeSystem/v3-ActCode","code":"AMB","display":"ambulatory"},"type":[{"coding":[{"system":"http://snomed.info/sct","code":"32485007","display":"Hospital admission (procedure)"}]}],"subject":{"reference":"Patient/839e7c3a-a94f-418f-96cb-d356bf6de1da"},"period":{"start":"2024-12-31T23:59:59.000Z","end":"2025-01-01T01:00:00.000Z"},"hospitalization":{"dischargeDisposition":{"coding":[{"system":"http://snomed.info/sct","code":"428371000124100","display":"Discharge to healthcare facility for hospice care (procedure)"}]}}},"request":{"method":"PUT","url":"Encounter/Encounter-7"}},{"fullUrl":"https://madie.cms.gov/MeasureReport/492554b2-44f7-4131-b481-7de797b3639d","resource":{"resourceType":"MeasureReport","id":"492554b2-44f7-4131-b481-7de797b3639d","meta":{"profile":["http://hl7.org/fhir/us/cqfmeasures/StructureDefinition/test-case-cqfm"]},"contained":[{"resourceType":"Parameters","id":"82a9226b-7b74-498c-8da8-c309fa07a226-parameters","parameter":[{"name":"subject","valueString":"839e7c3a-a94f-418f-96cb-d356bf6de1da"}]}],"extension":[{"url":"http://hl7.org/fhir/us/cqfmeasures/StructureDefinition/cqfm-inputParameters","valueReference":{"reference":"#82a9226b-7b74-498c-8da8-c309fa07a226-parameters"}},{"url":"http://hl7.org/fhir/us/cqfmeasures/StructureDefinition/cqfm-testCaseDescription","valueMarkdown":"Patient with a hospice discharge during the MP."}],"modifierExtension":[{"url":"http://hl7.org/fhir/us/cqfmeasures/StructureDefinition/cqfm-isTestCase","valueBoolean":true}],"status":"complete","type":"individual","measure":"https://madie.cms.gov/Measure/FallsScreeningForFutureFallRiskFHIR","period":{"start":"2025-01-01","end":"2025-12-31"},"group":[{"population":[{"code":{"coding":[{"system":"http://terminology.hl7.org/CodeSystem/measure-population","code":"initial-population","display":"Initial Population"}]},"count":1},{"code":{"coding":[{"system":"http://terminology.hl7.org/CodeSystem/measure-population","code":"denominator","display":"Denominator"}]},"count":1},{"code":{"coding":[{"system":"http://terminology.hl7.org/CodeSystem/measure-population","code":"denominator-exclusion","display":"Denominator Exclusion"}]},"count":1},{"code":{"coding":[{"system":"http://terminology.hl7.org/CodeSystem/measure-population","code":"numerator","display":"Numerator"}]},"count":0}]}],"evaluatedResource":[{"reference":"Patient/839e7c3a-a94f-418f-96cb-d356bf6de1da"},{"reference":"Encounter/Encounter-6"},{"reference":"Encounter/Encounter-7"}]},"request":{"method":"PUT","url":"MeasureReport/492554b2-44f7-4131-b481-7de797b3639d"}}]}