{"resourceType":"Bundle","id":"tests-6f37e357-7575-4b40-a63e-4b882532250f-bundle","type":"transaction","entry":[{"fullUrl":"https://madie.cms.gov/Patient/6f37e357-7575-4b40-a63e-4b882532250f","resource":{"resourceType":"Patient","id":"6f37e357-7575-4b40-a63e-4b882532250f","meta":{"profile":["http://hl7.org/fhir/us/qicore/StructureDefinition/qicore-patient"]},"extension":[{"url":"http://hl7.org/fhir/us/core/StructureDefinition/us-core-race","extension":[{"url":"ombCategory","valueCoding":{"system":"urn:oid:2.16.840.1.113883.6.238","code":"2028-9","display":"Asian"}},{"url":"text","valueString":"Asian"}]},{"url":"http://hl7.org/fhir/us/core/StructureDefinition/us-core-ethnicity","extension":[{"url":"ombCategory","valueCoding":{"system":"urn:oid:2.16.840.1.113883.6.238","code":"2135-2","display":"Hispanic or Latino"}},{"url":"text","valueString":"Hispanic or Latino"}]}],"identifier":[{"system":"http://hospital.smarthealthit.org","value":"999999995"}],"name":[{"family":"NUMERPass","given":["SBP139DBP89StartOfMP"]}],"gender":"female","birthDate":"2006-12-31"},"request":{"method":"PUT","url":"Patient/6f37e357-7575-4b40-a63e-4b882532250f"}},{"fullUrl":"https://madie.cms.gov/Encounter/Encounter-5","resource":{"resourceType":"Encounter","id":"206fab22-7699-49e9-8419-7d705d74bda1","meta":{"profile":["http://hl7.org/fhir/us/qicore/StructureDefinition/qicore-encounter"]},"status":"finished","class":{"system":"http://terminology.hl7.org/CodeSystem/v3-ActCode","code":"AMB","display":"ambulatory"},"type":[{"coding":[{"system":"http://snomed.info/sct","code":"3391000175108","display":"Office visit for pediatric care and assessment (procedure)"}]}],"subject":{"reference":"Patient/6f37e357-7575-4b40-a63e-4b882532250f"},"period":{"start":"2025-01-01T00:00:00.000Z","end":"2025-01-01T01:00:00.000Z"}},"request":{"method":"PUT","url":"Encounter/206fab22-7699-49e9-8419-7d705d74bda1"}},{"fullUrl":"https://madie.cms.gov/Condition/Condition-5","resource":{"resourceType":"Condition","id":"7f4c0b7c-d0e5-411e-9262-2fccbbcfc32b","meta":{"profile":["http://hl7.org/fhir/us/qicore/StructureDefinition/qicore-condition"]},"clinicalStatus":{"coding":[{"system":"http://terminology.hl7.org/CodeSystem/condition-clinical","code":"active"}]},"category":[{"coding":[{"system":"http://terminology.hl7.org/CodeSystem/condition-category","code":"problem-list-item","display":"Problem List Item"}]}],"code":{"coding":[{"system":"http://snomed.info/sct","code":"371125006","display":"Labile essential hypertension (disorder)"}]},"subject":{"reference":"Patient/6f37e357-7575-4b40-a63e-4b882532250f"},"onsetDateTime":"2025-06-30T23:59:59.000Z"},"request":{"method":"PUT","url":"Condition/7f4c0b7c-d0e5-411e-9262-2fccbbcfc32b"}},{"fullUrl":"https://madie.cms.gov/Observation/Observation-5","resource":{"resourceType":"Observation","id":"4075922c-0ebd-4f9d-bc3b-b24233d470d9","meta":{"profile":["http://hl7.org/fhir/StructureDefinition/bp"]},"status":"final","category":[{"coding":[{"system":"http://terminology.hl7.org/CodeSystem/observation-category","code":"vital-signs","display":"Vital Signs"}],"text":"Vital Signs"}],"code":{"coding":[{"system":"http://loinc.org","code":"85354-9","display":"Blood pressure panel with all children optional"}]},"subject":{"reference":"Patient/6f37e357-7575-4b40-a63e-4b882532250f"},"encounter":{"reference":"Encounter/Encounter-5-1"},"effectiveDateTime":"2025-01-01T00:00:00.000Z","component":[{"code":{"coding":[{"system":"http://loinc.org","code":"8480-6","display":"Systolic blood pressure"}]},"valueQuantity":{"value":139,"unit":"mmHg","system":"http://unitsofmeasure.org","code":"mm[Hg]"}},{"code":{"coding":[{"system":"http://loinc.org","code":"8462-4","display":"Diastolic blood pressure"}]},"valueQuantity":{"value":89,"unit":"mmHg","system":"http://unitsofmeasure.org","code":"mm[Hg]"}}]},"request":{"method":"PUT","url":"Observation/4075922c-0ebd-4f9d-bc3b-b24233d470d9"}},{"fullUrl":"https://madie.cms.gov/Encounter/Encounter-5-1","resource":{"resourceType":"Encounter","id":"ec0c8981-037d-412c-9890-87a2b25e86ee","meta":{"profile":["http://hl7.org/fhir/us/qicore/StructureDefinition/qicore-encounter"]},"status":"finished","class":{"system":"http://terminology.hl7.org/CodeSystem/v3-ActCode","code":"AMB","display":"ambulatory"},"type":[{"coding":[{"system":"http://snomed.info/sct","code":"3391000175108","display":"Office visit for pediatric care and assessment (procedure)"}]}],"subject":{"reference":"Patient/6f37e357-7575-4b40-a63e-4b882532250f"},"period":{"start":"2025-01-01T00:00:00.000Z","end":"2025-01-01T01:00:00.000Z"}},"request":{"method":"PUT","url":"Encounter/ec0c8981-037d-412c-9890-87a2b25e86ee"}},{"fullUrl":"https://madie.cms.gov/MeasureReport/96d7d530-595f-41de-81c8-e0343c18f453","resource":{"resourceType":"MeasureReport","id":"96d7d530-595f-41de-81c8-e0343c18f453","meta":{"profile":["http://hl7.org/fhir/us/cqfmeasures/StructureDefinition/test-case-cqfm"]},"contained":[{"resourceType":"Parameters","id":"d4ffb616-95ef-4321-ba7f-6abdc2acf2bd-parameters","parameter":[{"name":"subject","valueString":"6f37e357-7575-4b40-a63e-4b882532250f"}]}],"extension":[{"url":"http://hl7.org/fhir/us/cqfmeasures/StructureDefinition/cqfm-inputParameters","valueReference":{"reference":"#d4ffb616-95ef-4321-ba7f-6abdc2acf2bd-parameters"}},{"url":"http://hl7.org/fhir/us/cqfmeasures/StructureDefinition/cqfm-testCaseDescription","valueMarkdown":"BP 139/89 during day of start of MP 1/1/2023"}],"modifierExtension":[{"url":"http://hl7.org/fhir/us/cqfmeasures/StructureDefinition/cqfm-isTestCase","valueBoolean":true}],"status":"complete","type":"individual","measure":"https://madie.cms.gov/Measure/ControllingHighBloodPressureFHIR","period":{"start":"2025-01-01","end":"2025-12-31"},"group":[{"population":[{"code":{"coding":[{"system":"http://terminology.hl7.org/CodeSystem/measure-population","code":"initial-population","display":"Initial Population"}]},"count":1},{"code":{"coding":[{"system":"http://terminology.hl7.org/CodeSystem/measure-population","code":"denominator","display":"Denominator"}]},"count":1},{"code":{"coding":[{"system":"http://terminology.hl7.org/CodeSystem/measure-population","code":"denominator-exclusion","display":"Denominator Exclusion"}]},"count":0},{"code":{"coding":[{"system":"http://terminology.hl7.org/CodeSystem/measure-population","code":"numerator","display":"Numerator"}]},"count":1}]}]},"request":{"method":"PUT","url":"MeasureReport/96d7d530-595f-41de-81c8-e0343c18f453"}}]}