{"resourceType":"Bundle","id":"tests-78fc0433-a72a-45a3-b2c4-995e614674cb-bundle","type":"transaction","entry":[{"fullUrl":"https://madie.cms.gov/Patient/78fc0433-a72a-45a3-b2c4-995e614674cb","resource":{"resourceType":"Patient","id":"78fc0433-a72a-45a3-b2c4-995e614674cb","meta":{"profile":["http://hl7.org/fhir/us/qicore/StructureDefinition/qicore-patient"]},"extension":[{"url":"http://hl7.org/fhir/us/core/StructureDefinition/us-core-race","extension":[{"url":"ombCategory","valueCoding":{"system":"urn:oid:2.16.840.1.113883.6.238","code":"2028-9","display":"Asian"}},{"url":"text","valueString":"Asian"}]},{"url":"http://hl7.org/fhir/us/core/StructureDefinition/us-core-ethnicity","extension":[{"url":"ombCategory","valueCoding":{"system":"urn:oid:2.16.840.1.113883.6.238","code":"2135-2","display":"Hispanic or Latino"}},{"url":"text","valueString":"Hispanic or Latino"}]}],"identifier":[{"system":"http://hospital.smarthealthit.org","value":"999999995"}],"name":[{"family":"Bertha","given":["Betty"]}],"gender":"female","birthDate":"2006-12-31"},"request":{"method":"PUT","url":"Patient/78fc0433-a72a-45a3-b2c4-995e614674cb"}},{"fullUrl":"https://madie.cms.gov/Encounter/Encounter-3","resource":{"resourceType":"Encounter","id":"Encounter-3","meta":{"profile":["http://hl7.org/fhir/us/qicore/StructureDefinition/qicore-encounter"]},"status":"finished","class":{"system":"http://terminology.hl7.org/CodeSystem/v3-ActCode","code":"AMB","display":"ambulatory"},"type":[{"coding":[{"system":"http://snomed.info/sct","code":"3391000175108","display":"Office visit for pediatric care and assessment (procedure)"}]}],"subject":{"reference":"Patient/78fc0433-a72a-45a3-b2c4-995e614674cb"},"period":{"start":"2025-01-01T00:00:00.000Z","end":"2025-01-01T01:00:00.000Z"}},"request":{"method":"PUT","url":"Encounter/Encounter-3"}},{"fullUrl":"https://madie.cms.gov/Condition/Condition-3-0","resource":{"resourceType":"Condition","id":"Condition-3-0","meta":{"profile":["http://hl7.org/fhir/us/qicore/StructureDefinition/qicore-condition"]},"clinicalStatus":{"coding":[{"system":"http://terminology.hl7.org/CodeSystem/condition-clinical","code":"active"}]},"category":[{"coding":[{"system":"http://terminology.hl7.org/CodeSystem/condition-category","code":"problem-list-item","display":"Problem List Item"}]}],"code":{"coding":[{"system":"http://snomed.info/sct","code":"371125006","display":"Labile essential hypertension (disorder)"}]},"subject":{"reference":"Patient/78fc0433-a72a-45a3-b2c4-995e614674cb"},"onsetDateTime":"2025-06-30T23:59:59.000Z"},"request":{"method":"PUT","url":"Condition/Condition-3-0"}},{"fullUrl":"https://madie.cms.gov/Encounter/Encounter-3-0","resource":{"resourceType":"Encounter","id":"Encounter-3-0","meta":{"profile":["http://hl7.org/fhir/us/qicore/StructureDefinition/qicore-encounter"]},"status":"finished","class":{"system":"http://terminology.hl7.org/CodeSystem/v3-ActCode","code":"AMB","display":"ambulatory"},"type":[{"coding":[{"system":"http://www.ama-assn.org/go/cpt","code":"90999","display":"Unlisted dialysis procedure, inpatient or outpatient"}]}],"subject":{"reference":"Patient/78fc0433-a72a-45a3-b2c4-995e614674cb"},"period":{"start":"2025-01-01T00:00:00.000Z","end":"2025-01-01T01:00:00.000Z"}},"request":{"method":"PUT","url":"Encounter/Encounter-3-0"}},{"fullUrl":"https://madie.cms.gov/MeasureReport/bac66fa9-acd9-4052-b4f6-5cbe23ee26bb","resource":{"resourceType":"MeasureReport","id":"bac66fa9-acd9-4052-b4f6-5cbe23ee26bb","meta":{"profile":["http://hl7.org/fhir/us/cqfmeasures/StructureDefinition/test-case-cqfm"]},"contained":[{"resourceType":"Parameters","id":"3cca9fb5-7abd-4e13-a0c7-fb009b632dcd-parameters","parameter":[{"name":"subject","valueString":"78fc0433-a72a-45a3-b2c4-995e614674cb"}]}],"extension":[{"url":"http://hl7.org/fhir/us/cqfmeasures/StructureDefinition/cqfm-inputParameters","valueReference":{"reference":"#3cca9fb5-7abd-4e13-a0c7-fb009b632dcd-parameters"}},{"url":"http://hl7.org/fhir/us/cqfmeasures/StructureDefinition/cqfm-testCaseDescription","valueMarkdown":"ESRD during MP"}],"modifierExtension":[{"url":"http://hl7.org/fhir/us/cqfmeasures/StructureDefinition/cqfm-isTestCase","valueBoolean":true}],"status":"complete","type":"individual","measure":"https://madie.cms.gov/Measure/ControllingHighBloodPressureFHIR","period":{"start":"2025-01-01","end":"2025-12-31"},"group":[{"population":[{"code":{"coding":[{"system":"http://terminology.hl7.org/CodeSystem/measure-population","code":"initial-population","display":"Initial Population"}]},"count":1},{"code":{"coding":[{"system":"http://terminology.hl7.org/CodeSystem/measure-population","code":"denominator","display":"Denominator"}]},"count":1},{"code":{"coding":[{"system":"http://terminology.hl7.org/CodeSystem/measure-population","code":"denominator-exclusion","display":"Denominator Exclusion"}]},"count":1},{"code":{"coding":[{"system":"http://terminology.hl7.org/CodeSystem/measure-population","code":"numerator","display":"Numerator"}]},"count":0}]}],"evaluatedResource":[{"reference":"Patient/78fc0433-a72a-45a3-b2c4-995e614674cb"},{"reference":"Encounter/Encounter-3"},{"reference":"Condition/Condition-3-0"},{"reference":"Encounter/Encounter-3-0"}]},"request":{"method":"PUT","url":"MeasureReport/bac66fa9-acd9-4052-b4f6-5cbe23ee26bb"}}]}