{"resourceType":"Bundle","id":"tests-6769ebe0-1b45-472a-ba7b-8f9a014d94a6-bundle","type":"transaction","entry":[{"fullUrl":"https://madie.cms.gov/Patient/6769ebe0-1b45-472a-ba7b-8f9a014d94a6","resource":{"resourceType":"Patient","id":"6769ebe0-1b45-472a-ba7b-8f9a014d94a6","meta":{"profile":["http://hl7.org/fhir/us/qicore/StructureDefinition/qicore-patient"]},"extension":[{"url":"http://hl7.org/fhir/us/core/StructureDefinition/us-core-race","extension":[{"url":"ombCategory","valueCoding":{"system":"urn:oid:2.16.840.1.113883.6.238","code":"2028-9","display":"Asian"}},{"url":"text","valueString":"Asian"}]},{"url":"http://hl7.org/fhir/us/core/StructureDefinition/us-core-ethnicity","extension":[{"url":"ombCategory","valueCoding":{"system":"urn:oid:2.16.840.1.113883.6.238","code":"2135-2","display":"Hispanic or Latino"}},{"url":"text","valueString":"Hispanic or Latino"}]}],"identifier":[{"system":"http://hospital.smarthealthit.org","value":"999999995"}],"name":[{"family":"Bertha","given":["Betty"]}],"gender":"female","birthDate":"2006-12-31"},"request":{"method":"PUT","url":"Patient/6769ebe0-1b45-472a-ba7b-8f9a014d94a6"}},{"fullUrl":"https://madie.cms.gov/Encounter/Encounter-1","resource":{"resourceType":"Encounter","id":"Encounter-1","meta":{"profile":["http://hl7.org/fhir/us/qicore/StructureDefinition/qicore-encounter"]},"status":"finished","class":{"system":"http://terminology.hl7.org/CodeSystem/v3-ActCode","code":"AMB","display":"ambulatory"},"type":[{"coding":[{"system":"http://snomed.info/sct","code":"401267002","display":"Telephone triage encounter (procedure)"}]}],"subject":{"reference":"Patient/6769ebe0-1b45-472a-ba7b-8f9a014d94a6"},"period":{"start":"2025-01-01T00:00:00.000Z","end":"2025-01-01T01:00:00.000Z"}},"request":{"method":"PUT","url":"Encounter/Encounter-1"}},{"fullUrl":"https://madie.cms.gov/Condition/Condition-1","resource":{"resourceType":"Condition","id":"Condition-1","meta":{"profile":["http://hl7.org/fhir/us/qicore/StructureDefinition/qicore-condition"]},"clinicalStatus":{"coding":[{"system":"http://terminology.hl7.org/CodeSystem/condition-clinical","code":"active"}]},"category":[{"coding":[{"system":"http://terminology.hl7.org/CodeSystem/condition-category","code":"problem-list-item","display":"Problem List Item"}]}],"code":{"coding":[{"system":"http://snomed.info/sct","code":"371125006","display":"Labile essential hypertension (disorder)"}]},"subject":{"reference":"Patient/6769ebe0-1b45-472a-ba7b-8f9a014d94a6"},"onsetDateTime":"2025-06-30T23:59:59.000Z"},"request":{"method":"PUT","url":"Condition/Condition-1"}},{"fullUrl":"https://madie.cms.gov/MeasureReport/b87447f1-8dcd-4d39-8cec-efb2d916b817","resource":{"resourceType":"MeasureReport","id":"b87447f1-8dcd-4d39-8cec-efb2d916b817","meta":{"profile":["http://hl7.org/fhir/us/cqfmeasures/StructureDefinition/test-case-cqfm"]},"contained":[{"resourceType":"Parameters","id":"76047188-a7be-4cd5-8517-df0a397a874f-parameters","parameter":[{"name":"subject","valueString":"6769ebe0-1b45-472a-ba7b-8f9a014d94a6"}]}],"extension":[{"url":"http://hl7.org/fhir/us/cqfmeasures/StructureDefinition/cqfm-inputParameters","valueReference":{"reference":"#76047188-a7be-4cd5-8517-df0a397a874f-parameters"}},{"url":"http://hl7.org/fhir/us/cqfmeasures/StructureDefinition/cqfm-testCaseDescription","valueMarkdown":"Telephone visit during MP"}],"modifierExtension":[{"url":"http://hl7.org/fhir/us/cqfmeasures/StructureDefinition/cqfm-isTestCase","valueBoolean":true}],"status":"complete","type":"individual","measure":"https://madie.cms.gov/Measure/ControllingHighBloodPressureFHIR","period":{"start":"2025-01-01","end":"2025-12-31"},"group":[{"population":[{"code":{"coding":[{"system":"http://terminology.hl7.org/CodeSystem/measure-population","code":"initial-population","display":"Initial Population"}]},"count":1},{"code":{"coding":[{"system":"http://terminology.hl7.org/CodeSystem/measure-population","code":"denominator","display":"Denominator"}]},"count":1},{"code":{"coding":[{"system":"http://terminology.hl7.org/CodeSystem/measure-population","code":"denominator-exclusion","display":"Denominator Exclusion"}]},"count":0},{"code":{"coding":[{"system":"http://terminology.hl7.org/CodeSystem/measure-population","code":"numerator","display":"Numerator"}]},"count":0}]}],"evaluatedResource":[{"reference":"Patient/6769ebe0-1b45-472a-ba7b-8f9a014d94a6"},{"reference":"Encounter/Encounter-1"},{"reference":"Condition/Condition-1"}]},"request":{"method":"PUT","url":"MeasureReport/b87447f1-8dcd-4d39-8cec-efb2d916b817"}}]}