{"resourceType":"Bundle","id":"tests-3dd27b30-058d-409a-84eb-252d40470597-bundle","type":"transaction","entry":[{"fullUrl":"https://madie.cms.gov/Patient/3dd27b30-058d-409a-84eb-252d40470597","resource":{"resourceType":"Patient","id":"3dd27b30-058d-409a-84eb-252d40470597","meta":{"profile":["http://hl7.org/fhir/us/qicore/StructureDefinition/qicore-patient"]},"extension":[{"url":"http://hl7.org/fhir/us/core/StructureDefinition/us-core-race","extension":[{"url":"ombCategory","valueCoding":{"system":"urn:oid:2.16.840.1.113883.6.238","code":"2106-3","display":"White","userSelected":true}},{"url":"text","valueString":"White"}]},{"url":"http://hl7.org/fhir/us/core/StructureDefinition/us-core-ethnicity","extension":[{"url":"ombCategory","valueCoding":{"system":"urn:oid:2.16.840.1.113883.6.238","code":"2186-5","display":"Not Hispanic or Latino","userSelected":true}},{"url":"text","valueString":"Not Hispanic or Latino"}]}],"identifier":[{"type":{"coding":[{"system":"http://terminology.hl7.org/CodeSystem/v2-0203","code":"MR"}]},"system":"https://bonnie-fhir.healthit.gov/","value":"62fa8210e884ee19102758b0"}],"name":[{"family":"DENEXCEPPop2Fail","given":["AdverseReactionStatinAfterEndMP"]}],"gender":"male","birthDate":"2003-12-31"},"request":{"method":"PUT","url":"Patient/3dd27b30-058d-409a-84eb-252d40470597"}},{"fullUrl":"https://madie.cms.gov/Encounter/office-visit-35d3","resource":{"resourceType":"Encounter","id":"987e1f2f-f4a8-47a1-8e4c-667a7dba967c","meta":{"profile":["http://hl7.org/fhir/us/qicore/StructureDefinition/qicore-encounter"]},"status":"finished","class":{"system":"http://terminology.hl7.org/CodeSystem/v3-ActCode","code":"AMB","display":"ambulatory"},"type":[{"coding":[{"system":"http://snomed.info/sct","version":"2022-03","code":"185463005","display":"Visit out of hours (procedure)","userSelected":true}]}],"subject":{"reference":"Patient/3dd27b30-058d-409a-84eb-252d40470597"},"period":{"start":"2025-01-01T08:00:00.000+00:00","end":"2025-01-01T08:30:00.000+00:00"}},"request":{"method":"PUT","url":"Encounter/987e1f2f-f4a8-47a1-8e4c-667a7dba967c"}},{"fullUrl":"https://madie.cms.gov/AdverseEvent/statin-allergen-35d9","resource":{"resourceType":"AdverseEvent","id":"a4c92949-c652-47e5-bd7b-77a0f22a3b9a","meta":{"profile":["http://hl7.org/fhir/us/qicore/StructureDefinition/qicore-adverseevent"]},"actuality":"actual","event":{"coding":[{"system":"http://www.nlm.nih.gov/research/umls/rxnorm","version":"2022-06","code":"301542","display":"rosuvastatin","userSelected":true}]},"subject":{"reference":"Patient/3dd27b30-058d-409a-84eb-252d40470597"},"recordedDate":"2026-01-01T08:00:00.000+00:00"},"request":{"method":"PUT","url":"AdverseEvent/a4c92949-c652-47e5-bd7b-77a0f22a3b9a"}},{"fullUrl":"https://madie.cms.gov/Observation/ldl-cholesterol-9c48","resource":{"resourceType":"Observation","id":"6acbbf60-d73e-4efe-811f-d3adf8258be4","meta":{"profile":["http://hl7.org/fhir/us/qicore/StructureDefinition/qicore-observation"]},"status":"amended","category":[{"coding":[{"system":"http://terminology.hl7.org/CodeSystem/observation-category","code":"procedure","display":"Procedure"}]}],"code":{"coding":[{"system":"http://loinc.org","version":"2.72","code":"13457-7","display":"Cholesterol in LDL [Mass/volume] in Serum or Plasma by calculation","userSelected":true}]},"subject":{"reference":"Patient/3dd27b30-058d-409a-84eb-252d40470597"},"effectiveDateTime":"2025-01-01T08:15:00.000+00:00","valueQuantity":{"value":190,"unit":"mg/dL","system":"http://unitsofmeasure.org","code":"mg/dL"}},"request":{"method":"PUT","url":"Observation/6acbbf60-d73e-4efe-811f-d3adf8258be4"}},{"fullUrl":"https://madie.cms.gov/Coverage/1","resource":{"resourceType":"Coverage","id":"d9533ce4-18fd-464d-b2c9-d06f0dfc4741","meta":{"profile":["http://hl7.org/fhir/us/qicore/StructureDefinition/qicore-coverage"]},"status":"active","beneficiary":{"reference":"Patient/3dd27b30-058d-409a-84eb-252d40470597"},"payor":[{"reference":"Organization/4d7da20f-8773-4347-8f6b-80adcdcee1f4"}]},"request":{"method":"PUT","url":"Coverage/d9533ce4-18fd-464d-b2c9-d06f0dfc4741"}},{"fullUrl":"https://madie.cms.gov/Organization/123456","resource":{"resourceType":"Organization","id":"4d7da20f-8773-4347-8f6b-80adcdcee1f4","meta":{"profile":["http://hl7.org/fhir/us/qicore/StructureDefinition/qicore-organization"]},"identifier":[{"use":"temp","system":"urn:oid:2.16.840.1.113883.4.4","value":"21-3259825"}],"active":true,"type":[{"coding":[{"system":"http://terminology.hl7.org/CodeSystem/organization-type","code":"pay","display":"Payer"}]}],"name":"Blue Cross Blue Shield of Texas","telecom":[{"system":"phone","value":"(+1) 972-766-6900"}],"address":[{"use":"billing","type":"postal","line":["P.O. Box 660044"],"city":"Dallas","state":"TX","postalCode":"75266-0044","country":"USA"}]},"request":{"method":"PUT","url":"Organization/4d7da20f-8773-4347-8f6b-80adcdcee1f4"}},{"fullUrl":"https://madie.cms.gov/Practitioner/practitioner-123456","resource":{"resourceType":"Practitioner","id":"a71315ed-54c6-415d-9fdb-58d6b95694f6","meta":{"profile":["http://hl7.org/fhir/us/qicore/StructureDefinition/qicore-practitioner"]},"identifier":[{"system":"http://hl7.org/fhir/sid/us-npi","value":"123456"}],"name":[{"family":"Evil","prefix":["Dr"]}]},"request":{"method":"PUT","url":"Practitioner/a71315ed-54c6-415d-9fdb-58d6b95694f6"}},{"fullUrl":"https://madie.cms.gov/MeasureReport/7de77f1c-6bba-48aa-ab88-4b26bd2941cf","resource":{"resourceType":"MeasureReport","id":"7de77f1c-6bba-48aa-ab88-4b26bd2941cf","meta":{"profile":["http://hl7.org/fhir/us/cqfmeasures/StructureDefinition/test-case-cqfm"]},"contained":[{"resourceType":"Parameters","id":"58a4a17d-3ce3-49be-bcdf-dd61b9a0ecb9-parameters","parameter":[{"name":"subject","valueString":"3dd27b30-058d-409a-84eb-252d40470597"}]}],"extension":[{"url":"http://hl7.org/fhir/us/cqfmeasures/StructureDefinition/cqfm-inputParameters","valueReference":{"reference":"#58a4a17d-3ce3-49be-bcdf-dd61b9a0ecb9-parameters"}},{"url":"http://hl7.org/fhir/us/cqfmeasures/StructureDefinition/cqfm-testCaseDescription","valueMarkdown":"Enc. during MP, age 20, LDL 190 mg/dL,  adverse reaction after MP (2025), fails to meet exception since reaction is after MP"}],"modifierExtension":[{"url":"http://hl7.org/fhir/us/cqfmeasures/StructureDefinition/cqfm-isTestCase","valueBoolean":true}],"status":"complete","type":"individual","measure":"https://madie.cms.gov/Measure/StatinTherapyforthePreventionandTreatmentofCardiovascularDiseaseFHIR","period":{"start":"2025-01-01","end":"2025-12-31"},"group":[{"population":[{"code":{"coding":[{"system":"http://terminology.hl7.org/CodeSystem/measure-population","code":"initial-population","display":"Initial Population"}]},"count":0},{"code":{"coding":[{"system":"http://terminology.hl7.org/CodeSystem/measure-population","code":"denominator","display":"Denominator"}]},"count":0},{"code":{"coding":[{"system":"http://terminology.hl7.org/CodeSystem/measure-population","code":"denominator-exclusion","display":"Denominator Exclusion"}]},"count":0},{"code":{"coding":[{"system":"http://terminology.hl7.org/CodeSystem/measure-population","code":"numerator","display":"Numerator"}]},"count":0},{"code":{"coding":[{"system":"http://terminology.hl7.org/CodeSystem/measure-population","code":"denominator-exception","display":"Denominator Exception"}]},"count":0}]},{"population":[{"code":{"coding":[{"system":"http://terminology.hl7.org/CodeSystem/measure-population","code":"initial-population","display":"Initial Population"}]},"count":1},{"code":{"coding":[{"system":"http://terminology.hl7.org/CodeSystem/measure-population","code":"denominator","display":"Denominator"}]},"count":1},{"code":{"coding":[{"system":"http://terminology.hl7.org/CodeSystem/measure-population","code":"denominator-exclusion","display":"Denominator Exclusion"}]},"count":0},{"code":{"coding":[{"system":"http://terminology.hl7.org/CodeSystem/measure-population","code":"numerator","display":"Numerator"}]},"count":0},{"code":{"coding":[{"system":"http://terminology.hl7.org/CodeSystem/measure-population","code":"denominator-exception","display":"Denominator Exception"}]},"count":0}]},{"population":[{"code":{"coding":[{"system":"http://terminology.hl7.org/CodeSystem/measure-population","code":"initial-population","display":"Initial Population"}]},"count":0},{"code":{"coding":[{"system":"http://terminology.hl7.org/CodeSystem/measure-population","code":"denominator","display":"Denominator"}]},"count":0},{"code":{"coding":[{"system":"http://terminology.hl7.org/CodeSystem/measure-population","code":"denominator-exclusion","display":"Denominator Exclusion"}]},"count":0},{"code":{"coding":[{"system":"http://terminology.hl7.org/CodeSystem/measure-population","code":"numerator","display":"Numerator"}]},"count":0},{"code":{"coding":[{"system":"http://terminology.hl7.org/CodeSystem/measure-population","code":"denominator-exception","display":"Denominator Exception"}]},"count":0}]},{"population":[{"code":{"coding":[{"system":"http://terminology.hl7.org/CodeSystem/measure-population","code":"initial-population","display":"Initial Population"}]},"count":0},{"code":{"coding":[{"system":"http://terminology.hl7.org/CodeSystem/measure-population","code":"denominator","display":"Denominator"}]},"count":0},{"code":{"coding":[{"system":"http://terminology.hl7.org/CodeSystem/measure-population","code":"denominator-exclusion","display":"Denominator Exclusion"}]},"count":0},{"code":{"coding":[{"system":"http://terminology.hl7.org/CodeSystem/measure-population","code":"numerator","display":"Numerator"}]},"count":0},{"code":{"coding":[{"system":"http://terminology.hl7.org/CodeSystem/measure-population","code":"denominator-exception","display":"Denominator Exception"}]},"count":0}]}]},"request":{"method":"PUT","url":"MeasureReport/7de77f1c-6bba-48aa-ab88-4b26bd2941cf"}}]}