{"resourceType":"Bundle","id":"tests-d9d151d1-9bd3-40ce-a2c1-cb8a985328fc-bundle","type":"transaction","entry":[{"fullUrl":"https://madie.cms.gov/Patient/d9d151d1-9bd3-40ce-a2c1-cb8a985328fc","resource":{"resourceType":"Patient","id":"d9d151d1-9bd3-40ce-a2c1-cb8a985328fc","meta":{"profile":["http://hl7.org/fhir/us/qicore/StructureDefinition/qicore-patient"]},"extension":[{"url":"http://hl7.org/fhir/us/core/StructureDefinition/us-core-race","extension":[{"url":"ombCategory","valueCoding":{"system":"urn:oid:2.16.840.1.113883.6.238","code":"2076-8","display":"Native Hawaiian or Other Pacific Islander","userSelected":true}},{"url":"text","valueString":"Native Hawaiian or Other Pacific Islander"}]},{"url":"http://hl7.org/fhir/us/core/StructureDefinition/us-core-ethnicity","extension":[{"url":"ombCategory","valueCoding":{"system":"urn:oid:2.16.840.1.113883.6.238","code":"2186-5","display":"Not Hispanic or Latino","userSelected":true}},{"url":"text","valueString":"Not Hispanic or Latino"}]}],"identifier":[{"type":{"coding":[{"system":"http://terminology.hl7.org/CodeSystem/v2-0203","code":"MR"}]},"system":"https://bonnie-fhir.healthit.gov/","value":"62fa815ee884ee19102758af"}],"name":[{"family":"DENEXCEPPop1Fail","given":["HospiceProcedureEndsBeforeMP"]}],"gender":"female","birthDate":"1994-12-31"},"request":{"method":"PUT","url":"Patient/d9d151d1-9bd3-40ce-a2c1-cb8a985328fc"}},{"fullUrl":"https://madie.cms.gov/Encounter/office-visit-3909","resource":{"resourceType":"Encounter","id":"5bc18893-b326-4839-9f8b-30de0adf0ae7","meta":{"profile":["http://hl7.org/fhir/us/qicore/StructureDefinition/qicore-encounter"]},"status":"finished","class":{"system":"http://terminology.hl7.org/CodeSystem/v3-ActCode","code":"AMB","display":"ambulatory"},"type":[{"coding":[{"system":"http://snomed.info/sct","version":"2022-03","code":"185463005","display":"Visit out of hours (procedure)","userSelected":true}]}],"subject":{"reference":"Patient/d9d151d1-9bd3-40ce-a2c1-cb8a985328fc"},"period":{"start":"2025-01-01T08:00:00.000+00:00","end":"2025-01-01T08:45:00.000+00:00"}},"request":{"method":"PUT","url":"Encounter/5bc18893-b326-4839-9f8b-30de0adf0ae7"}},{"fullUrl":"https://madie.cms.gov/Condition/cerebrovascular-disease-stroke-or-tia-390a","resource":{"resourceType":"Condition","id":"8835d25d-20b7-4e4d-a66d-f6ccdf5aae25","meta":{"profile":["http://hl7.org/fhir/us/qicore/StructureDefinition/qicore-condition"]},"clinicalStatus":{"coding":[{"system":"http://terminology.hl7.org/CodeSystem/condition-clinical","code":"active","display":"Active","userSelected":true}]},"verificationStatus":{"coding":[{"system":"http://terminology.hl7.org/CodeSystem/condition-ver-status","code":"confirmed","display":"Confirmed","userSelected":true}]},"category":[{"coding":[{"system":"http://terminology.hl7.org/CodeSystem/condition-category","code":"problem-list-item","display":"Problem List Item"}]}],"code":{"coding":[{"system":"http://snomed.info/sct","version":"2022-03","code":"102831000119104","display":"Paralytic syndrome of both lower limbs as sequela of stroke (disorder)","userSelected":true}]},"subject":{"reference":"Patient/d9d151d1-9bd3-40ce-a2c1-cb8a985328fc"},"onsetPeriod":{"start":"2024-12-31T08:00:00.000+00:00"},"recordedDate":"2025-12-31T08:00:00.000+00:00"},"request":{"method":"PUT","url":"Condition/8835d25d-20b7-4e4d-a66d-f6ccdf5aae25"}},{"fullUrl":"https://madie.cms.gov/Procedure/hospice-care-ambulatory-35d1","resource":{"resourceType":"Procedure","id":"7380e126-142a-411d-b3c0-057c994941f5","meta":{"profile":["http://hl7.org/fhir/us/qicore/StructureDefinition/qicore-procedure"]},"extension":[{"url":"http://hl7.org/fhir/us/qicore/StructureDefinition/qicore-recorded","valueDateTime":"2025-01-01T09:00:00.000+00:00"}],"status":"completed","code":{"coding":[{"system":"http://snomed.info/sct","version":"2022-03","code":"170935008","display":"Full care by hospice (finding)","userSelected":true}]},"subject":{"reference":"Patient/d9d151d1-9bd3-40ce-a2c1-cb8a985328fc"},"performedDateTime":"2024-12-31T08:00:00.000+00:00"},"request":{"method":"PUT","url":"Procedure/7380e126-142a-411d-b3c0-057c994941f5"}},{"fullUrl":"https://madie.cms.gov/Coverage/1","resource":{"resourceType":"Coverage","id":"a3c68896-acd7-4db2-855b-a34db69c7d51","meta":{"profile":["http://hl7.org/fhir/us/qicore/StructureDefinition/qicore-coverage"]},"status":"active","beneficiary":{"reference":"Patient/d9d151d1-9bd3-40ce-a2c1-cb8a985328fc"},"payor":[{"reference":"Organization/4d7da20f-8773-4347-8f6b-80adcdcee1f4"}]},"request":{"method":"PUT","url":"Coverage/a3c68896-acd7-4db2-855b-a34db69c7d51"}},{"fullUrl":"https://madie.cms.gov/Organization/123456","resource":{"resourceType":"Organization","id":"4d7da20f-8773-4347-8f6b-80adcdcee1f4","meta":{"profile":["http://hl7.org/fhir/us/qicore/StructureDefinition/qicore-organization"]},"identifier":[{"use":"temp","system":"urn:oid:2.16.840.1.113883.4.4","value":"21-3259825"}],"active":true,"type":[{"coding":[{"system":"http://terminology.hl7.org/CodeSystem/organization-type","code":"pay","display":"Payer"}]}],"name":"Blue Cross Blue Shield of Texas","telecom":[{"system":"phone","value":"(+1) 972-766-6900"}],"address":[{"use":"billing","type":"postal","line":["P.O. Box 660044"],"city":"Dallas","state":"TX","postalCode":"75266-0044","country":"USA"}]},"request":{"method":"PUT","url":"Organization/4d7da20f-8773-4347-8f6b-80adcdcee1f4"}},{"fullUrl":"https://madie.cms.gov/Practitioner/practitioner-123456","resource":{"resourceType":"Practitioner","id":"7de49407-6c3f-4a5f-8ee7-8d2efa409e82","meta":{"profile":["http://hl7.org/fhir/us/qicore/StructureDefinition/qicore-practitioner"]},"identifier":[{"system":"http://hl7.org/fhir/sid/us-npi","value":"123456"}],"name":[{"family":"Evil","prefix":["Dr"]}]},"request":{"method":"PUT","url":"Practitioner/7de49407-6c3f-4a5f-8ee7-8d2efa409e82"}},{"fullUrl":"https://madie.cms.gov/MeasureReport/33c61426-a2ea-4763-bbfe-2b5960922e49","resource":{"resourceType":"MeasureReport","id":"33c61426-a2ea-4763-bbfe-2b5960922e49","meta":{"profile":["http://hl7.org/fhir/us/cqfmeasures/StructureDefinition/test-case-cqfm"]},"contained":[{"resourceType":"Parameters","id":"f257b335-6628-43a9-baa4-8784eb13997b-parameters","parameter":[{"name":"subject","valueString":"d9d151d1-9bd3-40ce-a2c1-cb8a985328fc"}]}],"extension":[{"url":"http://hl7.org/fhir/us/cqfmeasures/StructureDefinition/cqfm-inputParameters","valueReference":{"reference":"#f257b335-6628-43a9-baa4-8784eb13997b-parameters"}},{"url":"http://hl7.org/fhir/us/cqfmeasures/StructureDefinition/cqfm-testCaseDescription","valueMarkdown":"Enc. first day of MP, age 30, stroke last day of year prior, hospice ends year prior"}],"modifierExtension":[{"url":"http://hl7.org/fhir/us/cqfmeasures/StructureDefinition/cqfm-isTestCase","valueBoolean":true}],"status":"complete","type":"individual","measure":"https://madie.cms.gov/Measure/StatinTherapyforthePreventionandTreatmentofCardiovascularDiseaseFHIR","period":{"start":"2025-01-01","end":"2025-12-31"},"group":[{"population":[{"code":{"coding":[{"system":"http://terminology.hl7.org/CodeSystem/measure-population","code":"initial-population","display":"Initial Population"}]},"count":1},{"code":{"coding":[{"system":"http://terminology.hl7.org/CodeSystem/measure-population","code":"denominator","display":"Denominator"}]},"count":1},{"code":{"coding":[{"system":"http://terminology.hl7.org/CodeSystem/measure-population","code":"denominator-exclusion","display":"Denominator Exclusion"}]},"count":0},{"code":{"coding":[{"system":"http://terminology.hl7.org/CodeSystem/measure-population","code":"numerator","display":"Numerator"}]},"count":0},{"code":{"coding":[{"system":"http://terminology.hl7.org/CodeSystem/measure-population","code":"denominator-exception","display":"Denominator Exception"}]},"count":0}]},{"population":[{"code":{"coding":[{"system":"http://terminology.hl7.org/CodeSystem/measure-population","code":"initial-population","display":"Initial Population"}]},"count":0},{"code":{"coding":[{"system":"http://terminology.hl7.org/CodeSystem/measure-population","code":"denominator","display":"Denominator"}]},"count":0},{"code":{"coding":[{"system":"http://terminology.hl7.org/CodeSystem/measure-population","code":"denominator-exclusion","display":"Denominator Exclusion"}]},"count":0},{"code":{"coding":[{"system":"http://terminology.hl7.org/CodeSystem/measure-population","code":"numerator","display":"Numerator"}]},"count":0},{"code":{"coding":[{"system":"http://terminology.hl7.org/CodeSystem/measure-population","code":"denominator-exception","display":"Denominator Exception"}]},"count":0}]},{"population":[{"code":{"coding":[{"system":"http://terminology.hl7.org/CodeSystem/measure-population","code":"initial-population","display":"Initial Population"}]},"count":0},{"code":{"coding":[{"system":"http://terminology.hl7.org/CodeSystem/measure-population","code":"denominator","display":"Denominator"}]},"count":0},{"code":{"coding":[{"system":"http://terminology.hl7.org/CodeSystem/measure-population","code":"denominator-exclusion","display":"Denominator Exclusion"}]},"count":0},{"code":{"coding":[{"system":"http://terminology.hl7.org/CodeSystem/measure-population","code":"numerator","display":"Numerator"}]},"count":0},{"code":{"coding":[{"system":"http://terminology.hl7.org/CodeSystem/measure-population","code":"denominator-exception","display":"Denominator Exception"}]},"count":0}]},{"population":[{"code":{"coding":[{"system":"http://terminology.hl7.org/CodeSystem/measure-population","code":"initial-population","display":"Initial Population"}]},"count":0},{"code":{"coding":[{"system":"http://terminology.hl7.org/CodeSystem/measure-population","code":"denominator","display":"Denominator"}]},"count":0},{"code":{"coding":[{"system":"http://terminology.hl7.org/CodeSystem/measure-population","code":"denominator-exclusion","display":"Denominator Exclusion"}]},"count":0},{"code":{"coding":[{"system":"http://terminology.hl7.org/CodeSystem/measure-population","code":"numerator","display":"Numerator"}]},"count":0},{"code":{"coding":[{"system":"http://terminology.hl7.org/CodeSystem/measure-population","code":"denominator-exception","display":"Denominator Exception"}]},"count":0}]}]},"request":{"method":"PUT","url":"MeasureReport/33c61426-a2ea-4763-bbfe-2b5960922e49"}}]}