{"resourceType":"Bundle","id":"tests-0aaae01e-d3b0-4b76-abf8-a044fd4f5d80-bundle","type":"transaction","entry":[{"fullUrl":"https://madie.cms.gov/Patient/0aaae01e-d3b0-4b76-abf8-a044fd4f5d80","resource":{"resourceType":"Patient","id":"0aaae01e-d3b0-4b76-abf8-a044fd4f5d80","meta":{"profile":["http://hl7.org/fhir/us/qicore/StructureDefinition/qicore-patient"]},"extension":[{"url":"http://hl7.org/fhir/us/core/StructureDefinition/us-core-race","extension":[{"url":"ombCategory","valueCoding":{"system":"urn:oid:2.16.840.1.113883.6.238","code":"2106-3","display":"White","userSelected":true}},{"url":"text","valueString":"White"}]},{"url":"http://hl7.org/fhir/us/core/StructureDefinition/us-core-ethnicity","extension":[{"url":"ombCategory","valueCoding":{"system":"urn:oid:2.16.840.1.113883.6.238","code":"2135-2","display":"Hispanic or Latino","userSelected":true}},{"url":"text","valueString":"Hispanic or Latino"}]}],"identifier":[{"type":{"coding":[{"system":"http://terminology.hl7.org/CodeSystem/v2-0203","code":"MR"}]},"system":"https://bonnie-fhir.healthit.gov/","value":"62d9bd94bdcc852250e535b8"}],"name":[{"family":"DENEXCEPop1Pass","given":["PalliativeCareQuestionnaire"]}],"gender":"male","birthDate":"1983-12-31"},"request":{"method":"PUT","url":"Patient/0aaae01e-d3b0-4b76-abf8-a044fd4f5d80"}},{"fullUrl":"https://madie.cms.gov/Procedure/cabg-pci-procedure-35b9","resource":{"resourceType":"Procedure","id":"ad0a393f-456f-46de-9670-e3f869f16df3","meta":{"profile":["http://hl7.org/fhir/us/qicore/StructureDefinition/qicore-procedure"]},"extension":[{"url":"http://hl7.org/fhir/us/qicore/StructureDefinition/qicore-recorded","valueDateTime":"2024-01-01T09:00:00.000+00:00"}],"status":"completed","code":{"coding":[{"system":"http://snomed.info/sct","version":"2022-09","code":"175373000","display":"Ligation of carotid artery (procedure)","userSelected":true}]},"subject":{"reference":"Patient/0aaae01e-d3b0-4b76-abf8-a044fd4f5d80"},"performedDateTime":"2024-12-31T13:10:00.000+00:00"},"request":{"method":"PUT","url":"Procedure/ad0a393f-456f-46de-9670-e3f869f16df3"}},{"fullUrl":"https://madie.cms.gov/Encounter/preventive-care-services-initial-office-visit-18-and-up-35ba","resource":{"resourceType":"Encounter","id":"927fff44-9925-4032-8b98-88a0077ff9cd","meta":{"profile":["http://hl7.org/fhir/us/qicore/StructureDefinition/qicore-encounter"]},"status":"finished","class":{"system":"http://terminology.hl7.org/CodeSystem/v3-ActCode","code":"AMB","display":"ambulatory"},"type":[{"coding":[{"system":"http://www.ama-assn.org/go/cpt","version":"2021","code":"99385","display":"Initial comprehensive preventive medicine evaluation and management of an individual including an age and gender appropriate history, examination, counseling/anticipatory guidance/risk factor reduction interventions, and the ordering of laboratory/diagnostic procedures, new patient; 18-39 years","userSelected":true}]}],"subject":{"reference":"Patient/0aaae01e-d3b0-4b76-abf8-a044fd4f5d80"},"period":{"start":"2025-01-01T13:00:00.000+00:00","end":"2025-01-01T13:30:00.000+00:00"}},"request":{"method":"PUT","url":"Encounter/927fff44-9925-4032-8b98-88a0077ff9cd"}},{"fullUrl":"https://madie.cms.gov/Observation/functional-assessment-palliative-care-questionnaire-35bb","resource":{"resourceType":"Observation","id":"a4ef8ec7-3e63-452c-8a39-81c2823fdf95","meta":{"profile":["http://hl7.org/fhir/us/qicore/StructureDefinition/qicore-observation"]},"status":"amended","category":[{"coding":[{"system":"http://terminology.hl7.org/CodeSystem/observation-category","code":"survey","display":"survey","userSelected":true}]}],"code":{"coding":[{"system":"http://loinc.org","code":"71007-9","display":"Functional Assessment of Chronic Illness Therapy - Palliative Care Questionnaire (FACIT-Pal)","userSelected":true}]},"subject":{"reference":"Patient/0aaae01e-d3b0-4b76-abf8-a044fd4f5d80"},"effectivePeriod":{"start":"2025-12-31T08:00:00.000+00:00"}},"request":{"method":"PUT","url":"Observation/a4ef8ec7-3e63-452c-8a39-81c2823fdf95"}},{"fullUrl":"https://madie.cms.gov/Coverage/1","resource":{"resourceType":"Coverage","id":"4729f580-a310-4fee-95ad-417afcaa18ac","meta":{"profile":["http://hl7.org/fhir/us/qicore/StructureDefinition/qicore-coverage"]},"status":"active","beneficiary":{"reference":"Patient/0aaae01e-d3b0-4b76-abf8-a044fd4f5d80"},"payor":[{"reference":"Organization/aeb2c6be-6577-4bba-a6b6-6eab95111f1b"}]},"request":{"method":"PUT","url":"Coverage/4729f580-a310-4fee-95ad-417afcaa18ac"}},{"fullUrl":"https://madie.cms.gov/Organization/123456","resource":{"resourceType":"Organization","id":"aeb2c6be-6577-4bba-a6b6-6eab95111f1b","meta":{"profile":["http://hl7.org/fhir/us/qicore/StructureDefinition/qicore-organization"]},"identifier":[{"use":"temp","system":"urn:oid:2.16.840.1.113883.4.4","value":"21-3259825"}],"active":true,"type":[{"coding":[{"system":"http://terminology.hl7.org/CodeSystem/organization-type","code":"pay","display":"Payer"}]}],"name":"Blue Cross Blue Shield of Texas","telecom":[{"system":"phone","value":"(+1) 972-766-6900"}],"address":[{"use":"billing","type":"postal","line":["P.O. Box 660044"],"city":"Dallas","state":"TX","postalCode":"75266-0044","country":"USA"}]},"request":{"method":"PUT","url":"Organization/aeb2c6be-6577-4bba-a6b6-6eab95111f1b"}},{"fullUrl":"https://madie.cms.gov/Practitioner/practitioner-123456","resource":{"resourceType":"Practitioner","id":"5507d28f-5b58-422e-92b3-524bf1460cb8","meta":{"profile":["http://hl7.org/fhir/us/qicore/StructureDefinition/qicore-practitioner"]},"identifier":[{"system":"http://hl7.org/fhir/sid/us-npi","value":"123456"}],"name":[{"family":"Evil","prefix":["Dr"]}]},"request":{"method":"PUT","url":"Practitioner/5507d28f-5b58-422e-92b3-524bf1460cb8"}},{"fullUrl":"https://madie.cms.gov/MeasureReport/37da4387-5ef0-499b-a4c7-513cba92eb24","resource":{"resourceType":"MeasureReport","id":"37da4387-5ef0-499b-a4c7-513cba92eb24","meta":{"profile":["http://hl7.org/fhir/us/cqfmeasures/StructureDefinition/test-case-cqfm"]},"contained":[{"resourceType":"Parameters","id":"ab7ed843-0024-4085-ba25-d5e6f988b39c-parameters","parameter":[{"name":"subject","valueString":"0aaae01e-d3b0-4b76-abf8-a044fd4f5d80"}]}],"extension":[{"url":"http://hl7.org/fhir/us/cqfmeasures/StructureDefinition/cqfm-inputParameters","valueReference":{"reference":"#ab7ed843-0024-4085-ba25-d5e6f988b39c-parameters"}},{"url":"http://hl7.org/fhir/us/cqfmeasures/StructureDefinition/cqfm-testCaseDescription","valueMarkdown":"Enc. first day of MP, age 40 last day of prior year, ligation of carotid artery (Carotid Intervention) last day of prior year, palliative care questionnaire completed last day of MP"}],"modifierExtension":[{"url":"http://hl7.org/fhir/us/cqfmeasures/StructureDefinition/cqfm-isTestCase","valueBoolean":true}],"status":"complete","type":"individual","measure":"https://madie.cms.gov/Measure/StatinTherapyforthePreventionandTreatmentofCardiovascularDiseaseFHIR","period":{"start":"2025-01-01","end":"2025-12-31"},"group":[{"population":[{"code":{"coding":[{"system":"http://terminology.hl7.org/CodeSystem/measure-population","code":"initial-population","display":"Initial Population"}]},"count":1},{"code":{"coding":[{"system":"http://terminology.hl7.org/CodeSystem/measure-population","code":"denominator","display":"Denominator"}]},"count":1},{"code":{"coding":[{"system":"http://terminology.hl7.org/CodeSystem/measure-population","code":"denominator-exclusion","display":"Denominator Exclusion"}]},"count":0},{"code":{"coding":[{"system":"http://terminology.hl7.org/CodeSystem/measure-population","code":"numerator","display":"Numerator"}]},"count":0},{"code":{"coding":[{"system":"http://terminology.hl7.org/CodeSystem/measure-population","code":"denominator-exception","display":"Denominator Exception"}]},"count":1}]},{"population":[{"code":{"coding":[{"system":"http://terminology.hl7.org/CodeSystem/measure-population","code":"initial-population","display":"Initial Population"}]},"count":0},{"code":{"coding":[{"system":"http://terminology.hl7.org/CodeSystem/measure-population","code":"denominator","display":"Denominator"}]},"count":0},{"code":{"coding":[{"system":"http://terminology.hl7.org/CodeSystem/measure-population","code":"denominator-exclusion","display":"Denominator Exclusion"}]},"count":0},{"code":{"coding":[{"system":"http://terminology.hl7.org/CodeSystem/measure-population","code":"numerator","display":"Numerator"}]},"count":0},{"code":{"coding":[{"system":"http://terminology.hl7.org/CodeSystem/measure-population","code":"denominator-exception","display":"Denominator Exception"}]},"count":0}]},{"population":[{"code":{"coding":[{"system":"http://terminology.hl7.org/CodeSystem/measure-population","code":"initial-population","display":"Initial Population"}]},"count":0},{"code":{"coding":[{"system":"http://terminology.hl7.org/CodeSystem/measure-population","code":"denominator","display":"Denominator"}]},"count":0},{"code":{"coding":[{"system":"http://terminology.hl7.org/CodeSystem/measure-population","code":"denominator-exclusion","display":"Denominator Exclusion"}]},"count":0},{"code":{"coding":[{"system":"http://terminology.hl7.org/CodeSystem/measure-population","code":"numerator","display":"Numerator"}]},"count":0},{"code":{"coding":[{"system":"http://terminology.hl7.org/CodeSystem/measure-population","code":"denominator-exception","display":"Denominator Exception"}]},"count":0}]},{"population":[{"code":{"coding":[{"system":"http://terminology.hl7.org/CodeSystem/measure-population","code":"initial-population","display":"Initial Population"}]},"count":0},{"code":{"coding":[{"system":"http://terminology.hl7.org/CodeSystem/measure-population","code":"denominator","display":"Denominator"}]},"count":0},{"code":{"coding":[{"system":"http://terminology.hl7.org/CodeSystem/measure-population","code":"denominator-exclusion","display":"Denominator Exclusion"}]},"count":0},{"code":{"coding":[{"system":"http://terminology.hl7.org/CodeSystem/measure-population","code":"numerator","display":"Numerator"}]},"count":0},{"code":{"coding":[{"system":"http://terminology.hl7.org/CodeSystem/measure-population","code":"denominator-exception","display":"Denominator Exception"}]},"count":0}]}]},"request":{"method":"PUT","url":"MeasureReport/37da4387-5ef0-499b-a4c7-513cba92eb24"}}]}