{"resourceType":"Bundle","id":"tests-0ba942ff-50d6-4123-ab21-adcf5fdff0df-bundle","type":"transaction","entry":[{"fullUrl":"https://madie.cms.gov/Patient/0ba942ff-50d6-4123-ab21-adcf5fdff0df","resource":{"resourceType":"Patient","id":"0ba942ff-50d6-4123-ab21-adcf5fdff0df","meta":{"profile":["http://hl7.org/fhir/us/qicore/StructureDefinition/qicore-patient"]},"extension":[{"url":"http://hl7.org/fhir/us/core/StructureDefinition/us-core-race","extension":[{"url":"ombCategory","valueCoding":{"system":"urn:oid:2.16.840.1.113883.6.238","code":"1002-5","display":"American Indian or Alaska Native","userSelected":true}},{"url":"text","valueString":"American Indian or Alaska Native"}]},{"url":"http://hl7.org/fhir/us/core/StructureDefinition/us-core-ethnicity","extension":[{"url":"ombCategory","valueCoding":{"system":"urn:oid:2.16.840.1.113883.6.238","code":"2135-2","display":"Hispanic or Latino","userSelected":true}},{"url":"text","valueString":"Hispanic or Latino"}]}],"identifier":[{"type":{"coding":[{"system":"http://terminology.hl7.org/CodeSystem/v2-0203","code":"MR"}]},"system":"https://bonnie-fhir.healthit.gov/","value":"62d96dcbf0347d1abcae6c11"}],"name":[{"family":"DENEXCEPPop1Pass","given":["PalliativeCareDiagnosis"]}],"gender":"male","birthDate":"2005-01-01"},"request":{"method":"PUT","url":"Patient/0ba942ff-50d6-4123-ab21-adcf5fdff0df"}},{"fullUrl":"https://madie.cms.gov/Encounter/outpatient-consultation-6c12","resource":{"resourceType":"Encounter","id":"4a32e283-4ebd-4a81-9dbe-5c41c08f28ac","meta":{"profile":["http://hl7.org/fhir/us/qicore/StructureDefinition/qicore-encounter"]},"status":"finished","class":{"system":"http://terminology.hl7.org/CodeSystem/v3-ActCode","code":"AMB","display":"ambulatory"},"type":[{"coding":[{"system":"http://snomed.info/sct","version":"2022-03","code":"281036007","display":"Follow-up consultation (procedure)","userSelected":true}]}],"subject":{"reference":"Patient/0ba942ff-50d6-4123-ab21-adcf5fdff0df"},"period":{"start":"2025-01-01T08:00:00.000+00:00","end":"2025-01-01T08:45:00.000+00:00"}},"request":{"method":"PUT","url":"Encounter/4a32e283-4ebd-4a81-9dbe-5c41c08f28ac"}},{"fullUrl":"https://madie.cms.gov/Condition/atherosclerosis-and-peripheral-arterial-disease-6c13","resource":{"resourceType":"Condition","id":"fbeabcc7-9c13-4708-9b2b-47255b3a1cf0","meta":{"profile":["http://hl7.org/fhir/us/qicore/StructureDefinition/qicore-condition"]},"clinicalStatus":{"coding":[{"system":"http://terminology.hl7.org/CodeSystem/condition-clinical","code":"active","display":"active","userSelected":true}]},"category":[{"coding":[{"system":"http://terminology.hl7.org/CodeSystem/condition-category","code":"problem-list-item","display":"Problem List Item"},{"system":"http://snomed.info/sct","code":"439401001","display":"Diagnosis"}]}],"code":{"coding":[{"system":"http://snomed.info/sct","version":"2022-03","code":"127014009","display":"Peripheral angiopathy due to diabetes mellitus (disorder)","userSelected":true}]},"subject":{"reference":"Patient/0ba942ff-50d6-4123-ab21-adcf5fdff0df"},"onsetPeriod":{"start":"2025-12-31T08:00:00.000+00:00"}},"request":{"method":"PUT","url":"Condition/fbeabcc7-9c13-4708-9b2b-47255b3a1cf0"}},{"fullUrl":"https://madie.cms.gov/MedicationRequest/low-intensity-statin-therapy-6c14","resource":{"resourceType":"MedicationRequest","id":"a852f6ce-8063-43df-8d73-463bd44610d5","meta":{"profile":["http://hl7.org/fhir/us/qicore/StructureDefinition/qicore-mednotrequested"]},"status":"completed","intent":"order","doNotPerform":true,"medicationCodeableConcept":{"coding":[{"system":"http://www.nlm.nih.gov/research/umls/rxnorm","code":"1790679","display":"simvastatin 4 MG/ML Oral Suspension","userSelected":true}]},"subject":{"reference":"Patient/0ba942ff-50d6-4123-ab21-adcf5fdff0df"},"authoredOn":"2025-01-01T08:00:00.000+00:00","requester":{"reference":"Practitioner/example","display":"Patrick Pump"},"reasonCode":[{"coding":[{"system":"http://snomed.info/sct","code":"183932001","display":"Procedure contraindicated (situation)","userSelected":true}]}]},"request":{"method":"PUT","url":"MedicationRequest/a852f6ce-8063-43df-8d73-463bd44610d5"}},{"fullUrl":"https://madie.cms.gov/Condition/hospice-diagnosis-6c13","resource":{"resourceType":"Condition","id":"db9bf7df-c1e3-4626-b158-b9d25f7f022f","meta":{"profile":["http://hl7.org/fhir/us/qicore/StructureDefinition/qicore-condition"]},"clinicalStatus":{"coding":[{"system":"http://terminology.hl7.org/CodeSystem/condition-clinical","code":"active","display":"active","userSelected":true}]},"category":[{"coding":[{"system":"http://terminology.hl7.org/CodeSystem/condition-category","code":"problem-list-item","display":"Problem List Item"},{"system":"http://snomed.info/sct","code":"439401001","display":"Diagnosis"}]}],"code":{"coding":[{"system":"http://snomed.info/sct","version":"2022-03","code":"170935008","display":"Full care by hospice (finding)","userSelected":true}]},"subject":{"reference":"Patient/0ba942ff-50d6-4123-ab21-adcf5fdff0df"},"onsetPeriod":{"start":"2025-12-31T08:00:00.000+00:00"}},"request":{"method":"PUT","url":"Condition/db9bf7df-c1e3-4626-b158-b9d25f7f022f"}},{"fullUrl":"https://madie.cms.gov/Coverage/1","resource":{"resourceType":"Coverage","id":"8f060003-d7e4-4984-967a-b3465462f188","meta":{"profile":["http://hl7.org/fhir/us/qicore/StructureDefinition/qicore-coverage"]},"status":"active","beneficiary":{"reference":"Patient/0ba942ff-50d6-4123-ab21-adcf5fdff0df"},"payor":[{"reference":"Organization/5224cb12-ed64-4d6d-ab28-40a64f0800f1"}]},"request":{"method":"PUT","url":"Coverage/8f060003-d7e4-4984-967a-b3465462f188"}},{"fullUrl":"https://madie.cms.gov/Organization/123456","resource":{"resourceType":"Organization","id":"5224cb12-ed64-4d6d-ab28-40a64f0800f1","meta":{"profile":["http://hl7.org/fhir/us/qicore/StructureDefinition/qicore-organization"]},"identifier":[{"use":"temp","system":"urn:oid:2.16.840.1.113883.4.4","value":"21-3259825"}],"active":true,"type":[{"coding":[{"system":"http://terminology.hl7.org/CodeSystem/organization-type","code":"pay","display":"Payer"}]}],"name":"Blue Cross Blue Shield of Texas","telecom":[{"system":"phone","value":"(+1) 972-766-6900"}],"address":[{"use":"billing","type":"postal","line":["P.O. Box 660044"],"city":"Dallas","state":"TX","postalCode":"75266-0044","country":"USA"}]},"request":{"method":"PUT","url":"Organization/5224cb12-ed64-4d6d-ab28-40a64f0800f1"}},{"fullUrl":"https://madie.cms.gov/MeasureReport/91d8d1f8-a448-44f7-bd63-b7da854fcbf0","resource":{"resourceType":"MeasureReport","id":"91d8d1f8-a448-44f7-bd63-b7da854fcbf0","meta":{"profile":["http://hl7.org/fhir/us/cqfmeasures/StructureDefinition/test-case-cqfm"]},"contained":[{"resourceType":"Parameters","id":"3850af19-6657-4945-bcd2-9ee78b11de50-parameters","parameter":[{"name":"subject","valueString":"0ba942ff-50d6-4123-ab21-adcf5fdff0df"}]}],"extension":[{"url":"http://hl7.org/fhir/us/cqfmeasures/StructureDefinition/cqfm-inputParameters","valueReference":{"reference":"#3850af19-6657-4945-bcd2-9ee78b11de50-parameters"}},{"url":"http://hl7.org/fhir/us/cqfmeasures/StructureDefinition/cqfm-testCaseDescription","valueMarkdown":"Enc first day of MP, atherosclerosis, low statin, hospice dx. "}],"modifierExtension":[{"url":"http://hl7.org/fhir/us/cqfmeasures/StructureDefinition/cqfm-isTestCase","valueBoolean":true}],"status":"complete","type":"individual","measure":"https://madie.cms.gov/Measure/StatinTherapyforthePreventionandTreatmentofCardiovascularDiseaseFHIR","period":{"start":"2025-01-01","end":"2025-12-31"},"group":[{"population":[{"code":{"coding":[{"system":"http://terminology.hl7.org/CodeSystem/measure-population","code":"initial-population","display":"Initial Population"}]},"count":1},{"code":{"coding":[{"system":"http://terminology.hl7.org/CodeSystem/measure-population","code":"denominator","display":"Denominator"}]},"count":1},{"code":{"coding":[{"system":"http://terminology.hl7.org/CodeSystem/measure-population","code":"denominator-exclusion","display":"Denominator Exclusion"}]},"count":0},{"code":{"coding":[{"system":"http://terminology.hl7.org/CodeSystem/measure-population","code":"numerator","display":"Numerator"}]},"count":0},{"code":{"coding":[{"system":"http://terminology.hl7.org/CodeSystem/measure-population","code":"denominator-exception","display":"Denominator Exception"}]},"count":1}]},{"population":[{"code":{"coding":[{"system":"http://terminology.hl7.org/CodeSystem/measure-population","code":"initial-population","display":"Initial Population"}]},"count":0},{"code":{"coding":[{"system":"http://terminology.hl7.org/CodeSystem/measure-population","code":"denominator","display":"Denominator"}]},"count":0},{"code":{"coding":[{"system":"http://terminology.hl7.org/CodeSystem/measure-population","code":"denominator-exclusion","display":"Denominator Exclusion"}]},"count":0},{"code":{"coding":[{"system":"http://terminology.hl7.org/CodeSystem/measure-population","code":"numerator","display":"Numerator"}]},"count":0},{"code":{"coding":[{"system":"http://terminology.hl7.org/CodeSystem/measure-population","code":"denominator-exception","display":"Denominator Exception"}]},"count":0}]},{"population":[{"code":{"coding":[{"system":"http://terminology.hl7.org/CodeSystem/measure-population","code":"initial-population","display":"Initial Population"}]},"count":0},{"code":{"coding":[{"system":"http://terminology.hl7.org/CodeSystem/measure-population","code":"denominator","display":"Denominator"}]},"count":0},{"code":{"coding":[{"system":"http://terminology.hl7.org/CodeSystem/measure-population","code":"denominator-exclusion","display":"Denominator Exclusion"}]},"count":0},{"code":{"coding":[{"system":"http://terminology.hl7.org/CodeSystem/measure-population","code":"numerator","display":"Numerator"}]},"count":0},{"code":{"coding":[{"system":"http://terminology.hl7.org/CodeSystem/measure-population","code":"denominator-exception","display":"Denominator Exception"}]},"count":0}]},{"population":[{"code":{"coding":[{"system":"http://terminology.hl7.org/CodeSystem/measure-population","code":"initial-population","display":"Initial Population"}]},"count":0},{"code":{"coding":[{"system":"http://terminology.hl7.org/CodeSystem/measure-population","code":"denominator","display":"Denominator"}]},"count":0},{"code":{"coding":[{"system":"http://terminology.hl7.org/CodeSystem/measure-population","code":"denominator-exclusion","display":"Denominator Exclusion"}]},"count":0},{"code":{"coding":[{"system":"http://terminology.hl7.org/CodeSystem/measure-population","code":"numerator","display":"Numerator"}]},"count":0},{"code":{"coding":[{"system":"http://terminology.hl7.org/CodeSystem/measure-population","code":"denominator-exception","display":"Denominator Exception"}]},"count":0}]}]},"request":{"method":"PUT","url":"MeasureReport/91d8d1f8-a448-44f7-bd63-b7da854fcbf0"}}]}