{"resourceType":"Bundle","id":"tests-694248de-4f73-4557-816b-f6a932f15793-bundle","type":"transaction","entry":[{"fullUrl":"https://madie.cms.gov/Patient/694248de-4f73-4557-816b-f6a932f15793","resource":{"resourceType":"Patient","id":"694248de-4f73-4557-816b-f6a932f15793","meta":{"profile":["http://hl7.org/fhir/us/qicore/StructureDefinition/qicore-patient"]},"extension":[{"url":"http://hl7.org/fhir/us/core/StructureDefinition/us-core-race","extension":[{"url":"ombCategory","valueCoding":{"system":"urn:oid:2.16.840.1.113883.6.238","code":"1002-5","display":"American Indian or Alaska Native","userSelected":true}},{"url":"text","valueString":"American Indian or Alaska Native"}]},{"url":"http://hl7.org/fhir/us/core/StructureDefinition/us-core-ethnicity","extension":[{"url":"ombCategory","valueCoding":{"system":"urn:oid:2.16.840.1.113883.6.238","code":"2135-2","display":"Hispanic or Latino","userSelected":true}},{"url":"text","valueString":"Hispanic or Latino"}]}],"identifier":[{"type":{"coding":[{"system":"http://terminology.hl7.org/CodeSystem/v2-0203","code":"MR"}]},"system":"https://bonnie-fhir.healthit.gov/","value":"62d9c3d6bdcc852250e535c6"}],"name":[{"family":"NUMERPop1Pass","given":["PrescribedModStatinAngina"]}],"gender":"male","birthDate":"2004-01-01"},"request":{"method":"PUT","url":"Patient/694248de-4f73-4557-816b-f6a932f15793"}},{"fullUrl":"https://madie.cms.gov/Encounter/preventive-care-services-established-office-visit-18-and-up-6c1a","resource":{"resourceType":"Encounter","id":"b9866fb3-4d8c-4ddc-8a31-e25c863b8d99","meta":{"profile":["http://hl7.org/fhir/us/qicore/StructureDefinition/qicore-encounter"]},"status":"finished","class":{"system":"http://terminology.hl7.org/CodeSystem/v3-ActCode","code":"AMB","display":"ambulatory"},"type":[{"coding":[{"system":"http://www.ama-assn.org/go/cpt","version":"2021","code":"99395","display":"Periodic comprehensive preventive medicine reevaluation and management of an individual including an age and gender appropriate history, examination, counseling/anticipatory guidance/risk factor reduction interventions, and the ordering of laboratory/diagnostic procedures, established patient; 18-39 years","userSelected":true}]}],"subject":{"reference":"Patient/694248de-4f73-4557-816b-f6a932f15793"},"period":{"start":"2025-12-31T08:15:00.000+00:00","end":"2025-12-31T08:45:00.000+00:00"}},"request":{"method":"PUT","url":"Encounter/b9866fb3-4d8c-4ddc-8a31-e25c863b8d99"}},{"fullUrl":"https://madie.cms.gov/Condition/stable-and-unstable-angina-6c1b","resource":{"resourceType":"Condition","id":"9d02a391-5976-4f7c-9019-0983a282d3a5","meta":{"profile":["http://hl7.org/fhir/us/qicore/StructureDefinition/qicore-condition"]},"clinicalStatus":{"coding":[{"system":"http://terminology.hl7.org/CodeSystem/condition-clinical","code":"active","display":"Active","userSelected":true}]},"category":[{"coding":[{"system":"http://terminology.hl7.org/CodeSystem/condition-category","code":"problem-list-item","display":"Problem List Item"}]}],"code":{"coding":[{"system":"http://snomed.info/sct","version":"2022-03","code":"194828000","display":"Angina (disorder)","userSelected":true}]},"subject":{"reference":"Patient/694248de-4f73-4557-816b-f6a932f15793"},"onsetPeriod":{"start":"2025-12-31T08:00:00.000+00:00"}},"request":{"method":"PUT","url":"Condition/9d02a391-5976-4f7c-9019-0983a282d3a5"}},{"fullUrl":"https://madie.cms.gov/MedicationRequest/moderate-intensity-statin-therapy-35c7","resource":{"resourceType":"MedicationRequest","id":"b00d11d3-fbd3-4b5b-801d-184561c7f1aa","meta":{"profile":["http://hl7.org/fhir/us/qicore/StructureDefinition/qicore-medicationrequest"]},"status":"active","intent":"order","doNotPerform":false,"medicationCodeableConcept":{"coding":[{"system":"http://www.nlm.nih.gov/research/umls/rxnorm","version":"2022-06","code":"312961","display":"simvastatin 20 MG Oral Tablet","userSelected":true}]},"subject":{"reference":"Patient/694248de-4f73-4557-816b-f6a932f15793"},"authoredOn":"2025-01-31T08:00:00.000+00:00","requester":{"reference":"Practitioner/example"},"dosageInstruction":[{"timing":{"event":["2025-06-01T08:00:00.000+00:00"],"repeat":{"boundsPeriod":{"start":"2025-12-31T08:00:00.000+00:00","end":"2026-03-31T08:15:00.000+00:00"},"count":90,"countMax":90,"durationUnit":"d","frequency":1,"frequencyMax":1},"code":{"coding":[{"system":"http://terminology.hl7.org/CodeSystem/v3-GTSAbbreviation","code":"BED","display":"at bedtime","userSelected":true}]}}}]},"request":{"method":"PUT","url":"MedicationRequest/b00d11d3-fbd3-4b5b-801d-184561c7f1aa"}},{"fullUrl":"https://madie.cms.gov/Coverage/1","resource":{"resourceType":"Coverage","id":"c3a2c6c3-d91c-47d0-b187-33e6d0eeeb3d","meta":{"profile":["http://hl7.org/fhir/us/qicore/StructureDefinition/qicore-coverage"]},"status":"active","beneficiary":{"reference":"Patient/694248de-4f73-4557-816b-f6a932f15793"},"payor":[{"reference":"Organization/890316dc-a4ad-43b4-ba6f-9fb9e6eca282"}]},"request":{"method":"PUT","url":"Coverage/c3a2c6c3-d91c-47d0-b187-33e6d0eeeb3d"}},{"fullUrl":"https://madie.cms.gov/Organization/123456","resource":{"resourceType":"Organization","id":"890316dc-a4ad-43b4-ba6f-9fb9e6eca282","meta":{"profile":["http://hl7.org/fhir/us/qicore/StructureDefinition/qicore-organization"]},"identifier":[{"use":"temp","system":"urn:oid:2.16.840.1.113883.4.4","value":"21-3259825"}],"active":true,"type":[{"coding":[{"system":"http://terminology.hl7.org/CodeSystem/organization-type","code":"pay","display":"Payer"}]}],"name":"Blue Cross Blue Shield of Texas","telecom":[{"system":"phone","value":"(+1) 972-766-6900"}],"address":[{"use":"billing","type":"postal","line":["P.O. Box 660044"],"city":"Dallas","state":"TX","postalCode":"75266-0044","country":"USA"}]},"request":{"method":"PUT","url":"Organization/890316dc-a4ad-43b4-ba6f-9fb9e6eca282"}},{"fullUrl":"https://madie.cms.gov/Practitioner/practitioner-123456","resource":{"resourceType":"Practitioner","id":"bce8a26b-84d4-4ab1-90af-286156b190e4","meta":{"profile":["http://hl7.org/fhir/us/qicore/StructureDefinition/qicore-practitioner"]},"identifier":[{"system":"http://hl7.org/fhir/sid/us-npi","value":"123456"}],"name":[{"family":"Evil","prefix":["Dr"]}]},"request":{"method":"PUT","url":"Practitioner/bce8a26b-84d4-4ab1-90af-286156b190e4"}},{"fullUrl":"https://madie.cms.gov/MeasureReport/b9aa95b6-d8a6-430c-82a4-91e23e7e3884","resource":{"resourceType":"MeasureReport","id":"b9aa95b6-d8a6-430c-82a4-91e23e7e3884","meta":{"profile":["http://hl7.org/fhir/us/cqfmeasures/StructureDefinition/test-case-cqfm"]},"contained":[{"resourceType":"Parameters","id":"e573b226-4635-45c0-b59b-ccf789330468-parameters","parameter":[{"name":"subject","valueString":"694248de-4f73-4557-816b-f6a932f15793"}]}],"extension":[{"url":"http://hl7.org/fhir/us/cqfmeasures/StructureDefinition/cqfm-inputParameters","valueReference":{"reference":"#e573b226-4635-45c0-b59b-ccf789330468-parameters"}},{"url":"http://hl7.org/fhir/us/cqfmeasures/StructureDefinition/cqfm-testCaseDescription","valueMarkdown":"Enc. last day of MP, age 18, hx. of angina last day of MP,, active script for moderate intensity statin Dec - Mar new year\n"}],"modifierExtension":[{"url":"http://hl7.org/fhir/us/cqfmeasures/StructureDefinition/cqfm-isTestCase","valueBoolean":true}],"status":"complete","type":"individual","measure":"https://madie.cms.gov/Measure/StatinTherapyforthePreventionandTreatmentofCardiovascularDiseaseFHIR","period":{"start":"2025-01-01","end":"2025-12-31"},"group":[{"population":[{"code":{"coding":[{"system":"http://terminology.hl7.org/CodeSystem/measure-population","code":"initial-population","display":"Initial Population"}]},"count":1},{"code":{"coding":[{"system":"http://terminology.hl7.org/CodeSystem/measure-population","code":"denominator","display":"Denominator"}]},"count":1},{"code":{"coding":[{"system":"http://terminology.hl7.org/CodeSystem/measure-population","code":"denominator-exclusion","display":"Denominator Exclusion"}]},"count":0},{"code":{"coding":[{"system":"http://terminology.hl7.org/CodeSystem/measure-population","code":"numerator","display":"Numerator"}]},"count":1},{"code":{"coding":[{"system":"http://terminology.hl7.org/CodeSystem/measure-population","code":"denominator-exception","display":"Denominator Exception"}]},"count":0}]},{"population":[{"code":{"coding":[{"system":"http://terminology.hl7.org/CodeSystem/measure-population","code":"initial-population","display":"Initial Population"}]},"count":0},{"code":{"coding":[{"system":"http://terminology.hl7.org/CodeSystem/measure-population","code":"denominator","display":"Denominator"}]},"count":0},{"code":{"coding":[{"system":"http://terminology.hl7.org/CodeSystem/measure-population","code":"denominator-exclusion","display":"Denominator Exclusion"}]},"count":0},{"code":{"coding":[{"system":"http://terminology.hl7.org/CodeSystem/measure-population","code":"numerator","display":"Numerator"}]},"count":0},{"code":{"coding":[{"system":"http://terminology.hl7.org/CodeSystem/measure-population","code":"denominator-exception","display":"Denominator Exception"}]},"count":0}]},{"population":[{"code":{"coding":[{"system":"http://terminology.hl7.org/CodeSystem/measure-population","code":"initial-population","display":"Initial Population"}]},"count":0},{"code":{"coding":[{"system":"http://terminology.hl7.org/CodeSystem/measure-population","code":"denominator","display":"Denominator"}]},"count":0},{"code":{"coding":[{"system":"http://terminology.hl7.org/CodeSystem/measure-population","code":"denominator-exclusion","display":"Denominator Exclusion"}]},"count":0},{"code":{"coding":[{"system":"http://terminology.hl7.org/CodeSystem/measure-population","code":"numerator","display":"Numerator"}]},"count":0},{"code":{"coding":[{"system":"http://terminology.hl7.org/CodeSystem/measure-population","code":"denominator-exception","display":"Denominator Exception"}]},"count":0}]},{"population":[{"code":{"coding":[{"system":"http://terminology.hl7.org/CodeSystem/measure-population","code":"initial-population","display":"Initial Population"}]},"count":0},{"code":{"coding":[{"system":"http://terminology.hl7.org/CodeSystem/measure-population","code":"denominator","display":"Denominator"}]},"count":0},{"code":{"coding":[{"system":"http://terminology.hl7.org/CodeSystem/measure-population","code":"denominator-exclusion","display":"Denominator Exclusion"}]},"count":0},{"code":{"coding":[{"system":"http://terminology.hl7.org/CodeSystem/measure-population","code":"numerator","display":"Numerator"}]},"count":0},{"code":{"coding":[{"system":"http://terminology.hl7.org/CodeSystem/measure-population","code":"denominator-exception","display":"Denominator Exception"}]},"count":0}]}]},"request":{"method":"PUT","url":"MeasureReport/b9aa95b6-d8a6-430c-82a4-91e23e7e3884"}}]}