{"resourceType":"Bundle","id":"tests-d1b682be-c26e-44cc-8ac4-18c81760a4a3-bundle","type":"transaction","entry":[{"fullUrl":"https://madie.cms.gov/Patient/d1b682be-c26e-44cc-8ac4-18c81760a4a3","resource":{"resourceType":"Patient","id":"d1b682be-c26e-44cc-8ac4-18c81760a4a3","meta":{"profile":["http://hl7.org/fhir/us/qicore/StructureDefinition/qicore-patient"]},"extension":[{"url":"http://hl7.org/fhir/us/core/StructureDefinition/us-core-race","extension":[{"url":"ombCategory","valueCoding":{"system":"urn:oid:2.16.840.1.113883.6.238","code":"1002-5","display":"American Indian or Alaska Native"}},{"url":"text","valueString":"American Indian or Alaska Native"}]},{"url":"http://hl7.org/fhir/us/core/StructureDefinition/us-core-ethnicity","extension":[{"url":"ombCategory","valueCoding":{"system":"urn:oid:2.16.840.1.113883.6.238","code":"2186-5","display":"Not Hispanic or Latino"}},{"url":"text","valueString":"Not Hispanic or Latino"}]}],"identifier":[{"type":{"coding":[{"system":"http://terminology.hl7.org/CodeSystem/v2-0203","code":"MR"}]},"system":"https://bonnie-fhir.healthit.gov/","value":"9879841341648631313"}],"active":true,"name":[{"use":"usual","family":"DENEXCEPPop1Fail","given":["AtrioBlockCardiacPacerSitu "]}],"gender":"female","birthDate":"1922-03-24"},"request":{"method":"PUT","url":"Patient/d1b682be-c26e-44cc-8ac4-18c81760a4a3"}},{"fullUrl":"https://madie.cms.gov/Encounter/85468135165465163","resource":{"resourceType":"Encounter","id":"da675cfa-9301-44c7-9275-b2017afede68","meta":{"profile":["http://hl7.org/fhir/us/qicore/StructureDefinition/qicore-encounter"]},"status":"finished","class":{"system":"http://terminology.hl7.org/CodeSystem/v3-ActCode","code":"AMB","display":"ambulatory encounter"},"type":[{"coding":[{"system":"http://www.ama-assn.org/go/cpt","version":"2024","code":"99205"}]}],"subject":{"reference":"Patient/d1b682be-c26e-44cc-8ac4-18c81760a4a3"},"period":{"start":"2025-04-05T06:00:00+00:00","end":"2025-04-05T07:00:00+00:00"}},"request":{"method":"PUT","url":"Encounter/da675cfa-9301-44c7-9275-b2017afede68"}},{"fullUrl":"https://madie.cms.gov/Encounter/468484164646841631","resource":{"resourceType":"Encounter","id":"d30de4ac-63b6-489c-8a8c-f96e11234afa","meta":{"profile":["http://hl7.org/fhir/us/qicore/StructureDefinition/qicore-encounter"]},"status":"finished","class":{"system":"http://terminology.hl7.org/CodeSystem/v3-ActCode","code":"AMB","display":"ambulatory encounter"},"type":[{"coding":[{"system":"http://snomed.info/sct","version":"http://snomed.info/sct/731000124108/version/20230901","code":"207195004"}]}],"subject":{"reference":"Patient/d1b682be-c26e-44cc-8ac4-18c81760a4a3"},"period":{"start":"2025-07-08T09:00:00+00:00","end":"2025-07-08T09:00:00+00:00"}},"request":{"method":"PUT","url":"Encounter/d30de4ac-63b6-489c-8a8c-f96e11234afa"}},{"fullUrl":"https://madie.cms.gov/Condition/648946498464161521","resource":{"resourceType":"Condition","id":"6b5cd6c3-5f5a-4ecf-81a6-674e5c586b61","meta":{"profile":["http://hl7.org/fhir/us/qicore/StructureDefinition/qicore-condition"]},"clinicalStatus":{"coding":[{"system":"http://terminology.hl7.org/CodeSystem/condition-clinical","code":"active","display":"Active"}]},"verificationStatus":{"coding":[{"system":"http://terminology.hl7.org/CodeSystem/condition-ver-status","code":"confirmed","display":"Confirmed"}]},"category":[{"coding":[{"system":"http://terminology.hl7.org/CodeSystem/condition-category","code":"problem-list-item","display":"Problem List Item"}]}],"code":{"coding":[{"system":"http://snomed.info/sct","version":"http://snomed.info/sct/731000124108/version/20240301","code":"981000124106","display":"Moderate left ventricular systolic dysfunction (disorder)"}]},"subject":{"reference":"Patient/d1b682be-c26e-44cc-8ac4-18c81760a4a3"},"onsetPeriod":{"start":"2025-04-05T06:00:00.000+00:00"}},"request":{"method":"PUT","url":"Condition/6b5cd6c3-5f5a-4ecf-81a6-674e5c586b61"}},{"fullUrl":"https://madie.cms.gov/Condition/654987496848465131","resource":{"resourceType":"Condition","id":"1a36055d-a3cb-46b0-8daa-00d17b88ce0e","meta":{"profile":["http://hl7.org/fhir/us/qicore/StructureDefinition/qicore-condition"]},"clinicalStatus":{"coding":[{"system":"http://terminology.hl7.org/CodeSystem/condition-clinical","code":"active","display":"Active"}]},"verificationStatus":{"coding":[{"system":"http://terminology.hl7.org/CodeSystem/condition-ver-status","code":"confirmed","display":"Confirmed"}]},"category":[{"coding":[{"system":"http://terminology.hl7.org/CodeSystem/condition-category","code":"problem-list-item","display":"Problem List Item"}]}],"code":{"coding":[{"system":"http://snomed.info/sct","version":"http://snomed.info/sct/731000124108/version/20240301","code":"10365005","display":"Right main coronary artery thrombosis (disorder)"}]},"subject":{"reference":"Patient/d1b682be-c26e-44cc-8ac4-18c81760a4a3"},"onsetPeriod":{"start":"2025-04-05T06:00:00.000+00:00"}},"request":{"method":"PUT","url":"Condition/1a36055d-a3cb-46b0-8daa-00d17b88ce0e"}},{"fullUrl":"https://madie.cms.gov/Condition/987784165464135133","resource":{"resourceType":"Condition","id":"544061f6-a61b-4836-9007-53c1d88402ab","meta":{"profile":["http://hl7.org/fhir/us/qicore/StructureDefinition/qicore-condition"]},"clinicalStatus":{"coding":[{"system":"http://terminology.hl7.org/CodeSystem/condition-clinical","code":"active","display":"Active"}]},"verificationStatus":{"coding":[{"system":"http://terminology.hl7.org/CodeSystem/condition-ver-status","code":"confirmed","display":"Confirmed"}]},"category":[{"coding":[{"system":"http://terminology.hl7.org/CodeSystem/condition-category","code":"problem-list-item","display":"Problem List Item"}]}],"code":{"coding":[{"system":"http://snomed.info/sct","version":"http://snomed.info/sct/731000124108/version/20240301","code":"102451000119107","display":"Complete atrioventricular block as complication of atrioventricular nodal ablation (disorder)"}]},"subject":{"reference":"Patient/d1b682be-c26e-44cc-8ac4-18c81760a4a3"},"onsetDateTime":"2024-07-07T10:00:00+00:00"},"request":{"method":"PUT","url":"Condition/544061f6-a61b-4836-9007-53c1d88402ab"}},{"fullUrl":"https://madie.cms.gov/Condition/687494131351313215","resource":{"resourceType":"Condition","id":"751bc3ea-bfc6-493c-9dbb-8c362df89251","meta":{"profile":["http://hl7.org/fhir/us/qicore/StructureDefinition/qicore-condition"]},"clinicalStatus":{"coding":[{"system":"http://terminology.hl7.org/CodeSystem/condition-clinical","code":"active","display":"Active"}]},"verificationStatus":{"coding":[{"system":"http://terminology.hl7.org/CodeSystem/condition-ver-status","code":"confirmed","display":"Confirmed"}]},"category":[{"coding":[{"system":"http://terminology.hl7.org/CodeSystem/condition-category","code":"problem-list-item","display":"Problem List Item"}]}],"code":{"coding":[{"system":"http://snomed.info/sct","version":"http://snomed.info/sct/731000124108/version/20240301","code":"441509002","display":"Cardiac pacemaker in situ (finding)"}]},"subject":{"reference":"Patient/d1b682be-c26e-44cc-8ac4-18c81760a4a3"},"onsetDateTime":"2024-03-07T10:00:00+00:00"},"request":{"method":"PUT","url":"Condition/751bc3ea-bfc6-493c-9dbb-8c362df89251"}},{"fullUrl":"https://madie.cms.gov/MeasureReport/ddb3f8f0-cc5d-468f-b0ec-a324361405c2","resource":{"resourceType":"MeasureReport","id":"ddb3f8f0-cc5d-468f-b0ec-a324361405c2","meta":{"profile":["http://hl7.org/fhir/us/cqfmeasures/StructureDefinition/test-case-cqfm"]},"contained":[{"resourceType":"Parameters","id":"97ccbb03-d2c3-4c70-a5ae-5cb7f2251e48-parameters","parameter":[{"name":"subject","valueString":"d1b682be-c26e-44cc-8ac4-18c81760a4a3"}]}],"extension":[{"url":"http://hl7.org/fhir/us/cqfmeasures/StructureDefinition/cqfm-inputParameters","valueReference":{"reference":"#97ccbb03-d2c3-4c70-a5ae-5cb7f2251e48-parameters"}},{"url":"http://hl7.org/fhir/us/cqfmeasures/StructureDefinition/cqfm-testCaseDescription","valueMarkdown":"Pt >  18, 2 visits in MP, moderate LVSD and CAD (both with onset during 1st visit), AV Block b4 2nd visit, and has Cardiac Pacer in Situ in year prior to MP"}],"modifierExtension":[{"url":"http://hl7.org/fhir/us/cqfmeasures/StructureDefinition/cqfm-isTestCase","valueBoolean":true}],"status":"complete","type":"individual","measure":"https://madie.cms.gov/Measure/CADBetaBlockerTherapyPriorMIorLVSDFHIR","period":{"start":"2025-01-01","end":"2025-12-31"},"group":[{"population":[{"code":{"coding":[{"system":"http://terminology.hl7.org/CodeSystem/measure-population","code":"initial-population","display":"Initial Population"}]},"count":1},{"code":{"coding":[{"system":"http://terminology.hl7.org/CodeSystem/measure-population","code":"denominator","display":"Denominator"}]},"count":1},{"code":{"coding":[{"system":"http://terminology.hl7.org/CodeSystem/measure-population","code":"numerator","display":"Numerator"}]},"count":0},{"code":{"coding":[{"system":"http://terminology.hl7.org/CodeSystem/measure-population","code":"denominator-exception","display":"Denominator Exception"}]},"count":0}]},{"population":[{"code":{"coding":[{"system":"http://terminology.hl7.org/CodeSystem/measure-population","code":"initial-population","display":"Initial Population"}]},"count":1},{"code":{"coding":[{"system":"http://terminology.hl7.org/CodeSystem/measure-population","code":"denominator","display":"Denominator"}]},"count":0},{"code":{"coding":[{"system":"http://terminology.hl7.org/CodeSystem/measure-population","code":"numerator","display":"Numerator"}]},"count":0},{"code":{"coding":[{"system":"http://terminology.hl7.org/CodeSystem/measure-population","code":"denominator-exception","display":"Denominator Exception"}]},"count":0}]}]},"request":{"method":"PUT","url":"MeasureReport/ddb3f8f0-cc5d-468f-b0ec-a324361405c2"}}]}