{"resourceType":"Bundle","id":"tests-b05ea6cd-9b35-4798-b15d-edc8593c2d33-bundle","type":"transaction","entry":[{"fullUrl":"https://madie.cms.gov/Patient/b05ea6cd-9b35-4798-b15d-edc8593c2d33","resource":{"resourceType":"Patient","id":"b05ea6cd-9b35-4798-b15d-edc8593c2d33","meta":{"profile":["http://hl7.org/fhir/us/qicore/StructureDefinition/qicore-patient"]},"extension":[{"url":"http://hl7.org/fhir/us/core/StructureDefinition/us-core-race","extension":[{"url":"ombCategory","valueCoding":{"system":"urn:oid:2.16.840.1.113883.6.238","code":"1002-5","display":"American Indian or Alaska Native"}},{"url":"text","valueString":"American Indian or Alaska Native"}]},{"url":"http://hl7.org/fhir/us/core/StructureDefinition/us-core-ethnicity","extension":[{"url":"ombCategory","valueCoding":{"system":"urn:oid:2.16.840.1.113883.6.238","code":"2186-5","display":"Not Hispanic or Latino"}},{"url":"text","valueString":"Not Hispanic or Latino"}]}],"identifier":[{"type":{"coding":[{"system":"http://terminology.hl7.org/CodeSystem/v2-0203","code":"MR"}]},"system":"https://bonnie-fhir.healthit.gov/","value":"516541651313135153"}],"active":true,"name":[{"use":"usual","family":"DENEXCEPPop1Pass","given":["Hypotension"]}],"gender":"female","birthDate":"1946-03-24"},"request":{"method":"PUT","url":"Patient/b05ea6cd-9b35-4798-b15d-edc8593c2d33"}},{"fullUrl":"https://madie.cms.gov/Encounter/87913516541651145545","resource":{"resourceType":"Encounter","id":"8b724bbc-1518-4894-b63e-857646ca8b40","meta":{"profile":["http://hl7.org/fhir/us/qicore/StructureDefinition/qicore-encounter"]},"status":"finished","class":{"system":"http://terminology.hl7.org/CodeSystem/v3-ActCode","code":"AMB","display":"ambulatory encounter"},"type":[{"coding":[{"system":"http://www.ama-assn.org/go/cpt","version":"2024","code":"99205"}]}],"subject":{"reference":"Patient/b05ea6cd-9b35-4798-b15d-edc8593c2d33"},"period":{"start":"2025-04-05T06:00:00+00:00","end":"2025-04-05T07:00:00+00:00"}},"request":{"method":"PUT","url":"Encounter/8b724bbc-1518-4894-b63e-857646ca8b40"}},{"fullUrl":"https://madie.cms.gov/Encounter/451651516546131","resource":{"resourceType":"Encounter","id":"0a420aa0-004f-44a4-b94b-c1cd1ba791c4","meta":{"profile":["http://hl7.org/fhir/us/qicore/StructureDefinition/qicore-encounter"]},"status":"finished","class":{"system":"http://terminology.hl7.org/CodeSystem/v3-ActCode","code":"AMB","display":"ambulatory encounter"},"type":[{"coding":[{"system":"http://snomed.info/sct","version":"http://snomed.info/sct/731000124108/version/20230901","code":"185467006","display":"Home visit for acute condition (procedure)"}]}],"subject":{"reference":"Patient/b05ea6cd-9b35-4798-b15d-edc8593c2d33"},"period":{"start":"2025-07-08T09:00:00+00:00","end":"2025-07-08T09:00:00+00:00"}},"request":{"method":"PUT","url":"Encounter/0a420aa0-004f-44a4-b94b-c1cd1ba791c4"}},{"fullUrl":"https://madie.cms.gov/Condition/98485465498546515","resource":{"resourceType":"Condition","id":"3905f4ff-2a2e-4bbb-8277-e26d958375d0","meta":{"profile":["http://hl7.org/fhir/us/qicore/StructureDefinition/qicore-condition"]},"clinicalStatus":{"coding":[{"system":"http://terminology.hl7.org/CodeSystem/condition-clinical","code":"active","display":"Active"}]},"verificationStatus":{"coding":[{"system":"http://terminology.hl7.org/CodeSystem/condition-ver-status","code":"confirmed","display":"Confirmed"}]},"category":[{"coding":[{"system":"http://terminology.hl7.org/CodeSystem/condition-category","code":"problem-list-item","display":"Problem List Item"}]}],"code":{"coding":[{"system":"http://snomed.info/sct","version":"http://snomed.info/sct/731000124108/version/20240301","code":"981000124106","display":"Moderate left ventricular systolic dysfunction (disorder)"}]},"subject":{"reference":"Patient/b05ea6cd-9b35-4798-b15d-edc8593c2d33"},"onsetPeriod":{"start":"2025-04-05T06:00:00.000+00:00"}},"request":{"method":"PUT","url":"Condition/3905f4ff-2a2e-4bbb-8277-e26d958375d0"}},{"fullUrl":"https://madie.cms.gov/Condition/324654657857824654","resource":{"resourceType":"Condition","id":"382d54eb-330a-44a9-bc64-a34de19bca69","meta":{"profile":["http://hl7.org/fhir/us/qicore/StructureDefinition/qicore-condition"]},"clinicalStatus":{"coding":[{"system":"http://terminology.hl7.org/CodeSystem/condition-clinical","code":"active","display":"Active"}]},"verificationStatus":{"coding":[{"system":"http://terminology.hl7.org/CodeSystem/condition-ver-status","code":"confirmed","display":"Confirmed"}]},"category":[{"coding":[{"system":"http://terminology.hl7.org/CodeSystem/condition-category","code":"problem-list-item","display":"Problem List Item"}]}],"code":{"coding":[{"system":"http://snomed.info/sct","version":"http://snomed.info/sct/731000124108/version/20240301","code":"10365005","display":"Right main coronary artery thrombosis (disorder)"}]},"subject":{"reference":"Patient/b05ea6cd-9b35-4798-b15d-edc8593c2d33"},"onsetPeriod":{"start":"2025-04-05T06:00:00.000+00:00"}},"request":{"method":"PUT","url":"Condition/382d54eb-330a-44a9-bc64-a34de19bca69"}},{"fullUrl":"https://madie.cms.gov/Condition/6572486578658274655","resource":{"resourceType":"Condition","id":"2c1c6b6b-d36d-4f37-a531-26ab7696eb32","meta":{"profile":["http://hl7.org/fhir/us/qicore/StructureDefinition/qicore-condition"]},"clinicalStatus":{"coding":[{"system":"http://terminology.hl7.org/CodeSystem/condition-clinical","code":"active","display":"Active"}]},"verificationStatus":{"coding":[{"system":"http://terminology.hl7.org/CodeSystem/condition-ver-status","code":"confirmed","display":"Confirmed"}]},"category":[{"coding":[{"system":"http://terminology.hl7.org/CodeSystem/condition-category","code":"problem-list-item","display":"Problem List Item"}]}],"code":{"coding":[{"system":"http://snomed.info/sct","version":"http://snomed.info/sct/731000124108/version/20240301","code":"195506001","display":"Idiopathic hypotension (disorder)"}]},"subject":{"reference":"Patient/b05ea6cd-9b35-4798-b15d-edc8593c2d33"},"onsetPeriod":{"start":"2025-04-05T06:00:00+00:00"}},"request":{"method":"PUT","url":"Condition/2c1c6b6b-d36d-4f37-a531-26ab7696eb32"}},{"fullUrl":"https://madie.cms.gov/MeasureReport/dcfdba5a-61f1-44a5-8af9-e995c303b306","resource":{"resourceType":"MeasureReport","id":"dcfdba5a-61f1-44a5-8af9-e995c303b306","meta":{"profile":["http://hl7.org/fhir/us/cqfmeasures/StructureDefinition/test-case-cqfm"]},"contained":[{"resourceType":"Parameters","id":"7b1a294d-e67f-4378-8860-4b92a5dc6799-parameters","parameter":[{"name":"subject","valueString":"b05ea6cd-9b35-4798-b15d-edc8593c2d33"}]}],"extension":[{"url":"http://hl7.org/fhir/us/cqfmeasures/StructureDefinition/cqfm-inputParameters","valueReference":{"reference":"#7b1a294d-e67f-4378-8860-4b92a5dc6799-parameters"}},{"url":"http://hl7.org/fhir/us/cqfmeasures/StructureDefinition/cqfm-testCaseDescription","valueMarkdown":"Pt > 18, 2 visits during MP, and Moderate LVSD, CAD and Hypotension (all with onset during 1st visit)"}],"modifierExtension":[{"url":"http://hl7.org/fhir/us/cqfmeasures/StructureDefinition/cqfm-isTestCase","valueBoolean":true}],"status":"complete","type":"individual","measure":"https://madie.cms.gov/Measure/CADBetaBlockerTherapyPriorMIorLVSDFHIR","period":{"start":"2025-01-01","end":"2025-12-31"},"group":[{"population":[{"code":{"coding":[{"system":"http://terminology.hl7.org/CodeSystem/measure-population","code":"initial-population","display":"Initial Population"}]},"count":1},{"code":{"coding":[{"system":"http://terminology.hl7.org/CodeSystem/measure-population","code":"denominator","display":"Denominator"}]},"count":1},{"code":{"coding":[{"system":"http://terminology.hl7.org/CodeSystem/measure-population","code":"numerator","display":"Numerator"}]},"count":0},{"code":{"coding":[{"system":"http://terminology.hl7.org/CodeSystem/measure-population","code":"denominator-exception","display":"Denominator Exception"}]},"count":1}]},{"population":[{"code":{"coding":[{"system":"http://terminology.hl7.org/CodeSystem/measure-population","code":"initial-population","display":"Initial Population"}]},"count":1},{"code":{"coding":[{"system":"http://terminology.hl7.org/CodeSystem/measure-population","code":"denominator","display":"Denominator"}]},"count":0},{"code":{"coding":[{"system":"http://terminology.hl7.org/CodeSystem/measure-population","code":"numerator","display":"Numerator"}]},"count":0},{"code":{"coding":[{"system":"http://terminology.hl7.org/CodeSystem/measure-population","code":"denominator-exception","display":"Denominator Exception"}]},"count":0}]}]},"request":{"method":"PUT","url":"MeasureReport/dcfdba5a-61f1-44a5-8af9-e995c303b306"}}]}