{"resourceType":"Bundle","id":"tests-13ce1b7d-3af6-4ef3-a4ae-6cd7c3075be8-bundle","type":"transaction","entry":[{"fullUrl":"https://madie.cms.gov/Patient/13ce1b7d-3af6-4ef3-a4ae-6cd7c3075be8","resource":{"resourceType":"Patient","id":"13ce1b7d-3af6-4ef3-a4ae-6cd7c3075be8","meta":{"profile":["http://hl7.org/fhir/us/qicore/StructureDefinition/qicore-patient"]},"extension":[{"url":"http://hl7.org/fhir/us/core/StructureDefinition/us-core-race","extension":[{"url":"ombCategory","valueCoding":{"system":"urn:oid:2.16.840.1.113883.6.238","code":"1002-5","display":"American Indian or Alaska Native"}},{"url":"text","valueString":"American Indian or Alaska Native"}]},{"url":"http://hl7.org/fhir/us/core/StructureDefinition/us-core-ethnicity","extension":[{"url":"ombCategory","valueCoding":{"system":"urn:oid:2.16.840.1.113883.6.238","code":"2186-5","display":"Not Hispanic or Latino"}},{"url":"text","valueString":"Not Hispanic or Latino"}]}],"identifier":[{"type":{"coding":[{"system":"http://terminology.hl7.org/CodeSystem/v2-0203","code":"MR"}]},"system":"https://bonnie-fhir.healthit.gov/","value":"68465413513131313"}],"active":true,"name":[{"use":"usual","family":"DENEXCEPPop1Fail","given":["HypotensionAfterEncounter"]}],"gender":"female","birthDate":"1946-03-24"},"request":{"method":"PUT","url":"Patient/13ce1b7d-3af6-4ef3-a4ae-6cd7c3075be8"}},{"fullUrl":"https://madie.cms.gov/Encounter/494651346846153131","resource":{"resourceType":"Encounter","id":"609f751e-f448-403f-a760-2330864b9102","meta":{"profile":["http://hl7.org/fhir/us/qicore/StructureDefinition/qicore-encounter"]},"status":"finished","class":{"system":"http://terminology.hl7.org/CodeSystem/v3-ActCode","code":"AMB","display":"ambulatory encounter"},"type":[{"coding":[{"system":"http://www.ama-assn.org/go/cpt","version":"2024","code":"99205"}]}],"subject":{"reference":"Patient/13ce1b7d-3af6-4ef3-a4ae-6cd7c3075be8"},"period":{"start":"2025-04-05T06:00:00+00:00","end":"2025-04-05T07:00:00+00:00"}},"request":{"method":"PUT","url":"Encounter/609f751e-f448-403f-a760-2330864b9102"}},{"fullUrl":"https://madie.cms.gov/Encounter/794651351641351131","resource":{"resourceType":"Encounter","id":"a9cd1aeb-b662-490f-bbf0-8e5f3b14d08b","meta":{"profile":["http://hl7.org/fhir/us/qicore/StructureDefinition/qicore-encounter"]},"status":"finished","class":{"system":"http://terminology.hl7.org/CodeSystem/v3-ActCode","code":"AMB","display":"ambulatory encounter"},"type":[{"coding":[{"system":"http://www.ama-assn.org/go/cpt","version":"2024","code":"99205"}]}],"subject":{"reference":"Patient/13ce1b7d-3af6-4ef3-a4ae-6cd7c3075be8"},"period":{"start":"2025-07-08T09:00:00+00:00","end":"2025-07-08T09:00:00+00:00"}},"request":{"method":"PUT","url":"Encounter/a9cd1aeb-b662-490f-bbf0-8e5f3b14d08b"}},{"fullUrl":"https://madie.cms.gov/Condition/48468413468461351313","resource":{"resourceType":"Condition","id":"f4691848-3c1d-49f3-87ca-81f1801d6f07","meta":{"profile":["http://hl7.org/fhir/us/qicore/StructureDefinition/qicore-condition"]},"clinicalStatus":{"coding":[{"system":"http://terminology.hl7.org/CodeSystem/condition-clinical","code":"active","display":"Active"}]},"verificationStatus":{"coding":[{"system":"http://terminology.hl7.org/CodeSystem/condition-ver-status","code":"confirmed","display":"Confirmed"}]},"category":[{"coding":[{"system":"http://terminology.hl7.org/CodeSystem/condition-category","code":"problem-list-item","display":"Problem List Item"}]}],"code":{"coding":[{"system":"http://snomed.info/sct","version":"http://snomed.info/sct/731000124108/version/20240301","code":"981000124106","display":"Moderate left ventricular systolic dysfunction (disorder)"}]},"subject":{"reference":"Patient/13ce1b7d-3af6-4ef3-a4ae-6cd7c3075be8"},"onsetPeriod":{"start":"2025-04-05T06:00:00.000+00:00"}},"request":{"method":"PUT","url":"Condition/f4691848-3c1d-49f3-87ca-81f1801d6f07"}},{"fullUrl":"https://madie.cms.gov/Condition/794641646413513131","resource":{"resourceType":"Condition","id":"de2bb811-5e72-4641-a356-c3e1d2e21191","meta":{"profile":["http://hl7.org/fhir/us/qicore/StructureDefinition/qicore-condition"]},"clinicalStatus":{"coding":[{"system":"http://terminology.hl7.org/CodeSystem/condition-clinical","code":"active","display":"Active"}]},"verificationStatus":{"coding":[{"system":"http://terminology.hl7.org/CodeSystem/condition-ver-status","code":"confirmed","display":"Confirmed"}]},"category":[{"coding":[{"system":"http://terminology.hl7.org/CodeSystem/condition-category","code":"problem-list-item","display":"Problem List Item"}]}],"code":{"coding":[{"system":"http://snomed.info/sct","version":"http://snomed.info/sct/731000124108/version/20240301","code":"10365005","display":"Right main coronary artery thrombosis (disorder)"}]},"subject":{"reference":"Patient/13ce1b7d-3af6-4ef3-a4ae-6cd7c3075be8"},"onsetPeriod":{"start":"2025-04-05T06:00:00.000+00:00"}},"request":{"method":"PUT","url":"Condition/de2bb811-5e72-4641-a356-c3e1d2e21191"}},{"fullUrl":"https://madie.cms.gov/Condition/789465135468135154","resource":{"resourceType":"Condition","id":"385f74a8-e081-4b83-8b61-1dc515738e39","meta":{"profile":["http://hl7.org/fhir/us/qicore/StructureDefinition/qicore-condition"]},"clinicalStatus":{"coding":[{"system":"http://terminology.hl7.org/CodeSystem/condition-clinical","code":"active","display":"Active"}]},"verificationStatus":{"coding":[{"system":"http://terminology.hl7.org/CodeSystem/condition-ver-status","code":"confirmed","display":"Confirmed"}]},"category":[{"coding":[{"system":"http://terminology.hl7.org/CodeSystem/condition-category","code":"problem-list-item","display":"Problem List Item"}]}],"code":{"coding":[{"system":"http://snomed.info/sct","version":"http://snomed.info/sct/731000124108/version/20240301","code":"195506001","display":"Idiopathic hypotension (disorder)"}]},"subject":{"reference":"Patient/13ce1b7d-3af6-4ef3-a4ae-6cd7c3075be8"},"onsetPeriod":{"start":"2025-12-05T06:00:00+00:00"}},"request":{"method":"PUT","url":"Condition/385f74a8-e081-4b83-8b61-1dc515738e39"}},{"fullUrl":"https://madie.cms.gov/MeasureReport/51e15117-ff4b-47c8-9a84-943b1472de40","resource":{"resourceType":"MeasureReport","id":"51e15117-ff4b-47c8-9a84-943b1472de40","meta":{"profile":["http://hl7.org/fhir/us/cqfmeasures/StructureDefinition/test-case-cqfm"]},"contained":[{"resourceType":"Parameters","id":"28e27708-3bc0-4ed6-9d3a-01ccfe1357cf-parameters","parameter":[{"name":"subject","valueString":"13ce1b7d-3af6-4ef3-a4ae-6cd7c3075be8"}]}],"extension":[{"url":"http://hl7.org/fhir/us/cqfmeasures/StructureDefinition/cqfm-inputParameters","valueReference":{"reference":"#28e27708-3bc0-4ed6-9d3a-01ccfe1357cf-parameters"}},{"url":"http://hl7.org/fhir/us/cqfmeasures/StructureDefinition/cqfm-testCaseDescription","valueMarkdown":"Pt > 18, 2 visits during MP, Moderate LVSD and CAD (both with onset during 1st visit), and Hypotension after 2nd visit"}],"modifierExtension":[{"url":"http://hl7.org/fhir/us/cqfmeasures/StructureDefinition/cqfm-isTestCase","valueBoolean":true}],"status":"complete","type":"individual","measure":"https://madie.cms.gov/Measure/CADBetaBlockerTherapyPriorMIorLVSDFHIR","period":{"start":"2025-01-01","end":"2025-12-31"},"group":[{"population":[{"code":{"coding":[{"system":"http://terminology.hl7.org/CodeSystem/measure-population","code":"initial-population","display":"Initial Population"}]},"count":1},{"code":{"coding":[{"system":"http://terminology.hl7.org/CodeSystem/measure-population","code":"denominator","display":"Denominator"}]},"count":1},{"code":{"coding":[{"system":"http://terminology.hl7.org/CodeSystem/measure-population","code":"numerator","display":"Numerator"}]},"count":0},{"code":{"coding":[{"system":"http://terminology.hl7.org/CodeSystem/measure-population","code":"denominator-exception","display":"Denominator Exception"}]},"count":0}]},{"population":[{"code":{"coding":[{"system":"http://terminology.hl7.org/CodeSystem/measure-population","code":"initial-population","display":"Initial Population"}]},"count":1},{"code":{"coding":[{"system":"http://terminology.hl7.org/CodeSystem/measure-population","code":"denominator","display":"Denominator"}]},"count":0},{"code":{"coding":[{"system":"http://terminology.hl7.org/CodeSystem/measure-population","code":"numerator","display":"Numerator"}]},"count":0},{"code":{"coding":[{"system":"http://terminology.hl7.org/CodeSystem/measure-population","code":"denominator-exception","display":"Denominator Exception"}]},"count":0}]}]},"request":{"method":"PUT","url":"MeasureReport/51e15117-ff4b-47c8-9a84-943b1472de40"}}]}