{"resourceType":"Bundle","id":"tests-b472b9b5-419f-4e40-81c7-2086b4b3962d-bundle","type":"transaction","entry":[{"fullUrl":"https://madie.cms.gov/Patient/b472b9b5-419f-4e40-81c7-2086b4b3962d","resource":{"resourceType":"Patient","id":"b472b9b5-419f-4e40-81c7-2086b4b3962d","meta":{"profile":["http://hl7.org/fhir/us/qicore/StructureDefinition/qicore-patient"]},"extension":[{"url":"http://hl7.org/fhir/us/core/StructureDefinition/us-core-race","extension":[{"url":"ombCategory","valueCoding":{"system":"urn:oid:2.16.840.1.113883.6.238","code":"1002-5","display":"American Indian or Alaska Native"}},{"url":"text","valueString":"American Indian or Alaska Native"}]},{"url":"http://hl7.org/fhir/us/core/StructureDefinition/us-core-ethnicity","extension":[{"url":"ombCategory","valueCoding":{"system":"urn:oid:2.16.840.1.113883.6.238","code":"2186-5","display":"Not Hispanic or Latino"}},{"url":"text","valueString":"Not Hispanic or Latino"}]}],"identifier":[{"type":{"coding":[{"system":"http://terminology.hl7.org/CodeSystem/v2-0203","code":"MR"}]},"system":"https://bonnie-fhir.healthit.gov/","value":"62d99a52aa9f5c6ec34ff3c2"}],"active":true,"name":[{"use":"usual","family":"DENEXCEPPop1Fail","given":["AtrioBlockCardiacPacerPx"]}],"gender":"female","birthDate":"1982-06-28"},"request":{"method":"PUT","url":"Patient/b472b9b5-419f-4e40-81c7-2086b4b3962d"}},{"fullUrl":"https://madie.cms.gov/Encounter/5c954d9db848462de0ae6fff","resource":{"resourceType":"Encounter","id":"4a1db732-242b-40ac-8c07-a9c9dc3757e8","meta":{"profile":["http://hl7.org/fhir/us/qicore/StructureDefinition/qicore-encounter"]},"status":"finished","class":{"system":"http://terminology.hl7.org/CodeSystem/v3-ActCode","code":"AMB","display":"ambulatory encounter"},"type":[{"coding":[{"system":"http://www.ama-assn.org/go/cpt","version":"2024","code":"99205"}]}],"subject":{"reference":"Patient/b472b9b5-419f-4e40-81c7-2086b4b3962d"},"period":{"start":"2025-01-23T11:00:00.000+00:00","end":"2025-01-23T11:15:00.000+00:00"}},"request":{"method":"PUT","url":"Encounter/4a1db732-242b-40ac-8c07-a9c9dc3757e8"}},{"fullUrl":"https://madie.cms.gov/Encounter/5c954d9db848462de0ae7000","resource":{"resourceType":"Encounter","id":"00d54326-bdaa-4080-bb33-8c2aa8eaa8fc","meta":{"profile":["http://hl7.org/fhir/us/qicore/StructureDefinition/qicore-encounter"]},"status":"finished","class":{"system":"http://terminology.hl7.org/CodeSystem/v3-ActCode","code":"AMB","display":"ambulatory encounter"},"type":[{"coding":[{"system":"http://snomed.info/sct","version":"http://snomed.info/sct/731000124108/version/20230901","code":"185320006","display":"Encounter by computer link (procedure)"}]}],"subject":{"reference":"Patient/b472b9b5-419f-4e40-81c7-2086b4b3962d"},"period":{"start":"2025-02-25T13:15:00+00:00","end":"2025-02-25T14:15:00+00:00"}},"request":{"method":"PUT","url":"Encounter/00d54326-bdaa-4080-bb33-8c2aa8eaa8fc"}},{"fullUrl":"https://madie.cms.gov/Condition/5c954d9db848462de0ae6ffd","resource":{"resourceType":"Condition","id":"ec5782a9-e8ee-4f5a-89d7-a59fa75aecda","meta":{"profile":["http://hl7.org/fhir/us/qicore/StructureDefinition/qicore-condition"]},"clinicalStatus":{"coding":[{"system":"http://terminology.hl7.org/CodeSystem/condition-clinical","code":"active","display":"Active"}]},"verificationStatus":{"coding":[{"system":"http://terminology.hl7.org/CodeSystem/condition-ver-status","code":"confirmed","display":"Confirmed"}]},"category":[{"coding":[{"system":"http://terminology.hl7.org/CodeSystem/condition-category","code":"problem-list-item","display":"Problem List Item"}]}],"code":{"coding":[{"system":"http://hl7.org/fhir/sid/icd-10-cm","version":"2024","code":"I44.1"}]},"subject":{"reference":"Patient/b472b9b5-419f-4e40-81c7-2086b4b3962d"},"onsetPeriod":{"start":"2025-01-24T15:00:00+00:00"}},"request":{"method":"PUT","url":"Condition/ec5782a9-e8ee-4f5a-89d7-a59fa75aecda"}},{"fullUrl":"https://madie.cms.gov/Observation/5c954d9db848462de0ae7002","resource":{"resourceType":"Observation","id":"08f7a59c-b8a1-4681-9e77-8faad780219b","meta":{"profile":["http://hl7.org/fhir/StructureDefinition/heartrate"]},"status":"final","category":[{"coding":[{"system":"http://terminology.hl7.org/CodeSystem/observation-category","code":"vital-signs","display":"Vital Signs"}]}],"code":{"coding":[{"system":"http://loinc.org","version":"2.76","code":"8867-4"}]},"subject":{"reference":"Patient/b472b9b5-419f-4e40-81c7-2086b4b3962d"},"effectiveDateTime":"2025-02-25T13:15:00+00:00","valueQuantity":{"value":25,"unit":"/min","system":"http://unitsofmeasure.org","code":"/min"}},"request":{"method":"PUT","url":"Observation/08f7a59c-b8a1-4681-9e77-8faad780219b"}},{"fullUrl":"https://madie.cms.gov/Observation/5c954d9db848462de0ae7004","resource":{"resourceType":"Observation","id":"ecb3f4ca-18dd-4b0e-83b9-4b475f6a1470","meta":{"profile":["http://hl7.org/fhir/StructureDefinition/heartrate"]},"status":"final","category":[{"coding":[{"system":"http://terminology.hl7.org/CodeSystem/observation-category","code":"vital-signs","display":"Vital Signs"}]}],"code":{"coding":[{"system":"http://loinc.org","version":"2.76","code":"8867-4"}]},"subject":{"reference":"Patient/b472b9b5-419f-4e40-81c7-2086b4b3962d"},"effectiveDateTime":"2025-02-25T18:15:00+00:00","valueQuantity":{"value":20,"unit":"/min","system":"http://unitsofmeasure.org","code":"/min"}},"request":{"method":"PUT","url":"Observation/ecb3f4ca-18dd-4b0e-83b9-4b475f6a1470"}},{"fullUrl":"https://madie.cms.gov/Condition/7681316354663468","resource":{"resourceType":"Condition","id":"f6149c9b-bd84-4cbc-bbcb-779ddc201ecc","meta":{"profile":["http://hl7.org/fhir/us/qicore/StructureDefinition/qicore-condition"]},"clinicalStatus":{"coding":[{"system":"http://terminology.hl7.org/CodeSystem/condition-clinical","code":"active","display":"Active"}]},"verificationStatus":{"coding":[{"system":"http://terminology.hl7.org/CodeSystem/condition-ver-status","code":"confirmed","display":"Confirmed"}]},"category":[{"coding":[{"system":"http://terminology.hl7.org/CodeSystem/condition-category","code":"problem-list-item","display":"Problem List Item"}]}],"code":{"coding":[{"system":"http://snomed.info/sct","version":"http://snomed.info/sct/731000124108/version/20240301","code":"981000124106","display":"Moderate left ventricular systolic dysfunction (disorder)"}]},"subject":{"reference":"Patient/b472b9b5-419f-4e40-81c7-2086b4b3962d"},"onsetPeriod":{"start":"2025-01-05T17:00:00.000+00:00","end":"2025-02-02T17:00:00.000+00:00"}},"request":{"method":"PUT","url":"Condition/f6149c9b-bd84-4cbc-bbcb-779ddc201ecc"}},{"fullUrl":"https://madie.cms.gov/Condition/1687498465165131","resource":{"resourceType":"Condition","id":"1737f0b9-6884-4f7b-a9ea-daaab08215bb","meta":{"profile":["http://hl7.org/fhir/us/qicore/StructureDefinition/qicore-condition"]},"clinicalStatus":{"coding":[{"system":"http://terminology.hl7.org/CodeSystem/condition-clinical","code":"active","display":"Active"}]},"verificationStatus":{"coding":[{"system":"http://terminology.hl7.org/CodeSystem/condition-ver-status","code":"confirmed","display":"Confirmed"}]},"category":[{"coding":[{"system":"http://terminology.hl7.org/CodeSystem/condition-category","code":"problem-list-item","display":"Problem List Item"}]}],"code":{"coding":[{"system":"http://snomed.info/sct","version":"http://snomed.info/sct/731000124108/version/20240301","code":"10365005","display":"Right main coronary artery thrombosis (disorder)"}]},"subject":{"reference":"Patient/b472b9b5-419f-4e40-81c7-2086b4b3962d"},"onsetDateTime":"2025-01-23T11:00:00.000+00:00"},"request":{"method":"PUT","url":"Condition/1737f0b9-6884-4f7b-a9ea-daaab08215bb"}},{"fullUrl":"https://madie.cms.gov/Procedure/4684984635165161","resource":{"resourceType":"Procedure","id":"986c81c7-31c9-4a1b-affd-55f92c1a4f96","meta":{"profile":["http://hl7.org/fhir/us/qicore/StructureDefinition/qicore-procedure"]},"extension":[{"url":"http://hl7.org/fhir/us/qicore/StructureDefinition/qicore-recorded","valueDateTime":"2025-01-22T08:00:00.000+00:00"}],"status":"completed","code":{"coding":[{"system":"http://snomed.info/sct","version":"http://snomed.info/sct/731000124108/version/20240301","code":"1231779006","display":"Implantation of leadless cardiac pacemaker (procedure)"}]},"subject":{"reference":"Patient/b472b9b5-419f-4e40-81c7-2086b4b3962d"},"performedPeriod":{"start":"2025-01-22T08:00:00.000+00:00","end":"2025-01-22T08:30:00.000+00:00"}},"request":{"method":"PUT","url":"Procedure/986c81c7-31c9-4a1b-affd-55f92c1a4f96"}},{"fullUrl":"https://madie.cms.gov/MeasureReport/306147ae-e450-407e-9b4a-46bab9d85a55","resource":{"resourceType":"MeasureReport","id":"306147ae-e450-407e-9b4a-46bab9d85a55","meta":{"profile":["http://hl7.org/fhir/us/cqfmeasures/StructureDefinition/test-case-cqfm"]},"contained":[{"resourceType":"Parameters","id":"c3ec3d04-ac2f-4c45-a8b5-6b93dd60b8c9-parameters","parameter":[{"name":"subject","valueString":"b472b9b5-419f-4e40-81c7-2086b4b3962d"}]}],"extension":[{"url":"http://hl7.org/fhir/us/cqfmeasures/StructureDefinition/cqfm-inputParameters","valueReference":{"reference":"#c3ec3d04-ac2f-4c45-a8b5-6b93dd60b8c9-parameters"}},{"url":"http://hl7.org/fhir/us/cqfmeasures/StructureDefinition/cqfm-testCaseDescription","valueMarkdown":"Pt > 18, 2 visits in MP, AV block onset after 1st visit b4 2nd visit, pulse of 25 bpm during 2nd visit, a pulse of 20 bpm after 2nd visit, moderate LVSD onset b4 1st visit, CAD Dx onset during 2nd visit, and Cardiac Pacer Px during MP b4 1st visit"}],"modifierExtension":[{"url":"http://hl7.org/fhir/us/cqfmeasures/StructureDefinition/cqfm-isTestCase","valueBoolean":true}],"status":"complete","type":"individual","measure":"https://madie.cms.gov/Measure/CADBetaBlockerTherapyPriorMIorLVSDFHIR","period":{"start":"2025-01-01","end":"2025-12-31"},"group":[{"population":[{"code":{"coding":[{"system":"http://terminology.hl7.org/CodeSystem/measure-population","code":"initial-population","display":"Initial Population"}]},"count":1},{"code":{"coding":[{"system":"http://terminology.hl7.org/CodeSystem/measure-population","code":"denominator","display":"Denominator"}]},"count":1},{"code":{"coding":[{"system":"http://terminology.hl7.org/CodeSystem/measure-population","code":"numerator","display":"Numerator"}]},"count":0},{"code":{"coding":[{"system":"http://terminology.hl7.org/CodeSystem/measure-population","code":"denominator-exception","display":"Denominator Exception"}]},"count":0}]},{"population":[{"code":{"coding":[{"system":"http://terminology.hl7.org/CodeSystem/measure-population","code":"initial-population","display":"Initial Population"}]},"count":1},{"code":{"coding":[{"system":"http://terminology.hl7.org/CodeSystem/measure-population","code":"denominator","display":"Denominator"}]},"count":0},{"code":{"coding":[{"system":"http://terminology.hl7.org/CodeSystem/measure-population","code":"numerator","display":"Numerator"}]},"count":0},{"code":{"coding":[{"system":"http://terminology.hl7.org/CodeSystem/measure-population","code":"denominator-exception","display":"Denominator Exception"}]},"count":0}]}]},"request":{"method":"PUT","url":"MeasureReport/306147ae-e450-407e-9b4a-46bab9d85a55"}}]}