{"resourceType":"Bundle","id":"tests-7fb4cb03-569b-4c0a-8898-abe49d609c0e-bundle","type":"transaction","entry":[{"fullUrl":"https://madie.cms.gov/Patient/7fb4cb03-569b-4c0a-8898-abe49d609c0e","resource":{"resourceType":"Patient","id":"7fb4cb03-569b-4c0a-8898-abe49d609c0e","meta":{"profile":["http://hl7.org/fhir/us/qicore/StructureDefinition/qicore-patient"]},"extension":[{"url":"http://hl7.org/fhir/us/core/StructureDefinition/us-core-race","extension":[{"url":"ombCategory","valueCoding":{"system":"urn:oid:2.16.840.1.113883.6.238","code":"2106-3","display":"White"}},{"url":"text","valueString":"White"}]},{"url":"http://hl7.org/fhir/us/core/StructureDefinition/us-core-ethnicity","extension":[{"url":"ombCategory","valueCoding":{"system":"urn:oid:2.16.840.1.113883.6.238","code":"2186-5","display":"Not Hispanic or Latino"}},{"url":"text","valueString":"Not Hispanic or Latino"}]}],"identifier":[{"type":{"coding":[{"system":"http://terminology.hl7.org/CodeSystem/v2-0203","code":"MR"}]},"system":"https://bonnie-fhir.healthit.gov/","value":"6067458898086b57ea5aa574"}],"active":true,"name":[{"use":"usual","family":"DENEXCEPPop2Fail","given":["AsthmaEBSofLastEnc"]}],"gender":"male","birthDate":"1928-05-07"},"request":{"method":"PUT","url":"Patient/7fb4cb03-569b-4c0a-8898-abe49d609c0e"}},{"fullUrl":"https://madie.cms.gov/Encounter/5c954d9eb848462de0ae704a","resource":{"resourceType":"Encounter","id":"7bded77c-07eb-46ee-8d87-67b0d92cdc64","meta":{"profile":["http://hl7.org/fhir/us/qicore/StructureDefinition/qicore-encounter"]},"status":"finished","class":{"system":"http://terminology.hl7.org/CodeSystem/v3-ActCode","code":"AMB","display":"ambulatory encounter"},"type":[{"coding":[{"system":"http://www.ama-assn.org/go/cpt","version":"2024","code":"99205"}]}],"subject":{"reference":"Patient/7fb4cb03-569b-4c0a-8898-abe49d609c0e"},"period":{"start":"2025-03-04T19:00:00+00:00","end":"2025-03-04T20:00:00+00:00"}},"request":{"method":"PUT","url":"Encounter/7bded77c-07eb-46ee-8d87-67b0d92cdc64"}},{"fullUrl":"https://madie.cms.gov/Encounter/5c954d9eb848462de0ae704b","resource":{"resourceType":"Encounter","id":"c445179a-0353-413f-a1f4-85efcb9f39fa","meta":{"profile":["http://hl7.org/fhir/us/qicore/StructureDefinition/qicore-encounter"]},"status":"finished","class":{"system":"http://terminology.hl7.org/CodeSystem/v3-ActCode","code":"AMB","display":"ambulatory encounter"},"type":[{"coding":[{"system":"http://www.ama-assn.org/go/cpt","version":"2024","code":"99205"}]}],"subject":{"reference":"Patient/7fb4cb03-569b-4c0a-8898-abe49d609c0e"},"period":{"start":"2025-08-23T06:00:00+00:00","end":"2025-08-23T07:00:00+00:00"}},"request":{"method":"PUT","url":"Encounter/c445179a-0353-413f-a1f4-85efcb9f39fa"}},{"fullUrl":"https://madie.cms.gov/Condition/5c954d9eb848462de0ae7047","resource":{"resourceType":"Condition","id":"2e69f14f-4c96-4727-9246-f175cb0521bf","meta":{"profile":["http://hl7.org/fhir/us/qicore/StructureDefinition/qicore-condition"]},"clinicalStatus":{"coding":[{"system":"http://terminology.hl7.org/CodeSystem/condition-clinical","code":"inactive","display":"Inactive"}]},"verificationStatus":{"coding":[{"system":"http://terminology.hl7.org/CodeSystem/condition-ver-status","code":"confirmed","display":"Confirmed"}]},"category":[{"coding":[{"system":"http://terminology.hl7.org/CodeSystem/condition-category","code":"problem-list-item","display":"Problem List Item"}]}],"code":{"coding":[{"system":"http://hl7.org/fhir/sid/icd-10-cm","version":"2024","code":"J45.20"}]},"subject":{"reference":"Patient/7fb4cb03-569b-4c0a-8898-abe49d609c0e"},"onsetPeriod":{"start":"2012-03-04T19:00:00+00:00","end":"2012-03-04T20:00:00+00:00"},"abatementPeriod":{"end":"2024-03-04T20:00:00.000+00:00"}},"request":{"method":"PUT","url":"Condition/2e69f14f-4c96-4727-9246-f175cb0521bf"}},{"fullUrl":"https://madie.cms.gov/Condition/5c954d9eb848462de0ae7049","resource":{"resourceType":"Condition","id":"0c810abe-4ae6-4422-859e-4f339dbe8baf","meta":{"profile":["http://hl7.org/fhir/us/qicore/StructureDefinition/qicore-condition"]},"clinicalStatus":{"coding":[{"system":"http://terminology.hl7.org/CodeSystem/condition-clinical","code":"active","display":"Active"}]},"verificationStatus":{"coding":[{"system":"http://terminology.hl7.org/CodeSystem/condition-ver-status","code":"confirmed","display":"Confirmed"}]},"category":[{"coding":[{"system":"http://terminology.hl7.org/CodeSystem/condition-category","code":"problem-list-item","display":"Problem List Item"}]}],"code":{"coding":[{"system":"http://hl7.org/fhir/sid/icd-10-cm","version":"2024","code":"I21.09"}]},"subject":{"reference":"Patient/7fb4cb03-569b-4c0a-8898-abe49d609c0e"},"onsetPeriod":{"start":"2025-03-04T19:00:00+00:00","end":"2025-03-04T19:15:00+00:00"}},"request":{"method":"PUT","url":"Condition/0c810abe-4ae6-4422-859e-4f339dbe8baf"}},{"fullUrl":"https://madie.cms.gov/Condition/4984651651584613","resource":{"resourceType":"Condition","id":"aa178be1-0cb4-4426-905a-fb0c8735b2dc","meta":{"profile":["http://hl7.org/fhir/us/qicore/StructureDefinition/qicore-condition"]},"clinicalStatus":{"coding":[{"system":"http://terminology.hl7.org/CodeSystem/condition-clinical","code":"active","display":"Active"}]},"verificationStatus":{"coding":[{"system":"http://terminology.hl7.org/CodeSystem/condition-ver-status","code":"confirmed","display":"Confirmed"}]},"category":[{"coding":[{"system":"http://terminology.hl7.org/CodeSystem/condition-category","code":"problem-list-item","display":"Problem List Item"}]}],"code":{"coding":[{"system":"http://snomed.info/sct","version":"http://snomed.info/sct/731000124108/version/20240301","code":"10365005","display":"Right main coronary artery thrombosis (disorder)"}]},"subject":{"reference":"Patient/7fb4cb03-569b-4c0a-8898-abe49d609c0e"},"onsetPeriod":{"start":"2025-03-04T19:00:00.000+00:00"}},"request":{"method":"PUT","url":"Condition/aa178be1-0cb4-4426-905a-fb0c8735b2dc"}},{"fullUrl":"https://madie.cms.gov/MeasureReport/1689617c-3caf-455f-b109-eb9af3b5ccba","resource":{"resourceType":"MeasureReport","id":"1689617c-3caf-455f-b109-eb9af3b5ccba","meta":{"profile":["http://hl7.org/fhir/us/cqfmeasures/StructureDefinition/test-case-cqfm"]},"contained":[{"resourceType":"Parameters","id":"c78afe41-31b0-4b29-93ba-45e9deadf2e2-parameters","parameter":[{"name":"subject","valueString":"7fb4cb03-569b-4c0a-8898-abe49d609c0e"}]}],"extension":[{"url":"http://hl7.org/fhir/us/cqfmeasures/StructureDefinition/cqfm-inputParameters","valueReference":{"reference":"#c78afe41-31b0-4b29-93ba-45e9deadf2e2-parameters"}},{"url":"http://hl7.org/fhir/us/cqfmeasures/StructureDefinition/cqfm-testCaseDescription","valueMarkdown":"Pt > 18, 2 visits in MP, Asthma overlaps b4 1st visit (starts b4 but ends after 1st visit), CAD and MI (both with onset during 1st visit)"}],"modifierExtension":[{"url":"http://hl7.org/fhir/us/cqfmeasures/StructureDefinition/cqfm-isTestCase","valueBoolean":true}],"status":"complete","type":"individual","measure":"https://madie.cms.gov/Measure/CADBetaBlockerTherapyPriorMIorLVSDFHIR","period":{"start":"2025-01-01","end":"2025-12-31"},"group":[{"population":[{"code":{"coding":[{"system":"http://terminology.hl7.org/CodeSystem/measure-population","code":"initial-population","display":"Initial Population"}]},"count":1},{"code":{"coding":[{"system":"http://terminology.hl7.org/CodeSystem/measure-population","code":"denominator","display":"Denominator"}]},"count":0},{"code":{"coding":[{"system":"http://terminology.hl7.org/CodeSystem/measure-population","code":"numerator","display":"Numerator"}]},"count":0},{"code":{"coding":[{"system":"http://terminology.hl7.org/CodeSystem/measure-population","code":"denominator-exception","display":"Denominator Exception"}]},"count":0}]},{"population":[{"code":{"coding":[{"system":"http://terminology.hl7.org/CodeSystem/measure-population","code":"initial-population","display":"Initial Population"}]},"count":1},{"code":{"coding":[{"system":"http://terminology.hl7.org/CodeSystem/measure-population","code":"denominator","display":"Denominator"}]},"count":1},{"code":{"coding":[{"system":"http://terminology.hl7.org/CodeSystem/measure-population","code":"numerator","display":"Numerator"}]},"count":0},{"code":{"coding":[{"system":"http://terminology.hl7.org/CodeSystem/measure-population","code":"denominator-exception","display":"Denominator Exception"}]},"count":0}]}]},"request":{"method":"PUT","url":"MeasureReport/1689617c-3caf-455f-b109-eb9af3b5ccba"}}]}