{
  "resourceType": "Bundle",
  "id": "tests-DENOMPass-RiskVariableSmokingStatus2BeforeEnc-bundle",
  "type": "transaction",
  "entry": [ {
    "fullUrl": "https://madie.cms.gov/Encounter/19306c4e-de45-4194-9feb-1f13249df435",
    "resource": {
      "resourceType": "Encounter",
      "id": "19306c4e-de45-4194-9feb-1f13249df435",
      "meta": {
        "profile": [ "http://hl7.org/fhir/us/qicore/StructureDefinition/qicore-encounter" ]
      },
      "status": "finished",
      "class": {
        "system": "http://terminology.hl7.org/CodeSystem/v3-ActCode",
        "code": "IMP",
        "display": "inpatient encounter"
      },
      "type": [ {
        "coding": [ {
          "system": "http://snomed.info/sct",
          "code": "112689000",
          "display": "Hospital admission, elective, with complete pre-admission work-up"
        } ],
        "text": "Hospital admission, elective, with complete pre-admission work-up"
      } ],
      "priority": {
        "coding": [ {
          "system": "http://snomed.info/sct",
          "code": "103390000"
        } ]
      },
      "subject": {
        "reference": "Patient/a40acaba-9191-4e65-8e32-cf3d48ec1964"
      },
      "period": {
        "start": "2026-04-10T08:00:00+00:00",
        "end": "2026-04-14T08:15:00+00:00"
      },
      "diagnosis": [ {
        "condition": {
          "reference": "Procedure/61c68d43-8889-44ce-bb24-6d9d69d47242"
        },
        "rank": 1
      } ]
    },
    "request": {
      "method": "PUT",
      "url": "Encounter/19306c4e-de45-4194-9feb-1f13249df435"
    }
  }, {
    "fullUrl": "https://madie.cms.gov/Observation/1e8c1108-53b4-4afb-8f99-404e107dcba6",
    "resource": {
      "resourceType": "Observation",
      "id": "1e8c1108-53b4-4afb-8f99-404e107dcba6",
      "meta": {
        "profile": [ "http://hl7.org/fhir/us/qicore/StructureDefinition/qicore-observation" ]
      },
      "status": "final",
      "category": [ {
        "coding": [ {
          "system": "http://terminology.hl7.org/CodeSystem/observation-category",
          "code": "laboratory",
          "display": "Laboratory"
        } ],
        "text": "Laboratory"
      } ],
      "code": {
        "coding": [ {
          "system": "http://loinc.org",
          "code": "72166-2",
          "display": "Tobacco smoking status"
        } ],
        "text": "Tobacco smoking status "
      },
      "subject": {
        "reference": "Patient/a40acaba-9191-4e65-8e32-cf3d48ec1964"
      },
      "encounter": {
        "reference": "Encounter/19306c4e-de45-4194-9feb-1f13249df435"
      },
      "effectiveDateTime": "2026-04-04T08:00:00+00:00",
      "valueQuantity": {
        "value": 12,
        "unit": "mmol/L",
        "system": "http://unitsofmeasure.org",
        "code": "mmol/L"
      }
    },
    "request": {
      "method": "PUT",
      "url": "Observation/1e8c1108-53b4-4afb-8f99-404e107dcba6"
    }
  }, {
    "fullUrl": "https://madie.cms.gov/Observation/2f26bf3d-e6ef-47ac-8951-5a859f0c3997",
    "resource": {
      "resourceType": "Observation",
      "id": "2f26bf3d-e6ef-47ac-8951-5a859f0c3997",
      "meta": {
        "profile": [ "http://hl7.org/fhir/us/qicore/StructureDefinition/qicore-observation" ]
      },
      "status": "final",
      "category": [ {
        "coding": [ {
          "system": "http://terminology.hl7.org/CodeSystem/observation-category",
          "code": "laboratory",
          "display": "Laboratory"
        } ],
        "text": "Laboratory"
      } ],
      "code": {
        "coding": [ {
          "system": "http://loinc.org",
          "code": "72166-2",
          "display": "Tobacco smoking status"
        } ],
        "text": "Tobacco smoking status "
      },
      "subject": {
        "reference": "Patient/a40acaba-9191-4e65-8e32-cf3d48ec1964"
      },
      "encounter": {
        "reference": "Encounter/19306c4e-de45-4194-9feb-1f13249df435"
      },
      "effectiveDateTime": "2026-04-07T08:00:00+00:00",
      "valueCodeableConcept": {
        "coding": [ {
          "system": "http://snomed.info/sct",
          "code": "230065006",
          "display": "Chain smoker (finding)"
        } ]
      }
    },
    "request": {
      "method": "PUT",
      "url": "Observation/2f26bf3d-e6ef-47ac-8951-5a859f0c3997"
    }
  }, {
    "fullUrl": "https://madie.cms.gov/Patient/a40acaba-9191-4e65-8e32-cf3d48ec1964",
    "resource": {
      "resourceType": "Patient",
      "id": "a40acaba-9191-4e65-8e32-cf3d48ec1964",
      "meta": {
        "profile": [ "http://hl7.org/fhir/us/qicore/StructureDefinition/qicore-patient" ]
      },
      "extension": [ {
        "url": "http://hl7.org/fhir/us/core/StructureDefinition/us-core-race",
        "extension": [ {
          "url": "ombCategory",
          "valueCoding": {
            "system": "urn:oid:2.16.840.1.113883.6.238",
            "code": "2054-5",
            "display": "Black or African American",
            "userSelected": true
          }
        }, {
          "url": "text",
          "valueString": "Black or African American"
        } ]
      }, {
        "url": "http://hl7.org/fhir/us/core/StructureDefinition/us-core-ethnicity",
        "extension": [ {
          "url": "ombCategory",
          "valueCoding": {
            "system": "urn:oid:2.16.840.1.113883.6.238",
            "code": "2186-5",
            "display": "Not Hispanic or Latino",
            "userSelected": true
          }
        }, {
          "url": "text",
          "valueString": "Not Hispanic or Latino"
        } ]
      } ],
      "identifier": [ {
        "type": {
          "coding": [ {
            "system": "http://terminology.hl7.org/CodeSystem/v2-0203",
            "code": "MR"
          } ]
        },
        "system": "https://bonnie-fhir.healthit.gov/",
        "value": "61152a3b98086b7a79cbd7c1"
      } ],
      "active": true,
      "name": [ {
        "use": "usual",
        "family": "DENOMPass",
        "given": [ "RiskVariableSmokingStatus2BeforeEnc" ]
      } ],
      "gender": "female",
      "birthDate": "1966-07-12"
    },
    "request": {
      "method": "PUT",
      "url": "Patient/a40acaba-9191-4e65-8e32-cf3d48ec1964"
    }
  }, {
    "fullUrl": "https://madie.cms.gov/Procedure/61c68d43-8889-44ce-bb24-6d9d69d47242",
    "resource": {
      "resourceType": "Procedure",
      "id": "61c68d43-8889-44ce-bb24-6d9d69d47242",
      "meta": {
        "profile": [ "http://hl7.org/fhir/us/qicore/StructureDefinition/qicore-procedure" ]
      },
      "extension": [ {
        "url": "http://hl7.org/fhir/us/qicore/StructureDefinition/qicore-recorded",
        "valueDateTime": "2026-04-11T10:30:00+00:00"
      } ],
      "status": "completed",
      "category": {
        "coding": [ {
          "system": "http://snomed.info/sct",
          "code": "18286008",
          "display": "General or neuraxial anesthesia"
        } ]
      },
      "code": {
        "coding": [ {
          "system": "http://snomed.info/sct",
          "code": "112943005",
          "display": "Epidural injection of anesthetic substance, diagnostic, caudal, continuous"
        } ]
      },
      "subject": {
        "reference": "Patient/a40acaba-9191-4e65-8e32-cf3d48ec1964"
      },
      "performedPeriod": {
        "start": "2026-04-11T08:00:00+00:00",
        "end": "2026-04-11T10:15:00+00:00"
      }
    },
    "request": {
      "method": "PUT",
      "url": "Procedure/61c68d43-8889-44ce-bb24-6d9d69d47242"
    }
  }, {
    "fullUrl": "https://madie.cms.gov/MeasureReport/f95e0cf9-6a95-4bce-92f3-5798924649a8",
    "resource": {
      "resourceType": "MeasureReport",
      "id": "f95e0cf9-6a95-4bce-92f3-5798924649a8",
      "meta": {
        "profile": [ "http://hl7.org/fhir/us/cqfmeasures/StructureDefinition/test-case-cqfm" ]
      },
      "contained": [ {
        "resourceType": "Parameters",
        "id": "17ce115c-4912-4e95-969c-a374f639ec5c-parameters",
        "parameter": [ {
          "name": "subject",
          "valueString": "a40acaba-9191-4e65-8e32-cf3d48ec1964"
        } ]
      } ],
      "extension": [ {
        "url": "http://hl7.org/fhir/us/cqfmeasures/StructureDefinition/cqfm-inputParameters",
        "valueReference": {
          "reference": "#17ce115c-4912-4e95-969c-a374f639ec5c-parameters"
        }
      }, {
        "url": "http://hl7.org/fhir/us/cqfmeasures/StructureDefinition/cqfm-testCaseDescription",
        "valueMarkdown": "Elective hosp with proc (general anesthesia) within 3 days of encounter. 2 smoking status assessments before enc start. Result displays correctly from the latest one (most recent): : 230065006 Chain smoker"
      } ],
      "modifierExtension": [ {
        "url": "http://hl7.org/fhir/us/cqfmeasures/StructureDefinition/cqfm-isTestCase",
        "valueBoolean": true
      } ],
      "status": "complete",
      "type": "individual",
      "measure": "https://madie.cms.gov/Measure/CMS1218HHRFFHIR",
      "period": {
        "start": "2026-01-01",
        "end": "2026-12-31"
      },
      "group": [ {
        "population": [ {
          "code": {
            "coding": [ {
              "system": "http://terminology.hl7.org/CodeSystem/measure-population",
              "code": "initial-population",
              "display": "Initial Population"
            } ]
          },
          "count": 1
        }, {
          "code": {
            "coding": [ {
              "system": "http://terminology.hl7.org/CodeSystem/measure-population",
              "code": "denominator",
              "display": "Denominator"
            } ]
          },
          "count": 1
        }, {
          "code": {
            "coding": [ {
              "system": "http://terminology.hl7.org/CodeSystem/measure-population",
              "code": "denominator-exclusion",
              "display": "Denominator Exclusion"
            } ]
          },
          "count": 0
        }, {
          "code": {
            "coding": [ {
              "system": "http://terminology.hl7.org/CodeSystem/measure-population",
              "code": "numerator",
              "display": "Numerator"
            } ]
          },
          "count": 0
        } ]
      } ],
      "evaluatedResource": [ {
        "reference": "Encounter/19306c4e-de45-4194-9feb-1f13249df435"
      }, {
        "reference": "Observation/1e8c1108-53b4-4afb-8f99-404e107dcba6"
      }, {
        "reference": "Observation/2f26bf3d-e6ef-47ac-8951-5a859f0c3997"
      }, {
        "reference": "Patient/a40acaba-9191-4e65-8e32-cf3d48ec1964"
      }, {
        "reference": "Procedure/61c68d43-8889-44ce-bb24-6d9d69d47242"
      } ]
    },
    "request": {
      "method": "PUT",
      "url": "MeasureReport/f95e0cf9-6a95-4bce-92f3-5798924649a8"
    }
  } ]
}