{"resourceType":"Bundle","id":"tests-d70dcaf9-4e69-4395-9612-ee1e156f6184-bundle","type":"transaction","entry":[{"fullUrl":"https://madie.cms.gov/Patient/d70dcaf9-4e69-4395-9612-ee1e156f6184","resource":{"resourceType":"Patient","id":"d70dcaf9-4e69-4395-9612-ee1e156f6184","meta":{"profile":["http://hl7.org/fhir/us/qicore/StructureDefinition/qicore-patient"]},"text":{"status":"generated","div":"<div xmlns=\"http://www.w3.org/1999/xhtml\"><div class=\"hapiHeaderText\">TestMultipleOccur2inNum <b>NUMERPASS </b></div><table class=\"hapiPropertyTable\"><tbody><tr><td>Identifier</td><td>f9dd0d7a6a9f775928ab2c47f31bfdd50dfc6c91e6f0b0e678b3985354333a28</td></tr><tr><td>Date of birth</td><td><span>03 March 1974</span></td></tr></tbody></table></div>"},"extension":[{"url":"http://hl7.org/fhir/us/core/StructureDefinition/us-core-race","extension":[{"url":"ombCategory","valueCoding":{"system":"urn:oid:2.16.840.1.113883.6.238","code":"1002-5","display":"American Indian or Alaska Native","userSelected":true}},{"url":"text","valueString":"American Indian or Alaska Native"}]},{"url":"http://hl7.org/fhir/us/core/StructureDefinition/us-core-ethnicity","extension":[{"url":"ombCategory","valueCoding":{"system":"urn:oid:2.16.840.1.113883.6.238","code":"2135-2","display":"Hispanic or Latino","userSelected":true}},{"url":"text","valueString":"Hispanic or Latino"}]}],"identifier":[{"type":{"coding":[{"system":"http://terminology.hl7.org/CodeSystem/v2-0203","code":"MR"}]},"system":"https://bonnie-fhir.healthit.gov/","value":"612e6f6e02c62a011f2f1d44"}],"active":true,"name":[{"use":"usual","family":"NUMERPass","given":["TestMultipleOccur2inNum"]}],"gender":"female","birthDate":"1974-03-03"},"request":{"method":"PUT","url":"Patient/d70dcaf9-4e69-4395-9612-ee1e156f6184"}},{"fullUrl":"https://madie.cms.gov/Encounter/5ce80971b848467c29eaf2c1","resource":{"resourceType":"Encounter","id":"fe48a28d-faaa-41d3-9c88-c022f47b7d13","meta":{"profile":["http://hl7.org/fhir/us/qicore/StructureDefinition/qicore-encounter"]},"status":"finished","class":{"system":"http://terminology.hl7.org/CodeSystem/v3-ActCode","code":"IMP","display":"inpatient encounter"},"type":[{"coding":[{"system":"http://snomed.info/sct","code":"183452005"}]}],"subject":{"reference":"Patient/d70dcaf9-4e69-4395-9612-ee1e156f6184"},"period":{"start":"2025-03-22T08:00:00+00:00","end":"2025-03-26T08:15:00+00:00"},"length":{"value":4.0,"unit":"days"},"location":[{"location":{"reference":"Location/Location-1"},"period":{"start":"2025-03-22T08:15:00.000+00:00","end":"2025-03-24T08:00:00.000+00:00"}}]},"request":{"method":"PUT","url":"Encounter/fe48a28d-faaa-41d3-9c88-c022f47b7d13"}},{"fullUrl":"https://madie.cms.gov/Encounter/5ce80971b848467c29eaf2c2","resource":{"resourceType":"Encounter","id":"653ebed5-c0bf-45f2-8875-59c319f73b3a","meta":{"profile":["http://hl7.org/fhir/us/qicore/StructureDefinition/qicore-encounter"]},"status":"finished","class":{"system":"http://terminology.hl7.org/CodeSystem/v3-ActCode","code":"EMER","display":"emergency"},"type":[{"coding":[{"system":"http://snomed.info/sct","code":"4525004"}]}],"subject":{"reference":"Patient/d70dcaf9-4e69-4395-9612-ee1e156f6184"},"period":{"start":"2025-12-06T02:00:00+00:00","end":"2025-12-06T08:15:00+00:00"},"length":{"value":0.0,"unit":"days"}},"request":{"method":"PUT","url":"Encounter/653ebed5-c0bf-45f2-8875-59c319f73b3a"}},{"fullUrl":"https://madie.cms.gov/Encounter/5ce80971b848467c29eaf2c3","resource":{"resourceType":"Encounter","id":"2b92f743-20ca-4629-8d0a-3f5102eebf5d","meta":{"profile":["http://hl7.org/fhir/us/qicore/StructureDefinition/qicore-encounter"]},"status":"finished","class":{"system":"http://terminology.hl7.org/CodeSystem/v3-ActCode","code":"IMP","display":"inpatient encounter"},"type":[{"coding":[{"system":"http://snomed.info/sct","code":"8715000"}]}],"subject":{"reference":"Patient/d70dcaf9-4e69-4395-9612-ee1e156f6184"},"period":{"start":"2025-12-06T08:45:00+00:00","end":"2025-12-30T08:15:00+00:00"},"length":{"value":24.0,"unit":"days"},"location":[{"location":{"reference":"Location/intensive-care-unit-0a0f"},"period":{"start":"2025-12-06T09:00:00.000+00:00","end":"2025-12-12T08:15:00.000+00:00"}}]},"request":{"method":"PUT","url":"Encounter/2b92f743-20ca-4629-8d0a-3f5102eebf5d"}},{"fullUrl":"https://madie.cms.gov/Coverage/5fa041081c76ba66d995910b","resource":{"resourceType":"Coverage","id":"4a980b4e-4fe9-4487-a76c-f11cccac490d","status":"active","beneficiary":{"reference":"Patient/d70dcaf9-4e69-4395-9612-ee1e156f6184"},"period":{"start":"1974-03-03T08:00:00+00:00"},"payor":[{"reference":"Organization/806b0255-13cb-4f2b-9412-571554dd2169"}]},"request":{"method":"PUT","url":"Coverage/4a980b4e-4fe9-4487-a76c-f11cccac490d"}},{"fullUrl":"https://madie.cms.gov/MedicationAdministration/5ce80971b848467c29eaf2c5","resource":{"resourceType":"MedicationAdministration","id":"229a7733-74fc-4e1a-8488-0a5d3b866b8a","meta":{"profile":["http://hl7.org/fhir/us/qicore/StructureDefinition/qicore-medicationadministration"]},"status":"completed","medicationCodeableConcept":{"coding":[{"system":"http://www.nlm.nih.gov/research/umls/rxnorm","code":"308351"}]},"subject":{"reference":"Patient/d70dcaf9-4e69-4395-9612-ee1e156f6184"},"effectivePeriod":{"start":"2025-12-07T06:30:00+00:00"}},"request":{"method":"PUT","url":"MedicationAdministration/229a7733-74fc-4e1a-8488-0a5d3b866b8a"}},{"fullUrl":"https://madie.cms.gov/Location/Location-1","resource":{"resourceType":"Location","id":"a0e25631-71fb-41f2-aabe-55187eaf0b70","meta":{"profile":["http://hl7.org/fhir/us/qicore/StructureDefinition/qicore-location"]},"identifier":[{"use":"usual","system":"http://exampleoflocation.com","value":"B1-S.F2"}],"name":"Medical Surgical East, first floor","type":[{"coding":[{"system":"https://www.cdc.gov/nhsn/cdaportal/terminology/codesystem/hsloc.html","code":"1025-6","display":"Trauma Critical Care","userSelected":true}]}]},"request":{"method":"PUT","url":"Location/a0e25631-71fb-41f2-aabe-55187eaf0b70"}},{"fullUrl":"https://madie.cms.gov/Location/intensive-care-unit-0a0f","resource":{"resourceType":"Location","id":"bc1e4d2a-59e5-4fba-8180-70c295ba9ee0","meta":{"profile":["http://hl7.org/fhir/us/qicore/StructureDefinition/qicore-location"]},"identifier":[{"use":"usual","system":"http://exampleoflocation.com","value":"B1-S.F2"}],"name":"Medical Surgical East, first floor","type":[{"coding":[{"system":"https://www.cdc.gov/nhsn/cdaportal/terminology/codesystem/hsloc.html","code":"1025-6","display":"Trauma Critical Care","userSelected":true}]}]},"request":{"method":"PUT","url":"Location/bc1e4d2a-59e5-4fba-8180-70c295ba9ee0"}},{"fullUrl":"https://madie.cms.gov/Procedure/device-application-0a10","resource":{"resourceType":"Procedure","id":"d1aa28fd-3449-4ff0-b54a-76d4bc6bd8a4","meta":{"profile":["http://hl7.org/fhir/us/qicore/StructureDefinition/qicore-procedure"]},"extension":[{"url":"http://hl7.org/fhir/us/qicore/StructureDefinition/qicore-recorded","valueDateTime":"2025-03-26T09:35:00-04:00"}],"status":"completed","code":{"coding":[{"system":"http://snomed.info/sct","code":"443448006","display":"Application of intermittent pneumatic compression device (procedure)"}]},"subject":{"reference":"Patient/d70dcaf9-4e69-4395-9612-ee1e156f6184"},"performedPeriod":{"start":"2025-03-22T08:10:00.000+00:00","end":"2025-03-22T08:15:00.000+00:00"}},"request":{"method":"PUT","url":"Procedure/d1aa28fd-3449-4ff0-b54a-76d4bc6bd8a4"}},{"fullUrl":"https://madie.cms.gov/Organization/123456","resource":{"resourceType":"Organization","id":"806b0255-13cb-4f2b-9412-571554dd2169","meta":{"profile":["http://hl7.org/fhir/us/qicore/StructureDefinition/qicore-organization"]},"identifier":[{"use":"temp","system":"urn:oid:2.16.840.1.113883.4.4","value":"21-3259825"}],"active":true,"type":[{"coding":[{"system":"http://terminology.hl7.org/CodeSystem/organization-type","code":"pay","display":"Payer"}]}],"name":"Blue Cross Blue Shield of Texas","telecom":[{"system":"phone","value":"(+1) 972-766-6900"}],"address":[{"use":"billing","type":"postal","line":["P.O. Box 660044"],"city":"Dallas","state":"TX","postalCode":"75266-0044","country":"USA"}]},"request":{"method":"PUT","url":"Organization/806b0255-13cb-4f2b-9412-571554dd2169"}},{"fullUrl":"https://madie.cms.gov/Practitioner/practitioner-123456","resource":{"resourceType":"Practitioner","id":"d19ee937-8a1c-414b-8dbc-1cfb33469739","identifier":[{"system":"http://hl7.org/fhir/sid/us-npi","value":"123456"}],"name":[{"family":"Evil","prefix":["Dr"]}]},"request":{"method":"PUT","url":"Practitioner/d19ee937-8a1c-414b-8dbc-1cfb33469739"}},{"fullUrl":"https://madie.cms.gov/MeasureReport/390ffc93-9178-47c4-9904-d82ccd233bdb","resource":{"resourceType":"MeasureReport","id":"390ffc93-9178-47c4-9904-d82ccd233bdb","meta":{"profile":["http://hl7.org/fhir/us/cqfmeasures/StructureDefinition/test-case-cqfm"]},"contained":[{"resourceType":"Parameters","id":"d5c691ef-9325-4008-8c72-689f7e1b7d76-parameters","parameter":[{"name":"subject","valueString":"d70dcaf9-4e69-4395-9612-ee1e156f6184"}]}],"extension":[{"url":"http://hl7.org/fhir/us/cqfmeasures/StructureDefinition/cqfm-inputParameters","valueReference":{"reference":"#d5c691ef-9325-4008-8c72-689f7e1b7d76-parameters"}},{"url":"http://hl7.org/fhir/us/cqfmeasures/StructureDefinition/cqfm-testCaseDescription","valueMarkdown":" Patient has 2 encounters, both pass Numerator due to Device applied and medication administered.\n"}],"modifierExtension":[{"url":"http://hl7.org/fhir/us/cqfmeasures/StructureDefinition/cqfm-isTestCase","valueBoolean":true}],"status":"complete","type":"individual","measure":"https://madie.cms.gov/Measure/IntensiveCareUnitVenousThromboembolismProphylaxisFHIR","period":{"start":"2025-01-01","end":"2025-12-31"},"group":[{"population":[{"code":{"coding":[{"system":"http://terminology.hl7.org/CodeSystem/measure-population","code":"initial-population","display":"Initial Population"}]},"count":2},{"code":{"coding":[{"system":"http://terminology.hl7.org/CodeSystem/measure-population","code":"denominator","display":"Denominator"}]},"count":2},{"code":{"coding":[{"system":"http://terminology.hl7.org/CodeSystem/measure-population","code":"denominator-exclusion","display":"Denominator Exclusion"}]},"count":0},{"code":{"coding":[{"system":"http://terminology.hl7.org/CodeSystem/measure-population","code":"numerator","display":"Numerator"}]},"count":2},{"code":{"coding":[{"system":"http://terminology.hl7.org/CodeSystem/measure-population","code":"denominator-exception","display":"Denominator Exception"}]},"count":0}]}]},"request":{"method":"PUT","url":"MeasureReport/390ffc93-9178-47c4-9904-d82ccd233bdb"}}]}