{"resourceType":"Bundle","id":"tests-d8271c75-5d30-4a02-9584-1572b0570843-bundle","type":"transaction","entry":[{"fullUrl":"https://madie.cms.gov/Patient/d8271c75-5d30-4a02-9584-1572b0570843","resource":{"resourceType":"Patient","id":"d8271c75-5d30-4a02-9584-1572b0570843","meta":{"profile":["http://hl7.org/fhir/us/qicore/StructureDefinition/qicore-patient"]},"text":{"status":"generated","div":"<div xmlns=\"http://www.w3.org/1999/xhtml\"><div class=\"hapiHeaderText\">UrologicalSurgeryDayOfICUStart <b>DENEXPASS </b></div><table class=\"hapiPropertyTable\"><tbody><tr><td>Identifier</td><td>9214f043f436048cfea186089d4ffb3f1663d62344799d81208efc969b033c47</td></tr><tr><td>Date of birth</td><td><span>03 March 1974</span></td></tr></tbody></table></div>"},"extension":[{"url":"http://hl7.org/fhir/us/core/StructureDefinition/us-core-race","extension":[{"url":"ombCategory","valueCoding":{"system":"urn:oid:2.16.840.1.113883.6.238","code":"1002-5","display":"American Indian or Alaska Native","userSelected":true}},{"url":"text","valueString":"American Indian or Alaska Native"}]},{"url":"http://hl7.org/fhir/us/core/StructureDefinition/us-core-ethnicity","extension":[{"url":"ombCategory","valueCoding":{"system":"urn:oid:2.16.840.1.113883.6.238","code":"2135-2","display":"Hispanic or Latino","userSelected":true}},{"url":"text","valueString":"Hispanic or Latino"}]}],"identifier":[{"type":{"coding":[{"system":"http://terminology.hl7.org/CodeSystem/v2-0203","code":"MR"}]},"system":"https://bonnie-fhir.healthit.gov/","value":"612e6f6202c62a011f2f1a06"}],"active":true,"name":[{"use":"usual","family":"DENEXPass","given":["UrologicalSurgeryDayOfICUStart"]}],"gender":"male","birthDate":"1974-03-03"},"request":{"method":"PUT","url":"Patient/d8271c75-5d30-4a02-9584-1572b0570843"}},{"fullUrl":"https://madie.cms.gov/Encounter/5ce80971b848467c29eaf2a1","resource":{"resourceType":"Encounter","id":"688bbcc5-feb0-422e-b25c-2187697eaf04","meta":{"profile":["http://hl7.org/fhir/us/qicore/StructureDefinition/qicore-encounter"]},"extension":[{"url":"http://hl7.org/fhir/us/qicore/StructureDefinition/qicore-encounter-procedure","extension":[{"url":"type","valueCodeableConcept":{"coding":[{"system":"http://www.cms.gov/Medicare/Coding/ICD10","code":"0T9400Z"}]}},{"url":"rank","valuePositiveInt":1},{"url":"procedure","valueReference":{"reference":"Procedure/5ce80971b848467c29eaf2a2"}}]}],"status":"finished","class":{"system":"http://terminology.hl7.org/CodeSystem/v3-ActCode","code":"IMP","display":"inpatient encounter"},"type":[{"coding":[{"system":"http://snomed.info/sct","code":"8715000"}]}],"subject":{"reference":"Patient/d8271c75-5d30-4a02-9584-1572b0570843"},"period":{"start":"2025-12-04T08:00:00+00:00","end":"2025-12-30T08:15:00+00:00"},"length":{"value":26.0,"unit":"days"},"location":[{"location":{"reference":"Location/Location-1"},"period":{"start":"2025-12-06T05:00:00+00:00","end":"2025-12-28T08:15:00.000+00:00"}}]},"request":{"method":"PUT","url":"Encounter/688bbcc5-feb0-422e-b25c-2187697eaf04"}},{"fullUrl":"https://madie.cms.gov/Coverage/5fa041061c76ba66d99590e4","resource":{"resourceType":"Coverage","id":"b2257dc6-3372-4383-bb97-c4c32a716717","status":"active","beneficiary":{"reference":"Patient/d8271c75-5d30-4a02-9584-1572b0570843"},"period":{"start":"1974-03-03T08:00:00+00:00"},"payor":[{"reference":"Organization/4d7da20f-8773-4347-8f6b-80adcdcee1f4"}]},"request":{"method":"PUT","url":"Coverage/b2257dc6-3372-4383-bb97-c4c32a716717"}},{"fullUrl":"https://madie.cms.gov/Procedure/5ce80971b848467c29eaf2a2","resource":{"resourceType":"Procedure","id":"5343e85a-30e5-4913-ae91-24a07713dc7e","meta":{"profile":["http://hl7.org/fhir/us/qicore/StructureDefinition/qicore-procedure"]},"extension":[{"url":"http://hl7.org/fhir/us/qicore/StructureDefinition/qicore-recorded","valueDateTime":"2012-12-04T09:35:00-04:00"}],"status":"completed","code":{"coding":[{"system":"http://www.cms.gov/Medicare/Coding/ICD10","code":"0T9400Z"}]},"subject":{"reference":"Patient/d8271c75-5d30-4a02-9584-1572b0570843"},"performedPeriod":{"start":"2025-12-06T07:00:00+00:00","end":"2025-12-06T13:00:00+00:00"}},"request":{"method":"PUT","url":"Procedure/5343e85a-30e5-4913-ae91-24a07713dc7e"}},{"fullUrl":"https://madie.cms.gov/Location/Location-1","resource":{"resourceType":"Location","id":"ccb11a77-76f1-4818-b120-4400ea56c746","meta":{"profile":["http://hl7.org/fhir/us/qicore/StructureDefinition/qicore-location"]},"identifier":[{"use":"usual","system":"http://exampleoflocation.com","value":"B1-S.F2"}],"name":"Medical Surgical East, first floor","type":[{"coding":[{"system":"https://www.cdc.gov/nhsn/cdaportal/terminology/codesystem/hsloc.html","code":"1025-6","display":"Trauma Critical Care","userSelected":true}]}]},"request":{"method":"PUT","url":"Location/ccb11a77-76f1-4818-b120-4400ea56c746"}},{"fullUrl":"https://madie.cms.gov/Organization/123456","resource":{"resourceType":"Organization","id":"4d7da20f-8773-4347-8f6b-80adcdcee1f4","meta":{"profile":["http://hl7.org/fhir/us/qicore/StructureDefinition/qicore-organization"]},"identifier":[{"use":"temp","system":"urn:oid:2.16.840.1.113883.4.4","value":"21-3259825"}],"active":true,"type":[{"coding":[{"system":"http://terminology.hl7.org/CodeSystem/organization-type","code":"pay","display":"Payer"}]}],"name":"Blue Cross Blue Shield of Texas","telecom":[{"system":"phone","value":"(+1) 972-766-6900"}],"address":[{"use":"billing","type":"postal","line":["P.O. Box 660044"],"city":"Dallas","state":"TX","postalCode":"75266-0044","country":"USA"}]},"request":{"method":"PUT","url":"Organization/4d7da20f-8773-4347-8f6b-80adcdcee1f4"}},{"fullUrl":"https://madie.cms.gov/Practitioner/practitioner-123456","resource":{"resourceType":"Practitioner","id":"f8aac363-e4bd-4a11-9b8b-8cab9e44fd7a","identifier":[{"system":"http://hl7.org/fhir/sid/us-npi","value":"123456"}],"name":[{"family":"Evil","prefix":["Dr"]}]},"request":{"method":"PUT","url":"Practitioner/f8aac363-e4bd-4a11-9b8b-8cab9e44fd7a"}},{"fullUrl":"https://madie.cms.gov/MeasureReport/f62e26a9-1b5f-491b-9d93-804d4614a30b","resource":{"resourceType":"MeasureReport","id":"f62e26a9-1b5f-491b-9d93-804d4614a30b","meta":{"profile":["http://hl7.org/fhir/us/cqfmeasures/StructureDefinition/test-case-cqfm"]},"contained":[{"resourceType":"Parameters","id":"90328df0-970c-440e-9c9e-e89c8406269c-parameters","parameter":[{"name":"subject","valueString":"d8271c75-5d30-4a02-9584-1572b0570843"}]}],"extension":[{"url":"http://hl7.org/fhir/us/cqfmeasures/StructureDefinition/cqfm-inputParameters","valueReference":{"reference":"#90328df0-970c-440e-9c9e-e89c8406269c-parameters"}},{"url":"http://hl7.org/fhir/us/cqfmeasures/StructureDefinition/cqfm-testCaseDescription","valueMarkdown":"UrologicalSurgery on same day of ICUStart\n"}],"modifierExtension":[{"url":"http://hl7.org/fhir/us/cqfmeasures/StructureDefinition/cqfm-isTestCase","valueBoolean":true}],"status":"complete","type":"individual","measure":"https://madie.cms.gov/Measure/IntensiveCareUnitVenousThromboembolismProphylaxisFHIR","period":{"start":"2025-01-01","end":"2025-12-31"},"group":[{"population":[{"code":{"coding":[{"system":"http://terminology.hl7.org/CodeSystem/measure-population","code":"initial-population","display":"Initial Population"}]},"count":1},{"code":{"coding":[{"system":"http://terminology.hl7.org/CodeSystem/measure-population","code":"denominator","display":"Denominator"}]},"count":1},{"code":{"coding":[{"system":"http://terminology.hl7.org/CodeSystem/measure-population","code":"denominator-exclusion","display":"Denominator Exclusion"}]},"count":1},{"code":{"coding":[{"system":"http://terminology.hl7.org/CodeSystem/measure-population","code":"numerator","display":"Numerator"}]},"count":0},{"code":{"coding":[{"system":"http://terminology.hl7.org/CodeSystem/measure-population","code":"denominator-exception","display":"Denominator Exception"}]},"count":0}]}]},"request":{"method":"PUT","url":"MeasureReport/f62e26a9-1b5f-491b-9d93-804d4614a30b"}}]}