{"resourceType":"Bundle","id":"tests-20279caa-06fd-4bde-81d8-fab65542b49b-bundle","type":"transaction","entry":[{"fullUrl":"https://madie.cms.gov/Patient/20279caa-06fd-4bde-81d8-fab65542b49b","resource":{"resourceType":"Patient","id":"20279caa-06fd-4bde-81d8-fab65542b49b","meta":{"profile":["http://hl7.org/fhir/us/qicore/StructureDefinition/qicore-patient"]},"text":{"status":"generated","div":"<div xmlns=\"http://www.w3.org/1999/xhtml\"><div class=\"hapiHeaderText\">MALMWH2DaysAfterAnesEnd <b>NUMERFAIL </b></div><table class=\"hapiPropertyTable\"><tbody><tr><td>Identifier</td><td>8ee51210de4e498d0f614f93fce0e79d</td></tr><tr><td>Date of birth</td><td><span>03 March 1974</span></td></tr></tbody></table></div>"},"extension":[{"url":"http://hl7.org/fhir/us/core/StructureDefinition/us-core-race","extension":[{"url":"ombCategory","valueCoding":{"system":"urn:oid:2.16.840.1.113883.6.238","code":"1002-5","display":"American Indian or Alaska Native","userSelected":true}},{"url":"text","valueString":"American Indian or Alaska Native"}]},{"url":"http://hl7.org/fhir/us/core/StructureDefinition/us-core-ethnicity","extension":[{"url":"ombCategory","valueCoding":{"system":"urn:oid:2.16.840.1.113883.6.238","code":"2135-2","display":"Hispanic or Latino","userSelected":true}},{"url":"text","valueString":"Hispanic or Latino"}]}],"identifier":[{"type":{"coding":[{"system":"http://terminology.hl7.org/CodeSystem/v2-0203","code":"MR"}]},"system":"https://bonnie-fhir.healthit.gov/","value":"612e6f2502c62a011f2f0d2c"}],"active":true,"name":[{"use":"usual","family":"NUMERFail","given":["MALMWH2DaysAfterAnesEnd"]}],"gender":"female","birthDate":"1974-03-03"},"request":{"method":"PUT","url":"Patient/20279caa-06fd-4bde-81d8-fab65542b49b"}},{"fullUrl":"https://madie.cms.gov/Encounter/5ce8096fb848467c29eaf171","resource":{"resourceType":"Encounter","id":"9bb8594d-f09a-4a01-a12f-13bdf3aeb08e","meta":{"profile":["http://hl7.org/fhir/us/qicore/StructureDefinition/qicore-encounter"]},"status":"finished","class":{"system":"http://terminology.hl7.org/CodeSystem/v3-ActCode","code":"IMP","display":"inpatient encounter"},"type":[{"coding":[{"system":"http://snomed.info/sct","code":"8715000"}]}],"subject":{"reference":"Patient/20279caa-06fd-4bde-81d8-fab65542b49b"},"period":{"start":"2025-12-01T00:00:00+00:00","end":"2025-12-31T23:59:00+00:00"},"length":{"value":30.0,"unit":"days"},"location":[{"location":{"reference":"Location/Location-1"},"period":{"start":"2025-12-01T00:01:00.000+00:00","end":"2025-12-15T11:59:00.000+00:00"}}]},"request":{"method":"PUT","url":"Encounter/9bb8594d-f09a-4a01-a12f-13bdf3aeb08e"}},{"fullUrl":"https://madie.cms.gov/Coverage/5fa040fe1c76ba66d995905d","resource":{"resourceType":"Coverage","id":"ce6f4d2c-6f9f-4444-b4c2-622fd65a61f9","status":"active","beneficiary":{"reference":"Patient/20279caa-06fd-4bde-81d8-fab65542b49b"},"period":{"start":"1974-03-03T08:00:00+00:00"},"payor":[{"reference":"Organization/024e2731-b045-43bf-80d2-684774c5b51c"}]},"request":{"method":"PUT","url":"Coverage/ce6f4d2c-6f9f-4444-b4c2-622fd65a61f9"}},{"fullUrl":"https://madie.cms.gov/MedicationAdministration/5ce8096fb848467c29eaf172","resource":{"resourceType":"MedicationAdministration","id":"eafaec52-cba0-4d4a-b1d3-0351518f770d","meta":{"profile":["http://hl7.org/fhir/us/qicore/StructureDefinition/qicore-medicationadministration"]},"status":"completed","medicationCodeableConcept":{"coding":[{"system":"http://www.nlm.nih.gov/research/umls/rxnorm","code":"854228"}]},"subject":{"reference":"Patient/20279caa-06fd-4bde-81d8-fab65542b49b"},"effectivePeriod":{"start":"2025-12-04T00:00:00.000+00:00"}},"request":{"method":"PUT","url":"MedicationAdministration/eafaec52-cba0-4d4a-b1d3-0351518f770d"}},{"fullUrl":"https://madie.cms.gov/Procedure/5ce8096fb848467c29eaf173","resource":{"resourceType":"Procedure","id":"2465b7ba-ff35-4971-9d48-2e108e1e2360","meta":{"profile":["http://hl7.org/fhir/us/qicore/StructureDefinition/qicore-procedure"]},"extension":[{"url":"http://hl7.org/fhir/us/qicore/StructureDefinition/qicore-recorded","valueDateTime":"2012-12-01T09:35:00-04:00"}],"status":"completed","code":{"coding":[{"system":"http://snomed.info/sct","code":"18946005"}]},"subject":{"reference":"Patient/20279caa-06fd-4bde-81d8-fab65542b49b"},"performedPeriod":{"start":"2025-12-01T00:00:00+00:00","end":"2025-12-02T23:59:00+00:00"}},"request":{"method":"PUT","url":"Procedure/2465b7ba-ff35-4971-9d48-2e108e1e2360"}},{"fullUrl":"https://madie.cms.gov/Location/Location-1","resource":{"resourceType":"Location","id":"2c2b69c8-b9b3-4123-810b-35f3ccecb3aa","meta":{"profile":["http://hl7.org/fhir/us/qicore/StructureDefinition/qicore-location"]},"identifier":[{"use":"usual","system":"http://exampleoflocation.com","value":"B1-S.F2"}],"name":"Medical Surgical East, first floor","type":[{"coding":[{"system":"https://www.cdc.gov/nhsn/cdaportal/terminology/codesystem/hsloc.html","code":"1025-6","display":"Trauma Critical Care","userSelected":true}]}]},"request":{"method":"PUT","url":"Location/2c2b69c8-b9b3-4123-810b-35f3ccecb3aa"}},{"fullUrl":"https://madie.cms.gov/Organization/123456","resource":{"resourceType":"Organization","id":"024e2731-b045-43bf-80d2-684774c5b51c","meta":{"profile":["http://hl7.org/fhir/us/qicore/StructureDefinition/qicore-organization"]},"identifier":[{"use":"temp","system":"urn:oid:2.16.840.1.113883.4.4","value":"21-3259825"}],"active":true,"type":[{"coding":[{"system":"http://terminology.hl7.org/CodeSystem/organization-type","code":"pay","display":"Payer"}]}],"name":"Blue Cross Blue Shield of Texas","telecom":[{"system":"phone","value":"(+1) 972-766-6900"}],"address":[{"use":"billing","type":"postal","line":["P.O. Box 660044"],"city":"Dallas","state":"TX","postalCode":"75266-0044","country":"USA"}]},"request":{"method":"PUT","url":"Organization/024e2731-b045-43bf-80d2-684774c5b51c"}},{"fullUrl":"https://madie.cms.gov/Practitioner/practitioner-123456","resource":{"resourceType":"Practitioner","id":"506fd8c8-5eee-4fa1-899f-eff9aa76318a","identifier":[{"system":"http://hl7.org/fhir/sid/us-npi","value":"123456"}],"name":[{"family":"Evil","prefix":["Dr"]}]},"request":{"method":"PUT","url":"Practitioner/506fd8c8-5eee-4fa1-899f-eff9aa76318a"}},{"fullUrl":"https://madie.cms.gov/MeasureReport/6d4e4887-e290-489d-b4e2-92066bbb0df9","resource":{"resourceType":"MeasureReport","id":"6d4e4887-e290-489d-b4e2-92066bbb0df9","meta":{"profile":["http://hl7.org/fhir/us/cqfmeasures/StructureDefinition/test-case-cqfm"]},"contained":[{"resourceType":"Parameters","id":"96980428-9408-4326-9c69-bff990e0681c-parameters","parameter":[{"name":"subject","valueString":"20279caa-06fd-4bde-81d8-fab65542b49b"}]}],"extension":[{"url":"http://hl7.org/fhir/us/cqfmeasures/StructureDefinition/cqfm-inputParameters","valueReference":{"reference":"#96980428-9408-4326-9c69-bff990e0681c-parameters"}},{"url":"http://hl7.org/fhir/us/cqfmeasures/StructureDefinition/cqfm-testCaseDescription","valueMarkdown":"Patient receives LMWH two days after anesthesia end (with anesthesia ending ending day after ICU admission). Both LMWH and anesthesia are edge scenarios.\n"}],"modifierExtension":[{"url":"http://hl7.org/fhir/us/cqfmeasures/StructureDefinition/cqfm-isTestCase","valueBoolean":true}],"status":"complete","type":"individual","measure":"https://madie.cms.gov/Measure/IntensiveCareUnitVenousThromboembolismProphylaxisFHIR","period":{"start":"2025-01-01","end":"2025-12-31"},"group":[{"population":[{"code":{"coding":[{"system":"http://terminology.hl7.org/CodeSystem/measure-population","code":"initial-population","display":"Initial Population"}]},"count":1},{"code":{"coding":[{"system":"http://terminology.hl7.org/CodeSystem/measure-population","code":"denominator","display":"Denominator"}]},"count":1},{"code":{"coding":[{"system":"http://terminology.hl7.org/CodeSystem/measure-population","code":"denominator-exclusion","display":"Denominator Exclusion"}]},"count":0},{"code":{"coding":[{"system":"http://terminology.hl7.org/CodeSystem/measure-population","code":"numerator","display":"Numerator"}]},"count":0},{"code":{"coding":[{"system":"http://terminology.hl7.org/CodeSystem/measure-population","code":"denominator-exception","display":"Denominator Exception"}]},"count":0}]}]},"request":{"method":"PUT","url":"MeasureReport/6d4e4887-e290-489d-b4e2-92066bbb0df9"}}]}