{"resourceType":"Bundle","id":"tests-4fc421c7-e490-4d4e-a326-53d08635efb9-bundle","type":"transaction","entry":[{"fullUrl":"https://madie.cms.gov/Patient/4fc421c7-e490-4d4e-a326-53d08635efb9","resource":{"resourceType":"Patient","id":"4fc421c7-e490-4d4e-a326-53d08635efb9","meta":{"profile":["http://hl7.org/fhir/us/qicore/StructureDefinition/qicore-patient"]},"text":{"status":"generated","div":"<div xmlns=\"http://www.w3.org/1999/xhtml\"><div class=\"hapiHeaderText\">MedReasonMARixDAVFPDuringOBS <b>NUMERPASS </b></div><table class=\"hapiPropertyTable\"><tbody><tr><td>Identifier</td><td>d5661b6a7ac7a6b9f13847d23af8475a</td></tr><tr><td>Date of birth</td><td><span>02 January 1974</span></td></tr></tbody></table></div>"},"extension":[{"url":"http://hl7.org/fhir/us/core/StructureDefinition/us-core-race","extension":[{"url":"ombCategory","valueCoding":{"system":"urn:oid:2.16.840.1.113883.6.238","code":"1002-5","display":"American Indian or Alaska Native","userSelected":true}},{"url":"text","valueString":"American Indian or Alaska Native"}]},{"url":"http://hl7.org/fhir/us/core/StructureDefinition/us-core-ethnicity","extension":[{"url":"ombCategory","valueCoding":{"system":"urn:oid:2.16.840.1.113883.6.238","code":"2135-2","display":"Hispanic or Latino","userSelected":true}},{"url":"text","valueString":"Hispanic or Latino"}]}],"identifier":[{"type":{"coding":[{"system":"http://terminology.hl7.org/CodeSystem/v2-0203","code":"MR"}]},"system":"https://bonnie-fhir.healthit.gov/","value":"612e6b8102c62a011f2ee0a5"}],"active":true,"name":[{"use":"usual","family":"NUMERPass","given":["MedReasonMARixDAVFPDuringOBS"]}],"gender":"male","birthDate":"1974-01-02"},"request":{"method":"PUT","url":"Patient/4fc421c7-e490-4d4e-a326-53d08635efb9"}},{"fullUrl":"https://madie.cms.gov/Encounter/5ca62961b8484628b8de1e81","resource":{"resourceType":"Encounter","id":"a138610e-07fc-4ede-97c5-bd728959cc65","meta":{"profile":["http://hl7.org/fhir/us/qicore/StructureDefinition/qicore-encounter"]},"status":"finished","class":{"system":"http://terminology.hl7.org/CodeSystem/v3-ActCode","code":"OBSENC","display":"observation encounter"},"type":[{"coding":[{"system":"http://snomed.info/sct","code":"448951000124107"}]}],"subject":{"reference":"Patient/4fc421c7-e490-4d4e-a326-53d08635efb9"},"period":{"start":"2025-10-31T05:00:00+00:00","end":"2025-11-01T08:00:00+00:00"},"length":{"value":1.0,"unit":"days"}},"request":{"method":"PUT","url":"Encounter/a138610e-07fc-4ede-97c5-bd728959cc65"}},{"fullUrl":"https://madie.cms.gov/Encounter/5ca62961b8484628b8de1e82","resource":{"resourceType":"Encounter","id":"d1ed9b09-76e4-46b0-99db-1cc968f7d6ec","meta":{"profile":["http://hl7.org/fhir/us/qicore/StructureDefinition/qicore-encounter"]},"status":"finished","class":{"system":"http://terminology.hl7.org/CodeSystem/v3-ActCode","code":"IMP","display":"inpatient encounter"},"type":[{"coding":[{"system":"http://snomed.info/sct","code":"8715000"}]}],"subject":{"reference":"Patient/4fc421c7-e490-4d4e-a326-53d08635efb9"},"period":{"start":"2025-11-01T08:00:00+00:00","end":"2025-11-26T08:15:00+00:00"},"length":{"value":25.0,"unit":"days"},"location":[{"location":{"reference":"Location/Location-1"},"period":{"start":"2025-11-01T09:00:00.000+00:00","end":"2025-11-10T08:15:00.000+00:00"}}]},"request":{"method":"PUT","url":"Encounter/d1ed9b09-76e4-46b0-99db-1cc968f7d6ec"}},{"fullUrl":"https://madie.cms.gov/Coverage/5fa041591c76ba66d995928f","resource":{"resourceType":"Coverage","id":"0b4c452b-1f19-44d9-a7a3-a084da9b71b9","status":"active","beneficiary":{"reference":"Patient/4fc421c7-e490-4d4e-a326-53d08635efb9"},"period":{"start":"1974-01-02T08:00:00+00:00"},"payor":[{"reference":"Organization/024e2731-b045-43bf-80d2-684774c5b51c"}]},"request":{"method":"PUT","url":"Coverage/0b4c452b-1f19-44d9-a7a3-a084da9b71b9"}},{"fullUrl":"https://madie.cms.gov/Procedure/device-application-8a09","resource":{"resourceType":"Procedure","id":"5be09502-4a5a-4bdd-b326-1d4999c132e0","meta":{"profile":["http://hl7.org/fhir/us/qicore/StructureDefinition/qicore-procedurenotdone"]},"extension":[{"url":"http://hl7.org/fhir/us/qicore/StructureDefinition/qicore-recorded","valueDateTime":"2025-10-31T07:35:00-04:00"}],"status":"not-done","statusReason":{"coding":[{"system":"http://snomed.info/sct","code":"183932001","display":"Procedure contraindicated (situation)","userSelected":true}]},"code":{"coding":[{"system":"http://snomed.info/sct","code":"424831005","display":"Application of foot pump (procedure)","userSelected":true}]},"subject":{"reference":"Patient/4fc421c7-e490-4d4e-a326-53d08635efb9"},"_performedDateTime":{"extension":[{"url":"http://hl7.org/fhir/StructureDefinition/data-absent-reason","valueCode":"not-performed"}]}},"request":{"method":"PUT","url":"Procedure/5be09502-4a5a-4bdd-b326-1d4999c132e0"}},{"fullUrl":"https://madie.cms.gov/MedicationAdministration/rivaroxaban-for-vte-prophylaxis-8a13","resource":{"resourceType":"MedicationAdministration","id":"a6c28b6c-d849-47ee-bd62-c2e040aa4022","meta":{"profile":["http://hl7.org/fhir/us/qicore/StructureDefinition/qicore-mednotadministered"]},"extension":[{"url":"http://hl7.org/fhir/us/qicore/StructureDefinition/qicore-recorded","valueDateTime":"2025-10-31T07:00:00+00:00"}],"status":"not-done","statusReason":[{"coding":[{"system":"http://snomed.info/sct","code":"183932001","display":"Procedure contraindicated (situation)","userSelected":true}]}],"medicationCodeableConcept":{"coding":[{"system":"http://www.nlm.nih.gov/research/umls/rxnorm","code":"2588062","display":"rivaroxaban 1 MG/ML Oral Suspension"}]},"subject":{"reference":"Patient/4fc421c7-e490-4d4e-a326-53d08635efb9"},"effectivePeriod":{"start":"2025-10-31T07:00:00+00:00"}},"request":{"method":"PUT","url":"MedicationAdministration/a6c28b6c-d849-47ee-bd62-c2e040aa4022"}},{"fullUrl":"https://madie.cms.gov/Location/Location-1","resource":{"resourceType":"Location","id":"e1297ac7-6dee-4dda-a5ed-671d02dc5e8d","meta":{"profile":["http://hl7.org/fhir/us/qicore/StructureDefinition/qicore-location"]},"identifier":[{"use":"usual","system":"http://exampleoflocation.com","value":"B1-S.F2"}],"name":"Medical Surgical East, first floor","type":[{"coding":[{"system":"https://www.cdc.gov/nhsn/cdaportal/terminology/codesystem/hsloc.html","code":"1025-6","display":"Trauma Critical Care","userSelected":true}]}]},"request":{"method":"PUT","url":"Location/e1297ac7-6dee-4dda-a5ed-671d02dc5e8d"}},{"fullUrl":"https://madie.cms.gov/Organization/123456","resource":{"resourceType":"Organization","id":"024e2731-b045-43bf-80d2-684774c5b51c","meta":{"profile":["http://hl7.org/fhir/us/qicore/StructureDefinition/qicore-organization"]},"identifier":[{"use":"temp","system":"urn:oid:2.16.840.1.113883.4.4","value":"21-3259825"}],"active":true,"type":[{"coding":[{"system":"http://terminology.hl7.org/CodeSystem/organization-type","code":"pay","display":"Payer"}]}],"name":"Blue Cross Blue Shield of Texas","telecom":[{"system":"phone","value":"(+1) 972-766-6900"}],"address":[{"use":"billing","type":"postal","line":["P.O. Box 660044"],"city":"Dallas","state":"TX","postalCode":"75266-0044","country":"USA"}]},"request":{"method":"PUT","url":"Organization/024e2731-b045-43bf-80d2-684774c5b51c"}},{"fullUrl":"https://madie.cms.gov/Practitioner/practitioner-123456","resource":{"resourceType":"Practitioner","id":"265f1e57-c8b1-4f42-8dbc-9f62d19ed1cb","identifier":[{"system":"http://hl7.org/fhir/sid/us-npi","value":"123456"}],"name":[{"family":"Evil","prefix":["Dr"]}]},"request":{"method":"PUT","url":"Practitioner/265f1e57-c8b1-4f42-8dbc-9f62d19ed1cb"}},{"fullUrl":"https://madie.cms.gov/MeasureReport/f1a9b443-0701-43ac-bb76-cd07107172de","resource":{"resourceType":"MeasureReport","id":"f1a9b443-0701-43ac-bb76-cd07107172de","meta":{"profile":["http://hl7.org/fhir/us/cqfmeasures/StructureDefinition/test-case-cqfm"]},"contained":[{"resourceType":"Parameters","id":"dab65fbd-624b-4382-8d7f-2dc091bf66ac-parameters","parameter":[{"name":"subject","valueString":"4fc421c7-e490-4d4e-a326-53d08635efb9"}]}],"extension":[{"url":"http://hl7.org/fhir/us/cqfmeasures/StructureDefinition/cqfm-inputParameters","valueReference":{"reference":"#dab65fbd-624b-4382-8d7f-2dc091bf66ac-parameters"}},{"url":"http://hl7.org/fhir/us/cqfmeasures/StructureDefinition/cqfm-testCaseDescription","valueMarkdown":"meets IPP, meets Denominator, VFP appled not done MedRsn and Riv not done MedRsn - during Observation service"}],"modifierExtension":[{"url":"http://hl7.org/fhir/us/cqfmeasures/StructureDefinition/cqfm-isTestCase","valueBoolean":true}],"status":"complete","type":"individual","measure":"https://madie.cms.gov/Measure/IntensiveCareUnitVenousThromboembolismProphylaxisFHIR","period":{"start":"2025-01-01","end":"2025-12-31"},"group":[{"population":[{"code":{"coding":[{"system":"http://terminology.hl7.org/CodeSystem/measure-population","code":"initial-population","display":"Initial Population"}]},"count":1},{"code":{"coding":[{"system":"http://terminology.hl7.org/CodeSystem/measure-population","code":"denominator","display":"Denominator"}]},"count":1},{"code":{"coding":[{"system":"http://terminology.hl7.org/CodeSystem/measure-population","code":"denominator-exclusion","display":"Denominator Exclusion"}]},"count":0},{"code":{"coding":[{"system":"http://terminology.hl7.org/CodeSystem/measure-population","code":"numerator","display":"Numerator"}]},"count":1},{"code":{"coding":[{"system":"http://terminology.hl7.org/CodeSystem/measure-population","code":"denominator-exception","display":"Denominator Exception"}]},"count":0}]}]},"request":{"method":"PUT","url":"MeasureReport/f1a9b443-0701-43ac-bb76-cd07107172de"}}]}