{"resourceType":"Bundle","id":"tests-723ff153-68bd-455e-a841-4632cfde7193-bundle","type":"transaction","entry":[{"fullUrl":"https://madie.cms.gov/Patient/723ff153-68bd-455e-a841-4632cfde7193","resource":{"resourceType":"Patient","id":"723ff153-68bd-455e-a841-4632cfde7193","meta":{"profile":["http://hl7.org/fhir/us/qicore/StructureDefinition/qicore-patient"]},"text":{"status":"generated","div":"<div xmlns=\"http://www.w3.org/1999/xhtml\"><div class=\"hapiHeaderText\">INREQ3AfterICU <b>NUMERFAIL </b></div><table class=\"hapiPropertyTable\"><tbody><tr><td>Identifier</td><td>2a602c8f4a3fe9ea878f24c5526d40d3</td></tr><tr><td>Date of birth</td><td><span>03 March 1974</span></td></tr></tbody></table></div>"},"extension":[{"url":"http://hl7.org/fhir/us/core/StructureDefinition/us-core-race","extension":[{"url":"ombCategory","valueCoding":{"system":"urn:oid:2.16.840.1.113883.6.238","code":"1002-5","display":"American Indian or Alaska Native","userSelected":true}},{"url":"text","valueString":"American Indian or Alaska Native"}]},{"url":"http://hl7.org/fhir/us/core/StructureDefinition/us-core-ethnicity","extension":[{"url":"ombCategory","valueCoding":{"system":"urn:oid:2.16.840.1.113883.6.238","code":"2135-2","display":"Hispanic or Latino","userSelected":true}},{"url":"text","valueString":"Hispanic or Latino"}]}],"identifier":[{"type":{"coding":[{"system":"http://terminology.hl7.org/CodeSystem/v2-0203","code":"MR"}]},"system":"https://bonnie-fhir.healthit.gov/","value":"612e6ef202c62a011f2f0202"}],"active":true,"name":[{"use":"usual","family":"NUMERFail","given":["INREQ3AfterICU "]}],"gender":"female","birthDate":"1974-03-03"},"request":{"method":"PUT","url":"Patient/723ff153-68bd-455e-a841-4632cfde7193"}},{"fullUrl":"https://madie.cms.gov/Encounter/5ce8096eb848467c29eaf12a","resource":{"resourceType":"Encounter","id":"2cb8c151-9855-4790-b758-df2f1e89c764","meta":{"profile":["http://hl7.org/fhir/us/qicore/StructureDefinition/qicore-encounter"]},"status":"finished","class":{"system":"http://terminology.hl7.org/CodeSystem/v3-ActCode","code":"IMP","display":"inpatient encounter"},"type":[{"coding":[{"system":"http://snomed.info/sct","code":"8715000"}]}],"subject":{"reference":"Patient/723ff153-68bd-455e-a841-4632cfde7193"},"period":{"start":"2025-12-04T08:00:00+00:00","end":"2025-12-30T08:15:00+00:00"},"length":{"value":26.0,"unit":"days"},"location":[{"location":{"reference":"Location/Location-1"},"period":{"start":"2025-12-06T09:00:00.000+00:00","end":"2025-12-12T08:15:00.000+00:00"}}]},"request":{"method":"PUT","url":"Encounter/2cb8c151-9855-4790-b758-df2f1e89c764"}},{"fullUrl":"https://madie.cms.gov/Coverage/5fa040f71c76ba66d9958fd0","resource":{"resourceType":"Coverage","id":"998142c4-dcb2-4f30-85a5-5720b175e56a","status":"active","beneficiary":{"reference":"Patient/723ff153-68bd-455e-a841-4632cfde7193"},"period":{"start":"1974-03-03T08:00:00+00:00"},"payor":[{"reference":"Organization/024e2731-b045-43bf-80d2-684774c5b51c"}]},"request":{"method":"PUT","url":"Coverage/998142c4-dcb2-4f30-85a5-5720b175e56a"}},{"fullUrl":"https://madie.cms.gov/Observation/5ce8096eb848467c29eaf12b","resource":{"resourceType":"Observation","id":"d293bec0-e8d2-4b8e-8dd7-af36b6cb52f1","meta":{"profile":["http://hl7.org/fhir/us/qicore/StructureDefinition/qicore-observation"]},"status":"amended","category":[{"coding":[{"system":"http://terminology.hl7.org/CodeSystem/observation-category","code":"laboratory","display":"Laboratory"}]}],"code":{"coding":[{"system":"http://loinc.org","code":"34714-6"}]},"subject":{"reference":"Patient/723ff153-68bd-455e-a841-4632cfde7193"},"effectivePeriod":{"start":"2025-12-06T11:30:00+00:00"},"valueInteger":3},"request":{"method":"PUT","url":"Observation/d293bec0-e8d2-4b8e-8dd7-af36b6cb52f1"}},{"fullUrl":"https://madie.cms.gov/Location/Location-1","resource":{"resourceType":"Location","id":"2f64c147-5dd3-4f65-8581-b5d87dfcfe22","meta":{"profile":["http://hl7.org/fhir/us/qicore/StructureDefinition/qicore-location"]},"identifier":[{"use":"usual","system":"http://exampleoflocation.com","value":"B1-S.F2"}],"name":"Medical Surgical East, first floor","type":[{"coding":[{"system":"https://www.cdc.gov/nhsn/cdaportal/terminology/codesystem/hsloc.html","code":"1025-6","display":"Trauma Critical Care","userSelected":true}]}]},"request":{"method":"PUT","url":"Location/2f64c147-5dd3-4f65-8581-b5d87dfcfe22"}},{"fullUrl":"https://madie.cms.gov/Organization/123456","resource":{"resourceType":"Organization","id":"024e2731-b045-43bf-80d2-684774c5b51c","meta":{"profile":["http://hl7.org/fhir/us/qicore/StructureDefinition/qicore-organization"]},"identifier":[{"use":"temp","system":"urn:oid:2.16.840.1.113883.4.4","value":"21-3259825"}],"active":true,"type":[{"coding":[{"system":"http://terminology.hl7.org/CodeSystem/organization-type","code":"pay","display":"Payer"}]}],"name":"Blue Cross Blue Shield of Texas","telecom":[{"system":"phone","value":"(+1) 972-766-6900"}],"address":[{"use":"billing","type":"postal","line":["P.O. Box 660044"],"city":"Dallas","state":"TX","postalCode":"75266-0044","country":"USA"}]},"request":{"method":"PUT","url":"Organization/024e2731-b045-43bf-80d2-684774c5b51c"}},{"fullUrl":"https://madie.cms.gov/Practitioner/practitioner-123456","resource":{"resourceType":"Practitioner","id":"55cf2c26-d15c-4e77-8a9f-3c5526d6ab39","identifier":[{"system":"http://hl7.org/fhir/sid/us-npi","value":"123456"}],"name":[{"family":"Evil","prefix":["Dr"]}]},"request":{"method":"PUT","url":"Practitioner/55cf2c26-d15c-4e77-8a9f-3c5526d6ab39"}},{"fullUrl":"https://madie.cms.gov/MeasureReport/d2344db8-9f3f-45e1-8930-6b0a0eb617fa","resource":{"resourceType":"MeasureReport","id":"d2344db8-9f3f-45e1-8930-6b0a0eb617fa","meta":{"profile":["http://hl7.org/fhir/us/cqfmeasures/StructureDefinition/test-case-cqfm"]},"contained":[{"resourceType":"Parameters","id":"b0635ce2-bd0a-40d1-af27-5e3774abcd4a-parameters","parameter":[{"name":"subject","valueString":"723ff153-68bd-455e-a841-4632cfde7193"}]}],"extension":[{"url":"http://hl7.org/fhir/us/cqfmeasures/StructureDefinition/cqfm-inputParameters","valueReference":{"reference":"#b0635ce2-bd0a-40d1-af27-5e3774abcd4a-parameters"}},{"url":"http://hl7.org/fhir/us/cqfmeasures/StructureDefinition/cqfm-testCaseDescription","valueMarkdown":"FAIL - meets IPP, meets Denominator, INR=3 starts after start ICU\n"}],"modifierExtension":[{"url":"http://hl7.org/fhir/us/cqfmeasures/StructureDefinition/cqfm-isTestCase","valueBoolean":true}],"status":"complete","type":"individual","measure":"https://madie.cms.gov/Measure/IntensiveCareUnitVenousThromboembolismProphylaxisFHIR","period":{"start":"2025-01-01","end":"2025-12-31"},"group":[{"population":[{"code":{"coding":[{"system":"http://terminology.hl7.org/CodeSystem/measure-population","code":"initial-population","display":"Initial Population"}]},"count":1},{"code":{"coding":[{"system":"http://terminology.hl7.org/CodeSystem/measure-population","code":"denominator","display":"Denominator"}]},"count":1},{"code":{"coding":[{"system":"http://terminology.hl7.org/CodeSystem/measure-population","code":"denominator-exclusion","display":"Denominator Exclusion"}]},"count":0},{"code":{"coding":[{"system":"http://terminology.hl7.org/CodeSystem/measure-population","code":"numerator","display":"Numerator"}]},"count":0},{"code":{"coding":[{"system":"http://terminology.hl7.org/CodeSystem/measure-population","code":"denominator-exception","display":"Denominator Exception"}]},"count":0}]}]},"request":{"method":"PUT","url":"MeasureReport/d2344db8-9f3f-45e1-8930-6b0a0eb617fa"}}]}