{"resourceType":"Bundle","id":"tests-11bcf672-9a14-4e4f-9238-39007fc6a00b-bundle","type":"transaction","entry":[{"fullUrl":"https://madie.cms.gov/Patient/11bcf672-9a14-4e4f-9238-39007fc6a00b","resource":{"resourceType":"Patient","id":"11bcf672-9a14-4e4f-9238-39007fc6a00b","meta":{"profile":["http://hl7.org/fhir/us/qicore/StructureDefinition/qicore-patient"]},"text":{"status":"generated","div":"<div xmlns=\"http://www.w3.org/1999/xhtml\"><div class=\"hapiHeaderText\">FactorXaAfterICUAnesKnee <b>NUMERPASS </b></div><table class=\"hapiPropertyTable\"><tbody><tr><td>Identifier</td><td>8693e02c1b94abdc9b9428b41412eae6</td></tr><tr><td>Date of birth</td><td><span>03 March 1974</span></td></tr></tbody></table></div>"},"extension":[{"url":"http://hl7.org/fhir/us/core/StructureDefinition/us-core-race","extension":[{"url":"ombCategory","valueCoding":{"system":"urn:oid:2.16.840.1.113883.6.238","code":"1002-5","display":"American Indian or Alaska Native","userSelected":true}},{"url":"text","valueString":"American Indian or Alaska Native"}]},{"url":"http://hl7.org/fhir/us/core/StructureDefinition/us-core-ethnicity","extension":[{"url":"ombCategory","valueCoding":{"system":"urn:oid:2.16.840.1.113883.6.238","code":"2135-2","display":"Hispanic or Latino","userSelected":true}},{"url":"text","valueString":"Hispanic or Latino"}]}],"identifier":[{"type":{"coding":[{"system":"http://terminology.hl7.org/CodeSystem/v2-0203","code":"MR"}]},"system":"https://bonnie-fhir.healthit.gov/","value":"612e6ea302c62a011f2ef23d"}],"active":true,"name":[{"use":"usual","family":"NUMERPass","given":["FactorXaAfterICUAnesKnee"]}],"gender":"female","birthDate":"1974-03-03"},"request":{"method":"PUT","url":"Patient/11bcf672-9a14-4e4f-9238-39007fc6a00b"}},{"fullUrl":"https://madie.cms.gov/Encounter/5ce8096db848467c29eaf0d3","resource":{"resourceType":"Encounter","id":"f3bbd589-4488-4061-867a-91b38e1bb992","meta":{"profile":["http://hl7.org/fhir/us/qicore/StructureDefinition/qicore-encounter"]},"status":"finished","class":{"system":"http://terminology.hl7.org/CodeSystem/v3-ActCode","code":"IMP","display":"inpatient encounter"},"type":[{"coding":[{"system":"http://snomed.info/sct","code":"8715000"}]}],"subject":{"reference":"Patient/11bcf672-9a14-4e4f-9238-39007fc6a00b"},"period":{"start":"2025-12-04T08:00:00+00:00","end":"2025-12-30T08:15:00+00:00"},"length":{"value":26.0,"unit":"days"},"location":[{"location":{"reference":"Location/Location-1"},"period":{"start":"2025-12-06T08:00:00.000+00:00","end":"2025-12-08T08:15:00.000+00:00"}}]},"request":{"method":"PUT","url":"Encounter/f3bbd589-4488-4061-867a-91b38e1bb992"}},{"fullUrl":"https://madie.cms.gov/Coverage/5fa040ee1c76ba66d9958f2b","resource":{"resourceType":"Coverage","id":"f57c488f-c978-4ead-b3c1-7444e896d172","status":"active","beneficiary":{"reference":"Patient/11bcf672-9a14-4e4f-9238-39007fc6a00b"},"period":{"start":"1974-03-03T08:00:00+00:00"},"payor":[{"reference":"Organization/a6c3e6fa-301e-4714-9d04-3dde9a7e7c49"}]},"request":{"method":"PUT","url":"Coverage/f57c488f-c978-4ead-b3c1-7444e896d172"}},{"fullUrl":"https://madie.cms.gov/MedicationAdministration/5ce8096db848467c29eaf0d4","resource":{"resourceType":"MedicationAdministration","id":"84c43a99-cf5c-43a1-b0f4-2794800aabb4","meta":{"profile":["http://hl7.org/fhir/us/qicore/StructureDefinition/qicore-medicationadministration"]},"status":"completed","medicationCodeableConcept":{"coding":[{"system":"http://www.nlm.nih.gov/research/umls/rxnorm","code":"1364435","display":"apixaban 2.5 MG Oral Tablet","userSelected":true}]},"subject":{"reference":"Patient/11bcf672-9a14-4e4f-9238-39007fc6a00b"},"effectiveDateTime":"2025-12-07T08:00:00.000+00:00"},"request":{"method":"PUT","url":"MedicationAdministration/84c43a99-cf5c-43a1-b0f4-2794800aabb4"}},{"fullUrl":"https://madie.cms.gov/Procedure/5ce8096db848467c29eaf0d5","resource":{"resourceType":"Procedure","id":"da4f5482-8c5d-424f-80a2-58190d1599ff","meta":{"profile":["http://hl7.org/fhir/us/qicore/StructureDefinition/qicore-procedure"]},"extension":[{"url":"http://hl7.org/fhir/us/qicore/StructureDefinition/qicore-recorded","valueDateTime":"2012-12-04T09:35:00-04:00"}],"status":"completed","code":{"coding":[{"system":"http://snomed.info/sct","code":"7989006"}]},"subject":{"reference":"Patient/11bcf672-9a14-4e4f-9238-39007fc6a00b"},"performedPeriod":{"start":"2025-12-07T05:00:00+00:00","end":"2025-12-07T08:15:00+00:00"}},"request":{"method":"PUT","url":"Procedure/da4f5482-8c5d-424f-80a2-58190d1599ff"}},{"fullUrl":"https://madie.cms.gov/Procedure/5ce8096db848467c29eaf0d6","resource":{"resourceType":"Procedure","id":"75ab59b5-cecf-4d79-8d82-4fe9eefe619b","meta":{"profile":["http://hl7.org/fhir/us/qicore/StructureDefinition/qicore-procedure"]},"extension":[{"url":"http://hl7.org/fhir/us/qicore/StructureDefinition/qicore-recorded","valueDateTime":"2012-12-08T09:35:00-04:00"}],"status":"completed","code":{"coding":[{"system":"http://snomed.info/sct","code":"265172001"}]},"subject":{"reference":"Patient/11bcf672-9a14-4e4f-9238-39007fc6a00b"},"performedPeriod":{"start":"2025-12-07T05:00:00+00:00","end":"2025-12-07T06:10:00+00:00"}},"request":{"method":"PUT","url":"Procedure/75ab59b5-cecf-4d79-8d82-4fe9eefe619b"}},{"fullUrl":"https://madie.cms.gov/Location/Location-1","resource":{"resourceType":"Location","id":"643a7e72-cb0b-416e-81b8-fe20392e1a6d","meta":{"profile":["http://hl7.org/fhir/us/qicore/StructureDefinition/qicore-location"]},"identifier":[{"use":"usual","system":"http://exampleoflocation.com","value":"B1-S.F2"}],"name":"Medical Surgical East, first floor","type":[{"coding":[{"system":"https://www.cdc.gov/nhsn/cdaportal/terminology/codesystem/hsloc.html","code":"1025-6","display":"Trauma Critical Care","userSelected":true}]}]},"request":{"method":"PUT","url":"Location/643a7e72-cb0b-416e-81b8-fe20392e1a6d"}},{"fullUrl":"https://madie.cms.gov/Organization/123456","resource":{"resourceType":"Organization","id":"a6c3e6fa-301e-4714-9d04-3dde9a7e7c49","meta":{"profile":["http://hl7.org/fhir/us/qicore/StructureDefinition/qicore-organization"]},"identifier":[{"use":"temp","system":"urn:oid:2.16.840.1.113883.4.4","value":"21-3259825"}],"active":true,"type":[{"coding":[{"system":"http://terminology.hl7.org/CodeSystem/organization-type","code":"pay","display":"Payer"}]}],"name":"Blue Cross Blue Shield of Texas","telecom":[{"system":"phone","value":"(+1) 972-766-6900"}],"address":[{"use":"billing","type":"postal","line":["P.O. Box 660044"],"city":"Dallas","state":"TX","postalCode":"75266-0044","country":"USA"}]},"request":{"method":"PUT","url":"Organization/a6c3e6fa-301e-4714-9d04-3dde9a7e7c49"}},{"fullUrl":"https://madie.cms.gov/Practitioner/practitioner-123456","resource":{"resourceType":"Practitioner","id":"b5f4870e-cc96-48d7-98bd-d1142365cb91","identifier":[{"system":"http://hl7.org/fhir/sid/us-npi","value":"123456"}],"name":[{"family":"Evil","prefix":["Dr"]}]},"request":{"method":"PUT","url":"Practitioner/b5f4870e-cc96-48d7-98bd-d1142365cb91"}},{"fullUrl":"https://madie.cms.gov/MeasureReport/fccf3eae-49d5-4be5-b68d-59856ee8b50e","resource":{"resourceType":"MeasureReport","id":"fccf3eae-49d5-4be5-b68d-59856ee8b50e","meta":{"profile":["http://hl7.org/fhir/us/cqfmeasures/StructureDefinition/test-case-cqfm"]},"contained":[{"resourceType":"Parameters","id":"4ddb3ff5-d835-4ef5-9269-7e6558bfc294-parameters","parameter":[{"name":"subject","valueString":"11bcf672-9a14-4e4f-9238-39007fc6a00b"}]}],"extension":[{"url":"http://hl7.org/fhir/us/cqfmeasures/StructureDefinition/cqfm-inputParameters","valueReference":{"reference":"#4ddb3ff5-d835-4ef5-9269-7e6558bfc294-parameters"}},{"url":"http://hl7.org/fhir/us/cqfmeasures/StructureDefinition/cqfm-testCaseDescription","valueMarkdown":"Oral Factor Xa Inhibitor administered after neuraxial anesthesia. Knee Fx not principal\n"}],"modifierExtension":[{"url":"http://hl7.org/fhir/us/cqfmeasures/StructureDefinition/cqfm-isTestCase","valueBoolean":true}],"status":"complete","type":"individual","measure":"https://madie.cms.gov/Measure/IntensiveCareUnitVenousThromboembolismProphylaxisFHIR","period":{"start":"2025-01-01","end":"2025-12-31"},"group":[{"population":[{"code":{"coding":[{"system":"http://terminology.hl7.org/CodeSystem/measure-population","code":"initial-population","display":"Initial Population"}]},"count":1},{"code":{"coding":[{"system":"http://terminology.hl7.org/CodeSystem/measure-population","code":"denominator","display":"Denominator"}]},"count":1},{"code":{"coding":[{"system":"http://terminology.hl7.org/CodeSystem/measure-population","code":"denominator-exclusion","display":"Denominator Exclusion"}]},"count":0},{"code":{"coding":[{"system":"http://terminology.hl7.org/CodeSystem/measure-population","code":"numerator","display":"Numerator"}]},"count":1},{"code":{"coding":[{"system":"http://terminology.hl7.org/CodeSystem/measure-population","code":"denominator-exception","display":"Denominator Exception"}]},"count":0}]}]},"request":{"method":"PUT","url":"MeasureReport/fccf3eae-49d5-4be5-b68d-59856ee8b50e"}}]}