{"resourceType":"Bundle","id":"tests-32be0d28-bd59-41eb-bfe0-fb09a24eed31-bundle","type":"transaction","entry":[{"fullUrl":"https://madie.cms.gov/Patient/32be0d28-bd59-41eb-bfe0-fb09a24eed31","resource":{"resourceType":"Patient","id":"32be0d28-bd59-41eb-bfe0-fb09a24eed31","meta":{"profile":["http://hl7.org/fhir/us/qicore/StructureDefinition/qicore-patient"]},"text":{"status":"generated","div":"<div xmlns=\"http://www.w3.org/1999/xhtml\"><div class=\"hapiHeaderText\">LMWH2DaysAfterStartICU <b>NUMERFAIL </b></div><table class=\"hapiPropertyTable\"><tbody><tr><td>Identifier</td><td>9171ed8e3c126b0a718e996cdf49d57a</td></tr><tr><td>Date of birth</td><td><span>03 March 1974</span></td></tr></tbody></table></div>"},"extension":[{"url":"http://hl7.org/fhir/us/core/StructureDefinition/us-core-race","extension":[{"url":"ombCategory","valueCoding":{"system":"urn:oid:2.16.840.1.113883.6.238","code":"1002-5","display":"American Indian or Alaska Native","userSelected":true}},{"url":"text","valueString":"American Indian or Alaska Native"}]},{"url":"http://hl7.org/fhir/us/core/StructureDefinition/us-core-ethnicity","extension":[{"url":"ombCategory","valueCoding":{"system":"urn:oid:2.16.840.1.113883.6.238","code":"2135-2","display":"Hispanic or Latino","userSelected":true}},{"url":"text","valueString":"Hispanic or Latino"}]}],"identifier":[{"type":{"coding":[{"system":"http://terminology.hl7.org/CodeSystem/v2-0203","code":"MR"}]},"system":"https://bonnie-fhir.healthit.gov/","value":"612e6f2202c62a011f2f0cb3"}],"active":true,"name":[{"use":"usual","family":"NUMERFail","given":["LMWH2DaysAfterStartICU"]}],"gender":"female","birthDate":"1974-03-03"},"request":{"method":"PUT","url":"Patient/32be0d28-bd59-41eb-bfe0-fb09a24eed31"}},{"fullUrl":"https://madie.cms.gov/Encounter/5ce8096fb848467c29eaf16b","resource":{"resourceType":"Encounter","id":"19035579-f04a-4b2b-bfb3-69e7d81c87af","meta":{"profile":["http://hl7.org/fhir/us/qicore/StructureDefinition/qicore-encounter"]},"status":"finished","class":{"system":"http://terminology.hl7.org/CodeSystem/v3-ActCode","code":"IMP","display":"inpatient encounter"},"type":[{"coding":[{"system":"http://snomed.info/sct","code":"8715000"}]}],"subject":{"reference":"Patient/32be0d28-bd59-41eb-bfe0-fb09a24eed31"},"period":{"start":"2025-12-01T00:00:00+00:00","end":"2025-12-31T23:59:00+00:00"},"length":{"value":30.0,"unit":"days"},"location":[{"location":{"reference":"Location/Location-1"},"period":{"start":"2025-12-01T00:01:00.000+00:00","end":"2025-12-15T23:59:00.000+00:00"}}]},"request":{"method":"PUT","url":"Encounter/19035579-f04a-4b2b-bfb3-69e7d81c87af"}},{"fullUrl":"https://madie.cms.gov/Encounter/5ce8096fb848467c29eaf16c","resource":{"resourceType":"Encounter","id":"4c375766-76ef-4c74-b3e6-16b539e3ad2f","meta":{"profile":["http://hl7.org/fhir/us/qicore/StructureDefinition/qicore-encounter"]},"status":"finished","class":{"system":"http://terminology.hl7.org/CodeSystem/v3-ActCode","code":"IMP","display":"inpatient encounter"},"type":[{"coding":[{"system":"http://snomed.info/sct","code":"183446009"}]}],"subject":{"reference":"Patient/32be0d28-bd59-41eb-bfe0-fb09a24eed31"},"period":{"start":"2025-12-22T00:00:00+00:00","end":"2025-12-31T23:59:00+00:00"},"length":{"value":9.0,"unit":"days"}},"request":{"method":"PUT","url":"Encounter/4c375766-76ef-4c74-b3e6-16b539e3ad2f"}},{"fullUrl":"https://madie.cms.gov/Coverage/5fa040fe1c76ba66d9959057","resource":{"resourceType":"Coverage","id":"37581010-1c4d-41b9-a3f4-aded7edb6c6a","status":"active","beneficiary":{"reference":"Patient/32be0d28-bd59-41eb-bfe0-fb09a24eed31"},"period":{"start":"1974-03-03T08:00:00+00:00"},"payor":[{"reference":"Organization/4d7da20f-8773-4347-8f6b-80adcdcee1f4"}]},"request":{"method":"PUT","url":"Coverage/37581010-1c4d-41b9-a3f4-aded7edb6c6a"}},{"fullUrl":"https://madie.cms.gov/MedicationAdministration/5ce8096fb848467c29eaf16d","resource":{"resourceType":"MedicationAdministration","id":"245343ca-f33a-42c7-b537-f9f0f5880d30","meta":{"profile":["http://hl7.org/fhir/us/qicore/StructureDefinition/qicore-medicationadministration"]},"status":"completed","medicationCodeableConcept":{"coding":[{"system":"http://www.nlm.nih.gov/research/umls/rxnorm","code":"854228"}]},"subject":{"reference":"Patient/32be0d28-bd59-41eb-bfe0-fb09a24eed31"},"effectivePeriod":{"start":"2025-12-03T00:00:00+00:00"}},"request":{"method":"PUT","url":"MedicationAdministration/245343ca-f33a-42c7-b537-f9f0f5880d30"}},{"fullUrl":"https://madie.cms.gov/Location/Location-1","resource":{"resourceType":"Location","id":"1a622cb7-a24a-4119-b854-15742116a993","meta":{"profile":["http://hl7.org/fhir/us/qicore/StructureDefinition/qicore-location"]},"identifier":[{"use":"usual","system":"http://exampleoflocation.com","value":"B1-S.F2"}],"name":"Medical Surgical East, first floor","type":[{"coding":[{"system":"https://www.cdc.gov/nhsn/cdaportal/terminology/codesystem/hsloc.html","code":"1025-6","display":"Trauma Critical Care","userSelected":true}]}]},"request":{"method":"PUT","url":"Location/1a622cb7-a24a-4119-b854-15742116a993"}},{"fullUrl":"https://madie.cms.gov/Organization/123456","resource":{"resourceType":"Organization","id":"4d7da20f-8773-4347-8f6b-80adcdcee1f4","meta":{"profile":["http://hl7.org/fhir/us/qicore/StructureDefinition/qicore-organization"]},"identifier":[{"use":"temp","system":"urn:oid:2.16.840.1.113883.4.4","value":"21-3259825"}],"active":true,"type":[{"coding":[{"system":"http://terminology.hl7.org/CodeSystem/organization-type","code":"pay","display":"Payer"}]}],"name":"Blue Cross Blue Shield of Texas","telecom":[{"system":"phone","value":"(+1) 972-766-6900"}],"address":[{"use":"billing","type":"postal","line":["P.O. Box 660044"],"city":"Dallas","state":"TX","postalCode":"75266-0044","country":"USA"}]},"request":{"method":"PUT","url":"Organization/4d7da20f-8773-4347-8f6b-80adcdcee1f4"}},{"fullUrl":"https://madie.cms.gov/Practitioner/practitioner-123456","resource":{"resourceType":"Practitioner","id":"9797a644-90ef-4e57-80a9-9d91859d7774","identifier":[{"system":"http://hl7.org/fhir/sid/us-npi","value":"123456"}],"name":[{"family":"Evil","prefix":["Dr"]}]},"request":{"method":"PUT","url":"Practitioner/9797a644-90ef-4e57-80a9-9d91859d7774"}},{"fullUrl":"https://madie.cms.gov/MeasureReport/30e17b22-0300-4d5b-b5f9-689dfa30d2b0","resource":{"resourceType":"MeasureReport","id":"30e17b22-0300-4d5b-b5f9-689dfa30d2b0","meta":{"profile":["http://hl7.org/fhir/us/cqfmeasures/StructureDefinition/test-case-cqfm"]},"contained":[{"resourceType":"Parameters","id":"ef578a23-02d6-401b-8c4b-af2dbb6a8299-parameters","parameter":[{"name":"subject","valueString":"32be0d28-bd59-41eb-bfe0-fb09a24eed31"}]}],"extension":[{"url":"http://hl7.org/fhir/us/cqfmeasures/StructureDefinition/cqfm-inputParameters","valueReference":{"reference":"#ef578a23-02d6-401b-8c4b-af2dbb6a8299-parameters"}},{"url":"http://hl7.org/fhir/us/cqfmeasures/StructureDefinition/cqfm-testCaseDescription","valueMarkdown":"LMWH 2 days after ICU admission, no anesthesia.\n"}],"modifierExtension":[{"url":"http://hl7.org/fhir/us/cqfmeasures/StructureDefinition/cqfm-isTestCase","valueBoolean":true}],"status":"complete","type":"individual","measure":"https://madie.cms.gov/Measure/IntensiveCareUnitVenousThromboembolismProphylaxisFHIR","period":{"start":"2025-01-01","end":"2025-12-31"},"group":[{"population":[{"code":{"coding":[{"system":"http://terminology.hl7.org/CodeSystem/measure-population","code":"initial-population","display":"Initial Population"}]},"count":1},{"code":{"coding":[{"system":"http://terminology.hl7.org/CodeSystem/measure-population","code":"denominator","display":"Denominator"}]},"count":1},{"code":{"coding":[{"system":"http://terminology.hl7.org/CodeSystem/measure-population","code":"denominator-exclusion","display":"Denominator Exclusion"}]},"count":0},{"code":{"coding":[{"system":"http://terminology.hl7.org/CodeSystem/measure-population","code":"numerator","display":"Numerator"}]},"count":0},{"code":{"coding":[{"system":"http://terminology.hl7.org/CodeSystem/measure-population","code":"denominator-exception","display":"Denominator Exception"}]},"count":0}]}]},"request":{"method":"PUT","url":"MeasureReport/30e17b22-0300-4d5b-b5f9-689dfa30d2b0"}}]}