{"resourceType":"Bundle","id":"tests-f475cbfa-630a-4296-b083-9feda23892f4-bundle","type":"transaction","entry":[{"fullUrl":"https://madie.cms.gov/Patient/f475cbfa-630a-4296-b083-9feda23892f4","resource":{"resourceType":"Patient","id":"f475cbfa-630a-4296-b083-9feda23892f4","meta":{"profile":["http://hl7.org/fhir/us/qicore/StructureDefinition/qicore-patient"]},"text":{"status":"generated","div":"<div xmlns=\"http://www.w3.org/1999/xhtml\"><div class=\"hapiHeaderText\">CMPerfRvltDate1DayAfterICU <b>DENEXPASS </b></div><table class=\"hapiPropertyTable\"><tbody><tr><td>Identifier</td><td>2a65a26f9f7578ed1148174b365eff5a</td></tr><tr><td>Date of birth</td><td><span>03 March 1974</span></td></tr></tbody></table></div>"},"extension":[{"url":"http://hl7.org/fhir/us/core/StructureDefinition/us-core-race","extension":[{"url":"ombCategory","valueCoding":{"system":"urn:oid:2.16.840.1.113883.6.238","code":"1002-5","display":"American Indian or Alaska Native","userSelected":true}},{"url":"text","valueString":"American Indian or Alaska Native"}]},{"url":"http://hl7.org/fhir/us/core/StructureDefinition/us-core-ethnicity","extension":[{"url":"ombCategory","valueCoding":{"system":"urn:oid:2.16.840.1.113883.6.238","code":"2135-2","display":"Hispanic or Latino","userSelected":true}},{"url":"text","valueString":"Hispanic or Latino"}]}],"identifier":[{"type":{"coding":[{"system":"http://terminology.hl7.org/CodeSystem/v2-0203","code":"MR"}]},"system":"https://bonnie-fhir.healthit.gov/","value":"612e6f8b02c62a011f2f239e"}],"active":true,"name":[{"use":"usual","family":"DENEXPass","given":["CMPerfRvltDate1DayAfterICU"]}],"gender":"female","birthDate":"1974-03-03"},"request":{"method":"PUT","url":"Patient/f475cbfa-630a-4296-b083-9feda23892f4"}},{"fullUrl":"https://madie.cms.gov/Encounter/5ce80970b848467c29eaf1f8","resource":{"resourceType":"Encounter","id":"8a803589-f4e0-4911-9bb2-2222edb3af94","meta":{"profile":["http://hl7.org/fhir/us/qicore/StructureDefinition/qicore-encounter"]},"status":"finished","class":{"system":"http://terminology.hl7.org/CodeSystem/v3-ActCode","code":"IMP","display":"inpatient encounter"},"type":[{"coding":[{"system":"http://snomed.info/sct","code":"8715000"}]}],"subject":{"reference":"Patient/f475cbfa-630a-4296-b083-9feda23892f4"},"period":{"start":"2025-12-04T08:00:00+00:00","end":"2025-12-30T08:15:00+00:00"},"length":{"value":26.0,"unit":"days"},"location":[{"location":{"reference":"Location/Location-1"},"period":{"start":"2025-12-06T08:00:00.000+00:00","end":"2025-12-12T08:15:00.000+00:00"}}]},"request":{"method":"PUT","url":"Encounter/8a803589-f4e0-4911-9bb2-2222edb3af94"}},{"fullUrl":"https://madie.cms.gov/Procedure/5ce80970b848467c29eaf1f9","resource":{"resourceType":"Procedure","id":"6de6ee0f-2aa7-4219-a142-324dec0ec220","meta":{"profile":["http://hl7.org/fhir/us/qicore/StructureDefinition/qicore-procedure"]},"extension":[{"url":"http://hl7.org/fhir/us/qicore/StructureDefinition/qicore-recorded","valueDateTime":"2012-12-07T09:35:00-04:00"}],"status":"completed","code":{"coding":[{"system":"http://snomed.info/sct","code":"133918004","display":"Comfort measures (regime/therapy)"}]},"subject":{"reference":"Patient/f475cbfa-630a-4296-b083-9feda23892f4"},"performedDateTime":"2025-12-06T09:00:00.000+00:00"},"request":{"method":"PUT","url":"Procedure/6de6ee0f-2aa7-4219-a142-324dec0ec220"}},{"fullUrl":"https://madie.cms.gov/Coverage/5fa040ef1c76ba66d9958f34","resource":{"resourceType":"Coverage","id":"9e3434bd-b242-4626-9080-d780b76febe0","status":"active","beneficiary":{"reference":"Patient/f475cbfa-630a-4296-b083-9feda23892f4"},"period":{"start":"1974-03-03T08:00:00+00:00"},"payor":[{"reference":"Organization/5224cb12-ed64-4d6d-ab28-40a64f0800f1"}]},"request":{"method":"PUT","url":"Coverage/9e3434bd-b242-4626-9080-d780b76febe0"}},{"fullUrl":"https://madie.cms.gov/Location/Location-1","resource":{"resourceType":"Location","id":"4c8d865a-987b-4f6b-ac2f-60ebaaedc762","meta":{"profile":["http://hl7.org/fhir/us/qicore/StructureDefinition/qicore-location"]},"identifier":[{"use":"usual","system":"http://exampleoflocation.com","value":"B1-S.F2"}],"name":"Medical Surgical East, first floor","type":[{"coding":[{"system":"https://www.cdc.gov/nhsn/cdaportal/terminology/codesystem/hsloc.html","code":"1025-6","display":"Trauma Critical Care","userSelected":true}]}]},"request":{"method":"PUT","url":"Location/4c8d865a-987b-4f6b-ac2f-60ebaaedc762"}},{"fullUrl":"https://madie.cms.gov/Organization/123456","resource":{"resourceType":"Organization","id":"5224cb12-ed64-4d6d-ab28-40a64f0800f1","meta":{"profile":["http://hl7.org/fhir/us/qicore/StructureDefinition/qicore-organization"]},"identifier":[{"use":"temp","system":"urn:oid:2.16.840.1.113883.4.4","value":"21-3259825"}],"active":true,"type":[{"coding":[{"system":"http://terminology.hl7.org/CodeSystem/organization-type","code":"pay","display":"Payer"}]}],"name":"Blue Cross Blue Shield of Texas","telecom":[{"system":"phone","value":"(+1) 972-766-6900"}],"address":[{"use":"billing","type":"postal","line":["P.O. Box 660044"],"city":"Dallas","state":"TX","postalCode":"75266-0044","country":"USA"}]},"request":{"method":"PUT","url":"Organization/5224cb12-ed64-4d6d-ab28-40a64f0800f1"}},{"fullUrl":"https://madie.cms.gov/Practitioner/practitioner-123456","resource":{"resourceType":"Practitioner","id":"429360f9-724b-4358-a515-0fc6d636a789","identifier":[{"system":"http://hl7.org/fhir/sid/us-npi","value":"123456"}],"name":[{"family":"Evil","prefix":["Dr"]}]},"request":{"method":"PUT","url":"Practitioner/429360f9-724b-4358-a515-0fc6d636a789"}},{"fullUrl":"https://madie.cms.gov/MeasureReport/d8298143-017e-43fc-ae83-63b53fe32966","resource":{"resourceType":"MeasureReport","id":"d8298143-017e-43fc-ae83-63b53fe32966","meta":{"profile":["http://hl7.org/fhir/us/cqfmeasures/StructureDefinition/test-case-cqfm"]},"contained":[{"resourceType":"Parameters","id":"22a4afce-ab7b-4364-934e-86dd2dc930b6-parameters","parameter":[{"name":"subject","valueString":"f475cbfa-630a-4296-b083-9feda23892f4"}]}],"extension":[{"url":"http://hl7.org/fhir/us/cqfmeasures/StructureDefinition/cqfm-inputParameters","valueReference":{"reference":"#22a4afce-ab7b-4364-934e-86dd2dc930b6-parameters"}},{"url":"http://hl7.org/fhir/us/cqfmeasures/StructureDefinition/cqfm-testCaseDescription","valueMarkdown":"CMPerfRvltDate1DayAfterICU\n"}],"modifierExtension":[{"url":"http://hl7.org/fhir/us/cqfmeasures/StructureDefinition/cqfm-isTestCase","valueBoolean":true}],"status":"complete","type":"individual","measure":"https://madie.cms.gov/Measure/IntensiveCareUnitVenousThromboembolismProphylaxisFHIR","period":{"start":"2025-01-01","end":"2025-12-31"},"group":[{"population":[{"code":{"coding":[{"system":"http://terminology.hl7.org/CodeSystem/measure-population","code":"initial-population","display":"Initial Population"}]},"count":1},{"code":{"coding":[{"system":"http://terminology.hl7.org/CodeSystem/measure-population","code":"denominator","display":"Denominator"}]},"count":1},{"code":{"coding":[{"system":"http://terminology.hl7.org/CodeSystem/measure-population","code":"denominator-exclusion","display":"Denominator Exclusion"}]},"count":1},{"code":{"coding":[{"system":"http://terminology.hl7.org/CodeSystem/measure-population","code":"numerator","display":"Numerator"}]},"count":0},{"code":{"coding":[{"system":"http://terminology.hl7.org/CodeSystem/measure-population","code":"denominator-exception","display":"Denominator Exception"}]},"count":0}]}]},"request":{"method":"PUT","url":"MeasureReport/d8298143-017e-43fc-ae83-63b53fe32966"}}]}