{"resourceType":"Bundle","id":"tests-88c18b5b-b5af-45a1-91c4-8b585bf6e86a-bundle","type":"transaction","entry":[{"fullUrl":"https://madie.cms.gov/Patient/88c18b5b-b5af-45a1-91c4-8b585bf6e86a","resource":{"resourceType":"Patient","id":"88c18b5b-b5af-45a1-91c4-8b585bf6e86a","meta":{"profile":["http://hl7.org/fhir/us/qicore/StructureDefinition/qicore-patient"]},"text":{"status":"generated","div":"<div xmlns=\"http://www.w3.org/1999/xhtml\"><div class=\"hapiHeaderText\">INREQ3DayAfterAnes <b>NUMERFAIL </b></div><table class=\"hapiPropertyTable\"><tbody><tr><td>Identifier</td><td>945bb3b161067acb3bc9e908f6fb2325</td></tr><tr><td>Date of birth</td><td><span>03 March 1974</span></td></tr></tbody></table></div>"},"extension":[{"url":"http://hl7.org/fhir/us/core/StructureDefinition/us-core-race","extension":[{"url":"ombCategory","valueCoding":{"system":"urn:oid:2.16.840.1.113883.6.238","code":"1002-5","display":"American Indian or Alaska Native","userSelected":true}},{"url":"text","valueString":"American Indian or Alaska Native"}]},{"url":"http://hl7.org/fhir/us/core/StructureDefinition/us-core-ethnicity","extension":[{"url":"ombCategory","valueCoding":{"system":"urn:oid:2.16.840.1.113883.6.238","code":"2135-2","display":"Hispanic or Latino","userSelected":true}},{"url":"text","valueString":"Hispanic or Latino"}]}],"identifier":[{"type":{"coding":[{"system":"http://terminology.hl7.org/CodeSystem/v2-0203","code":"MR"}]},"system":"https://bonnie-fhir.healthit.gov/","value":"612e6eed02c62a011f2f0109"}],"active":true,"name":[{"use":"usual","family":"NUMERFail","given":["INREQ3DayAfterAnes"]}],"gender":"female","birthDate":"1974-03-03"},"request":{"method":"PUT","url":"Patient/88c18b5b-b5af-45a1-91c4-8b585bf6e86a"}},{"fullUrl":"https://madie.cms.gov/Encounter/5ce8096eb848467c29eaf126","resource":{"resourceType":"Encounter","id":"4c095dc0-c77e-4476-a863-46f55dedc3fb","meta":{"profile":["http://hl7.org/fhir/us/qicore/StructureDefinition/qicore-encounter"]},"status":"finished","class":{"system":"http://terminology.hl7.org/CodeSystem/v3-ActCode","code":"IMP","display":"inpatient encounter"},"type":[{"coding":[{"system":"http://snomed.info/sct","code":"8715000"}]}],"subject":{"reference":"Patient/88c18b5b-b5af-45a1-91c4-8b585bf6e86a"},"period":{"start":"2025-12-04T08:00:00+00:00","end":"2025-12-30T08:15:00+00:00"},"length":{"value":26.0,"unit":"days"},"location":[{"location":{"reference":"Location/Location-1"},"period":{"start":"2025-12-06T09:00:00.000+00:00","end":"2025-12-12T08:15:00.000+00:00"}}]},"request":{"method":"PUT","url":"Encounter/4c095dc0-c77e-4476-a863-46f55dedc3fb"}},{"fullUrl":"https://madie.cms.gov/Coverage/5fa040f61c76ba66d9958fc1","resource":{"resourceType":"Coverage","id":"f54f7fa2-a9c8-4bf5-b441-7a0b895d7111","status":"active","beneficiary":{"reference":"Patient/88c18b5b-b5af-45a1-91c4-8b585bf6e86a"},"period":{"start":"1974-03-03T08:00:00+00:00"},"payor":[{"reference":"Organization/a6c3e6fa-301e-4714-9d04-3dde9a7e7c49"}]},"request":{"method":"PUT","url":"Coverage/f54f7fa2-a9c8-4bf5-b441-7a0b895d7111"}},{"fullUrl":"https://madie.cms.gov/Observation/5ce8096eb848467c29eaf128","resource":{"resourceType":"Observation","id":"22822804-b409-4f06-b174-184075f28f45","meta":{"profile":["http://hl7.org/fhir/us/qicore/StructureDefinition/qicore-observation"]},"status":"corrected","category":[{"coding":[{"system":"http://terminology.hl7.org/CodeSystem/observation-category","code":"laboratory","display":"Laboratory"}]}],"code":{"coding":[{"system":"http://loinc.org","code":"34714-6"}]},"subject":{"reference":"Patient/88c18b5b-b5af-45a1-91c4-8b585bf6e86a"},"effectivePeriod":{"start":"2025-12-08T11:30:00+00:00"},"valueInteger":3},"request":{"method":"PUT","url":"Observation/22822804-b409-4f06-b174-184075f28f45"}},{"fullUrl":"https://madie.cms.gov/Procedure/5ce8096eb848467c29eaf127","resource":{"resourceType":"Procedure","id":"48d822c1-cf02-4ce3-a4e7-f2a70657e3ba","meta":{"profile":["http://hl7.org/fhir/us/qicore/StructureDefinition/qicore-procedure"]},"extension":[{"url":"http://hl7.org/fhir/us/qicore/StructureDefinition/qicore-recorded","valueDateTime":"2012-12-08T09:35:00-04:00"}],"status":"completed","code":{"coding":[{"system":"http://snomed.info/sct","code":"18946005"}]},"subject":{"reference":"Patient/88c18b5b-b5af-45a1-91c4-8b585bf6e86a"},"performedPeriod":{"start":"2025-12-07T10:00:00+00:00","end":"2025-12-07T10:30:00+00:00"}},"request":{"method":"PUT","url":"Procedure/48d822c1-cf02-4ce3-a4e7-f2a70657e3ba"}},{"fullUrl":"https://madie.cms.gov/Location/Location-1","resource":{"resourceType":"Location","id":"d8bc8771-83ae-47bc-afde-0f4acfe4af7d","meta":{"profile":["http://hl7.org/fhir/us/qicore/StructureDefinition/qicore-location"]},"identifier":[{"use":"usual","system":"http://exampleoflocation.com","value":"B1-S.F2"}],"name":"Medical Surgical East, first floor","type":[{"coding":[{"system":"https://www.cdc.gov/nhsn/cdaportal/terminology/codesystem/hsloc.html","code":"1025-6","display":"Trauma Critical Care","userSelected":true}]}]},"request":{"method":"PUT","url":"Location/d8bc8771-83ae-47bc-afde-0f4acfe4af7d"}},{"fullUrl":"https://madie.cms.gov/Organization/123456","resource":{"resourceType":"Organization","id":"a6c3e6fa-301e-4714-9d04-3dde9a7e7c49","meta":{"profile":["http://hl7.org/fhir/us/qicore/StructureDefinition/qicore-organization"]},"identifier":[{"use":"temp","system":"urn:oid:2.16.840.1.113883.4.4","value":"21-3259825"}],"active":true,"type":[{"coding":[{"system":"http://terminology.hl7.org/CodeSystem/organization-type","code":"pay","display":"Payer"}]}],"name":"Blue Cross Blue Shield of Texas","telecom":[{"system":"phone","value":"(+1) 972-766-6900"}],"address":[{"use":"billing","type":"postal","line":["P.O. Box 660044"],"city":"Dallas","state":"TX","postalCode":"75266-0044","country":"USA"}]},"request":{"method":"PUT","url":"Organization/a6c3e6fa-301e-4714-9d04-3dde9a7e7c49"}},{"fullUrl":"https://madie.cms.gov/Practitioner/practitioner-123456","resource":{"resourceType":"Practitioner","id":"b1836d19-0860-44a4-9449-0c79d35ac630","identifier":[{"system":"http://hl7.org/fhir/sid/us-npi","value":"123456"}],"name":[{"family":"Evil","prefix":["Dr"]}]},"request":{"method":"PUT","url":"Practitioner/b1836d19-0860-44a4-9449-0c79d35ac630"}},{"fullUrl":"https://madie.cms.gov/MeasureReport/0b6516fb-18f7-4374-9e06-7f68e7f688fb","resource":{"resourceType":"MeasureReport","id":"0b6516fb-18f7-4374-9e06-7f68e7f688fb","meta":{"profile":["http://hl7.org/fhir/us/cqfmeasures/StructureDefinition/test-case-cqfm"]},"contained":[{"resourceType":"Parameters","id":"5e1478d8-bb2f-4ff8-8521-f667d44fd44b-parameters","parameter":[{"name":"subject","valueString":"88c18b5b-b5af-45a1-91c4-8b585bf6e86a"}]}],"extension":[{"url":"http://hl7.org/fhir/us/cqfmeasures/StructureDefinition/cqfm-inputParameters","valueReference":{"reference":"#5e1478d8-bb2f-4ff8-8521-f667d44fd44b-parameters"}},{"url":"http://hl7.org/fhir/us/cqfmeasures/StructureDefinition/cqfm-testCaseDescription","valueMarkdown":"FAIL - meets IPP, meets Denominator, INR=3 starts day after Anesthesia ends, Anes ends after start of ICU\n"}],"modifierExtension":[{"url":"http://hl7.org/fhir/us/cqfmeasures/StructureDefinition/cqfm-isTestCase","valueBoolean":true}],"status":"complete","type":"individual","measure":"https://madie.cms.gov/Measure/IntensiveCareUnitVenousThromboembolismProphylaxisFHIR","period":{"start":"2025-01-01","end":"2025-12-31"},"group":[{"population":[{"code":{"coding":[{"system":"http://terminology.hl7.org/CodeSystem/measure-population","code":"initial-population","display":"Initial Population"}]},"count":1},{"code":{"coding":[{"system":"http://terminology.hl7.org/CodeSystem/measure-population","code":"denominator","display":"Denominator"}]},"count":1},{"code":{"coding":[{"system":"http://terminology.hl7.org/CodeSystem/measure-population","code":"denominator-exclusion","display":"Denominator Exclusion"}]},"count":0},{"code":{"coding":[{"system":"http://terminology.hl7.org/CodeSystem/measure-population","code":"numerator","display":"Numerator"}]},"count":0},{"code":{"coding":[{"system":"http://terminology.hl7.org/CodeSystem/measure-population","code":"denominator-exception","display":"Denominator Exception"}]},"count":0}]}]},"request":{"method":"PUT","url":"MeasureReport/0b6516fb-18f7-4374-9e06-7f68e7f688fb"}}]}