{"resourceType":"Bundle","id":"tests-0b727e44-0d5a-413b-8114-ab9bb7cce80e-bundle","type":"transaction","entry":[{"fullUrl":"https://madie.cms.gov/Patient/0b727e44-0d5a-413b-8114-ab9bb7cce80e","resource":{"resourceType":"Patient","id":"0b727e44-0d5a-413b-8114-ab9bb7cce80e","meta":{"profile":["http://hl7.org/fhir/us/qicore/StructureDefinition/qicore-patient"]},"text":{"status":"generated","div":"<div xmlns=\"http://www.w3.org/1999/xhtml\"><div class=\"hapiHeaderText\">AVFPDuringICU<b>NUMERPASS </b></div><table class=\"hapiPropertyTable\"><tbody><tr><td>Identifier</td><td>f9dd0d7a6a9f775928ab2c47f31bfdd50dfc6c91e6f0b0e678b3985354333a28</td></tr><tr><td>Date of birth</td><td><span>03 March 1974</span></td></tr></tbody></table></div>"},"extension":[{"url":"http://hl7.org/fhir/us/core/StructureDefinition/us-core-race","extension":[{"url":"ombCategory","valueCoding":{"system":"urn:oid:2.16.840.1.113883.6.238","code":"1002-5","display":"American Indian or Alaska Native","userSelected":true}},{"url":"text","valueString":"American Indian or Alaska Native"}]},{"url":"http://hl7.org/fhir/us/core/StructureDefinition/us-core-ethnicity","extension":[{"url":"ombCategory","valueCoding":{"system":"urn:oid:2.16.840.1.113883.6.238","code":"2135-2","display":"Hispanic or Latino","userSelected":true}},{"url":"text","valueString":"Hispanic or Latino"}]}],"identifier":[{"type":{"coding":[{"system":"http://terminology.hl7.org/CodeSystem/v2-0203","code":"MR"}]},"system":"https://bonnie-fhir.healthit.gov/","value":"612e6f6e02c62a011f2f1d45"}],"active":true,"name":[{"use":"usual","family":"NUMERPass","given":["DAVFPDuringICU"]}],"gender":"female","birthDate":"1974-03-03"},"request":{"method":"PUT","url":"Patient/0b727e44-0d5a-413b-8114-ab9bb7cce80e"}},{"fullUrl":"https://madie.cms.gov/Encounter/5ce80971b848467c29eaf2c1","resource":{"resourceType":"Encounter","id":"3a67c969-88d3-4632-81b9-e1fcbc994d4e","meta":{"profile":["http://hl7.org/fhir/us/qicore/StructureDefinition/qicore-encounter"]},"status":"finished","class":{"system":"http://terminology.hl7.org/CodeSystem/v3-ActCode","code":"IMP","display":"inpatient encounter"},"type":[{"coding":[{"system":"http://snomed.info/sct","code":"183452005"}]}],"subject":{"reference":"Patient/0b727e44-0d5a-413b-8114-ab9bb7cce80e"},"period":{"start":"2025-03-22T08:00:00+00:00","end":"2025-03-26T08:15:00+00:00"},"length":{"value":4,"unit":"days"},"location":[{"location":{"reference":"Location/Location-1"},"period":{"start":"2025-03-22T08:15:00.000+00:00","end":"2025-03-24T08:00:00.000+00:00"}}]},"request":{"method":"PUT","url":"Encounter/3a67c969-88d3-4632-81b9-e1fcbc994d4e"}},{"fullUrl":"https://madie.cms.gov/Coverage/5fa041081c76ba66d995910b","resource":{"resourceType":"Coverage","id":"be0735b7-5e6b-4e32-ab29-0aa1c38884e7","status":"active","beneficiary":{"reference":"Patient/0b727e44-0d5a-413b-8114-ab9bb7cce80e"},"period":{"start":"1974-03-03T08:00:00+00:00"},"payor":[{"reference":"Organization/77e4d06f-5e3c-436a-a598-80cefcca5028"}]},"request":{"method":"PUT","url":"Coverage/be0735b7-5e6b-4e32-ab29-0aa1c38884e7"}},{"fullUrl":"https://madie.cms.gov/Location/Location-1","resource":{"resourceType":"Location","id":"6599b4d5-3277-4612-a171-0416cc269460","meta":{"profile":["http://hl7.org/fhir/us/qicore/StructureDefinition/qicore-location"]},"identifier":[{"use":"usual","system":"http://exampleoflocation.com","value":"B1-S.F2"}],"name":"Medical Surgical East, first floor","type":[{"coding":[{"system":"https://www.cdc.gov/nhsn/cdaportal/terminology/codesystem/hsloc.html","code":"1025-6","display":"Trauma Critical Care","userSelected":true}]}]},"request":{"method":"PUT","url":"Location/6599b4d5-3277-4612-a171-0416cc269460"}},{"fullUrl":"https://madie.cms.gov/Location/intensive-care-unit-0a0f","resource":{"resourceType":"Location","id":"7d43dce8-861f-44e8-a8e4-ad3c28a20280","meta":{"profile":["http://hl7.org/fhir/us/qicore/StructureDefinition/qicore-location"]},"identifier":[{"use":"usual","system":"http://exampleoflocation.com","value":"B1-S.F2"}],"name":"Medical Surgical East, first floor","type":[{"coding":[{"system":"https://www.cdc.gov/nhsn/cdaportal/terminology/codesystem/hsloc.html","code":"1025-6","display":"Trauma Critical Care","userSelected":true}]}]},"request":{"method":"PUT","url":"Location/7d43dce8-861f-44e8-a8e4-ad3c28a20280"}},{"fullUrl":"https://madie.cms.gov/Procedure/device-application-0a10","resource":{"resourceType":"Procedure","id":"65ff0713-e470-4763-9e82-9d3a63b4c6f1","meta":{"profile":["http://hl7.org/fhir/us/qicore/StructureDefinition/qicore-procedure"]},"extension":[{"url":"http://hl7.org/fhir/us/qicore/StructureDefinition/qicore-recorded","valueDateTime":"2025-03-26T09:35:00-04:00"}],"status":"completed","code":{"coding":[{"system":"http://snomed.info/sct","code":"424831005","display":"Application of foot pump (procedure)"}]},"subject":{"reference":"Patient/0b727e44-0d5a-413b-8114-ab9bb7cce80e"},"performedPeriod":{"start":"2025-03-22T08:20:00.000+00:00","end":"2025-03-22T08:25:00.000+00:00"}},"request":{"method":"PUT","url":"Procedure/65ff0713-e470-4763-9e82-9d3a63b4c6f1"}},{"fullUrl":"https://madie.cms.gov/Organization/123456","resource":{"resourceType":"Organization","id":"77e4d06f-5e3c-436a-a598-80cefcca5028","meta":{"profile":["http://hl7.org/fhir/us/qicore/StructureDefinition/qicore-organization"]},"identifier":[{"use":"temp","system":"urn:oid:2.16.840.1.113883.4.4","value":"21-3259825"}],"active":true,"type":[{"coding":[{"system":"http://terminology.hl7.org/CodeSystem/organization-type","code":"pay","display":"Payer"}]}],"name":"Blue Cross Blue Shield of Texas","telecom":[{"system":"phone","value":"(+1) 972-766-6900"}],"address":[{"use":"billing","type":"postal","line":["P.O. Box 660044"],"city":"Dallas","state":"TX","postalCode":"75266-0044","country":"USA"}]},"request":{"method":"PUT","url":"Organization/77e4d06f-5e3c-436a-a598-80cefcca5028"}},{"fullUrl":"https://madie.cms.gov/Practitioner/practitioner-123456","resource":{"resourceType":"Practitioner","id":"c73ed9c2-24c6-4a6d-9dcc-6553286b427c","identifier":[{"system":"http://hl7.org/fhir/sid/us-npi","value":"123456"}],"name":[{"family":"Evil","prefix":["Dr"]}]},"request":{"method":"PUT","url":"Practitioner/c73ed9c2-24c6-4a6d-9dcc-6553286b427c"}},{"fullUrl":"https://madie.cms.gov/MeasureReport/3bb63008-8e35-4ba9-8214-168293bfc903","resource":{"resourceType":"MeasureReport","id":"3bb63008-8e35-4ba9-8214-168293bfc903","meta":{"profile":["http://hl7.org/fhir/us/cqfmeasures/StructureDefinition/test-case-cqfm"]},"contained":[{"resourceType":"Parameters","id":"495ea62f-a48d-44b1-abdc-8b1071e0a0e2-parameters","parameter":[{"name":"subject","valueString":"0b727e44-0d5a-413b-8114-ab9bb7cce80e"}]}],"extension":[{"url":"http://hl7.org/fhir/us/cqfmeasures/StructureDefinition/cqfm-inputParameters","valueReference":{"reference":"#495ea62f-a48d-44b1-abdc-8b1071e0a0e2-parameters"}},{"url":"http://hl7.org/fhir/us/cqfmeasures/StructureDefinition/cqfm-testCaseDescription","valueMarkdown":"Patient with VTE prophylaxis done by VFP applied "}],"modifierExtension":[{"url":"http://hl7.org/fhir/us/cqfmeasures/StructureDefinition/cqfm-isTestCase","valueBoolean":true}],"status":"complete","type":"individual","measure":"https://madie.cms.gov/Measure/IntensiveCareUnitVenousThromboembolismProphylaxisFHIR","period":{"start":"2025-01-01","end":"2025-12-31"},"group":[{"population":[{"code":{"coding":[{"system":"http://terminology.hl7.org/CodeSystem/measure-population","code":"initial-population","display":"Initial Population"}]},"count":1},{"code":{"coding":[{"system":"http://terminology.hl7.org/CodeSystem/measure-population","code":"denominator","display":"Denominator"}]},"count":1},{"code":{"coding":[{"system":"http://terminology.hl7.org/CodeSystem/measure-population","code":"denominator-exclusion","display":"Denominator Exclusion"}]},"count":0},{"code":{"coding":[{"system":"http://terminology.hl7.org/CodeSystem/measure-population","code":"numerator","display":"Numerator"}]},"count":1},{"code":{"coding":[{"system":"http://terminology.hl7.org/CodeSystem/measure-population","code":"denominator-exception","display":"Denominator Exception"}]},"count":0}]}]},"request":{"method":"PUT","url":"MeasureReport/3bb63008-8e35-4ba9-8214-168293bfc903"}}]}