{"resourceType":"Bundle","id":"tests-4ad66db5-d557-4199-9b82-dfd9cc013c9f-bundle","type":"transaction","entry":[{"fullUrl":"https://madie.cms.gov/Patient/4ad66db5-d557-4199-9b82-dfd9cc013c9f","resource":{"resourceType":"Patient","id":"4ad66db5-d557-4199-9b82-dfd9cc013c9f","meta":{"profile":["http://hl7.org/fhir/us/qicore/StructureDefinition/qicore-patient"]},"text":{"status":"generated","div":"<div xmlns=\"http://www.w3.org/1999/xhtml\"><div class=\"hapiHeaderText\">PtRefDOGCSMedReasonMALDUHOnEDEnd <b>NUMERPASS </b></div><table class=\"hapiPropertyTable\"><tbody><tr><td>Identifier</td><td>24fc1ce85ce14557dd4d9eba17df9f17</td></tr><tr><td>Date of birth</td><td><span>02 January 1974</span></td></tr></tbody></table></div>"},"extension":[{"url":"http://hl7.org/fhir/us/core/StructureDefinition/us-core-race","extension":[{"url":"ombCategory","valueCoding":{"system":"urn:oid:2.16.840.1.113883.6.238","code":"1002-5","display":"American Indian or Alaska Native","userSelected":true}},{"url":"text","valueString":"American Indian or Alaska Native"}]},{"url":"http://hl7.org/fhir/us/core/StructureDefinition/us-core-ethnicity","extension":[{"url":"ombCategory","valueCoding":{"system":"urn:oid:2.16.840.1.113883.6.238","code":"2135-2","display":"Hispanic or Latino","userSelected":true}},{"url":"text","valueString":"Hispanic or Latino"}]}],"identifier":[{"type":{"coding":[{"system":"http://terminology.hl7.org/CodeSystem/v2-0203","code":"MR"}]},"system":"https://bonnie-fhir.healthit.gov/","value":"612e6a7002c62a011f2ea15f"}],"active":true,"name":[{"use":"usual","family":"NUMERPass","given":["PtRefDOGCSMedReasonMALDUHOnEDEnd"]}],"gender":"male","birthDate":"1974-01-02"},"request":{"method":"PUT","url":"Patient/4ad66db5-d557-4199-9b82-dfd9cc013c9f"}},{"fullUrl":"https://madie.cms.gov/Encounter/5ca62960b8484628b8de1e50","resource":{"resourceType":"Encounter","id":"8fc83693-9dc0-46a5-8179-5504eda7fab9","meta":{"profile":["http://hl7.org/fhir/us/qicore/StructureDefinition/qicore-encounter"]},"status":"finished","class":{"system":"http://terminology.hl7.org/CodeSystem/v3-ActCode","code":"EMER","display":"emergency"},"type":[{"coding":[{"system":"http://snomed.info/sct","code":"4525004"}]}],"subject":{"reference":"Patient/4ad66db5-d557-4199-9b82-dfd9cc013c9f"},"period":{"start":"2025-10-31T05:00:00+00:00","end":"2025-11-01T07:15:00+00:00"},"length":{"value":1,"unit":"days"}},"request":{"method":"PUT","url":"Encounter/8fc83693-9dc0-46a5-8179-5504eda7fab9"}},{"fullUrl":"https://madie.cms.gov/Encounter/5ca6295eb8484628b8de1d83","resource":{"resourceType":"Encounter","id":"fed04245-eab6-4b4f-80ec-0c1235ddad14","meta":{"profile":["http://hl7.org/fhir/us/qicore/StructureDefinition/qicore-encounter"]},"status":"finished","class":{"system":"http://terminology.hl7.org/CodeSystem/v3-ActCode","code":"IMP","display":"inpatient encounter"},"type":[{"coding":[{"system":"http://snomed.info/sct","code":"8715000"}]}],"subject":{"reference":"Patient/4ad66db5-d557-4199-9b82-dfd9cc013c9f"},"period":{"start":"2025-11-01T08:00:00+00:00","end":"2025-11-26T08:15:00+00:00"},"length":{"value":25,"unit":"days"},"location":[{"location":{"reference":"Location/Location-1"},"period":{"start":"2025-11-03T09:00:00.000+00:00","end":"2025-11-05T08:15:00.000+00:00"}}]},"request":{"method":"PUT","url":"Encounter/fed04245-eab6-4b4f-80ec-0c1235ddad14"}},{"fullUrl":"https://madie.cms.gov/Coverage/5fa0414d1c76ba66d99591ba","resource":{"resourceType":"Coverage","id":"efdd1cc3-e9c0-4116-a986-3727b00159ee","status":"active","beneficiary":{"reference":"Patient/4ad66db5-d557-4199-9b82-dfd9cc013c9f"},"period":{"start":"1974-01-02T08:00:00+00:00"},"payor":[{"reference":"Organization/80e3e0d1-b2aa-43a6-b1d2-00bfa3164a0f"}]},"request":{"method":"PUT","url":"Coverage/efdd1cc3-e9c0-4116-a986-3727b00159ee"}},{"fullUrl":"https://madie.cms.gov/ServiceRequest/graduated-compression-stockings-gcs-24f9","resource":{"resourceType":"ServiceRequest","id":"1fcd33d3-4bdc-4144-be20-7211fbe48c05","meta":{"profile":["http://hl7.org/fhir/us/qicore/StructureDefinition/qicore-servicenotrequested"]},"extension":[{"url":"http://hl7.org/fhir/us/qicore/StructureDefinition/qicore-doNotPerformReason","valueCodeableConcept":{"coding":[{"system":"http://snomed.info/sct","code":"443390004","display":"Refusal of treatment by patient (situation)"}]}}],"status":"completed","intent":"order","doNotPerform":true,"code":{"coding":[{"system":"http://snomed.info/sct","version":"2025-03","code":"348681001","display":"Graduated compression elastic hosiery (physical object)","userSelected":true}]},"subject":{"reference":"Patient/4ad66db5-d557-4199-9b82-dfd9cc013c9f"},"authoredOn":"2025-11-01T07:15:00+00:00"},"request":{"method":"PUT","url":"ServiceRequest/1fcd33d3-4bdc-4144-be20-7211fbe48c05"}},{"fullUrl":"https://madie.cms.gov/MedicationAdministration/5ca6295fb8484628b8de1ddb","resource":{"resourceType":"MedicationAdministration","id":"ddf16c43-d220-47ab-8045-a38ed3f355ef","meta":{"profile":["http://hl7.org/fhir/us/qicore/StructureDefinition/qicore-mednotadministered"]},"extension":[{"url":"http://hl7.org/fhir/us/qicore/StructureDefinition/qicore-recorded","valueDateTime":"2025-11-02T11:00:00+00:00"}],"status":"not-done","statusReason":[{"coding":[{"system":"http://snomed.info/sct","code":"183932001"}]}],"medicationCodeableConcept":{"coding":[{"system":"http://www.nlm.nih.gov/research/umls/rxnorm","code":"1361574"}]},"subject":{"reference":"Patient/4ad66db5-d557-4199-9b82-dfd9cc013c9f"},"effectivePeriod":{"start":"2025-11-02T11:00:00+00:00"}},"request":{"method":"PUT","url":"MedicationAdministration/ddf16c43-d220-47ab-8045-a38ed3f355ef"}},{"fullUrl":"https://madie.cms.gov/Location/Location-1","resource":{"resourceType":"Location","id":"5223136f-c7b5-42e2-bb92-ebe1841da6a2","meta":{"profile":["http://hl7.org/fhir/us/qicore/StructureDefinition/qicore-location"]},"identifier":[{"use":"usual","system":"http://exampleoflocation.com","value":"B1-S.F2"}],"name":"Medical Surgical East, first floor","type":[{"coding":[{"system":"https://www.cdc.gov/nhsn/cdaportal/terminology/codesystem/hsloc.html","code":"1025-6","display":"Trauma Critical Care","userSelected":true}]}]},"request":{"method":"PUT","url":"Location/5223136f-c7b5-42e2-bb92-ebe1841da6a2"}},{"fullUrl":"https://madie.cms.gov/Organization/123456","resource":{"resourceType":"Organization","id":"80e3e0d1-b2aa-43a6-b1d2-00bfa3164a0f","meta":{"profile":["http://hl7.org/fhir/us/qicore/StructureDefinition/qicore-organization"]},"identifier":[{"use":"temp","system":"urn:oid:2.16.840.1.113883.4.4","value":"21-3259825"}],"active":true,"type":[{"coding":[{"system":"http://terminology.hl7.org/CodeSystem/organization-type","code":"pay","display":"Payer"}]}],"name":"Blue Cross Blue Shield of Texas","telecom":[{"system":"phone","value":"(+1) 972-766-6900"}],"address":[{"use":"billing","type":"postal","line":["P.O. Box 660044"],"city":"Dallas","state":"TX","postalCode":"75266-0044","country":"USA"}]},"request":{"method":"PUT","url":"Organization/80e3e0d1-b2aa-43a6-b1d2-00bfa3164a0f"}},{"fullUrl":"https://madie.cms.gov/Practitioner/practitioner-123456","resource":{"resourceType":"Practitioner","id":"619597b8-e74f-49e1-aecb-d86ede670258","identifier":[{"system":"http://hl7.org/fhir/sid/us-npi","value":"123456"}],"name":[{"family":"Evil","prefix":["Dr"]}]},"request":{"method":"PUT","url":"Practitioner/619597b8-e74f-49e1-aecb-d86ede670258"}},{"fullUrl":"https://madie.cms.gov/MeasureReport/aef2c6fa-8cc3-4afa-8079-fedb4d8a1130","resource":{"resourceType":"MeasureReport","id":"aef2c6fa-8cc3-4afa-8079-fedb4d8a1130","meta":{"profile":["http://hl7.org/fhir/us/cqfmeasures/StructureDefinition/test-case-cqfm"]},"contained":[{"resourceType":"Parameters","id":"f078059c-8e53-4e88-9bb0-327e087ebfd0-parameters","parameter":[{"name":"subject","valueString":"4ad66db5-d557-4199-9b82-dfd9cc013c9f"}]}],"extension":[{"url":"http://hl7.org/fhir/us/cqfmeasures/StructureDefinition/cqfm-inputParameters","valueReference":{"reference":"#f078059c-8e53-4e88-9bb0-327e087ebfd0-parameters"}},{"url":"http://hl7.org/fhir/us/cqfmeasures/StructureDefinition/cqfm-testCaseDescription","valueMarkdown":"meets IPP, meets Denominator, GCS ordered not done PatRfsl and Unfractionated Heparin not done MedRsn - on ED EndTime\n"}],"modifierExtension":[{"url":"http://hl7.org/fhir/us/cqfmeasures/StructureDefinition/cqfm-isTestCase","valueBoolean":true}],"status":"complete","type":"individual","measure":"https://madie.cms.gov/Measure/IntensiveCareUnitVenousThromboembolismProphylaxisFHIR","period":{"start":"2025-01-01","end":"2025-12-31"},"group":[{"population":[{"code":{"coding":[{"system":"http://terminology.hl7.org/CodeSystem/measure-population","code":"initial-population","display":"Initial Population"}]},"count":1},{"code":{"coding":[{"system":"http://terminology.hl7.org/CodeSystem/measure-population","code":"denominator","display":"Denominator"}]},"count":1},{"code":{"coding":[{"system":"http://terminology.hl7.org/CodeSystem/measure-population","code":"denominator-exclusion","display":"Denominator Exclusion"}]},"count":0},{"code":{"coding":[{"system":"http://terminology.hl7.org/CodeSystem/measure-population","code":"numerator","display":"Numerator"}]},"count":1},{"code":{"coding":[{"system":"http://terminology.hl7.org/CodeSystem/measure-population","code":"denominator-exception","display":"Denominator Exception"}]},"count":0}]}]},"request":{"method":"PUT","url":"MeasureReport/aef2c6fa-8cc3-4afa-8079-fedb4d8a1130"}}]}