{"resourceType":"Bundle","id":"tests-7572464e-7191-4b5c-bad1-c7acd195178d-bundle","type":"transaction","entry":[{"fullUrl":"https://madie.cms.gov/Patient/7572464e-7191-4b5c-bad1-c7acd195178d","resource":{"resourceType":"Patient","id":"7572464e-7191-4b5c-bad1-c7acd195178d","meta":{"profile":["http://hl7.org/fhir/us/qicore/StructureDefinition/qicore-patient"]},"text":{"status":"generated","div":"<div xmlns=\"http://www.w3.org/1999/xhtml\"><div class=\"hapiHeaderText\">TestMultipleOccur1inNum1inExcept <b>NUMERPASS </b></div><table class=\"hapiPropertyTable\"><tbody><tr><td>Identifier</td><td>7eb67ce98abae0db784097d37457cc127812e19c5da043ea7e60ae3fb3b930ef</td></tr><tr><td>Date of birth</td><td><span>03 March 1974</span></td></tr></tbody></table></div>"},"extension":[{"url":"http://hl7.org/fhir/us/core/StructureDefinition/us-core-race","extension":[{"url":"ombCategory","valueCoding":{"system":"urn:oid:2.16.840.1.113883.6.238","code":"1002-5","display":"American Indian or Alaska Native","userSelected":true}},{"url":"text","valueString":"American Indian or Alaska Native"}]},{"url":"http://hl7.org/fhir/us/core/StructureDefinition/us-core-ethnicity","extension":[{"url":"ombCategory","valueCoding":{"system":"urn:oid:2.16.840.1.113883.6.238","code":"2135-2","display":"Hispanic or Latino","userSelected":true}},{"url":"text","valueString":"Hispanic or Latino"}]}],"identifier":[{"type":{"coding":[{"system":"http://terminology.hl7.org/CodeSystem/v2-0203","code":"MR"}]},"system":"https://bonnie-fhir.healthit.gov/","value":"612e6f7102c62a011f2f1e30"}],"active":true,"name":[{"use":"usual","family":"NUMERPass","given":["TestMultipleOccur1inNum1inExcept"]}],"gender":"female","birthDate":"1974-03-03"},"request":{"method":"PUT","url":"Patient/7572464e-7191-4b5c-bad1-c7acd195178d"}},{"fullUrl":"https://madie.cms.gov/Encounter/5ce80971b848467c29eaf2cc","resource":{"resourceType":"Encounter","id":"bdf1394a-9ec7-4a18-9798-68d330af48d8","meta":{"profile":["http://hl7.org/fhir/us/qicore/StructureDefinition/qicore-encounter"]},"status":"finished","class":{"system":"http://terminology.hl7.org/CodeSystem/v3-ActCode","code":"IMP","display":"inpatient encounter"},"type":[{"coding":[{"system":"http://snomed.info/sct","code":"183452005"}]}],"subject":{"reference":"Patient/7572464e-7191-4b5c-bad1-c7acd195178d"},"period":{"start":"2025-03-22T08:00:00+00:00","end":"2025-03-26T08:15:00+00:00"},"length":{"value":4.0,"unit":"days"},"location":[{"location":{"reference":"Location/intensive-care-unit-0a0b"},"period":{"start":"2025-03-22T08:15:00.000+00:00","end":"2025-03-24T08:00:00.000+00:00"}}]},"request":{"method":"PUT","url":"Encounter/bdf1394a-9ec7-4a18-9798-68d330af48d8"}},{"fullUrl":"https://madie.cms.gov/Encounter/5ce80971b848467c29eaf2cd","resource":{"resourceType":"Encounter","id":"cffe0f7c-2322-49e0-8f1c-cee15fd9f5c6","meta":{"profile":["http://hl7.org/fhir/us/qicore/StructureDefinition/qicore-encounter"]},"status":"finished","class":{"system":"http://terminology.hl7.org/CodeSystem/v3-ActCode","code":"OBSENC","display":"observation encounter"},"type":[{"coding":[{"system":"http://snomed.info/sct","code":"4525004"}]}],"subject":{"reference":"Patient/7572464e-7191-4b5c-bad1-c7acd195178d"},"period":{"start":"2025-12-06T02:00:00+00:00","end":"2025-12-06T08:15:00+00:00"},"length":{"value":0.0,"unit":"days"}},"request":{"method":"PUT","url":"Encounter/cffe0f7c-2322-49e0-8f1c-cee15fd9f5c6"}},{"fullUrl":"https://madie.cms.gov/Encounter/5ce80971b848467c29eaf2ce","resource":{"resourceType":"Encounter","id":"219a2b1b-6d2e-44cb-979b-608ffd09542b","meta":{"profile":["http://hl7.org/fhir/us/qicore/StructureDefinition/qicore-encounter"]},"status":"finished","class":{"system":"http://terminology.hl7.org/CodeSystem/v3-ActCode","code":"IMP","display":"inpatient encounter"},"type":[{"coding":[{"system":"http://snomed.info/sct","code":"8715000"}]}],"subject":{"reference":"Patient/7572464e-7191-4b5c-bad1-c7acd195178d"},"period":{"start":"2025-12-06T08:45:00+00:00","end":"2025-12-30T08:15:00+00:00"},"length":{"value":24.0,"unit":"days"},"location":[{"location":{"reference":"Location/Location-1"},"period":{"start":"2025-12-07T08:45:00.000+00:00","end":"2025-12-07T20:00:00.000+00:00"}}]},"request":{"method":"PUT","url":"Encounter/219a2b1b-6d2e-44cb-979b-608ffd09542b"}},{"fullUrl":"https://madie.cms.gov/Coverage/5fa041081c76ba66d9959111","resource":{"resourceType":"Coverage","id":"3372151a-5859-41ff-8b69-41febd1d886c","status":"active","beneficiary":{"reference":"Patient/7572464e-7191-4b5c-bad1-c7acd195178d"},"period":{"start":"1974-03-03T08:00:00+00:00"},"payor":[{"reference":"Organization/80e3e0d1-b2aa-43a6-b1d2-00bfa3164a0f"}]},"request":{"method":"PUT","url":"Coverage/3372151a-5859-41ff-8b69-41febd1d886c"}},{"fullUrl":"https://madie.cms.gov/Location/intensive-care-unit-0a0b","resource":{"resourceType":"Location","id":"567a7580-017b-4945-93c8-ed4396c0d700","meta":{"profile":["http://hl7.org/fhir/us/qicore/StructureDefinition/qicore-location"]},"identifier":[{"use":"usual","system":"http://exampleoflocation.com","value":"B1-S.F2"}],"name":"Medical Surgical East, first floor","type":[{"coding":[{"system":"https://www.cdc.gov/nhsn/cdaportal/terminology/codesystem/hsloc.html","code":"1025-6","display":"Trauma Critical Care","userSelected":true}]}]},"request":{"method":"PUT","url":"Location/567a7580-017b-4945-93c8-ed4396c0d700"}},{"fullUrl":"https://madie.cms.gov/Location/Location-1","resource":{"resourceType":"Location","id":"4591fd2f-43e4-40b2-a28f-6f5a1e5cf01b","meta":{"profile":["http://hl7.org/fhir/us/qicore/StructureDefinition/qicore-location"]},"identifier":[{"use":"usual","system":"http://exampleoflocation.com","value":"B1-S.F2"}],"name":"Medical Surgical East, first floor","type":[{"coding":[{"system":"https://www.cdc.gov/nhsn/cdaportal/terminology/codesystem/hsloc.html","code":"1025-6","display":"Trauma Critical Care","userSelected":true}]}]},"request":{"method":"PUT","url":"Location/4591fd2f-43e4-40b2-a28f-6f5a1e5cf01b"}},{"fullUrl":"https://madie.cms.gov/Procedure/device-application-0a0d","resource":{"resourceType":"Procedure","id":"05787b71-535e-4be1-85d2-8b946891df2a","meta":{"profile":["http://hl7.org/fhir/us/qicore/StructureDefinition/qicore-procedure"]},"extension":[{"url":"http://hl7.org/fhir/us/qicore/StructureDefinition/qicore-recorded","valueDateTime":"2025-03-26T09:35:00-04:00"}],"status":"completed","code":{"coding":[{"system":"http://snomed.info/sct","code":"229511001"}]},"subject":{"reference":"Patient/7572464e-7191-4b5c-bad1-c7acd195178d"},"performedPeriod":{"start":"2025-03-22T08:05:00.000+00:00","end":"2025-03-22T08:15:00.000+00:00"}},"request":{"method":"PUT","url":"Procedure/05787b71-535e-4be1-85d2-8b946891df2a"}},{"fullUrl":"https://madie.cms.gov/Location/intensive-care-unit-6457","resource":{"resourceType":"Location","id":"3499b234-440c-4950-a07f-0aafe2a90b92","meta":{"profile":["http://hl7.org/fhir/us/qicore/StructureDefinition/qicore-location"]},"identifier":[{"use":"usual","system":"http://exampleoflocation.com","value":"B1-S.F2"}],"name":"Medical Surgical East, first floor","type":[{"coding":[{"system":"https://www.cdc.gov/nhsn/cdaportal/terminology/codesystem/hsloc.html","code":"1025-6","display":"Trauma Critical Care","userSelected":true}]}]},"request":{"method":"PUT","url":"Location/3499b234-440c-4950-a07f-0aafe2a90b92"}},{"fullUrl":"https://madie.cms.gov/Organization/123456","resource":{"resourceType":"Organization","id":"80e3e0d1-b2aa-43a6-b1d2-00bfa3164a0f","meta":{"profile":["http://hl7.org/fhir/us/qicore/StructureDefinition/qicore-organization"]},"identifier":[{"use":"temp","system":"urn:oid:2.16.840.1.113883.4.4","value":"21-3259825"}],"active":true,"type":[{"coding":[{"system":"http://terminology.hl7.org/CodeSystem/organization-type","code":"pay","display":"Payer"}]}],"name":"Blue Cross Blue Shield of Texas","telecom":[{"system":"phone","value":"(+1) 972-766-6900"}],"address":[{"use":"billing","type":"postal","line":["P.O. Box 660044"],"city":"Dallas","state":"TX","postalCode":"75266-0044","country":"USA"}]},"request":{"method":"PUT","url":"Organization/80e3e0d1-b2aa-43a6-b1d2-00bfa3164a0f"}},{"fullUrl":"https://madie.cms.gov/Practitioner/practitioner-123456","resource":{"resourceType":"Practitioner","id":"718a1dfd-7932-4e03-bdd9-d6580086203f","identifier":[{"system":"http://hl7.org/fhir/sid/us-npi","value":"123456"}],"name":[{"family":"Evil","prefix":["Dr"]}]},"request":{"method":"PUT","url":"Practitioner/718a1dfd-7932-4e03-bdd9-d6580086203f"}},{"fullUrl":"https://madie.cms.gov/MeasureReport/e0ea8d48-32f2-4db6-9bef-8931df44cacc","resource":{"resourceType":"MeasureReport","id":"e0ea8d48-32f2-4db6-9bef-8931df44cacc","meta":{"profile":["http://hl7.org/fhir/us/cqfmeasures/StructureDefinition/test-case-cqfm"]},"contained":[{"resourceType":"Parameters","id":"e3ff679f-3e23-4707-90e2-9c04359963e8-parameters","parameter":[{"name":"subject","valueString":"7572464e-7191-4b5c-bad1-c7acd195178d"}]}],"extension":[{"url":"http://hl7.org/fhir/us/cqfmeasures/StructureDefinition/cqfm-inputParameters","valueReference":{"reference":"#e3ff679f-3e23-4707-90e2-9c04359963e8-parameters"}},{"url":"http://hl7.org/fhir/us/cqfmeasures/StructureDefinition/cqfm-testCaseDescription","valueMarkdown":" Patient has 2 encounters, one pass Numerator one pass DenExceptions\n"}],"modifierExtension":[{"url":"http://hl7.org/fhir/us/cqfmeasures/StructureDefinition/cqfm-isTestCase","valueBoolean":true}],"status":"complete","type":"individual","measure":"https://madie.cms.gov/Measure/IntensiveCareUnitVenousThromboembolismProphylaxisFHIR","period":{"start":"2025-01-01","end":"2025-12-31"},"group":[{"population":[{"code":{"coding":[{"system":"http://terminology.hl7.org/CodeSystem/measure-population","code":"initial-population","display":"Initial Population"}]},"count":2},{"code":{"coding":[{"system":"http://terminology.hl7.org/CodeSystem/measure-population","code":"denominator","display":"Denominator"}]},"count":2},{"code":{"coding":[{"system":"http://terminology.hl7.org/CodeSystem/measure-population","code":"denominator-exclusion","display":"Denominator Exclusion"}]},"count":0},{"code":{"coding":[{"system":"http://terminology.hl7.org/CodeSystem/measure-population","code":"numerator","display":"Numerator"}]},"count":1},{"code":{"coding":[{"system":"http://terminology.hl7.org/CodeSystem/measure-population","code":"denominator-exception","display":"Denominator Exception"}]},"count":1}]}]},"request":{"method":"PUT","url":"MeasureReport/e0ea8d48-32f2-4db6-9bef-8931df44cacc"}}]}