{"resourceType":"Bundle","id":"tests-8bc6fd51-97ab-4227-9934-0b232fef8f71-bundle","type":"transaction","entry":[{"fullUrl":"https://madie.cms.gov/Patient/8bc6fd51-97ab-4227-9934-0b232fef8f71","resource":{"resourceType":"Patient","id":"8bc6fd51-97ab-4227-9934-0b232fef8f71","meta":{"profile":["http://hl7.org/fhir/us/qicore/StructureDefinition/qicore-patient"]},"text":{"status":"generated","div":"<div xmlns=\"http://www.w3.org/1999/xhtml\"><div class=\"hapiHeaderText\">CMPerfDuringObsGT1HrBFAdmCMO1DayBFAdm <b>DENEXFAIL </b></div><table class=\"hapiPropertyTable\"><tbody><tr><td>Identifier</td><td>ca18d6e37e170afcef4732571aa1f371744051b417fc365332415a5c544ef910</td></tr><tr><td>Date of birth</td><td><span>03 March 1974</span></td></tr></tbody></table></div>"},"extension":[{"url":"http://hl7.org/fhir/us/core/StructureDefinition/us-core-race","extension":[{"url":"ombCategory","valueCoding":{"system":"urn:oid:2.16.840.1.113883.6.238","code":"1002-5","display":"American Indian or Alaska Native","userSelected":true}},{"url":"text","valueString":"American Indian or Alaska Native"}]},{"url":"http://hl7.org/fhir/us/core/StructureDefinition/us-core-ethnicity","extension":[{"url":"ombCategory","valueCoding":{"system":"urn:oid:2.16.840.1.113883.6.238","code":"2135-2","display":"Hispanic or Latino","userSelected":true}},{"url":"text","valueString":"Hispanic or Latino"}]}],"identifier":[{"type":{"coding":[{"system":"http://terminology.hl7.org/CodeSystem/v2-0203","code":"MR"}]},"system":"https://bonnie-fhir.healthit.gov/","value":"612e6f6b02c62a011f2f1c62"}],"active":true,"name":[{"use":"usual","family":"DENEXFail","given":["CMPerfDuringObsGT1HrBFAdmCMO1DayBFAdm"]}],"gender":"female","birthDate":"1974-03-03"},"request":{"method":"PUT","url":"Patient/8bc6fd51-97ab-4227-9934-0b232fef8f71"}},{"fullUrl":"https://madie.cms.gov/Encounter/5ce80970b848467c29eaf29d","resource":{"resourceType":"Encounter","id":"f2cbdcb0-5b72-4554-8a5a-ca855c5ac4c5","meta":{"profile":["http://hl7.org/fhir/us/qicore/StructureDefinition/qicore-encounter"]},"status":"finished","class":{"system":"http://terminology.hl7.org/CodeSystem/v3-ActCode","code":"EMER","display":"emergency"},"type":[{"coding":[{"system":"http://snomed.info/sct","code":"4525004"}]}],"subject":{"reference":"Patient/8bc6fd51-97ab-4227-9934-0b232fef8f71"},"period":{"start":"2025-12-03T04:00:00+00:00","end":"2025-12-04T05:00:00+00:00"},"length":{"value":1.0,"unit":"days"}},"request":{"method":"PUT","url":"Encounter/f2cbdcb0-5b72-4554-8a5a-ca855c5ac4c5"}},{"fullUrl":"https://madie.cms.gov/Encounter/5ce80970b848467c29eaf29f","resource":{"resourceType":"Encounter","id":"8699263f-3ff0-4858-91df-149251b8dcf3","meta":{"profile":["http://hl7.org/fhir/us/qicore/StructureDefinition/qicore-encounter"]},"status":"finished","class":{"system":"http://terminology.hl7.org/CodeSystem/v3-ActCode","code":"IMP","display":"inpatient encounter"},"type":[{"coding":[{"system":"http://snomed.info/sct","code":"8715000"}]}],"subject":{"reference":"Patient/8bc6fd51-97ab-4227-9934-0b232fef8f71"},"period":{"start":"2025-12-04T07:16:00+00:00","end":"2025-12-30T08:15:00+00:00"},"length":{"value":26.0,"unit":"days"},"location":[{"location":{"reference":"Location/intensive-care-unit-bbbf"},"period":{"start":"2025-12-26T08:00:00.000+00:00","end":"2025-12-28T08:15:00.000+00:00"}}]},"request":{"method":"PUT","url":"Encounter/8699263f-3ff0-4858-91df-149251b8dcf3"}},{"fullUrl":"https://madie.cms.gov/Encounter/6037e7f85e5bfb0000d5326e","resource":{"resourceType":"Encounter","id":"442607ca-0f26-44cd-beb9-b27cef144d20","meta":{"profile":["http://hl7.org/fhir/us/qicore/StructureDefinition/qicore-encounter"]},"status":"finished","class":{"system":"http://terminology.hl7.org/CodeSystem/v3-ActCode","code":"OBSENC","display":"observation encounter"},"type":[{"coding":[{"system":"http://snomed.info/sct","code":"448951000124107"}]}],"subject":{"reference":"Patient/8bc6fd51-97ab-4227-9934-0b232fef8f71"},"period":{"start":"2025-12-04T05:15:00+00:00","end":"2025-12-04T06:15:00+00:00"}},"request":{"method":"PUT","url":"Encounter/442607ca-0f26-44cd-beb9-b27cef144d20"}},{"fullUrl":"https://madie.cms.gov/Procedure/5ce80970b848467c29eaf2a0","resource":{"resourceType":"Procedure","id":"5c312748-c257-483c-afb3-e50005d9a2e5","meta":{"profile":["http://hl7.org/fhir/us/qicore/StructureDefinition/qicore-procedure"]},"extension":[{"url":"http://hl7.org/fhir/us/qicore/StructureDefinition/qicore-recorded","valueDateTime":"2012-12-03T09:35:00-04:00"}],"status":"completed","code":{"coding":[{"system":"http://snomed.info/sct","code":"133918004"}]},"subject":{"reference":"Patient/8bc6fd51-97ab-4227-9934-0b232fef8f71"},"performedPeriod":{"start":"2025-12-03T06:00:00+00:00"}},"request":{"method":"PUT","url":"Procedure/5c312748-c257-483c-afb3-e50005d9a2e5"}},{"fullUrl":"https://madie.cms.gov/Coverage/5fa041081c76ba66d9959102","resource":{"resourceType":"Coverage","id":"b4a6c576-f46e-4349-be4a-c3607e0f258f","status":"active","beneficiary":{"reference":"Patient/8bc6fd51-97ab-4227-9934-0b232fef8f71"},"period":{"start":"1974-03-03T08:00:00+00:00"},"payor":[{"reference":"Organization/33ead57e-5e04-40e4-95ea-bc3cdbd58917"}]},"request":{"method":"PUT","url":"Coverage/b4a6c576-f46e-4349-be4a-c3607e0f258f"}},{"fullUrl":"https://madie.cms.gov/Location/intensive-care-unit-bbbf","resource":{"resourceType":"Location","id":"a12dbd30-9efb-4615-b2be-8b61dde052fc","meta":{"profile":["http://hl7.org/fhir/us/qicore/StructureDefinition/qicore-location"]},"identifier":[{"use":"usual","system":"http://exampleoflocation.com","value":"B1-S.F2"}],"name":"Medical Surgical East, first floor","type":[{"coding":[{"system":"https://www.cdc.gov/nhsn/cdaportal/terminology/codesystem/hsloc.html","code":"1025-6","display":"Trauma Critical Care","userSelected":true}]}]},"request":{"method":"PUT","url":"Location/a12dbd30-9efb-4615-b2be-8b61dde052fc"}},{"fullUrl":"https://madie.cms.gov/Organization/123456","resource":{"resourceType":"Organization","id":"33ead57e-5e04-40e4-95ea-bc3cdbd58917","meta":{"profile":["http://hl7.org/fhir/us/qicore/StructureDefinition/qicore-organization"]},"identifier":[{"use":"temp","system":"urn:oid:2.16.840.1.113883.4.4","value":"21-3259825"}],"active":true,"type":[{"coding":[{"system":"http://terminology.hl7.org/CodeSystem/organization-type","code":"pay","display":"Payer"}]}],"name":"Blue Cross Blue Shield of Texas","telecom":[{"system":"phone","value":"(+1) 972-766-6900"}],"address":[{"use":"billing","type":"postal","line":["P.O. Box 660044"],"city":"Dallas","state":"TX","postalCode":"75266-0044","country":"USA"}]},"request":{"method":"PUT","url":"Organization/33ead57e-5e04-40e4-95ea-bc3cdbd58917"}},{"fullUrl":"https://madie.cms.gov/Practitioner/practitioner-123456","resource":{"resourceType":"Practitioner","id":"0e0084ab-d920-49ed-bb3a-7b0c2aca0b77","identifier":[{"system":"http://hl7.org/fhir/sid/us-npi","value":"123456"}],"name":[{"family":"Evil","prefix":["Dr"]}]},"request":{"method":"PUT","url":"Practitioner/0e0084ab-d920-49ed-bb3a-7b0c2aca0b77"}},{"fullUrl":"https://madie.cms.gov/MeasureReport/2a61b447-1d13-435c-9a9e-bff115616e17","resource":{"resourceType":"MeasureReport","id":"2a61b447-1d13-435c-9a9e-bff115616e17","meta":{"profile":["http://hl7.org/fhir/us/cqfmeasures/StructureDefinition/test-case-cqfm"]},"contained":[{"resourceType":"Parameters","id":"8207f73d-c463-4542-98ac-9aeef166d652-parameters","parameter":[{"name":"subject","valueString":"8bc6fd51-97ab-4227-9934-0b232fef8f71"}]}],"extension":[{"url":"http://hl7.org/fhir/us/cqfmeasures/StructureDefinition/cqfm-inputParameters","valueReference":{"reference":"#8207f73d-c463-4542-98ac-9aeef166d652-parameters"}},{"url":"http://hl7.org/fhir/us/cqfmeasures/StructureDefinition/cqfm-testCaseDescription","valueMarkdown":"meets IPP and Denominator, inpatient visit starts >1 hour after the end of Observation AND Comfort Measures are performed during Obs. This case fails because CMO is one day before Adm date\n"}],"modifierExtension":[{"url":"http://hl7.org/fhir/us/cqfmeasures/StructureDefinition/cqfm-isTestCase","valueBoolean":true}],"status":"complete","type":"individual","measure":"https://madie.cms.gov/Measure/IntensiveCareUnitVenousThromboembolismProphylaxisFHIR","period":{"start":"2025-01-01","end":"2025-12-31"},"group":[{"population":[{"code":{"coding":[{"system":"http://terminology.hl7.org/CodeSystem/measure-population","code":"initial-population","display":"Initial Population"}]},"count":1},{"code":{"coding":[{"system":"http://terminology.hl7.org/CodeSystem/measure-population","code":"denominator","display":"Denominator"}]},"count":1},{"code":{"coding":[{"system":"http://terminology.hl7.org/CodeSystem/measure-population","code":"denominator-exclusion","display":"Denominator Exclusion"}]},"count":0},{"code":{"coding":[{"system":"http://terminology.hl7.org/CodeSystem/measure-population","code":"numerator","display":"Numerator"}]},"count":0},{"code":{"coding":[{"system":"http://terminology.hl7.org/CodeSystem/measure-population","code":"denominator-exception","display":"Denominator Exception"}]},"count":0}]}]},"request":{"method":"PUT","url":"MeasureReport/2a61b447-1d13-435c-9a9e-bff115616e17"}}]}