{"resourceType":"Bundle","id":"tests-439d95f5-58cd-485f-bbb4-a3915592af72-bundle","type":"transaction","entry":[{"fullUrl":"https://madie.cms.gov/Patient/439d95f5-58cd-485f-bbb4-a3915592af72","resource":{"resourceType":"Patient","id":"439d95f5-58cd-485f-bbb4-a3915592af72","meta":{"profile":["http://hl7.org/fhir/us/qicore/StructureDefinition/qicore-patient"]},"text":{"status":"generated","div":"<div xmlns=\"http://www.w3.org/1999/xhtml\"><div class=\"hapiHeaderText\">MAUHepEDendTimeOnIPEncStrtTm <b>NUMERPASS </b></div><table class=\"hapiPropertyTable\"><tbody><tr><td>Identifier</td><td>613a0a42598b5d681406521f174c78ac</td></tr><tr><td>Date of birth</td><td><span>02 January 1974</span></td></tr></tbody></table></div>"},"extension":[{"url":"http://hl7.org/fhir/us/core/StructureDefinition/us-core-race","extension":[{"url":"ombCategory","valueCoding":{"system":"urn:oid:2.16.840.1.113883.6.238","code":"1002-5","display":"American Indian or Alaska Native","userSelected":true}},{"url":"text","valueString":"American Indian or Alaska Native"}]},{"url":"http://hl7.org/fhir/us/core/StructureDefinition/us-core-ethnicity","extension":[{"url":"ombCategory","valueCoding":{"system":"urn:oid:2.16.840.1.113883.6.238","code":"2135-2","display":"Hispanic or Latino","userSelected":true}},{"url":"text","valueString":"Hispanic or Latino"}]}],"identifier":[{"type":{"coding":[{"system":"http://terminology.hl7.org/CodeSystem/v2-0203","code":"MR"}]},"system":"https://bonnie-fhir.healthit.gov/","value":"612e6b5d02c62a011f2ed7ba"}],"active":true,"name":[{"use":"usual","family":"NUMERPass","given":["MAUHepEDendTimeOnIPEncStrtTm"]}],"gender":"male","birthDate":"1974-01-02"},"request":{"method":"PUT","url":"Patient/439d95f5-58cd-485f-bbb4-a3915592af72"}},{"fullUrl":"https://madie.cms.gov/Encounter/5ca6295cb8484628b8de1d18","resource":{"resourceType":"Encounter","id":"a66f9650-0256-4a7d-ad51-ce8d396a7887","meta":{"profile":["http://hl7.org/fhir/us/qicore/StructureDefinition/qicore-encounter"]},"status":"finished","class":{"system":"http://terminology.hl7.org/CodeSystem/v3-ActCode","code":"EMER","display":"emergency"},"type":[{"coding":[{"system":"http://snomed.info/sct","code":"4525004"}]}],"subject":{"reference":"Patient/439d95f5-58cd-485f-bbb4-a3915592af72"},"period":{"start":"2025-10-30T06:00:00+00:00","end":"2025-11-01T08:00:00+00:00"},"length":{"value":2.0,"unit":"days"}},"request":{"method":"PUT","url":"Encounter/a66f9650-0256-4a7d-ad51-ce8d396a7887"}},{"fullUrl":"https://madie.cms.gov/Encounter/5ca62961b8484628b8de1ea3","resource":{"resourceType":"Encounter","id":"30684313-4db2-4d94-a6b2-1fd3ce1ccc03","meta":{"profile":["http://hl7.org/fhir/us/qicore/StructureDefinition/qicore-encounter"]},"status":"finished","class":{"system":"http://terminology.hl7.org/CodeSystem/v3-ActCode","code":"IMP","display":"inpatient encounter"},"type":[{"coding":[{"system":"http://snomed.info/sct","code":"8715000"}]}],"subject":{"reference":"Patient/439d95f5-58cd-485f-bbb4-a3915592af72"},"period":{"start":"2025-11-01T08:00:00+00:00","end":"2025-11-26T08:15:00+00:00"},"length":{"value":25.0,"unit":"days"},"location":[{"location":{"reference":"Location/Location-1"},"period":{"start":"2025-11-02T09:00:00.000+00:00","end":"2025-11-10T08:15:00.000+00:00"}}]},"request":{"method":"PUT","url":"Encounter/30684313-4db2-4d94-a6b2-1fd3ce1ccc03"}},{"fullUrl":"https://madie.cms.gov/Coverage/5fa0415b1c76ba66d99592a7","resource":{"resourceType":"Coverage","id":"f405f9de-3d33-43bf-bad4-85c369e142dc","status":"active","beneficiary":{"reference":"Patient/439d95f5-58cd-485f-bbb4-a3915592af72"},"period":{"start":"1974-01-02T08:00:00+00:00"},"payor":[{"reference":"Organization/a6c3e6fa-301e-4714-9d04-3dde9a7e7c49"}]},"request":{"method":"PUT","url":"Coverage/f405f9de-3d33-43bf-bad4-85c369e142dc"}},{"fullUrl":"https://madie.cms.gov/MedicationAdministration/5ca62961b8484628b8de1ea4","resource":{"resourceType":"MedicationAdministration","id":"a2973e5a-f6a5-446e-843a-0650ddf98e5a","meta":{"profile":["http://hl7.org/fhir/us/qicore/StructureDefinition/qicore-medicationadministration"]},"status":"completed","medicationCodeableConcept":{"coding":[{"system":"http://www.nlm.nih.gov/research/umls/rxnorm","code":"1361607"}]},"subject":{"reference":"Patient/439d95f5-58cd-485f-bbb4-a3915592af72"},"effectivePeriod":{"start":"2025-11-01T06:00:00+00:00","end":"2025-11-01T07:00:00+00:00"},"dosage":{"route":{"coding":[{"system":"http://snomed.info/sct","code":"418114005","display":"Intravenous route"}]},"dose":{"value":500,"unit":"ml","system":"http://unitsofmeasure.org","code":"ml"}}},"request":{"method":"PUT","url":"MedicationAdministration/a2973e5a-f6a5-446e-843a-0650ddf98e5a"}},{"fullUrl":"https://madie.cms.gov/Location/Location-1","resource":{"resourceType":"Location","id":"d087e276-261f-42d6-9598-af18804fe967","meta":{"profile":["http://hl7.org/fhir/us/qicore/StructureDefinition/qicore-location"]},"identifier":[{"use":"usual","system":"http://exampleoflocation.com","value":"B1-S.F2"}],"name":"Medical Surgical East, first floor","type":[{"coding":[{"system":"https://www.cdc.gov/nhsn/cdaportal/terminology/codesystem/hsloc.html","code":"1025-6","display":"Trauma Critical Care","userSelected":true}]}]},"request":{"method":"PUT","url":"Location/d087e276-261f-42d6-9598-af18804fe967"}},{"fullUrl":"https://madie.cms.gov/Organization/123456","resource":{"resourceType":"Organization","id":"a6c3e6fa-301e-4714-9d04-3dde9a7e7c49","meta":{"profile":["http://hl7.org/fhir/us/qicore/StructureDefinition/qicore-organization"]},"identifier":[{"use":"temp","system":"urn:oid:2.16.840.1.113883.4.4","value":"21-3259825"}],"active":true,"type":[{"coding":[{"system":"http://terminology.hl7.org/CodeSystem/organization-type","code":"pay","display":"Payer"}]}],"name":"Blue Cross Blue Shield of Texas","telecom":[{"system":"phone","value":"(+1) 972-766-6900"}],"address":[{"use":"billing","type":"postal","line":["P.O. Box 660044"],"city":"Dallas","state":"TX","postalCode":"75266-0044","country":"USA"}]},"request":{"method":"PUT","url":"Organization/a6c3e6fa-301e-4714-9d04-3dde9a7e7c49"}},{"fullUrl":"https://madie.cms.gov/Practitioner/practitioner-123456","resource":{"resourceType":"Practitioner","id":"e0d44dd6-a239-4126-9482-6ea3681a3138","identifier":[{"system":"http://hl7.org/fhir/sid/us-npi","value":"123456"}],"name":[{"family":"Evil","prefix":["Dr"]}]},"request":{"method":"PUT","url":"Practitioner/e0d44dd6-a239-4126-9482-6ea3681a3138"}},{"fullUrl":"https://madie.cms.gov/MeasureReport/c0587659-38de-4a7b-891d-ae5315381b01","resource":{"resourceType":"MeasureReport","id":"c0587659-38de-4a7b-891d-ae5315381b01","meta":{"profile":["http://hl7.org/fhir/us/cqfmeasures/StructureDefinition/test-case-cqfm"]},"contained":[{"resourceType":"Parameters","id":"1a911d65-2ba3-491d-aa8a-705a005286b1-parameters","parameter":[{"name":"subject","valueString":"439d95f5-58cd-485f-bbb4-a3915592af72"}]}],"extension":[{"url":"http://hl7.org/fhir/us/cqfmeasures/StructureDefinition/cqfm-inputParameters","valueReference":{"reference":"#1a911d65-2ba3-491d-aa8a-705a005286b1-parameters"}},{"url":"http://hl7.org/fhir/us/cqfmeasures/StructureDefinition/cqfm-testCaseDescription","valueMarkdown":"meets IPP, meets Denominator, medication administered:Unfractionated Heparin Route:IV during ED, ED endTime on Start of encounter\n"}],"modifierExtension":[{"url":"http://hl7.org/fhir/us/cqfmeasures/StructureDefinition/cqfm-isTestCase","valueBoolean":true}],"status":"complete","type":"individual","measure":"https://madie.cms.gov/Measure/IntensiveCareUnitVenousThromboembolismProphylaxisFHIR","period":{"start":"2025-01-01","end":"2025-12-31"},"group":[{"population":[{"code":{"coding":[{"system":"http://terminology.hl7.org/CodeSystem/measure-population","code":"initial-population","display":"Initial Population"}]},"count":1},{"code":{"coding":[{"system":"http://terminology.hl7.org/CodeSystem/measure-population","code":"denominator","display":"Denominator"}]},"count":1},{"code":{"coding":[{"system":"http://terminology.hl7.org/CodeSystem/measure-population","code":"denominator-exclusion","display":"Denominator Exclusion"}]},"count":0},{"code":{"coding":[{"system":"http://terminology.hl7.org/CodeSystem/measure-population","code":"numerator","display":"Numerator"}]},"count":1},{"code":{"coding":[{"system":"http://terminology.hl7.org/CodeSystem/measure-population","code":"denominator-exception","display":"Denominator Exception"}]},"count":0}]}]},"request":{"method":"PUT","url":"MeasureReport/c0587659-38de-4a7b-891d-ae5315381b01"}}]}