{"resourceType":"Bundle","id":"tests-1242acd7-1a2b-4588-8d23-ea4f3dc1e0d5-bundle","type":"transaction","entry":[{"fullUrl":"https://madie.cms.gov/Patient/1242acd7-1a2b-4588-8d23-ea4f3dc1e0d5","resource":{"resourceType":"Patient","id":"1242acd7-1a2b-4588-8d23-ea4f3dc1e0d5","meta":{"profile":["http://hl7.org/fhir/us/qicore/StructureDefinition/qicore-patient"]},"text":{"status":"generated","div":"<div xmlns=\"http://www.w3.org/1999/xhtml\"><div class=\"hapiHeaderText\">UrologicalSurgeryNotPrin <b>DENEXFAIL </b></div><table class=\"hapiPropertyTable\"><tbody><tr><td>Identifier</td><td>134283073c75bbb3c7689c5516f3a169</td></tr><tr><td>Date of birth</td><td><span>03 March 1974</span></td></tr></tbody></table></div>"},"extension":[{"url":"http://hl7.org/fhir/us/core/StructureDefinition/us-core-race","extension":[{"url":"ombCategory","valueCoding":{"system":"urn:oid:2.16.840.1.113883.6.238","code":"1002-5","display":"American Indian or Alaska Native","userSelected":true}},{"url":"text","valueString":"American Indian or Alaska Native"}]},{"url":"http://hl7.org/fhir/us/core/StructureDefinition/us-core-ethnicity","extension":[{"url":"ombCategory","valueCoding":{"system":"urn:oid:2.16.840.1.113883.6.238","code":"2135-2","display":"Hispanic or Latino","userSelected":true}},{"url":"text","valueString":"Hispanic or Latino"}]}],"identifier":[{"type":{"coding":[{"system":"http://terminology.hl7.org/CodeSystem/v2-0203","code":"MR"}]},"system":"https://bonnie-fhir.healthit.gov/","value":"612e6e9602c62a011f2eef45"}],"active":true,"name":[{"use":"usual","family":"DENEXFail","given":["UrologicalSurgeryNotPrin"]}],"gender":"female","birthDate":"1974-03-03"},"request":{"method":"PUT","url":"Patient/1242acd7-1a2b-4588-8d23-ea4f3dc1e0d5"}},{"fullUrl":"https://madie.cms.gov/Encounter/5ce8096eb848467c29eaf112","resource":{"resourceType":"Encounter","id":"ce2ad22d-2e57-4498-b6cd-e2eb873e1849","meta":{"profile":["http://hl7.org/fhir/us/qicore/StructureDefinition/qicore-encounter"]},"status":"finished","class":{"system":"http://terminology.hl7.org/CodeSystem/v3-ActCode","code":"IMP","display":"inpatient encounter"},"type":[{"coding":[{"system":"http://snomed.info/sct","code":"8715000"}]}],"subject":{"reference":"Patient/1242acd7-1a2b-4588-8d23-ea4f3dc1e0d5"},"period":{"start":"2025-12-04T08:00:00+00:00","end":"2025-12-30T08:15:00+00:00"},"length":{"value":26.0,"unit":"days"},"location":[{"location":{"reference":"Location/Location-1"},"period":{"start":"2025-12-06T08:00:00.000+00:00","end":"2025-12-08T08:15:00.000+00:00"}}]},"request":{"method":"PUT","url":"Encounter/ce2ad22d-2e57-4498-b6cd-e2eb873e1849"}},{"fullUrl":"https://madie.cms.gov/Coverage/5fa040f41c76ba66d9958f9d","resource":{"resourceType":"Coverage","id":"e5c2fc65-8f6f-472c-a503-cdccc9c421f3","status":"active","beneficiary":{"reference":"Patient/1242acd7-1a2b-4588-8d23-ea4f3dc1e0d5"},"period":{"start":"1974-03-03T08:00:00+00:00"},"payor":[{"reference":"Organization/9e9b3f13-a353-4173-b29b-947d6f1f2031"}]},"request":{"method":"PUT","url":"Coverage/e5c2fc65-8f6f-472c-a503-cdccc9c421f3"}},{"fullUrl":"https://madie.cms.gov/Procedure/5ce8096eb848467c29eaf113","resource":{"resourceType":"Procedure","id":"e93ccb61-468a-4e9f-82bc-9ffbbe5e47bf","meta":{"profile":["http://hl7.org/fhir/us/qicore/StructureDefinition/qicore-procedure"]},"extension":[{"url":"http://hl7.org/fhir/us/qicore/StructureDefinition/qicore-recorded","valueDateTime":"2012-12-06T09:35:00-04:00"}],"status":"completed","code":{"coding":[{"system":"http://snomed.info/sct","code":"533005"}]},"subject":{"reference":"Patient/1242acd7-1a2b-4588-8d23-ea4f3dc1e0d5"},"performedPeriod":{"start":"2025-12-06T08:15:00+00:00","end":"2025-12-06T11:15:00+00:00"}},"request":{"method":"PUT","url":"Procedure/e93ccb61-468a-4e9f-82bc-9ffbbe5e47bf"}},{"fullUrl":"https://madie.cms.gov/Location/Location-1","resource":{"resourceType":"Location","id":"ccb1be7e-9790-4bc2-ba9e-efcfe1597820","meta":{"profile":["http://hl7.org/fhir/us/qicore/StructureDefinition/qicore-location"]},"identifier":[{"use":"usual","system":"http://exampleoflocation.com","value":"B1-S.F2"}],"name":"Medical Surgical East, first floor","type":[{"coding":[{"system":"https://www.cdc.gov/nhsn/cdaportal/terminology/codesystem/hsloc.html","code":"1025-6","display":"Trauma Critical Care","userSelected":true}]}]},"request":{"method":"PUT","url":"Location/ccb1be7e-9790-4bc2-ba9e-efcfe1597820"}},{"fullUrl":"https://madie.cms.gov/Organization/123456","resource":{"resourceType":"Organization","id":"9e9b3f13-a353-4173-b29b-947d6f1f2031","meta":{"profile":["http://hl7.org/fhir/us/qicore/StructureDefinition/qicore-organization"]},"identifier":[{"use":"temp","system":"urn:oid:2.16.840.1.113883.4.4","value":"21-3259825"}],"active":true,"type":[{"coding":[{"system":"http://terminology.hl7.org/CodeSystem/organization-type","code":"pay","display":"Payer"}]}],"name":"Blue Cross Blue Shield of Texas","telecom":[{"system":"phone","value":"(+1) 972-766-6900"}],"address":[{"use":"billing","type":"postal","line":["P.O. Box 660044"],"city":"Dallas","state":"TX","postalCode":"75266-0044","country":"USA"}]},"request":{"method":"PUT","url":"Organization/9e9b3f13-a353-4173-b29b-947d6f1f2031"}},{"fullUrl":"https://madie.cms.gov/Practitioner/practitioner-123456","resource":{"resourceType":"Practitioner","id":"72b0cc60-75e3-4486-9d2b-e8f57199df59","identifier":[{"system":"http://hl7.org/fhir/sid/us-npi","value":"123456"}],"name":[{"family":"Evil","prefix":["Dr"]}]},"request":{"method":"PUT","url":"Practitioner/72b0cc60-75e3-4486-9d2b-e8f57199df59"}},{"fullUrl":"https://madie.cms.gov/MeasureReport/e0d34f1b-c13f-474c-8a7d-d1eca34f2d77","resource":{"resourceType":"MeasureReport","id":"e0d34f1b-c13f-474c-8a7d-d1eca34f2d77","meta":{"profile":["http://hl7.org/fhir/us/cqfmeasures/StructureDefinition/test-case-cqfm"]},"contained":[{"resourceType":"Parameters","id":"2d61e4f0-bdcc-4af0-8519-f82eb51ab15b-parameters","parameter":[{"name":"subject","valueString":"1242acd7-1a2b-4588-8d23-ea4f3dc1e0d5"}]}],"extension":[{"url":"http://hl7.org/fhir/us/cqfmeasures/StructureDefinition/cqfm-inputParameters","valueReference":{"reference":"#2d61e4f0-bdcc-4af0-8519-f82eb51ab15b-parameters"}},{"url":"http://hl7.org/fhir/us/cqfmeasures/StructureDefinition/cqfm-testCaseDescription","valueMarkdown":"Px urological surgery not principal\n"}],"modifierExtension":[{"url":"http://hl7.org/fhir/us/cqfmeasures/StructureDefinition/cqfm-isTestCase","valueBoolean":true}],"status":"complete","type":"individual","measure":"https://madie.cms.gov/Measure/IntensiveCareUnitVenousThromboembolismProphylaxisFHIR","period":{"start":"2025-01-01","end":"2025-12-31"},"group":[{"population":[{"code":{"coding":[{"system":"http://terminology.hl7.org/CodeSystem/measure-population","code":"initial-population","display":"Initial Population"}]},"count":1},{"code":{"coding":[{"system":"http://terminology.hl7.org/CodeSystem/measure-population","code":"denominator","display":"Denominator"}]},"count":1},{"code":{"coding":[{"system":"http://terminology.hl7.org/CodeSystem/measure-population","code":"denominator-exclusion","display":"Denominator Exclusion"}]},"count":0},{"code":{"coding":[{"system":"http://terminology.hl7.org/CodeSystem/measure-population","code":"numerator","display":"Numerator"}]},"count":0},{"code":{"coding":[{"system":"http://terminology.hl7.org/CodeSystem/measure-population","code":"denominator-exception","display":"Denominator Exception"}]},"count":0}]}]},"request":{"method":"PUT","url":"MeasureReport/e0d34f1b-c13f-474c-8a7d-d1eca34f2d77"}}]}