{"resourceType":"Bundle","id":"tests-a2563ca7-fda7-4cfd-a5cf-a688225749e2-bundle","type":"transaction","entry":[{"fullUrl":"https://madie.cms.gov/Patient/a2563ca7-fda7-4cfd-a5cf-a688225749e2","resource":{"resourceType":"Patient","id":"a2563ca7-fda7-4cfd-a5cf-a688225749e2","meta":{"profile":["http://hl7.org/fhir/us/qicore/StructureDefinition/qicore-patient"]},"text":{"status":"generated","div":"<div xmlns=\"http://www.w3.org/1999/xhtml\"><div class=\"hapiHeaderText\">FactorXa1MinAfterICUStartDxAFib <b>NUMERPASS </b></div><table class=\"hapiPropertyTable\"><tbody><tr><td>Identifier</td><td>213d087eb3bd92b3f3f6cdf55e6533f5</td></tr><tr><td>Date of birth</td><td><span>03 March 1974</span></td></tr></tbody></table></div>"},"extension":[{"url":"http://hl7.org/fhir/us/core/StructureDefinition/us-core-race","extension":[{"url":"ombCategory","valueCoding":{"system":"urn:oid:2.16.840.1.113883.6.238","code":"1002-5","display":"American Indian or Alaska Native","userSelected":true}},{"url":"text","valueString":"American Indian or Alaska Native"}]},{"url":"http://hl7.org/fhir/us/core/StructureDefinition/us-core-ethnicity","extension":[{"url":"ombCategory","valueCoding":{"system":"urn:oid:2.16.840.1.113883.6.238","code":"2135-2","display":"Hispanic or Latino","userSelected":true}},{"url":"text","valueString":"Hispanic or Latino"}]}],"identifier":[{"type":{"coding":[{"system":"http://terminology.hl7.org/CodeSystem/v2-0203","code":"MR"}]},"system":"https://bonnie-fhir.healthit.gov/","value":"612e6f3902c62a011f2f1183"}],"active":true,"name":[{"use":"usual","family":"NUMERPass","given":["FactorXa1MinAfterICUStartDxAFib"]}],"gender":"female","birthDate":"1974-03-03"},"request":{"method":"PUT","url":"Patient/a2563ca7-fda7-4cfd-a5cf-a688225749e2"}},{"fullUrl":"https://madie.cms.gov/Encounter/5ce8096fb848467c29eaf18b","resource":{"resourceType":"Encounter","id":"0e58189b-b29c-4b55-b72c-966edeeef025","meta":{"profile":["http://hl7.org/fhir/us/qicore/StructureDefinition/qicore-encounter"]},"status":"finished","class":{"system":"http://terminology.hl7.org/CodeSystem/v3-ActCode","code":"IMP","display":"inpatient encounter"},"type":[{"coding":[{"system":"http://snomed.info/sct","code":"8715000"}]}],"subject":{"reference":"Patient/a2563ca7-fda7-4cfd-a5cf-a688225749e2"},"period":{"start":"2025-12-04T08:00:00+00:00","end":"2025-12-30T08:15:00+00:00"},"length":{"value":26.0,"unit":"days"},"location":[{"location":{"reference":"Location/Location-1"},"period":{"start":"2025-12-06T08:00:00.000+00:00","end":"2025-12-08T08:15:00.000+00:00"}}]},"request":{"method":"PUT","url":"Encounter/0e58189b-b29c-4b55-b72c-966edeeef025"}},{"fullUrl":"https://madie.cms.gov/Coverage/5fa041011c76ba66d9959087","resource":{"resourceType":"Coverage","id":"d228a3e6-e3a1-4113-8855-87f3ad34f2b3","status":"active","beneficiary":{"reference":"Patient/a2563ca7-fda7-4cfd-a5cf-a688225749e2"},"period":{"start":"1974-03-03T08:00:00+00:00"},"payor":[{"reference":"Organization/ec8cac12-7dd8-4c6e-8c44-d6c645085c80"}]},"request":{"method":"PUT","url":"Coverage/d228a3e6-e3a1-4113-8855-87f3ad34f2b3"}},{"fullUrl":"https://madie.cms.gov/MedicationAdministration/5ce8096fb848467c29eaf18c","resource":{"resourceType":"MedicationAdministration","id":"a0deb40a-21e3-44c3-b41b-9fabf8f8d435","meta":{"profile":["http://hl7.org/fhir/us/qicore/StructureDefinition/qicore-medicationadministration"]},"status":"completed","medicationCodeableConcept":{"coding":[{"system":"http://www.nlm.nih.gov/research/umls/rxnorm","code":"1364435","display":"apixaban 2.5 MG Oral Tablet","userSelected":true}]},"subject":{"reference":"Patient/a2563ca7-fda7-4cfd-a5cf-a688225749e2"},"effectivePeriod":{"start":"2025-12-07T08:01:00+00:00"}},"request":{"method":"PUT","url":"MedicationAdministration/a0deb40a-21e3-44c3-b41b-9fabf8f8d435"}},{"fullUrl":"https://madie.cms.gov/Procedure/5ca6295fb8484628b8de1da6","resource":{"resourceType":"Procedure","id":"7f25aa9c-0773-4f97-85e8-87020c70afa9","meta":{"profile":["http://hl7.org/fhir/us/qicore/StructureDefinition/qicore-procedure"]},"extension":[{"url":"http://hl7.org/fhir/us/qicore/StructureDefinition/qicore-recorded","valueDateTime":"2012-12-06T09:35:00-04:00"}],"status":"completed","code":{"coding":[{"system":"http://snomed.info/sct","code":"18946005"}]},"subject":{"reference":"Patient/a2563ca7-fda7-4cfd-a5cf-a688225749e2"},"performedPeriod":{"start":"2025-12-06T08:01:00+00:00","end":"2025-12-06T09:01:00+00:00"}},"request":{"method":"PUT","url":"Procedure/7f25aa9c-0773-4f97-85e8-87020c70afa9"}},{"fullUrl":"https://madie.cms.gov/Location/Location-1","resource":{"resourceType":"Location","id":"f7d3d9df-7687-4d6b-a4d3-e53971271a64","meta":{"profile":["http://hl7.org/fhir/us/qicore/StructureDefinition/qicore-location"]},"identifier":[{"use":"usual","system":"http://exampleoflocation.com","value":"B1-S.F2"}],"name":"Medical Surgical East, first floor","type":[{"coding":[{"system":"https://www.cdc.gov/nhsn/cdaportal/terminology/codesystem/hsloc.html","code":"1025-6","display":"Trauma Critical Care","userSelected":true}]}]},"request":{"method":"PUT","url":"Location/f7d3d9df-7687-4d6b-a4d3-e53971271a64"}},{"fullUrl":"https://madie.cms.gov/Condition/atrial-fibrillation-flutter-a334","resource":{"resourceType":"Condition","id":"7825ff99-46a4-4da1-b0d0-5bd97a86fb10","meta":{"profile":["http://hl7.org/fhir/us/qicore/StructureDefinition/qicore-condition"]},"clinicalStatus":{"coding":[{"system":"http://terminology.hl7.org/CodeSystem/condition-clinical","code":"active"}]},"verificationStatus":{"coding":[{"system":"http://terminology.hl7.org/CodeSystem/condition-ver-status","code":"confirmed"}]},"category":[{"coding":[{"system":"http://terminology.hl7.org/CodeSystem/condition-category","code":"problem-list-item","display":"Problem list Item"}]}],"code":{"coding":[{"system":"http://snomed.info/sct","version":"2025-09","code":"120041000119109","display":"Atrial fibrillation with rapid ventricular response (disorder)","userSelected":true}]},"subject":{"reference":"Patient/a2563ca7-fda7-4cfd-a5cf-a688225749e2"},"onsetPeriod":{"start":"2025-12-26T08:15:00+00:00"},"recordedDate":"2025-10-20T08:00:00.000+00:00"},"request":{"method":"PUT","url":"Condition/7825ff99-46a4-4da1-b0d0-5bd97a86fb10"}},{"fullUrl":"https://madie.cms.gov/Organization/123456","resource":{"resourceType":"Organization","id":"ec8cac12-7dd8-4c6e-8c44-d6c645085c80","meta":{"profile":["http://hl7.org/fhir/us/qicore/StructureDefinition/qicore-organization"]},"identifier":[{"use":"temp","system":"urn:oid:2.16.840.1.113883.4.4","value":"21-3259825"}],"active":true,"type":[{"coding":[{"system":"http://terminology.hl7.org/CodeSystem/organization-type","code":"pay","display":"Payer"}]}],"name":"Blue Cross Blue Shield of Texas","telecom":[{"system":"phone","value":"(+1) 972-766-6900"}],"address":[{"use":"billing","type":"postal","line":["P.O. Box 660044"],"city":"Dallas","state":"TX","postalCode":"75266-0044","country":"USA"}]},"request":{"method":"PUT","url":"Organization/ec8cac12-7dd8-4c6e-8c44-d6c645085c80"}},{"fullUrl":"https://madie.cms.gov/Practitioner/practitioner-123456","resource":{"resourceType":"Practitioner","id":"fd0e5688-d4f7-4daf-817d-5ed187e3cf3b","identifier":[{"system":"http://hl7.org/fhir/sid/us-npi","value":"123456"}],"name":[{"family":"Evil","prefix":["Dr"]}]},"request":{"method":"PUT","url":"Practitioner/fd0e5688-d4f7-4daf-817d-5ed187e3cf3b"}},{"fullUrl":"https://madie.cms.gov/MeasureReport/3ce04300-26eb-4881-9b8d-5cd5b2f0c442","resource":{"resourceType":"MeasureReport","id":"3ce04300-26eb-4881-9b8d-5cd5b2f0c442","meta":{"profile":["http://hl7.org/fhir/us/cqfmeasures/StructureDefinition/test-case-cqfm"]},"contained":[{"resourceType":"Parameters","id":"094e416b-79d6-44f1-b10c-20d03093da20-parameters","parameter":[{"name":"subject","valueString":"a2563ca7-fda7-4cfd-a5cf-a688225749e2"}]}],"extension":[{"url":"http://hl7.org/fhir/us/cqfmeasures/StructureDefinition/cqfm-inputParameters","valueReference":{"reference":"#094e416b-79d6-44f1-b10c-20d03093da20-parameters"}},{"url":"http://hl7.org/fhir/us/cqfmeasures/StructureDefinition/cqfm-testCaseDescription","valueMarkdown":"oral factor Xa administered after Proc, Proc is 1 day after First ICU\n"}],"modifierExtension":[{"url":"http://hl7.org/fhir/us/cqfmeasures/StructureDefinition/cqfm-isTestCase","valueBoolean":true}],"status":"complete","type":"individual","measure":"https://madie.cms.gov/Measure/IntensiveCareUnitVenousThromboembolismProphylaxisFHIR","period":{"start":"2025-01-01","end":"2025-12-31"},"group":[{"population":[{"code":{"coding":[{"system":"http://terminology.hl7.org/CodeSystem/measure-population","code":"initial-population","display":"Initial Population"}]},"count":1},{"code":{"coding":[{"system":"http://terminology.hl7.org/CodeSystem/measure-population","code":"denominator","display":"Denominator"}]},"count":1},{"code":{"coding":[{"system":"http://terminology.hl7.org/CodeSystem/measure-population","code":"denominator-exclusion","display":"Denominator Exclusion"}]},"count":0},{"code":{"coding":[{"system":"http://terminology.hl7.org/CodeSystem/measure-population","code":"numerator","display":"Numerator"}]},"count":1},{"code":{"coding":[{"system":"http://terminology.hl7.org/CodeSystem/measure-population","code":"denominator-exception","display":"Denominator Exception"}]},"count":0}]}]},"request":{"method":"PUT","url":"MeasureReport/3ce04300-26eb-4881-9b8d-5cd5b2f0c442"}}]}