{"resourceType":"Bundle","id":"tests-fc59a209-22d4-4881-aa12-9a19fd91c083-bundle","type":"transaction","entry":[{"fullUrl":"https://madie.cms.gov/Patient/fc59a209-22d4-4881-aa12-9a19fd91c083","resource":{"resourceType":"Patient","id":"fc59a209-22d4-4881-aa12-9a19fd91c083","meta":{"profile":["http://hl7.org/fhir/us/qicore/StructureDefinition/qicore-patient"]},"text":{"status":"generated","div":"<div xmlns=\"http://www.w3.org/1999/xhtml\"><div class=\"hapiHeaderText\">CMOPerfOnAnesEndRvlntDT <b>DENEXPASS </b></div><table class=\"hapiPropertyTable\"><tbody><tr><td>Identifier</td><td>9d8ab3fcb5edc14843f80cd97de46a5e</td></tr><tr><td>Date of birth</td><td><span>16 July 1974</span></td></tr></tbody></table></div>"},"extension":[{"url":"http://hl7.org/fhir/us/core/StructureDefinition/us-core-race","extension":[{"url":"ombCategory","valueCoding":{"system":"urn:oid:2.16.840.1.113883.6.238","code":"1002-5","display":"American Indian or Alaska Native","userSelected":true}},{"url":"text","valueString":"American Indian or Alaska Native"}]},{"url":"http://hl7.org/fhir/us/core/StructureDefinition/us-core-ethnicity","extension":[{"url":"ombCategory","valueCoding":{"system":"urn:oid:2.16.840.1.113883.6.238","code":"2135-2","display":"Hispanic or Latino","userSelected":true}},{"url":"text","valueString":"Hispanic or Latino"}]}],"identifier":[{"type":{"coding":[{"system":"http://terminology.hl7.org/CodeSystem/v2-0203","code":"MR"}]},"system":"https://bonnie-fhir.healthit.gov/","value":"612e6e8002c62a011f2ee9d4"}],"active":true,"name":[{"use":"usual","family":"DENEXPass","given":["CMOPerfOnAnesEndRvlntDT"]}],"gender":"female","birthDate":"1974-07-16"},"request":{"method":"PUT","url":"Patient/fc59a209-22d4-4881-aa12-9a19fd91c083"}},{"fullUrl":"https://madie.cms.gov/Encounter/5ce80970b848467c29eaf284","resource":{"resourceType":"Encounter","id":"c2ea1036-1878-4d0f-b67c-61423b54f72c","meta":{"profile":["http://hl7.org/fhir/us/qicore/StructureDefinition/qicore-encounter"]},"status":"finished","class":{"system":"http://terminology.hl7.org/CodeSystem/v3-ActCode","code":"IMP","display":"inpatient encounter"},"type":[{"coding":[{"system":"http://snomed.info/sct","code":"8715000"}]}],"subject":{"reference":"Patient/fc59a209-22d4-4881-aa12-9a19fd91c083"},"period":{"start":"2025-12-04T08:00:00+00:00","end":"2025-12-30T08:15:00+00:00"},"length":{"value":26.0,"unit":"days"},"location":[{"location":{"reference":"Location/intensive-care-unit-7623"},"period":{"start":"2025-12-06T08:00:00.000+00:00","end":"2025-12-08T08:15:00.000+00:00"}}]},"request":{"method":"PUT","url":"Encounter/c2ea1036-1878-4d0f-b67c-61423b54f72c"}},{"fullUrl":"https://madie.cms.gov/Procedure/5ce80970b848467c29eaf286","resource":{"resourceType":"Procedure","id":"b6faa5d0-3954-4126-a687-8b425783cd4b","meta":{"profile":["http://hl7.org/fhir/us/qicore/StructureDefinition/qicore-procedure"]},"extension":[{"url":"http://hl7.org/fhir/us/qicore/StructureDefinition/qicore-recorded","valueDateTime":"2012-11-02T09:35:00-04:00"}],"status":"completed","code":{"coding":[{"system":"http://snomed.info/sct","code":"133918004"}]},"subject":{"reference":"Patient/fc59a209-22d4-4881-aa12-9a19fd91c083"},"performedDateTime":"2025-12-07T11:15:00+00:00"},"request":{"method":"PUT","url":"Procedure/b6faa5d0-3954-4126-a687-8b425783cd4b"}},{"fullUrl":"https://madie.cms.gov/Coverage/5fa041011c76ba66d9959090","resource":{"resourceType":"Coverage","id":"7d9065f0-720c-4666-9185-f8a35ba27fa2","status":"active","beneficiary":{"reference":"Patient/fc59a209-22d4-4881-aa12-9a19fd91c083"},"period":{"start":"1974-03-03T08:00:00+00:00"},"payor":[{"reference":"Organization/024e2731-b045-43bf-80d2-684774c5b51c"}]},"request":{"method":"PUT","url":"Coverage/7d9065f0-720c-4666-9185-f8a35ba27fa2"}},{"fullUrl":"https://madie.cms.gov/Procedure/5ce80970b848467c29eaf285","resource":{"resourceType":"Procedure","id":"fb5279db-02be-4762-99d1-a0c31a00c1d6","status":"completed","code":{"coding":[{"system":"http://snomed.info/sct","code":"18946005"}]},"subject":{"reference":"Patient/fc59a209-22d4-4881-aa12-9a19fd91c083"},"performedPeriod":{"start":"2025-12-06T11:00:00+00:00","end":"2025-12-07T11:15:00+00:00"}},"request":{"method":"PUT","url":"Procedure/fb5279db-02be-4762-99d1-a0c31a00c1d6"}},{"fullUrl":"https://madie.cms.gov/Location/intensive-care-unit-7623","resource":{"resourceType":"Location","id":"7b0bbdf8-f777-4b93-82ec-078878608283","meta":{"profile":["http://hl7.org/fhir/us/qicore/StructureDefinition/qicore-location"]},"identifier":[{"use":"usual","system":"http://exampleoflocation.com","value":"B1-S.F2"}],"name":"Medical Surgical East, first floor","type":[{"coding":[{"system":"https://www.cdc.gov/nhsn/cdaportal/terminology/codesystem/hsloc.html","code":"1025-6","display":"Trauma Critical Care","userSelected":true}]}]},"request":{"method":"PUT","url":"Location/7b0bbdf8-f777-4b93-82ec-078878608283"}},{"fullUrl":"https://madie.cms.gov/Organization/123456","resource":{"resourceType":"Organization","id":"024e2731-b045-43bf-80d2-684774c5b51c","meta":{"profile":["http://hl7.org/fhir/us/qicore/StructureDefinition/qicore-organization"]},"identifier":[{"use":"temp","system":"urn:oid:2.16.840.1.113883.4.4","value":"21-3259825"}],"active":true,"type":[{"coding":[{"system":"http://terminology.hl7.org/CodeSystem/organization-type","code":"pay","display":"Payer"}]}],"name":"Blue Cross Blue Shield of Texas","telecom":[{"system":"phone","value":"(+1) 972-766-6900"}],"address":[{"use":"billing","type":"postal","line":["P.O. Box 660044"],"city":"Dallas","state":"TX","postalCode":"75266-0044","country":"USA"}]},"request":{"method":"PUT","url":"Organization/024e2731-b045-43bf-80d2-684774c5b51c"}},{"fullUrl":"https://madie.cms.gov/Practitioner/practitioner-123456","resource":{"resourceType":"Practitioner","id":"345668d1-7415-4af3-9aab-27e18684ea99","identifier":[{"system":"http://hl7.org/fhir/sid/us-npi","value":"123456"}],"name":[{"family":"Evil","prefix":["Dr"]}]},"request":{"method":"PUT","url":"Practitioner/345668d1-7415-4af3-9aab-27e18684ea99"}},{"fullUrl":"https://madie.cms.gov/MeasureReport/a816bd00-d6de-4eea-bdae-f560a4c3e35b","resource":{"resourceType":"MeasureReport","id":"a816bd00-d6de-4eea-bdae-f560a4c3e35b","meta":{"profile":["http://hl7.org/fhir/us/cqfmeasures/StructureDefinition/test-case-cqfm"]},"contained":[{"resourceType":"Parameters","id":"2d0ddc07-1b7c-4652-bfbe-750a1e7b6897-parameters","parameter":[{"name":"subject","valueString":"fc59a209-22d4-4881-aa12-9a19fd91c083"}]}],"extension":[{"url":"http://hl7.org/fhir/us/cqfmeasures/StructureDefinition/cqfm-inputParameters","valueReference":{"reference":"#2d0ddc07-1b7c-4652-bfbe-750a1e7b6897-parameters"}},{"url":"http://hl7.org/fhir/us/cqfmeasures/StructureDefinition/cqfm-testCaseDescription","valueMarkdown":"comfort measures starts concurrent with end of neuraxial anesthesia\n"}],"modifierExtension":[{"url":"http://hl7.org/fhir/us/cqfmeasures/StructureDefinition/cqfm-isTestCase","valueBoolean":true}],"status":"complete","type":"individual","measure":"https://madie.cms.gov/Measure/IntensiveCareUnitVenousThromboembolismProphylaxisFHIR","period":{"start":"2025-01-01","end":"2025-12-31"},"group":[{"population":[{"code":{"coding":[{"system":"http://terminology.hl7.org/CodeSystem/measure-population","code":"initial-population","display":"Initial Population"}]},"count":1},{"code":{"coding":[{"system":"http://terminology.hl7.org/CodeSystem/measure-population","code":"denominator","display":"Denominator"}]},"count":1},{"code":{"coding":[{"system":"http://terminology.hl7.org/CodeSystem/measure-population","code":"denominator-exclusion","display":"Denominator Exclusion"}]},"count":1},{"code":{"coding":[{"system":"http://terminology.hl7.org/CodeSystem/measure-population","code":"numerator","display":"Numerator"}]},"count":0},{"code":{"coding":[{"system":"http://terminology.hl7.org/CodeSystem/measure-population","code":"denominator-exception","display":"Denominator Exception"}]},"count":0}]}]},"request":{"method":"PUT","url":"MeasureReport/a816bd00-d6de-4eea-bdae-f560a4c3e35b"}}]}