{"resourceType":"Bundle","id":"tests-17d5aec6-089f-4b23-bfaf-71f7f4c7e4c5-bundle","type":"transaction","entry":[{"fullUrl":"https://madie.cms.gov/Patient/17d5aec6-089f-4b23-bfaf-71f7f4c7e4c5","resource":{"resourceType":"Patient","id":"17d5aec6-089f-4b23-bfaf-71f7f4c7e4c5","meta":{"profile":["http://hl7.org/fhir/us/qicore/StructureDefinition/qicore-patient"]},"text":{"status":"generated","div":"<div xmlns=\"http://www.w3.org/1999/xhtml\"><div class=\"hapiHeaderText\">ThrombinDayOfICU_2ICUs <b>NUMERPASS </b></div><table class=\"hapiPropertyTable\"><tbody><tr><td>Identifier</td><td>43ef95d6b3f73d13035a41554ca78585</td></tr><tr><td>Date of birth</td><td><span>03 March 1974</span></td></tr></tbody></table></div>"},"extension":[{"url":"http://hl7.org/fhir/us/core/StructureDefinition/us-core-race","extension":[{"url":"ombCategory","valueCoding":{"system":"urn:oid:2.16.840.1.113883.6.238","code":"1002-5","display":"American Indian or Alaska Native","userSelected":true}},{"url":"text","valueString":"American Indian or Alaska Native"}]},{"url":"http://hl7.org/fhir/us/core/StructureDefinition/us-core-ethnicity","extension":[{"url":"ombCategory","valueCoding":{"system":"urn:oid:2.16.840.1.113883.6.238","code":"2135-2","display":"Hispanic or Latino","userSelected":true}},{"url":"text","valueString":"Hispanic or Latino"}]}],"identifier":[{"type":{"coding":[{"system":"http://terminology.hl7.org/CodeSystem/v2-0203","code":"MR"}]},"system":"https://bonnie-fhir.healthit.gov/","value":"612e6ee902c62a011f2f0062"}],"active":true,"name":[{"use":"usual","family":"NUMERPass","given":["ThrombinDayOfICU2ICUs"]}],"gender":"female","birthDate":"1974-03-03"},"request":{"method":"PUT","url":"Patient/17d5aec6-089f-4b23-bfaf-71f7f4c7e4c5"}},{"fullUrl":"https://madie.cms.gov/Encounter/5ce8096fb848467c29eaf1c4","resource":{"resourceType":"Encounter","id":"25dcd3bd-18b7-4bfe-90ba-ba2ba86c9521","meta":{"profile":["http://hl7.org/fhir/us/qicore/StructureDefinition/qicore-encounter"]},"status":"finished","class":{"system":"http://terminology.hl7.org/CodeSystem/v3-ActCode","code":"EMER","display":"emergency"},"type":[{"coding":[{"system":"http://snomed.info/sct","code":"4525004"}]}],"subject":{"reference":"Patient/17d5aec6-089f-4b23-bfaf-71f7f4c7e4c5"},"period":{"start":"2025-12-02T08:00:00+00:00","end":"2025-12-04T07:15:00+00:00"},"length":{"value":2.0,"unit":"days"}},"request":{"method":"PUT","url":"Encounter/25dcd3bd-18b7-4bfe-90ba-ba2ba86c9521"}},{"fullUrl":"https://madie.cms.gov/Encounter/5ce8096fb848467c29eaf1c5","resource":{"resourceType":"Encounter","id":"3b108bce-32da-4546-95b3-4ead291dcd2d","meta":{"profile":["http://hl7.org/fhir/us/qicore/StructureDefinition/qicore-encounter"]},"status":"finished","class":{"system":"http://terminology.hl7.org/CodeSystem/v3-ActCode","code":"IMP","display":"inpatient encounter"},"type":[{"coding":[{"system":"http://snomed.info/sct","code":"8715000"}]}],"subject":{"reference":"Patient/17d5aec6-089f-4b23-bfaf-71f7f4c7e4c5"},"period":{"start":"2025-12-04T08:00:00+00:00","end":"2025-12-30T08:15:00+00:00"},"length":{"value":26.0,"unit":"days"},"location":[{"location":{"reference":"Location/Location-1"},"period":{"start":"2025-12-02T11:00:00.000+00:00","end":"2025-12-03T08:15:00.000+00:00"}},{"location":{"reference":"Location/intensive-care-unit-cc83"},"period":{"start":"2025-12-06T08:00:00.000+00:00","end":"2025-12-12T08:15:00.000+00:00"}}]},"request":{"method":"PUT","url":"Encounter/3b108bce-32da-4546-95b3-4ead291dcd2d"}},{"fullUrl":"https://madie.cms.gov/Coverage/5fa040f51c76ba66d9958fb8","resource":{"resourceType":"Coverage","id":"4948bf72-b6dc-40f9-af9b-2c09aa2c1ef8","status":"active","beneficiary":{"reference":"Patient/17d5aec6-089f-4b23-bfaf-71f7f4c7e4c5"},"period":{"start":"1974-03-03T08:00:00+00:00"},"payor":[{"reference":"Organization/806b0255-13cb-4f2b-9412-571554dd2169"}]},"request":{"method":"PUT","url":"Coverage/4948bf72-b6dc-40f9-af9b-2c09aa2c1ef8"}},{"fullUrl":"https://madie.cms.gov/MedicationAdministration/5ce8096fb848467c29eaf1c6","resource":{"resourceType":"MedicationAdministration","id":"98ae1f68-71ef-46ba-a378-9d96ae9068a2","meta":{"profile":["http://hl7.org/fhir/us/qicore/StructureDefinition/qicore-medicationadministration"]},"status":"completed","medicationCodeableConcept":{"coding":[{"system":"http://www.nlm.nih.gov/research/umls/rxnorm","code":"308351"}]},"subject":{"reference":"Patient/17d5aec6-089f-4b23-bfaf-71f7f4c7e4c5"},"effectivePeriod":{"start":"2025-12-06T11:30:00+00:00","end":"2025-12-06T11:45:00+00:00"}},"request":{"method":"PUT","url":"MedicationAdministration/98ae1f68-71ef-46ba-a378-9d96ae9068a2"}},{"fullUrl":"https://madie.cms.gov/Procedure/5ce8096fb848467c29eaf1c7","resource":{"resourceType":"Procedure","id":"8b5b7e65-092f-44ae-8965-969040c3b75b","meta":{"profile":["http://hl7.org/fhir/us/qicore/StructureDefinition/qicore-procedure"]},"extension":[{"url":"http://hl7.org/fhir/us/qicore/StructureDefinition/qicore-recorded","valueDateTime":"2012-12-04T09:35:00-04:00"}],"status":"completed","code":{"coding":[{"system":"http://snomed.info/sct","code":"18946005"}]},"subject":{"reference":"Patient/17d5aec6-089f-4b23-bfaf-71f7f4c7e4c5"},"performedPeriod":{"start":"2025-12-04T11:00:00+00:00","end":"2025-12-06T11:15:00+00:00"}},"request":{"method":"PUT","url":"Procedure/8b5b7e65-092f-44ae-8965-969040c3b75b"}},{"fullUrl":"https://madie.cms.gov/Location/intensive-care-unit-cc83","resource":{"resourceType":"Location","id":"1108604d-ed64-4334-8084-efe9276618a3","meta":{"profile":["http://hl7.org/fhir/us/qicore/StructureDefinition/qicore-location"]},"identifier":[{"use":"usual","system":"http://exampleoflocation.com","value":"B1-S.F2"}],"name":"Medical Surgical East, first floor","type":[{"coding":[{"system":"https://www.cdc.gov/nhsn/cdaportal/terminology/codesystem/hsloc.html","code":"1025-6","display":"Trauma Critical Care","userSelected":true}]}]},"request":{"method":"PUT","url":"Location/1108604d-ed64-4334-8084-efe9276618a3"}},{"fullUrl":"https://madie.cms.gov/Organization/123456","resource":{"resourceType":"Organization","id":"806b0255-13cb-4f2b-9412-571554dd2169","meta":{"profile":["http://hl7.org/fhir/us/qicore/StructureDefinition/qicore-organization"]},"identifier":[{"use":"temp","system":"urn:oid:2.16.840.1.113883.4.4","value":"21-3259825"}],"active":true,"type":[{"coding":[{"system":"http://terminology.hl7.org/CodeSystem/organization-type","code":"pay","display":"Payer"}]}],"name":"Blue Cross Blue Shield of Texas","telecom":[{"system":"phone","value":"(+1) 972-766-6900"}],"address":[{"use":"billing","type":"postal","line":["P.O. Box 660044"],"city":"Dallas","state":"TX","postalCode":"75266-0044","country":"USA"}]},"request":{"method":"PUT","url":"Organization/806b0255-13cb-4f2b-9412-571554dd2169"}},{"fullUrl":"https://madie.cms.gov/Practitioner/practitioner-123456","resource":{"resourceType":"Practitioner","id":"7ec2796d-64e6-4b55-aa81-53ab0e9444a1","identifier":[{"system":"http://hl7.org/fhir/sid/us-npi","value":"123456"}],"name":[{"family":"Evil","prefix":["Dr"]}]},"request":{"method":"PUT","url":"Practitioner/7ec2796d-64e6-4b55-aa81-53ab0e9444a1"}},{"fullUrl":"https://madie.cms.gov/MeasureReport/3bcbd255-5619-4213-9a15-4da42bcca12d","resource":{"resourceType":"MeasureReport","id":"3bcbd255-5619-4213-9a15-4da42bcca12d","meta":{"profile":["http://hl7.org/fhir/us/cqfmeasures/StructureDefinition/test-case-cqfm"]},"contained":[{"resourceType":"Parameters","id":"3a32e774-ffaa-454f-b04a-ca8745bfe024-parameters","parameter":[{"name":"subject","valueString":"17d5aec6-089f-4b23-bfaf-71f7f4c7e4c5"}]}],"extension":[{"url":"http://hl7.org/fhir/us/cqfmeasures/StructureDefinition/cqfm-inputParameters","valueReference":{"reference":"#3a32e774-ffaa-454f-b04a-ca8745bfe024-parameters"}},{"url":"http://hl7.org/fhir/us/cqfmeasures/StructureDefinition/cqfm-testCaseDescription","valueMarkdown":"2 ICU, one is in ED. meets IPP, meets Denominator, medication administered:Thrombin, Thrombin end<=1day after start of First ICU Admission during Inpatient.\n"}],"modifierExtension":[{"url":"http://hl7.org/fhir/us/cqfmeasures/StructureDefinition/cqfm-isTestCase","valueBoolean":true}],"status":"complete","type":"individual","measure":"https://madie.cms.gov/Measure/IntensiveCareUnitVenousThromboembolismProphylaxisFHIR","period":{"start":"2025-01-01","end":"2025-12-31"},"group":[{"population":[{"code":{"coding":[{"system":"http://terminology.hl7.org/CodeSystem/measure-population","code":"initial-population","display":"Initial Population"}]},"count":1},{"code":{"coding":[{"system":"http://terminology.hl7.org/CodeSystem/measure-population","code":"denominator","display":"Denominator"}]},"count":1},{"code":{"coding":[{"system":"http://terminology.hl7.org/CodeSystem/measure-population","code":"denominator-exclusion","display":"Denominator Exclusion"}]},"count":0},{"code":{"coding":[{"system":"http://terminology.hl7.org/CodeSystem/measure-population","code":"numerator","display":"Numerator"}]},"count":1},{"code":{"coding":[{"system":"http://terminology.hl7.org/CodeSystem/measure-population","code":"denominator-exception","display":"Denominator Exception"}]},"count":0}]}]},"request":{"method":"PUT","url":"MeasureReport/3bcbd255-5619-4213-9a15-4da42bcca12d"}}]}