{"resourceType":"Bundle","id":"tests-cbf21555-f64b-427a-b274-111b94523cf7-bundle","type":"transaction","entry":[{"fullUrl":"https://madie.cms.gov/Patient/cbf21555-f64b-427a-b274-111b94523cf7","resource":{"resourceType":"Patient","id":"cbf21555-f64b-427a-b274-111b94523cf7","meta":{"profile":["http://hl7.org/fhir/us/qicore/StructureDefinition/qicore-patient"]},"extension":[{"url":"http://hl7.org/fhir/us/core/StructureDefinition/us-core-race","extension":[{"url":"ombCategory","valueCoding":{"system":"urn:oid:2.16.840.1.113883.6.238","code":"1002-5","display":"American Indian or Alaska Native","userSelected":true}},{"url":"text","valueString":"American Indian or Alaska Native"}]},{"url":"http://hl7.org/fhir/us/core/StructureDefinition/us-core-ethnicity","extension":[{"url":"ombCategory","valueCoding":{"system":"urn:oid:2.16.840.1.113883.6.238","code":"2135-2","display":"Hispanic or Latino","userSelected":true}},{"url":"text","valueString":"Hispanic or Latino"}]}],"identifier":[{"type":{"coding":[{"system":"http://terminology.hl7.org/CodeSystem/v2-0203","code":"MR"}]},"system":"https://bonnie-fhir.healthit.gov/","value":"63231ae12a56ae63756a53ee"}],"name":[{"family":"DENOMPass","given":["EncounterWithOpioid"]}],"gender":"male","birthDate":"2006-12-31"},"request":{"method":"PUT","url":"Patient/cbf21555-f64b-427a-b274-111b94523cf7"}},{"fullUrl":"https://madie.cms.gov/Encounter/45ae0f67-cc5a-482f-9d18-22fd6a588705","resource":{"resourceType":"Encounter","id":"45ae0f67-cc5a-482f-9d18-22fd6a588705","meta":{"profile":["http://hl7.org/fhir/us/qicore/StructureDefinition/qicore-encounter"]},"status":"finished","class":{"system":"http://terminology.hl7.org/CodeSystem/v3-ActCode","code":"AMB","display":"ambulatory"},"type":[{"coding":[{"system":"http://snomed.info/sct","version":"2022-03","code":"183452005","display":"Emergency hospital admission (procedure)","userSelected":true}]}],"subject":{"reference":"Patient/cbf21555-f64b-427a-b274-111b94523cf7"},"period":{"start":"2026-01-01T00:01:00.000+00:00","end":"2026-01-05T00:30:00.000+00:00"}},"request":{"method":"PUT","url":"Encounter/45ae0f67-cc5a-482f-9d18-22fd6a588705"}},{"fullUrl":"https://madie.cms.gov/MedicationRequest/7177fbd8-b137-4158-b914-e2de7a454cd9","resource":{"resourceType":"MedicationRequest","id":"7177fbd8-b137-4158-b914-e2de7a454cd9","meta":{"profile":["http://hl7.org/fhir/us/qicore/StructureDefinition/qicore-medicationrequest"]},"status":"active","intent":"order","category":[{"coding":[{"system":"http://terminology.hl7.org/CodeSystem/medicationrequest-category","code":"discharge","display":"Discharge","userSelected":true}]}],"doNotPerform":false,"medicationCodeableConcept":{"coding":[{"system":"http://www.nlm.nih.gov/research/umls/rxnorm","version":"2022-08","code":"1014632","display":"acetaminophen 300 MG / oxycodone hydrochloride 7.5 MG Oral Tablet","userSelected":true}]},"subject":{"reference":"Patient/cbf21555-f64b-427a-b274-111b94523cf7"},"authoredOn":"2026-01-05T00:29:00.000+00:00","requester":{"reference":"Practitioner/f007","display":"Patrick Pump"}},"request":{"method":"PUT","url":"MedicationRequest/7177fbd8-b137-4158-b914-e2de7a454cd9"}},{"fullUrl":"https://madie.cms.gov/Coverage/9ab820b3-94cb-43d9-9db4-69b6e4454fe3","resource":{"resourceType":"Coverage","id":"9ab820b3-94cb-43d9-9db4-69b6e4454fe3","meta":{"profile":["http://hl7.org/fhir/us/qicore/StructureDefinition/qicore-coverage"]},"status":"active","beneficiary":{"reference":"Patient/cbf21555-f64b-427a-b274-111b94523cf7"},"payor":[{"reference":"Organization/5224cb12-ed64-4d6d-ab28-40a64f0800f1"}]},"request":{"method":"PUT","url":"Coverage/9ab820b3-94cb-43d9-9db4-69b6e4454fe3"}},{"fullUrl":"https://madie.cms.gov/Organization/7f26b8d8-f72d-488e-ac36-434f165b6ea3","resource":{"resourceType":"Organization","id":"5224cb12-ed64-4d6d-ab28-40a64f0800f1","meta":{"profile":["http://hl7.org/fhir/us/qicore/StructureDefinition/qicore-organization"]},"identifier":[{"use":"temp","system":"urn:oid:2.16.840.1.113883.4.4","value":"21-3259825"}],"active":true,"type":[{"coding":[{"system":"http://terminology.hl7.org/CodeSystem/organization-type","code":"pay","display":"Payer"}]}],"name":"Blue Cross Blue Shield of Texas","telecom":[{"system":"phone","value":"(+1) 972-766-6900"}],"address":[{"use":"billing","type":"postal","line":["P.O. Box 660044"],"city":"Dallas","state":"TX","postalCode":"75266-0044","country":"USA"}]},"request":{"method":"PUT","url":"Organization/5224cb12-ed64-4d6d-ab28-40a64f0800f1"}},{"fullUrl":"https://madie.cms.gov/MeasureReport/352776b1-3a55-462f-8f22-2852a0998f4f","resource":{"resourceType":"MeasureReport","id":"352776b1-3a55-462f-8f22-2852a0998f4f","meta":{"profile":["http://hl7.org/fhir/us/cqfmeasures/StructureDefinition/test-case-cqfm"]},"contained":[{"resourceType":"Parameters","id":"2446b132-6616-47e1-9952-dd66350e899e-parameters","parameter":[{"name":"subject","valueString":"cbf21555-f64b-427a-b274-111b94523cf7"}]}],"extension":[{"url":"http://hl7.org/fhir/us/cqfmeasures/StructureDefinition/cqfm-inputParameters","valueReference":{"reference":"#2446b132-6616-47e1-9952-dd66350e899e-parameters"}},{"url":"http://hl7.org/fhir/us/cqfmeasures/StructureDefinition/cqfm-testCaseDescription","valueMarkdown":"Encounter 01/01  at 00:01 - 1/5  @ 00:30, age 18, opioid prescribed  1/5 at00:29 just before discharge"}],"modifierExtension":[{"url":"http://hl7.org/fhir/us/cqfmeasures/StructureDefinition/cqfm-isTestCase","valueBoolean":true}],"status":"complete","type":"individual","measure":"https://madie.cms.gov/Measure/CMS506FHIRSafeUseofOpioids","period":{"start":"2026-01-01","end":"2026-12-31"},"group":[{"population":[{"code":{"coding":[{"system":"http://terminology.hl7.org/CodeSystem/measure-population","code":"initial-population","display":"Initial Population"}]},"count":1},{"code":{"coding":[{"system":"http://terminology.hl7.org/CodeSystem/measure-population","code":"denominator","display":"Denominator"}]},"count":1},{"code":{"coding":[{"system":"http://terminology.hl7.org/CodeSystem/measure-population","code":"denominator-exclusion","display":"Denominator Exclusion"}]},"count":0},{"code":{"coding":[{"system":"http://terminology.hl7.org/CodeSystem/measure-population","code":"numerator","display":"Numerator"}]},"count":0}]}]},"request":{"method":"PUT","url":"MeasureReport/352776b1-3a55-462f-8f22-2852a0998f4f"}}]}