{"resourceType":"Bundle","id":"tests-0a9ce53d-32ec-45be-b981-0fae3d3e91f5-bundle","type":"transaction","entry":[{"fullUrl":"https://madie.cms.gov/Patient/0a9ce53d-32ec-45be-b981-0fae3d3e91f5","resource":{"resourceType":"Patient","id":"0a9ce53d-32ec-45be-b981-0fae3d3e91f5","meta":{"profile":["http://hl7.org/fhir/us/qicore/StructureDefinition/qicore-patient"]},"extension":[{"url":"http://hl7.org/fhir/us/core/StructureDefinition/us-core-race","extension":[{"url":"ombCategory","valueCoding":{"system":"urn:oid:2.16.840.1.113883.6.238","code":"1002-5","display":"American Indian or Alaska Native","userSelected":true}},{"url":"text","valueString":"American Indian or Alaska Native"}]},{"url":"http://hl7.org/fhir/us/core/StructureDefinition/us-core-ethnicity","extension":[{"url":"ombCategory","valueCoding":{"system":"urn:oid:2.16.840.1.113883.6.238","code":"2135-2","display":"Hispanic or Latino","userSelected":true}},{"url":"text","valueString":"Hispanic or Latino"}]}],"identifier":[{"type":{"coding":[{"system":"http://terminology.hl7.org/CodeSystem/v2-0203","code":"MR"}]},"system":"https://bonnie-fhir.healthit.gov/","value":"63231ae12a56ae63756a53ee"}],"name":[{"family":"IPPFail","given":["EncounterAndOpioidBeforeMP"]}],"gender":"unknown","birthDate":"2006-12-31"},"request":{"method":"PUT","url":"Patient/0a9ce53d-32ec-45be-b981-0fae3d3e91f5"}},{"fullUrl":"https://madie.cms.gov/Encounter/78e6ba81-0576-4590-beab-7736734087c9","resource":{"resourceType":"Encounter","id":"78e6ba81-0576-4590-beab-7736734087c9","meta":{"profile":["http://hl7.org/fhir/us/qicore/StructureDefinition/qicore-encounter"]},"status":"finished","class":{"system":"http://terminology.hl7.org/CodeSystem/v3-ActCode","code":"AMB","display":"ambulatory"},"type":[{"coding":[{"system":"http://snomed.info/sct","version":"2022-03","code":"183452005","display":"Emergency hospital admission (procedure)","userSelected":true}]}],"subject":{"reference":"Patient/0a9ce53d-32ec-45be-b981-0fae3d3e91f5"},"period":{"start":"2024-12-30T00:01:00.000+00:00","end":"2024-12-31T23:59:00.000+00:00"}},"request":{"method":"PUT","url":"Encounter/78e6ba81-0576-4590-beab-7736734087c9"}},{"fullUrl":"https://madie.cms.gov/MedicationRequest/b1a78bab-c35b-4bce-82f8-8a39edbedd81","resource":{"resourceType":"MedicationRequest","id":"b1a78bab-c35b-4bce-82f8-8a39edbedd81","meta":{"profile":["http://hl7.org/fhir/us/qicore/StructureDefinition/qicore-medicationrequest"]},"status":"active","intent":"order","category":[{"coding":[{"system":"http://terminology.hl7.org/CodeSystem/medicationrequest-category","code":"discharge","display":"Discharge","userSelected":true}]}],"doNotPerform":false,"medicationCodeableConcept":{"coding":[{"system":"http://www.nlm.nih.gov/research/umls/rxnorm","version":"2022-08","code":"1014632","display":"acetaminophen 300 MG / oxycodone hydrochloride 7.5 MG Oral Tablet","userSelected":true}]},"subject":{"reference":"Patient/0a9ce53d-32ec-45be-b981-0fae3d3e91f5"},"authoredOn":"2024-12-31T23:59:00.000+00:00","requester":{"reference":"Practitioner/f007","display":"Patrick Pump"}},"request":{"method":"PUT","url":"MedicationRequest/b1a78bab-c35b-4bce-82f8-8a39edbedd81"}},{"fullUrl":"https://madie.cms.gov/Coverage/a965ee20-c27c-4475-a6fc-cea9b11d28ac","resource":{"resourceType":"Coverage","id":"a965ee20-c27c-4475-a6fc-cea9b11d28ac","meta":{"profile":["http://hl7.org/fhir/us/qicore/StructureDefinition/qicore-coverage"]},"status":"active","beneficiary":{"reference":"Patient/0a9ce53d-32ec-45be-b981-0fae3d3e91f5"},"payor":[{"reference":"Organization/f4907415-83c5-4eae-ab0b-cb63a840880d"}]},"request":{"method":"PUT","url":"Coverage/a965ee20-c27c-4475-a6fc-cea9b11d28ac"}},{"fullUrl":"https://madie.cms.gov/Organization/ae7627e3-10f9-42fc-b78b-bb906a64a679","resource":{"resourceType":"Organization","id":"f4907415-83c5-4eae-ab0b-cb63a840880d","meta":{"profile":["http://hl7.org/fhir/us/qicore/StructureDefinition/qicore-organization"]},"identifier":[{"use":"temp","system":"urn:oid:2.16.840.1.113883.4.4","value":"21-3259825"}],"active":true,"type":[{"coding":[{"system":"http://terminology.hl7.org/CodeSystem/organization-type","code":"pay","display":"Payer"}]}],"name":"Blue Cross Blue Shield of Texas","telecom":[{"system":"phone","value":"(+1) 972-766-6900"}],"address":[{"use":"billing","type":"postal","line":["P.O. Box 660044"],"city":"Dallas","state":"TX","postalCode":"75266-0044","country":"USA"}]},"request":{"method":"PUT","url":"Organization/f4907415-83c5-4eae-ab0b-cb63a840880d"}},{"fullUrl":"https://madie.cms.gov/MeasureReport/0a57af5c-d6c3-4c6e-8541-29f1e88f69d5","resource":{"resourceType":"MeasureReport","id":"0a57af5c-d6c3-4c6e-8541-29f1e88f69d5","meta":{"profile":["http://hl7.org/fhir/us/cqfmeasures/StructureDefinition/test-case-cqfm"]},"contained":[{"resourceType":"Parameters","id":"cc2f33cf-f937-4e68-a169-6101c12a4686-parameters","parameter":[{"name":"subject","valueString":"0a9ce53d-32ec-45be-b981-0fae3d3e91f5"}]}],"extension":[{"url":"http://hl7.org/fhir/us/cqfmeasures/StructureDefinition/cqfm-inputParameters","valueReference":{"reference":"#cc2f33cf-f937-4e68-a169-6101c12a4686-parameters"}},{"url":"http://hl7.org/fhir/us/cqfmeasures/StructureDefinition/cqfm-testCaseDescription","valueMarkdown":"Encounter ended last minute of year prior and Opioid prescribed (active) minutes before start of MP"}],"modifierExtension":[{"url":"http://hl7.org/fhir/us/cqfmeasures/StructureDefinition/cqfm-isTestCase","valueBoolean":true}],"status":"complete","type":"individual","measure":"https://madie.cms.gov/Measure/CMS506FHIRSafeUseofOpioids","period":{"start":"2026-01-01","end":"2026-12-31"},"group":[{"population":[{"code":{"coding":[{"system":"http://terminology.hl7.org/CodeSystem/measure-population","code":"initial-population","display":"Initial Population"}]},"count":0},{"code":{"coding":[{"system":"http://terminology.hl7.org/CodeSystem/measure-population","code":"denominator","display":"Denominator"}]},"count":0},{"code":{"coding":[{"system":"http://terminology.hl7.org/CodeSystem/measure-population","code":"denominator-exclusion","display":"Denominator Exclusion"}]},"count":0},{"code":{"coding":[{"system":"http://terminology.hl7.org/CodeSystem/measure-population","code":"numerator","display":"Numerator"}]},"count":0}]}]},"request":{"method":"PUT","url":"MeasureReport/0a57af5c-d6c3-4c6e-8541-29f1e88f69d5"}}]}