{"resourceType":"Bundle","id":"tests-a867ae5f-879a-4b8b-9215-dc83b55b442f-bundle","type":"transaction","entry":[{"fullUrl":"https://madie.cms.gov/Patient/a867ae5f-879a-4b8b-9215-dc83b55b442f","resource":{"resourceType":"Patient","id":"a867ae5f-879a-4b8b-9215-dc83b55b442f","meta":{"profile":["http://hl7.org/fhir/us/qicore/StructureDefinition/qicore-patient"]},"extension":[{"url":"http://hl7.org/fhir/us/core/StructureDefinition/us-core-race","extension":[{"url":"ombCategory","valueCoding":{"system":"urn:oid:2.16.840.1.113883.6.238","code":"1002-5","display":"American Indian or Alaska Native","userSelected":true}},{"url":"text","valueString":"American Indian or Alaska Native"}]},{"url":"http://hl7.org/fhir/us/core/StructureDefinition/us-core-ethnicity","extension":[{"url":"ombCategory","valueCoding":{"system":"urn:oid:2.16.840.1.113883.6.238","code":"2135-2","display":"Hispanic or Latino","userSelected":true}},{"url":"text","valueString":"Hispanic or Latino"}]}],"identifier":[{"type":{"coding":[{"system":"http://terminology.hl7.org/CodeSystem/v2-0203","code":"MR"}]},"system":"https://bonnie-fhir.healthit.gov/","value":"632332cf414ba67d4e1d1c2d"}],"name":[{"family":"DENEXPass","given":["OrderForPalliativeCare"]}],"gender":"male","birthDate":"2006-12-31"},"request":{"method":"PUT","url":"Patient/a867ae5f-879a-4b8b-9215-dc83b55b442f"}},{"fullUrl":"https://madie.cms.gov/Encounter/e1dc0343-bdf2-4b62-b7a7-b86ec1777da4","resource":{"resourceType":"Encounter","id":"e1dc0343-bdf2-4b62-b7a7-b86ec1777da4","meta":{"profile":["http://hl7.org/fhir/us/qicore/StructureDefinition/qicore-encounter"]},"status":"finished","class":{"system":"http://terminology.hl7.org/CodeSystem/v3-ActCode","code":"AMB","display":"ambulatory"},"type":[{"coding":[{"system":"http://snomed.info/sct","version":"2022-03","code":"183452005","display":"Emergency hospital admission (procedure)","userSelected":true}]}],"subject":{"reference":"Patient/a867ae5f-879a-4b8b-9215-dc83b55b442f"},"period":{"start":"2026-01-01T08:00:00.000+00:00","end":"2026-01-03T08:15:00.000+00:00"}},"request":{"method":"PUT","url":"Encounter/e1dc0343-bdf2-4b62-b7a7-b86ec1777da4"}},{"fullUrl":"https://madie.cms.gov/MedicationRequest/7e2ef137-32ea-484a-a64a-5eb080e59d7a","resource":{"resourceType":"MedicationRequest","id":"7e2ef137-32ea-484a-a64a-5eb080e59d7a","meta":{"profile":["http://hl7.org/fhir/us/qicore/StructureDefinition/qicore-medicationrequest"]},"status":"active","intent":"order","category":[{"coding":[{"system":"http://terminology.hl7.org/CodeSystem/medicationrequest-category","code":"discharge","display":"Discharge","userSelected":true}]}],"doNotPerform":false,"medicationCodeableConcept":{"coding":[{"system":"http://www.nlm.nih.gov/research/umls/rxnorm","code":"1298088","display":"flurazepam hydrochloride 15 MG Oral Capsule","userSelected":true}]},"subject":{"reference":"Patient/a867ae5f-879a-4b8b-9215-dc83b55b442f"},"authoredOn":"2026-01-03T08:05:00.000+00:00","requester":{"reference":"Practitioner/f007","display":"Patrick Pump"}},"request":{"method":"PUT","url":"MedicationRequest/7e2ef137-32ea-484a-a64a-5eb080e59d7a"}},{"fullUrl":"https://madie.cms.gov/ServiceRequest/ba8a882c-503e-4c15-9c75-594baf39c9eb","resource":{"resourceType":"ServiceRequest","id":"ba8a882c-503e-4c15-9c75-594baf39c9eb","meta":{"profile":["http://hl7.org/fhir/us/qicore/StructureDefinition/qicore-servicerequest"]},"status":"active","intent":"order","code":{"coding":[{"system":"http://snomed.info/sct","version":"2022-03","code":"103735009","display":"Palliative care (regime/therapy)","userSelected":true}]},"subject":{"reference":"Patient/a867ae5f-879a-4b8b-9215-dc83b55b442f"},"authoredOn":"2026-01-03T08:05:00.000+00:00"},"request":{"method":"PUT","url":"ServiceRequest/ba8a882c-503e-4c15-9c75-594baf39c9eb"}},{"fullUrl":"https://madie.cms.gov/Coverage/ed37aa4d-41ec-42a5-9760-70988ada1acc","resource":{"resourceType":"Coverage","id":"ed37aa4d-41ec-42a5-9760-70988ada1acc","meta":{"profile":["http://hl7.org/fhir/us/qicore/StructureDefinition/qicore-coverage"]},"status":"active","beneficiary":{"reference":"Patient/a867ae5f-879a-4b8b-9215-dc83b55b442f"},"payor":[{"reference":"Organization/3778262e-e084-4bb5-9a47-1a144735f786"}]},"request":{"method":"PUT","url":"Coverage/ed37aa4d-41ec-42a5-9760-70988ada1acc"}},{"fullUrl":"https://madie.cms.gov/Organization/f5b03cdf-56c0-40b6-b084-e245041456fa","resource":{"resourceType":"Organization","id":"3778262e-e084-4bb5-9a47-1a144735f786","meta":{"profile":["http://hl7.org/fhir/us/qicore/StructureDefinition/qicore-organization"]},"identifier":[{"use":"temp","system":"urn:oid:2.16.840.1.113883.4.4","value":"21-3259825"}],"active":true,"type":[{"coding":[{"system":"http://terminology.hl7.org/CodeSystem/organization-type","code":"pay","display":"Payer"}]}],"name":"Blue Cross Blue Shield of Texas","telecom":[{"system":"phone","value":"(+1) 972-766-6900"}],"address":[{"use":"billing","type":"postal","line":["P.O. Box 660044"],"city":"Dallas","state":"TX","postalCode":"75266-0044","country":"USA"}]},"request":{"method":"PUT","url":"Organization/3778262e-e084-4bb5-9a47-1a144735f786"}},{"fullUrl":"https://madie.cms.gov/MeasureReport/68e973b0-64c8-4783-9f37-0f217ddb8019","resource":{"resourceType":"MeasureReport","id":"68e973b0-64c8-4783-9f37-0f217ddb8019","meta":{"profile":["http://hl7.org/fhir/us/cqfmeasures/StructureDefinition/test-case-cqfm"]},"contained":[{"resourceType":"Parameters","id":"ced7a891-373e-490d-bfb5-9885cacc1d04-parameters","parameter":[{"name":"subject","valueString":"a867ae5f-879a-4b8b-9215-dc83b55b442f"}]}],"extension":[{"url":"http://hl7.org/fhir/us/cqfmeasures/StructureDefinition/cqfm-inputParameters","valueReference":{"reference":"#ced7a891-373e-490d-bfb5-9885cacc1d04-parameters"}},{"url":"http://hl7.org/fhir/us/cqfmeasures/StructureDefinition/cqfm-testCaseDescription","valueMarkdown":"Encounter 1/1 - 1/3, age 18 one day before MP, 1 opioid ordered at discharge, has order for palliative care on last day of enc"}],"modifierExtension":[{"url":"http://hl7.org/fhir/us/cqfmeasures/StructureDefinition/cqfm-isTestCase","valueBoolean":true}],"status":"complete","type":"individual","measure":"https://madie.cms.gov/Measure/CMS506FHIRSafeUseofOpioids","period":{"start":"2026-01-01","end":"2026-12-31"},"group":[{"population":[{"code":{"coding":[{"system":"http://terminology.hl7.org/CodeSystem/measure-population","code":"initial-population","display":"Initial Population"}]},"count":1},{"code":{"coding":[{"system":"http://terminology.hl7.org/CodeSystem/measure-population","code":"denominator","display":"Denominator"}]},"count":1},{"code":{"coding":[{"system":"http://terminology.hl7.org/CodeSystem/measure-population","code":"denominator-exclusion","display":"Denominator Exclusion"}]},"count":1},{"code":{"coding":[{"system":"http://terminology.hl7.org/CodeSystem/measure-population","code":"numerator","display":"Numerator"}]},"count":0}]}]},"request":{"method":"PUT","url":"MeasureReport/68e973b0-64c8-4783-9f37-0f217ddb8019"}}]}