{"resourceType":"Bundle","id":"tests-ab0bc2a3-9d3d-4c0a-88f4-5abc2b4499d6-bundle","type":"transaction","entry":[{"fullUrl":"https://madie.cms.gov/Patient/ab0bc2a3-9d3d-4c0a-88f4-5abc2b4499d6","resource":{"resourceType":"Patient","id":"ab0bc2a3-9d3d-4c0a-88f4-5abc2b4499d6","meta":{"profile":["http://hl7.org/fhir/us/qicore/StructureDefinition/qicore-patient"]},"extension":[{"url":"http://hl7.org/fhir/us/core/StructureDefinition/us-core-race","extension":[{"url":"ombCategory","valueCoding":{"system":"urn:oid:2.16.840.1.113883.6.238","code":"2028-9","display":"Asian","userSelected":true}},{"url":"text","valueString":"Asian"}]},{"url":"http://hl7.org/fhir/us/core/StructureDefinition/us-core-ethnicity","extension":[{"url":"ombCategory","valueCoding":{"system":"urn:oid:2.16.840.1.113883.6.238","code":"2186-5","display":"Not Hispanic or Latino","userSelected":true}},{"url":"text","valueString":"Not Hispanic or Latino"}]}],"identifier":[{"type":{"coding":[{"system":"http://terminology.hl7.org/CodeSystem/v2-0203","code":"MR"}]},"system":"https://bonnie-fhir.healthit.gov/","value":"63233350414ba67d4e1d1c2f"}],"name":[{"family":"DENEXFail","given":["CancerOneMinuteAfterEnc"]}],"gender":"female","birthDate":"1944-02-01"},"request":{"method":"PUT","url":"Patient/ab0bc2a3-9d3d-4c0a-88f4-5abc2b4499d6"}},{"fullUrl":"https://madie.cms.gov/Encounter/c501d42c-bce5-4dbd-b949-3581ec323610","resource":{"resourceType":"Encounter","id":"c501d42c-bce5-4dbd-b949-3581ec323610","meta":{"profile":["http://hl7.org/fhir/us/qicore/StructureDefinition/qicore-encounter"]},"status":"finished","class":{"system":"http://terminology.hl7.org/CodeSystem/v3-ActCode","code":"AMB","display":"ambulatory"},"type":[{"coding":[{"system":"http://snomed.info/sct","version":"2022-03","code":"183452005","display":"Emergency hospital admission (procedure)","userSelected":true}]}],"subject":{"reference":"Patient/ab0bc2a3-9d3d-4c0a-88f4-5abc2b4499d6"},"period":{"start":"2026-01-01T11:45:00.000+00:00","end":"2026-01-03T11:59:00.000+00:00"}},"request":{"method":"PUT","url":"Encounter/c501d42c-bce5-4dbd-b949-3581ec323610"}},{"fullUrl":"https://madie.cms.gov/MedicationRequest/d5580f81-0ac8-49f3-a730-af281b82b24e","resource":{"resourceType":"MedicationRequest","id":"d5580f81-0ac8-49f3-a730-af281b82b24e","meta":{"profile":["http://hl7.org/fhir/us/qicore/StructureDefinition/qicore-medicationrequest"]},"status":"active","intent":"order","category":[{"coding":[{"system":"http://terminology.hl7.org/CodeSystem/medicationrequest-category","code":"discharge","display":"Discharge","userSelected":true}]}],"doNotPerform":false,"medicationCodeableConcept":{"coding":[{"system":"http://www.nlm.nih.gov/research/umls/rxnorm","code":"2103192","display":"sufentanil 0.03 MG Sublingual Tablet","userSelected":true}]},"subject":{"reference":"Patient/ab0bc2a3-9d3d-4c0a-88f4-5abc2b4499d6"},"authoredOn":"2026-01-03T11:59:00.000+00:00","requester":{"reference":"Practitioner/f007","display":"Patrick Pump"}},"request":{"method":"PUT","url":"MedicationRequest/d5580f81-0ac8-49f3-a730-af281b82b24e"}},{"fullUrl":"https://madie.cms.gov/Condition/d3f9f5d6-bf6a-4b72-99cf-9dc44a46ff04","resource":{"resourceType":"Condition","id":"d3f9f5d6-bf6a-4b72-99cf-9dc44a46ff04","meta":{"profile":["http://hl7.org/fhir/us/qicore/StructureDefinition/qicore-condition"]},"clinicalStatus":{"coding":[{"system":"http://terminology.hl7.org/CodeSystem/condition-clinical","code":"active","display":"active","userSelected":true}]},"category":[{"coding":[{"system":"http://hl7.org/fhir/us/core/CodeSystem/condition-category","code":"health-concern","display":"Health Concern"},{"system":"http://snomed.info/sct","code":"439401001","display":"Diagnosis"}]}],"code":{"coding":[{"system":"http://snomed.info/sct","version":"2022-03","code":"100721000119109","display":"High grade astrocytoma of brain (disorder)","userSelected":true}]},"subject":{"reference":"Patient/ab0bc2a3-9d3d-4c0a-88f4-5abc2b4499d6"},"onsetPeriod":{"start":"2026-01-03T12:00:00.000+00:00"}},"request":{"method":"PUT","url":"Condition/d3f9f5d6-bf6a-4b72-99cf-9dc44a46ff04"}},{"fullUrl":"https://madie.cms.gov/Coverage/e5c45ec7-395b-4456-afd9-3af21ec39b07","resource":{"resourceType":"Coverage","id":"e5c45ec7-395b-4456-afd9-3af21ec39b07","meta":{"profile":["http://hl7.org/fhir/us/qicore/StructureDefinition/qicore-coverage"]},"status":"active","beneficiary":{"reference":"Patient/ab0bc2a3-9d3d-4c0a-88f4-5abc2b4499d6"},"payor":[{"reference":"Organization/a6c3e6fa-301e-4714-9d04-3dde9a7e7c49"}]},"request":{"method":"PUT","url":"Coverage/e5c45ec7-395b-4456-afd9-3af21ec39b07"}},{"fullUrl":"https://madie.cms.gov/Organization/49364e5a-b366-418d-90b1-3246e99b474b","resource":{"resourceType":"Organization","id":"a6c3e6fa-301e-4714-9d04-3dde9a7e7c49","meta":{"profile":["http://hl7.org/fhir/us/qicore/StructureDefinition/qicore-organization"]},"identifier":[{"use":"temp","system":"urn:oid:2.16.840.1.113883.4.4","value":"21-3259825"}],"active":true,"type":[{"coding":[{"system":"http://terminology.hl7.org/CodeSystem/organization-type","code":"pay","display":"Payer"}]}],"name":"Blue Cross Blue Shield of Texas","telecom":[{"system":"phone","value":"(+1) 972-766-6900"}],"address":[{"use":"billing","type":"postal","line":["P.O. Box 660044"],"city":"Dallas","state":"TX","postalCode":"75266-0044","country":"USA"}]},"request":{"method":"PUT","url":"Organization/a6c3e6fa-301e-4714-9d04-3dde9a7e7c49"}},{"fullUrl":"https://madie.cms.gov/MeasureReport/ef9a2cec-6952-4904-9445-18a09ed95dd4","resource":{"resourceType":"MeasureReport","id":"ef9a2cec-6952-4904-9445-18a09ed95dd4","meta":{"profile":["http://hl7.org/fhir/us/cqfmeasures/StructureDefinition/test-case-cqfm"]},"contained":[{"resourceType":"Parameters","id":"07bc2972-2ac2-4cdd-ad85-9ab56a062ea8-parameters","parameter":[{"name":"subject","valueString":"ab0bc2a3-9d3d-4c0a-88f4-5abc2b4499d6"}]}],"extension":[{"url":"http://hl7.org/fhir/us/cqfmeasures/StructureDefinition/cqfm-inputParameters","valueReference":{"reference":"#07bc2972-2ac2-4cdd-ad85-9ab56a062ea8-parameters"}},{"url":"http://hl7.org/fhir/us/cqfmeasures/StructureDefinition/cqfm-testCaseDescription","valueMarkdown":"Encounter first 3 days of MP, Opioid prescribed at discharge but cancer was not diagnoses until 1 minute after discharge from the encounter"}],"modifierExtension":[{"url":"http://hl7.org/fhir/us/cqfmeasures/StructureDefinition/cqfm-isTestCase","valueBoolean":true}],"status":"complete","type":"individual","measure":"https://madie.cms.gov/Measure/CMS506FHIRSafeUseofOpioids","period":{"start":"2026-01-01","end":"2026-12-31"},"group":[{"population":[{"code":{"coding":[{"system":"http://terminology.hl7.org/CodeSystem/measure-population","code":"initial-population","display":"Initial Population"}]},"count":1},{"code":{"coding":[{"system":"http://terminology.hl7.org/CodeSystem/measure-population","code":"denominator","display":"Denominator"}]},"count":1},{"code":{"coding":[{"system":"http://terminology.hl7.org/CodeSystem/measure-population","code":"denominator-exclusion","display":"Denominator Exclusion"}]},"count":0},{"code":{"coding":[{"system":"http://terminology.hl7.org/CodeSystem/measure-population","code":"numerator","display":"Numerator"}]},"count":0}]}]},"request":{"method":"PUT","url":"MeasureReport/ef9a2cec-6952-4904-9445-18a09ed95dd4"}}]}