{"resourceType":"Bundle","id":"tests-5e76e39a-8a30-4035-8d44-3362f4826aa7-bundle","type":"transaction","entry":[{"fullUrl":"https://madie.cms.gov/Patient/5e76e39a-8a30-4035-8d44-3362f4826aa7","resource":{"resourceType":"Patient","id":"5e76e39a-8a30-4035-8d44-3362f4826aa7","meta":{"profile":["http://hl7.org/fhir/us/qicore/StructureDefinition/qicore-patient"]},"extension":[{"url":"http://hl7.org/fhir/us/core/StructureDefinition/us-core-race","extension":[{"url":"ombCategory","valueCoding":{"system":"urn:oid:2.16.840.1.113883.6.238","code":"2028-9","display":"Asian","userSelected":true}},{"url":"text","valueString":"Asian"},{"url":"detailed","valueCoding":{"system":"urn:oid:2.16.840.1.113883.6.238","code":"1653-5","display":"Tohono O'Odham"}}]},{"url":"http://hl7.org/fhir/us/core/StructureDefinition/us-core-ethnicity","extension":[{"url":"ombCategory","valueCoding":{"system":"urn:oid:2.16.840.1.113883.6.238","code":"2186-5","display":"Not Hispanic or Latino","userSelected":true}},{"url":"text","valueString":"Not Hispanic or Latino"},{"url":"detailed","valueCoding":{"system":"urn:oid:2.16.840.1.113883.6.238","code":"2153-5","display":"Mexican American Indian"}}]}],"identifier":[{"type":{"coding":[{"system":"http://terminology.hl7.org/CodeSystem/v2-0203","code":"MR"}]},"system":"https://bonnie-fhir.healthit.gov/","value":"63233350414ba67d4e1d1c2f"}],"name":[{"family":"DENEXPass","given":["CancerProblemList"]}],"gender":"female","birthDate":"1944-02-01"},"request":{"method":"PUT","url":"Patient/5e76e39a-8a30-4035-8d44-3362f4826aa7"}},{"fullUrl":"https://madie.cms.gov/Encounter/969d7a63-b6c6-41be-8378-9c14772ae63b","resource":{"resourceType":"Encounter","id":"969d7a63-b6c6-41be-8378-9c14772ae63b","meta":{"profile":["http://hl7.org/fhir/us/qicore/StructureDefinition/qicore-encounter"]},"status":"finished","class":{"system":"http://terminology.hl7.org/CodeSystem/v3-ActCode","code":"AMB","display":"ambulatory"},"type":[{"coding":[{"system":"http://snomed.info/sct","version":"2022-03","code":"183452005","display":"Emergency hospital admission (procedure)","userSelected":true}]}],"subject":{"reference":"Patient/5e76e39a-8a30-4035-8d44-3362f4826aa7"},"period":{"start":"2026-01-01T11:45:00.000+00:00","end":"2026-01-03T11:59:00.000+00:00"}},"request":{"method":"PUT","url":"Encounter/969d7a63-b6c6-41be-8378-9c14772ae63b"}},{"fullUrl":"https://madie.cms.gov/MedicationRequest/2179e9d9-50b1-44c4-ae94-362e4bfe7f18","resource":{"resourceType":"MedicationRequest","id":"2179e9d9-50b1-44c4-ae94-362e4bfe7f18","meta":{"profile":["http://hl7.org/fhir/us/qicore/StructureDefinition/qicore-medicationrequest"]},"status":"completed","intent":"order","category":[{"coding":[{"system":"http://terminology.hl7.org/CodeSystem/medicationrequest-category","code":"discharge","display":"Discharge","userSelected":true}]}],"doNotPerform":false,"medicationCodeableConcept":{"coding":[{"system":"http://www.nlm.nih.gov/research/umls/rxnorm","code":"2103192","display":"sufentanil 0.03 MG Sublingual Tablet","userSelected":true}]},"subject":{"reference":"Patient/5e76e39a-8a30-4035-8d44-3362f4826aa7"},"authoredOn":"2026-01-03T11:59:00.000+00:00","requester":{"reference":"Practitioner/f007","display":"Patrick Pump"}},"request":{"method":"PUT","url":"MedicationRequest/2179e9d9-50b1-44c4-ae94-362e4bfe7f18"}},{"fullUrl":"https://madie.cms.gov/Condition/92e3ce6e-b568-4a1c-8633-4b20c996efe9","resource":{"resourceType":"Condition","id":"92e3ce6e-b568-4a1c-8633-4b20c996efe9","meta":{"profile":["http://hl7.org/fhir/us/qicore/StructureDefinition/qicore-condition"]},"clinicalStatus":{"coding":[{"system":"http://terminology.hl7.org/CodeSystem/condition-clinical","code":"active","display":"active","userSelected":true}]},"category":[{"coding":[{"system":"http://terminology.hl7.org/CodeSystem/condition-category","code":"problem-list-item","display":"Problem List Item"},{"system":"http://snomed.info/sct","code":"439401001","display":"Diagnosis"}]}],"code":{"coding":[{"system":"http://snomed.info/sct","version":"2022-03","code":"788891004","display":"Chronic pain after cancer treatment (finding)","userSelected":true}]},"subject":{"reference":"Patient/5e76e39a-8a30-4035-8d44-3362f4826aa7"},"onsetPeriod":{"start":"2025-12-31T08:00:00.000+00:00","end":"2025-12-31T08:00:00.000+00:00"}},"request":{"method":"PUT","url":"Condition/92e3ce6e-b568-4a1c-8633-4b20c996efe9"}},{"fullUrl":"https://madie.cms.gov/Coverage/b84587c2-e238-4492-93b3-8e1f4b170472","resource":{"resourceType":"Coverage","id":"b84587c2-e238-4492-93b3-8e1f4b170472","meta":{"profile":["http://hl7.org/fhir/us/qicore/StructureDefinition/qicore-coverage"]},"status":"active","beneficiary":{"reference":"Patient/5e76e39a-8a30-4035-8d44-3362f4826aa7"},"payor":[{"reference":"Organization/33ead57e-5e04-40e4-95ea-bc3cdbd58917"}]},"request":{"method":"PUT","url":"Coverage/b84587c2-e238-4492-93b3-8e1f4b170472"}},{"fullUrl":"https://madie.cms.gov/Organization/1adb24ad-3654-43ee-b6e8-746b4ef2ae3f","resource":{"resourceType":"Organization","id":"33ead57e-5e04-40e4-95ea-bc3cdbd58917","meta":{"profile":["http://hl7.org/fhir/us/qicore/StructureDefinition/qicore-organization"]},"identifier":[{"use":"temp","system":"urn:oid:2.16.840.1.113883.4.4","value":"21-3259825"}],"active":true,"type":[{"coding":[{"system":"http://terminology.hl7.org/CodeSystem/organization-type","code":"pay","display":"Payer"}]}],"name":"Blue Cross Blue Shield of Texas","telecom":[{"system":"phone","value":"(+1) 972-766-6900"}],"address":[{"use":"billing","type":"postal","line":["P.O. Box 660044"],"city":"Dallas","state":"TX","postalCode":"75266-0044","country":"USA"}]},"request":{"method":"PUT","url":"Organization/33ead57e-5e04-40e4-95ea-bc3cdbd58917"}},{"fullUrl":"https://madie.cms.gov/MeasureReport/457e5278-2a4a-45e4-b7af-04760ae2be6a","resource":{"resourceType":"MeasureReport","id":"457e5278-2a4a-45e4-b7af-04760ae2be6a","meta":{"profile":["http://hl7.org/fhir/us/cqfmeasures/StructureDefinition/test-case-cqfm"]},"contained":[{"resourceType":"Parameters","id":"a6512f15-e59a-448e-ac32-3f864caa001d-parameters","parameter":[{"name":"subject","valueString":"5e76e39a-8a30-4035-8d44-3362f4826aa7"}]}],"extension":[{"url":"http://hl7.org/fhir/us/cqfmeasures/StructureDefinition/cqfm-inputParameters","valueReference":{"reference":"#a6512f15-e59a-448e-ac32-3f864caa001d-parameters"}},{"url":"http://hl7.org/fhir/us/cqfmeasures/StructureDefinition/cqfm-testCaseDescription","valueMarkdown":"Encounter 1/1 - 1/3 , age 18, 1 opioid completed at dc , has cancer that started last day of prior year (onsetPeriod, start and end)"}],"modifierExtension":[{"url":"http://hl7.org/fhir/us/cqfmeasures/StructureDefinition/cqfm-isTestCase","valueBoolean":true}],"status":"complete","type":"individual","measure":"https://madie.cms.gov/Measure/CMS506FHIRSafeUseofOpioids","period":{"start":"2026-01-01","end":"2026-12-31"},"group":[{"population":[{"code":{"coding":[{"system":"http://terminology.hl7.org/CodeSystem/measure-population","code":"initial-population","display":"Initial Population"}]},"count":1},{"code":{"coding":[{"system":"http://terminology.hl7.org/CodeSystem/measure-population","code":"denominator","display":"Denominator"}]},"count":1},{"code":{"coding":[{"system":"http://terminology.hl7.org/CodeSystem/measure-population","code":"denominator-exclusion","display":"Denominator Exclusion"}]},"count":1},{"code":{"coding":[{"system":"http://terminology.hl7.org/CodeSystem/measure-population","code":"numerator","display":"Numerator"}]},"count":0}]}]},"request":{"method":"PUT","url":"MeasureReport/457e5278-2a4a-45e4-b7af-04760ae2be6a"}}]}