{"resourceType":"Bundle","id":"tests-6bf6194c-6151-4cbe-8860-52d5566863f3-bundle","type":"transaction","entry":[{"fullUrl":"https://madie.cms.gov/Patient/6bf6194c-6151-4cbe-8860-52d5566863f3","resource":{"resourceType":"Patient","id":"6bf6194c-6151-4cbe-8860-52d5566863f3","meta":{"profile":["http://hl7.org/fhir/us/qicore/StructureDefinition/qicore-patient"]},"extension":[{"url":"http://hl7.org/fhir/us/core/StructureDefinition/us-core-race","extension":[{"url":"ombCategory","valueCoding":{"system":"urn:oid:2.16.840.1.113883.6.238","code":"1002-5","display":"American Indian or Alaska Native","userSelected":true}},{"url":"text","valueString":"American Indian or Alaska Native"}]},{"url":"http://hl7.org/fhir/us/core/StructureDefinition/us-core-ethnicity","extension":[{"url":"ombCategory","valueCoding":{"system":"urn:oid:2.16.840.1.113883.6.238","code":"2135-2","display":"Hispanic or Latino","userSelected":true}},{"url":"text","valueString":"Hispanic or Latino"}]}],"identifier":[{"type":{"coding":[{"system":"http://terminology.hl7.org/CodeSystem/v2-0203","code":"MR"}]},"system":"https://bonnie-fhir.healthit.gov/","value":"64da783e2ac64e40260ff323"}],"name":[{"family":"DENEXPass","given":["EDInptPalliativeCare"]}],"gender":"male","birthDate":"2005-02-01"},"request":{"method":"PUT","url":"Patient/6bf6194c-6151-4cbe-8860-52d5566863f3"}},{"fullUrl":"https://madie.cms.gov/Encounter/7d1303bf-2a07-4fdc-9b1f-b8f47d3b5336","resource":{"resourceType":"Encounter","id":"7d1303bf-2a07-4fdc-9b1f-b8f47d3b5336","meta":{"profile":["http://hl7.org/fhir/us/qicore/StructureDefinition/qicore-encounter"]},"status":"finished","class":{"system":"http://terminology.hl7.org/CodeSystem/v3-ActCode","code":"AMB","display":"ambulatory"},"type":[{"coding":[{"system":"http://snomed.info/sct","version":"2022-03","code":"183452005","display":"Emergency hospital admission (procedure)","userSelected":true}]}],"subject":{"reference":"Patient/6bf6194c-6151-4cbe-8860-52d5566863f3"},"period":{"start":"2026-12-28T08:00:00.000+00:00","end":"2026-12-31T23:59:00.000+00:00"}},"request":{"method":"PUT","url":"Encounter/7d1303bf-2a07-4fdc-9b1f-b8f47d3b5336"}},{"fullUrl":"https://madie.cms.gov/MedicationRequest/109a4f81-0105-4cb7-86c1-40ee91da11f0","resource":{"resourceType":"MedicationRequest","id":"109a4f81-0105-4cb7-86c1-40ee91da11f0","meta":{"profile":["http://hl7.org/fhir/us/qicore/StructureDefinition/qicore-medicationrequest"]},"status":"completed","intent":"order","category":[{"coding":[{"system":"http://terminology.hl7.org/CodeSystem/medicationrequest-category","code":"discharge","display":"Discharge","userSelected":true}]}],"medicationCodeableConcept":{"coding":[{"system":"http://www.nlm.nih.gov/research/umls/rxnorm","code":"1298088","display":"flurazepam hydrochloride 15 MG Oral Capsule","userSelected":true}]},"subject":{"reference":"Patient/6bf6194c-6151-4cbe-8860-52d5566863f3"},"authoredOn":"2026-12-31T12:58:00.000+00:00","requester":{"reference":"Practitioner/123456"}},"request":{"method":"PUT","url":"MedicationRequest/109a4f81-0105-4cb7-86c1-40ee91da11f0"}},{"fullUrl":"https://madie.cms.gov/Procedure/dddda3f3-0d35-4b57-ba59-f15042fc897e","resource":{"resourceType":"Procedure","id":"dddda3f3-0d35-4b57-ba59-f15042fc897e","meta":{"profile":["http://hl7.org/fhir/us/qicore/StructureDefinition/qicore-procedure"]},"extension":[{"url":"http://hl7.org/fhir/us/qicore/StructureDefinition/qicore-recorded","valueDateTime":"2026-12-29T09:00:00.000+00:00"}],"status":"completed","code":{"coding":[{"system":"http://snomed.info/sct","version":"2022-03","code":"103735009","display":"Palliative care (regime/therapy)","userSelected":true}]},"subject":{"reference":"Patient/6bf6194c-6151-4cbe-8860-52d5566863f3"},"performedDateTime":"2026-12-29T10:00:00.000+00:00"},"request":{"method":"PUT","url":"Procedure/dddda3f3-0d35-4b57-ba59-f15042fc897e"}},{"fullUrl":"https://madie.cms.gov/ServiceRequest/8ed63791-3ec8-4a16-8211-062f90dcf61f","resource":{"resourceType":"ServiceRequest","id":"8ed63791-3ec8-4a16-8211-062f90dcf61f","meta":{"profile":["http://hl7.org/fhir/us/qicore/StructureDefinition/qicore-servicerequest"]},"status":"active","intent":"order","code":{"coding":[{"system":"http://snomed.info/sct","version":"2022-03","code":"103735009","display":"Palliative care (regime/therapy)","userSelected":true}]},"subject":{"reference":"Patient/6bf6194c-6151-4cbe-8860-52d5566863f3"},"authoredOn":"2026-12-28T01:00:00.000+00:00"},"request":{"method":"PUT","url":"ServiceRequest/8ed63791-3ec8-4a16-8211-062f90dcf61f"}},{"fullUrl":"https://madie.cms.gov/Encounter/b24a1217-a064-4de3-a63c-5ca205959fd8","resource":{"resourceType":"Encounter","id":"b24a1217-a064-4de3-a63c-5ca205959fd8","meta":{"profile":["http://hl7.org/fhir/us/qicore/StructureDefinition/qicore-encounter"]},"status":"finished","class":{"system":"http://terminology.hl7.org/CodeSystem/v3-ActCode","code":"AMB","display":"ambulatory"},"type":[{"coding":[{"system":"http://snomed.info/sct","version":"2022-03","code":"4525004","display":"Emergency department patient visit (procedure)","userSelected":true}]}],"subject":{"reference":"Patient/6bf6194c-6151-4cbe-8860-52d5566863f3"},"period":{"start":"2026-12-28T04:00:00.000+00:00","end":"2026-12-28T08:00:00.000+00:00"}},"request":{"method":"PUT","url":"Encounter/b24a1217-a064-4de3-a63c-5ca205959fd8"}},{"fullUrl":"https://madie.cms.gov/Coverage/1c500094-6fb7-4e53-842b-527790d0ff41","resource":{"resourceType":"Coverage","id":"1c500094-6fb7-4e53-842b-527790d0ff41","meta":{"profile":["http://hl7.org/fhir/us/qicore/StructureDefinition/qicore-coverage"]},"status":"active","beneficiary":{"reference":"Patient/6bf6194c-6151-4cbe-8860-52d5566863f3"},"payor":[{"reference":"Organization/890316dc-a4ad-43b4-ba6f-9fb9e6eca282"}]},"request":{"method":"PUT","url":"Coverage/1c500094-6fb7-4e53-842b-527790d0ff41"}},{"fullUrl":"https://madie.cms.gov/Organization/db82a126-e4df-437e-993c-09f7e4653311","resource":{"resourceType":"Organization","id":"890316dc-a4ad-43b4-ba6f-9fb9e6eca282","meta":{"profile":["http://hl7.org/fhir/us/qicore/StructureDefinition/qicore-organization"]},"identifier":[{"use":"temp","system":"urn:oid:2.16.840.1.113883.4.4","value":"21-3259825"}],"active":true,"type":[{"coding":[{"system":"http://terminology.hl7.org/CodeSystem/organization-type","code":"pay","display":"Payer"}]}],"name":"Blue Cross Blue Shield of Texas","telecom":[{"system":"phone","value":"(+1) 972-766-6900"}],"address":[{"use":"billing","type":"postal","line":["P.O. Box 660044"],"city":"Dallas","state":"TX","postalCode":"75266-0044","country":"USA"}]},"request":{"method":"PUT","url":"Organization/890316dc-a4ad-43b4-ba6f-9fb9e6eca282"}},{"fullUrl":"https://madie.cms.gov/Practitioner/e7b7541c-c9d2-4688-bb4d-5c036273424e","resource":{"resourceType":"Practitioner","id":"e7b7541c-c9d2-4688-bb4d-5c036273424e","meta":{"profile":["http://hl7.org/fhir/us/qicore/StructureDefinition/qicore-practitioner"]},"identifier":[{"system":"http://hl7.org/fhir/sid/us-npi","value":"123456"}],"name":[{"family":"Evil","prefix":["Dr"]}]},"request":{"method":"PUT","url":"Practitioner/e7b7541c-c9d2-4688-bb4d-5c036273424e"}},{"fullUrl":"https://madie.cms.gov/MeasureReport/dafb8cca-0a86-416e-a328-5be8fccd0761","resource":{"resourceType":"MeasureReport","id":"dafb8cca-0a86-416e-a328-5be8fccd0761","meta":{"profile":["http://hl7.org/fhir/us/cqfmeasures/StructureDefinition/test-case-cqfm"]},"contained":[{"resourceType":"Parameters","id":"33b6f103-8640-45b2-9914-3823194409e3-parameters","parameter":[{"name":"subject","valueString":"6bf6194c-6151-4cbe-8860-52d5566863f3"}]}],"extension":[{"url":"http://hl7.org/fhir/us/cqfmeasures/StructureDefinition/cqfm-inputParameters","valueReference":{"reference":"#33b6f103-8640-45b2-9914-3823194409e3-parameters"}},{"url":"http://hl7.org/fhir/us/cqfmeasures/StructureDefinition/cqfm-testCaseDescription","valueMarkdown":"ED enc 12/28 0400-0800; inpt enc., 12/28 0800- 12/31  2359; benzo order at discharge, palliative care order 12/28 and palliative care performed 12/29"}],"modifierExtension":[{"url":"http://hl7.org/fhir/us/cqfmeasures/StructureDefinition/cqfm-isTestCase","valueBoolean":true}],"status":"complete","type":"individual","measure":"https://madie.cms.gov/Measure/CMS506FHIRSafeUseofOpioids","period":{"start":"2026-01-01","end":"2026-12-31"},"group":[{"population":[{"code":{"coding":[{"system":"http://terminology.hl7.org/CodeSystem/measure-population","code":"initial-population","display":"Initial Population"}]},"count":1},{"code":{"coding":[{"system":"http://terminology.hl7.org/CodeSystem/measure-population","code":"denominator","display":"Denominator"}]},"count":1},{"code":{"coding":[{"system":"http://terminology.hl7.org/CodeSystem/measure-population","code":"denominator-exclusion","display":"Denominator Exclusion"}]},"count":1},{"code":{"coding":[{"system":"http://terminology.hl7.org/CodeSystem/measure-population","code":"numerator","display":"Numerator"}]},"count":0}]}]},"request":{"method":"PUT","url":"MeasureReport/dafb8cca-0a86-416e-a328-5be8fccd0761"}}]}