{"resourceType":"Bundle","id":"tests-6b3b4271-63af-4a6b-a724-7009935b8820-bundle","type":"transaction","entry":[{"fullUrl":"https://madie.cms.gov/Patient/6b3b4271-63af-4a6b-a724-7009935b8820","resource":{"resourceType":"Patient","id":"6b3b4271-63af-4a6b-a724-7009935b8820","meta":{"profile":["http://hl7.org/fhir/us/qicore/StructureDefinition/qicore-patient"]},"extension":[{"url":"http://hl7.org/fhir/us/core/StructureDefinition/us-core-race","extension":[{"url":"ombCategory","valueCoding":{"system":"urn:oid:2.16.840.1.113883.6.238","code":"2106-3","display":"White","userSelected":true}},{"url":"text","valueString":"White"},{"url":"detailed","valueCoding":{"system":"urn:oid:2.16.840.1.113883.6.238","code":"1653-5","display":"Tohono O'Odham"}}]},{"url":"http://hl7.org/fhir/us/core/StructureDefinition/us-core-ethnicity","extension":[{"url":"ombCategory","valueCoding":{"system":"urn:oid:2.16.840.1.113883.6.238","code":"2186-5","display":"Not Hispanic or Latino","userSelected":true}},{"url":"text","valueString":"Not Hispanic or Latino"},{"url":"detailed","valueCoding":{"system":"urn:oid:2.16.840.1.113883.6.238","code":"2153-5","display":"Mexican American Indian"}}]}],"identifier":[{"type":{"coding":[{"system":"http://terminology.hl7.org/CodeSystem/v2-0203","code":"MR"}]},"system":"https://bonnie-fhir.healthit.gov/","value":"63233532414ba67d4e1d1c33"}],"name":[{"family":"DENEXPass","given":["PatientExpired"]}],"gender":"male","birthDate":"2006-02-01"},"request":{"method":"PUT","url":"Patient/6b3b4271-63af-4a6b-a724-7009935b8820"}},{"fullUrl":"https://madie.cms.gov/Encounter/ae79a6b7-e8c6-4e0a-a52b-0aa445733a05","resource":{"resourceType":"Encounter","id":"ae79a6b7-e8c6-4e0a-a52b-0aa445733a05","meta":{"profile":["http://hl7.org/fhir/us/qicore/StructureDefinition/qicore-encounter"]},"status":"finished","class":{"system":"http://terminology.hl7.org/CodeSystem/v3-ActCode","code":"AMB","display":"ambulatory"},"type":[{"coding":[{"system":"http://snomed.info/sct","version":"2022-03","code":"183452005","display":"Emergency hospital admission (procedure)","userSelected":true}]}],"subject":{"reference":"Patient/6b3b4271-63af-4a6b-a724-7009935b8820"},"period":{"start":"2026-01-01T23:45:00.000+00:00","end":"2026-01-05T23:59:00.000+00:00"},"hospitalization":{"dischargeDisposition":{"coding":[{"system":"http://snomed.info/sct","code":"371828006","display":"Patient deceased during stay (discharge status = dead) (finding)","userSelected":true}]}}},"request":{"method":"PUT","url":"Encounter/ae79a6b7-e8c6-4e0a-a52b-0aa445733a05"}},{"fullUrl":"https://madie.cms.gov/MedicationRequest/dc9f7d2e-23a4-4fbf-a3db-fb933ecd7d4f","resource":{"resourceType":"MedicationRequest","id":"dc9f7d2e-23a4-4fbf-a3db-fb933ecd7d4f","meta":{"profile":["http://hl7.org/fhir/us/qicore/StructureDefinition/qicore-medicationrequest"]},"status":"active","intent":"order","category":[{"coding":[{"system":"http://terminology.hl7.org/CodeSystem/medicationrequest-category","code":"discharge","display":"Discharge","userSelected":true}]}],"doNotPerform":false,"medicationCodeableConcept":{"coding":[{"system":"http://www.nlm.nih.gov/research/umls/rxnorm","code":"1049604","display":"oxycodone hydrochloride 1 MG/ML Oral Solution","userSelected":true}]},"subject":{"reference":"Patient/6b3b4271-63af-4a6b-a724-7009935b8820"},"authoredOn":"2026-01-01T23:50:00.000+00:00","requester":{"reference":"Practitioner/f007","display":"Patrick Pump"}},"request":{"method":"PUT","url":"MedicationRequest/dc9f7d2e-23a4-4fbf-a3db-fb933ecd7d4f"}},{"fullUrl":"https://madie.cms.gov/Coverage/564eb90b-82a9-4943-ad17-26375cc803d2","resource":{"resourceType":"Coverage","id":"564eb90b-82a9-4943-ad17-26375cc803d2","meta":{"profile":["http://hl7.org/fhir/us/qicore/StructureDefinition/qicore-coverage"]},"status":"active","type":{"coding":[{"system":"https://nahdo.org/sopt","code":"1","display":"MEDICARE"}]},"beneficiary":{"reference":"Patient/6b3b4271-63af-4a6b-a724-7009935b8820"},"period":{"start":"2024-12-01T00:00:00+00:00"},"payor":[{"reference":"Organization/f4907415-83c5-4eae-ab0b-cb63a840880d"}]},"request":{"method":"PUT","url":"Coverage/564eb90b-82a9-4943-ad17-26375cc803d2"}},{"fullUrl":"https://madie.cms.gov/Organization/49d1824d-ea9d-4311-aeb3-48990a7da161","resource":{"resourceType":"Organization","id":"f4907415-83c5-4eae-ab0b-cb63a840880d","meta":{"profile":["http://hl7.org/fhir/us/qicore/StructureDefinition/qicore-organization"]},"identifier":[{"use":"temp","system":"urn:oid:2.16.840.1.113883.4.4","value":"21-3259825"}],"active":true,"type":[{"coding":[{"system":"http://terminology.hl7.org/CodeSystem/organization-type","code":"pay","display":"Payer"}]}],"name":"Blue Cross Blue Shield of Texas","telecom":[{"system":"phone","value":"(+1) 972-766-6900"}],"address":[{"use":"billing","type":"postal","line":["P.O. Box 660044"],"city":"Dallas","state":"TX","postalCode":"75266-0044","country":"USA"}]},"request":{"method":"PUT","url":"Organization/f4907415-83c5-4eae-ab0b-cb63a840880d"}},{"fullUrl":"https://madie.cms.gov/MeasureReport/6d967567-0f4f-4832-9761-9209dcc8b962","resource":{"resourceType":"MeasureReport","id":"6d967567-0f4f-4832-9761-9209dcc8b962","meta":{"profile":["http://hl7.org/fhir/us/cqfmeasures/StructureDefinition/test-case-cqfm"]},"contained":[{"resourceType":"Parameters","id":"8c64ab1a-7a50-4ebe-bbbe-2ce6b69d4c7a-parameters","parameter":[{"name":"subject","valueString":"6b3b4271-63af-4a6b-a724-7009935b8820"}]}],"extension":[{"url":"http://hl7.org/fhir/us/cqfmeasures/StructureDefinition/cqfm-inputParameters","valueReference":{"reference":"#8c64ab1a-7a50-4ebe-bbbe-2ce6b69d4c7a-parameters"}},{"url":"http://hl7.org/fhir/us/cqfmeasures/StructureDefinition/cqfm-testCaseDescription","valueMarkdown":"Encounter 1/1 - 1/5, age 18, opioid at discharge, expired"}],"modifierExtension":[{"url":"http://hl7.org/fhir/us/cqfmeasures/StructureDefinition/cqfm-isTestCase","valueBoolean":true}],"status":"complete","type":"individual","measure":"https://madie.cms.gov/Measure/CMS506FHIRSafeUseofOpioids","period":{"start":"2026-01-01","end":"2026-12-31"},"group":[{"population":[{"code":{"coding":[{"system":"http://terminology.hl7.org/CodeSystem/measure-population","code":"initial-population","display":"Initial Population"}]},"count":1},{"code":{"coding":[{"system":"http://terminology.hl7.org/CodeSystem/measure-population","code":"denominator","display":"Denominator"}]},"count":1},{"code":{"coding":[{"system":"http://terminology.hl7.org/CodeSystem/measure-population","code":"denominator-exclusion","display":"Denominator Exclusion"}]},"count":1},{"code":{"coding":[{"system":"http://terminology.hl7.org/CodeSystem/measure-population","code":"numerator","display":"Numerator"}]},"count":0}]}]},"request":{"method":"PUT","url":"MeasureReport/6d967567-0f4f-4832-9761-9209dcc8b962"}}]}