{"resourceType":"Bundle","id":"tests-c274077a-5842-4b93-afeb-b4cb17d680bb-bundle","type":"transaction","entry":[{"fullUrl":"https://madie.cms.gov/Patient/c274077a-5842-4b93-afeb-b4cb17d680bb","resource":{"resourceType":"Patient","id":"c274077a-5842-4b93-afeb-b4cb17d680bb","meta":{"profile":["http://hl7.org/fhir/us/qicore/StructureDefinition/qicore-patient"]},"extension":[{"url":"http://hl7.org/fhir/us/core/StructureDefinition/us-core-race","extension":[{"url":"ombCategory","valueCoding":{"system":"urn:oid:2.16.840.1.113883.6.238","code":"1002-5","display":"American Indian or Alaska Native","userSelected":true}},{"url":"text","valueString":"American Indian or Alaska Native"}]},{"url":"http://hl7.org/fhir/us/core/StructureDefinition/us-core-ethnicity","extension":[{"url":"ombCategory","valueCoding":{"system":"urn:oid:2.16.840.1.113883.6.238","code":"2135-2","display":"Hispanic or Latino","userSelected":true}},{"url":"text","valueString":"Hispanic or Latino"}]}],"identifier":[{"type":{"coding":[{"system":"http://terminology.hl7.org/CodeSystem/v2-0203","code":"MR"}]},"system":"https://bonnie-fhir.healthit.gov/","value":"63233710414ba67d4e1d1c37"}],"name":[{"family":"DENOMFail","given":["Age17Years11Months"]}],"gender":"male","birthDate":"2006-09-16"},"request":{"method":"PUT","url":"Patient/c274077a-5842-4b93-afeb-b4cb17d680bb"}},{"fullUrl":"https://madie.cms.gov/Encounter/0e97e9d5-6eea-4e79-8219-dbd4a1a39a7d","resource":{"resourceType":"Encounter","id":"0e97e9d5-6eea-4e79-8219-dbd4a1a39a7d","meta":{"profile":["http://hl7.org/fhir/us/qicore/StructureDefinition/qicore-encounter"]},"status":"finished","class":{"system":"http://terminology.hl7.org/CodeSystem/v3-ActCode","code":"IMP","display":"inpatient"},"type":[{"coding":[{"system":"http://snomed.info/sct","version":"2022-03","code":"183452005","display":"Emergency hospital admission (procedure)","userSelected":true}]}],"subject":{"reference":"Patient/c274077a-5842-4b93-afeb-b4cb17d680bb"},"period":{"start":"2024-01-01T08:00:00.000+00:00","end":"2024-01-03T10:00:00.000+00:00"}},"request":{"method":"PUT","url":"Encounter/0e97e9d5-6eea-4e79-8219-dbd4a1a39a7d"}},{"fullUrl":"https://madie.cms.gov/Coverage/3894bb70-08d6-4d47-a26b-6f8f5444dae0","resource":{"resourceType":"Coverage","id":"3894bb70-08d6-4d47-a26b-6f8f5444dae0","meta":{"profile":["http://hl7.org/fhir/us/qicore/StructureDefinition/qicore-coverage"]},"status":"active","beneficiary":{"reference":"Patient/c274077a-5842-4b93-afeb-b4cb17d680bb"},"payor":[{"reference":"Organization/024e2731-b045-43bf-80d2-684774c5b51c"}]},"request":{"method":"PUT","url":"Coverage/3894bb70-08d6-4d47-a26b-6f8f5444dae0"}},{"fullUrl":"https://madie.cms.gov/Organization/61794131-ff36-4e1e-bfc9-5776fa1fdef1","resource":{"resourceType":"Organization","id":"024e2731-b045-43bf-80d2-684774c5b51c","meta":{"profile":["http://hl7.org/fhir/us/qicore/StructureDefinition/qicore-organization"]},"identifier":[{"use":"temp","system":"urn:oid:2.16.840.1.113883.4.4","value":"21-3259825"}],"active":true,"type":[{"coding":[{"system":"http://terminology.hl7.org/CodeSystem/organization-type","code":"pay","display":"Payer"}]}],"name":"Blue Cross Blue Shield of Texas","telecom":[{"system":"phone","value":"(+1) 972-766-6900"}],"address":[{"use":"billing","type":"postal","line":["P.O. Box 660044"],"city":"Dallas","state":"TX","postalCode":"75266-0044","country":"USA"}]},"request":{"method":"PUT","url":"Organization/024e2731-b045-43bf-80d2-684774c5b51c"}},{"fullUrl":"https://madie.cms.gov/MeasureReport/55b8c9bf-8559-4a24-b9da-edf93eafaab9","resource":{"resourceType":"MeasureReport","id":"55b8c9bf-8559-4a24-b9da-edf93eafaab9","meta":{"profile":["http://hl7.org/fhir/us/cqfmeasures/StructureDefinition/test-case-cqfm"]},"contained":[{"resourceType":"Parameters","id":"c1009b6b-4afb-4f2e-8001-2fc0139a669a-parameters","parameter":[{"name":"subject","valueString":"c274077a-5842-4b93-afeb-b4cb17d680bb"}]}],"extension":[{"url":"http://hl7.org/fhir/us/cqfmeasures/StructureDefinition/cqfm-inputParameters","valueReference":{"reference":"#c1009b6b-4afb-4f2e-8001-2fc0139a669a-parameters"}},{"url":"http://hl7.org/fhir/us/cqfmeasures/StructureDefinition/cqfm-testCaseDescription","valueMarkdown":"Too young"}],"modifierExtension":[{"url":"http://hl7.org/fhir/us/cqfmeasures/StructureDefinition/cqfm-isTestCase","valueBoolean":true}],"status":"complete","type":"individual","measure":"https://madie.cms.gov/Measure/CMS506FHIRSafeUseofOpioids","period":{"start":"2026-01-01","end":"2026-12-31"},"group":[{"population":[{"code":{"coding":[{"system":"http://terminology.hl7.org/CodeSystem/measure-population","code":"initial-population","display":"Initial Population"}]},"count":0},{"code":{"coding":[{"system":"http://terminology.hl7.org/CodeSystem/measure-population","code":"denominator","display":"Denominator"}]},"count":0},{"code":{"coding":[{"system":"http://terminology.hl7.org/CodeSystem/measure-population","code":"denominator-exclusion","display":"Denominator Exclusion"}]},"count":0},{"code":{"coding":[{"system":"http://terminology.hl7.org/CodeSystem/measure-population","code":"numerator","display":"Numerator"}]},"count":0}]}]},"request":{"method":"PUT","url":"MeasureReport/55b8c9bf-8559-4a24-b9da-edf93eafaab9"}}]}