{"resourceType":"Bundle","id":"tests-cdb80ca8-b110-436d-83e8-b339ebc09a44-bundle","type":"transaction","entry":[{"fullUrl":"https://madie.cms.gov/Patient/cdb80ca8-b110-436d-83e8-b339ebc09a44","resource":{"resourceType":"Patient","id":"cdb80ca8-b110-436d-83e8-b339ebc09a44","meta":{"profile":["http://hl7.org/fhir/us/qicore/StructureDefinition/qicore-patient"]},"extension":[{"url":"http://hl7.org/fhir/us/core/StructureDefinition/us-core-race","extension":[{"url":"ombCategory","valueCoding":{"system":"urn:oid:2.16.840.1.113883.6.238","code":"2028-9","display":"Asian","userSelected":true}},{"url":"text","valueString":"Asian"},{"url":"detailed","valueCoding":{"system":"urn:oid:2.16.840.1.113883.6.238","code":"1653-5","display":"Tohono O'Odham"}}]},{"url":"http://hl7.org/fhir/us/core/StructureDefinition/us-core-ethnicity","extension":[{"url":"ombCategory","valueCoding":{"system":"urn:oid:2.16.840.1.113883.6.238","code":"2186-5","display":"Not Hispanic or Latino","userSelected":true}},{"url":"text","valueString":"Not Hispanic or Latino"},{"url":"detailed","valueCoding":{"system":"urn:oid:2.16.840.1.113883.6.238","code":"2153-5","display":"Mexican American Indian"}}]}],"identifier":[{"type":{"coding":[{"system":"http://terminology.hl7.org/CodeSystem/v2-0203","code":"MR"}]},"system":"https://bonnie-fhir.healthit.gov/","value":"63233350414ba67d4e1d1c2f"}],"name":[{"family":"DENEXPass","given":["CancerProblemList"]}],"gender":"female","birthDate":"1944-02-01"},"request":{"method":"PUT","url":"Patient/cdb80ca8-b110-436d-83e8-b339ebc09a44"}},{"fullUrl":"https://madie.cms.gov/Encounter/de838e75-1467-4549-9418-d6075b2be872","resource":{"resourceType":"Encounter","id":"de838e75-1467-4549-9418-d6075b2be872","meta":{"profile":["http://hl7.org/fhir/us/qicore/StructureDefinition/qicore-encounter"]},"status":"finished","class":{"system":"http://terminology.hl7.org/CodeSystem/v3-ActCode","code":"AMB","display":"ambulatory"},"type":[{"coding":[{"system":"http://snomed.info/sct","version":"2022-03","code":"183452005","display":"Emergency hospital admission (procedure)","userSelected":true}]}],"subject":{"reference":"Patient/cdb80ca8-b110-436d-83e8-b339ebc09a44"},"period":{"start":"2026-01-01T11:45:00.000+00:00","end":"2026-01-03T11:59:00.000+00:00"}},"request":{"method":"PUT","url":"Encounter/de838e75-1467-4549-9418-d6075b2be872"}},{"fullUrl":"https://madie.cms.gov/MedicationRequest/1bb289e2-e8b4-4da9-831e-e23dc9391216","resource":{"resourceType":"MedicationRequest","id":"1bb289e2-e8b4-4da9-831e-e23dc9391216","meta":{"profile":["http://hl7.org/fhir/us/qicore/StructureDefinition/qicore-medicationrequest"]},"status":"completed","intent":"order","category":[{"coding":[{"system":"http://terminology.hl7.org/CodeSystem/medicationrequest-category","code":"discharge","display":"Discharge","userSelected":true}]}],"doNotPerform":false,"medicationCodeableConcept":{"coding":[{"system":"http://www.nlm.nih.gov/research/umls/rxnorm","code":"2103192","display":"sufentanil 0.03 MG Sublingual Tablet","userSelected":true}]},"subject":{"reference":"Patient/cdb80ca8-b110-436d-83e8-b339ebc09a44"},"authoredOn":"2026-01-03T11:59:00.000+00:00","requester":{"reference":"Practitioner/f007","display":"Patrick Pump"}},"request":{"method":"PUT","url":"MedicationRequest/1bb289e2-e8b4-4da9-831e-e23dc9391216"}},{"fullUrl":"https://madie.cms.gov/Condition/52166696-b605-4ec6-abfa-e919fdc20d54","resource":{"resourceType":"Condition","id":"52166696-b605-4ec6-abfa-e919fdc20d54","meta":{"profile":["http://hl7.org/fhir/us/qicore/StructureDefinition/qicore-condition"]},"clinicalStatus":{"coding":[{"system":"http://terminology.hl7.org/CodeSystem/condition-clinical","code":"active","display":"active","userSelected":true}]},"category":[{"coding":[{"system":"http://terminology.hl7.org/CodeSystem/condition-category","code":"problem-list-item","display":"Problem List Item"},{"system":"http://snomed.info/sct","code":"439401001","display":"Diagnosis"}]}],"code":{"coding":[{"system":"http://snomed.info/sct","version":"2022-03","code":"417517009","display":"Sickle cell-hemoglobin C disease with crisis (disorder)","userSelected":true}]},"subject":{"reference":"Patient/cdb80ca8-b110-436d-83e8-b339ebc09a44"},"onsetPeriod":{"start":"2025-12-31T08:00:00.000+00:00","end":"2025-12-31T08:00:00.000+00:00"}},"request":{"method":"PUT","url":"Condition/52166696-b605-4ec6-abfa-e919fdc20d54"}},{"fullUrl":"https://madie.cms.gov/Coverage/8849f807-b2ba-435b-9a98-ad2584fa0064","resource":{"resourceType":"Coverage","id":"8849f807-b2ba-435b-9a98-ad2584fa0064","meta":{"profile":["http://hl7.org/fhir/us/qicore/StructureDefinition/qicore-coverage"]},"status":"active","beneficiary":{"reference":"Patient/cdb80ca8-b110-436d-83e8-b339ebc09a44"},"payor":[{"reference":"Organization/db141f66-a1cc-407b-9e95-adac27adee14"}]},"request":{"method":"PUT","url":"Coverage/8849f807-b2ba-435b-9a98-ad2584fa0064"}},{"fullUrl":"https://madie.cms.gov/Organization/feea1f1d-6f82-4190-8af3-b98fa9046634","resource":{"resourceType":"Organization","id":"db141f66-a1cc-407b-9e95-adac27adee14","meta":{"profile":["http://hl7.org/fhir/us/qicore/StructureDefinition/qicore-organization"]},"identifier":[{"use":"temp","system":"urn:oid:2.16.840.1.113883.4.4","value":"21-3259825"}],"active":true,"type":[{"coding":[{"system":"http://terminology.hl7.org/CodeSystem/organization-type","code":"pay","display":"Payer"}]}],"name":"Blue Cross Blue Shield of Texas","telecom":[{"system":"phone","value":"(+1) 972-766-6900"}],"address":[{"use":"billing","type":"postal","line":["P.O. Box 660044"],"city":"Dallas","state":"TX","postalCode":"75266-0044","country":"USA"}]},"request":{"method":"PUT","url":"Organization/db141f66-a1cc-407b-9e95-adac27adee14"}},{"fullUrl":"https://madie.cms.gov/MeasureReport/ef9bffd6-9f3e-48c3-9ce2-ed0c558e4616","resource":{"resourceType":"MeasureReport","id":"ef9bffd6-9f3e-48c3-9ce2-ed0c558e4616","meta":{"profile":["http://hl7.org/fhir/us/cqfmeasures/StructureDefinition/test-case-cqfm"]},"contained":[{"resourceType":"Parameters","id":"b88ae74a-e4f0-4c9d-a524-3af10fe026c2-parameters","parameter":[{"name":"subject","valueString":"cdb80ca8-b110-436d-83e8-b339ebc09a44"}]}],"extension":[{"url":"http://hl7.org/fhir/us/cqfmeasures/StructureDefinition/cqfm-inputParameters","valueReference":{"reference":"#b88ae74a-e4f0-4c9d-a524-3af10fe026c2-parameters"}},{"url":"http://hl7.org/fhir/us/cqfmeasures/StructureDefinition/cqfm-testCaseDescription","valueMarkdown":"Enc 1st day of MP, pt has dx of sickle cell disease, has opioid at discharge"}],"modifierExtension":[{"url":"http://hl7.org/fhir/us/cqfmeasures/StructureDefinition/cqfm-isTestCase","valueBoolean":true}],"status":"complete","type":"individual","measure":"https://madie.cms.gov/Measure/CMS506FHIRSafeUseofOpioids","period":{"start":"2026-01-01","end":"2026-12-31"},"group":[{"population":[{"code":{"coding":[{"system":"http://terminology.hl7.org/CodeSystem/measure-population","code":"initial-population","display":"Initial Population"}]},"count":1},{"code":{"coding":[{"system":"http://terminology.hl7.org/CodeSystem/measure-population","code":"denominator","display":"Denominator"}]},"count":1},{"code":{"coding":[{"system":"http://terminology.hl7.org/CodeSystem/measure-population","code":"denominator-exclusion","display":"Denominator Exclusion"}]},"count":1},{"code":{"coding":[{"system":"http://terminology.hl7.org/CodeSystem/measure-population","code":"numerator","display":"Numerator"}]},"count":0}]}]},"request":{"method":"PUT","url":"MeasureReport/ef9bffd6-9f3e-48c3-9ce2-ed0c558e4616"}}]}