{"resourceType":"Bundle","id":"tests-8e2e72d9-194d-4031-83a3-51dbd703de36-bundle","type":"transaction","entry":[{"fullUrl":"https://madie.cms.gov/Patient/8e2e72d9-194d-4031-83a3-51dbd703de36","resource":{"resourceType":"Patient","id":"8e2e72d9-194d-4031-83a3-51dbd703de36","meta":{"profile":["http://hl7.org/fhir/us/qicore/StructureDefinition/qicore-patient"]},"extension":[{"url":"http://hl7.org/fhir/us/core/StructureDefinition/us-core-race","extension":[{"url":"ombCategory","valueCoding":{"system":"urn:oid:2.16.840.1.113883.6.238","code":"2054-5","display":"Black or African American","userSelected":true}},{"url":"text","valueString":"Black or African American"}]},{"url":"http://hl7.org/fhir/us/core/StructureDefinition/us-core-ethnicity","extension":[{"url":"ombCategory","valueCoding":{"system":"urn:oid:2.16.840.1.113883.6.238","code":"2186-5","display":"Not Hispanic or Latino","userSelected":true}},{"url":"text","valueString":"Not Hispanic or Latino"}]}],"identifier":[{"type":{"coding":[{"system":"http://terminology.hl7.org/CodeSystem/v2-0203","code":"MR"}]},"system":"https://bonnie-fhir.healthit.gov/","value":"63233443414ba67d4e1d1c31"}],"name":[{"family":"DENEXPass","given":["DischargeAgainstMedicalAdvice"]}],"gender":"male","birthDate":"2006-12-28"},"request":{"method":"PUT","url":"Patient/8e2e72d9-194d-4031-83a3-51dbd703de36"}},{"fullUrl":"https://madie.cms.gov/Encounter/ef3edc79-89db-42b9-b814-664a78893b59","resource":{"resourceType":"Encounter","id":"ef3edc79-89db-42b9-b814-664a78893b59","meta":{"profile":["http://hl7.org/fhir/us/qicore/StructureDefinition/qicore-encounter"]},"status":"finished","class":{"system":"http://terminology.hl7.org/CodeSystem/v3-ActCode","code":"AMB","display":"ambulatory"},"type":[{"coding":[{"system":"http://snomed.info/sct","version":"2022-03","code":"183452005","display":"Emergency hospital admission (procedure)","userSelected":true}]}],"subject":{"reference":"Patient/8e2e72d9-194d-4031-83a3-51dbd703de36"},"period":{"start":"2026-12-29T12:00:00.000+00:00","end":"2026-12-31T12:15:00.000+00:00"},"hospitalization":{"dischargeDisposition":{"coding":[{"system":"http://snomed.info/sct","code":"445060000","display":"Left against medical advice (finding)","userSelected":true}]}}},"request":{"method":"PUT","url":"Encounter/ef3edc79-89db-42b9-b814-664a78893b59"}},{"fullUrl":"https://madie.cms.gov/MedicationRequest/92161831-2c6c-460b-837f-c51a59749ab4","resource":{"resourceType":"MedicationRequest","id":"92161831-2c6c-460b-837f-c51a59749ab4","meta":{"profile":["http://hl7.org/fhir/us/qicore/StructureDefinition/qicore-medicationrequest"]},"status":"active","intent":"order","category":[{"coding":[{"system":"http://terminology.hl7.org/CodeSystem/medicationrequest-category","code":"discharge","display":"Discharge","userSelected":true}]}],"doNotPerform":false,"medicationCodeableConcept":{"coding":[{"system":"http://www.nlm.nih.gov/research/umls/rxnorm","code":"1049604","display":"oxycodone hydrochloride 1 MG/ML Oral Solution","userSelected":true}]},"subject":{"reference":"Patient/8e2e72d9-194d-4031-83a3-51dbd703de36"},"authoredOn":"2026-12-31T12:10:00.000+00:00","requester":{"reference":"Practitioner/f007","display":"Patrick Pump"}},"request":{"method":"PUT","url":"MedicationRequest/92161831-2c6c-460b-837f-c51a59749ab4"}},{"fullUrl":"https://madie.cms.gov/Coverage/96f0301d-bee4-4f50-9b4f-da9ab10a59c6","resource":{"resourceType":"Coverage","id":"96f0301d-bee4-4f50-9b4f-da9ab10a59c6","meta":{"profile":["http://hl7.org/fhir/us/qicore/StructureDefinition/qicore-coverage"]},"status":"active","beneficiary":{"reference":"Patient/8e2e72d9-194d-4031-83a3-51dbd703de36"},"payor":[{"reference":"Organization/9e9b3f13-a353-4173-b29b-947d6f1f2031"}]},"request":{"method":"PUT","url":"Coverage/96f0301d-bee4-4f50-9b4f-da9ab10a59c6"}},{"fullUrl":"https://madie.cms.gov/Organization/74438a36-d1a2-4baa-ac36-ccbe6c36ffbc","resource":{"resourceType":"Organization","id":"9e9b3f13-a353-4173-b29b-947d6f1f2031","meta":{"profile":["http://hl7.org/fhir/us/qicore/StructureDefinition/qicore-organization"]},"identifier":[{"use":"temp","system":"urn:oid:2.16.840.1.113883.4.4","value":"21-3259825"}],"active":true,"type":[{"coding":[{"system":"http://terminology.hl7.org/CodeSystem/organization-type","code":"pay","display":"Payer"}]}],"name":"Blue Cross Blue Shield of Texas","telecom":[{"system":"phone","value":"(+1) 972-766-6900"}],"address":[{"use":"billing","type":"postal","line":["P.O. Box 660044"],"city":"Dallas","state":"TX","postalCode":"75266-0044","country":"USA"}]},"request":{"method":"PUT","url":"Organization/9e9b3f13-a353-4173-b29b-947d6f1f2031"}},{"fullUrl":"https://madie.cms.gov/MeasureReport/b0780893-76d3-432f-9858-d21063e03906","resource":{"resourceType":"MeasureReport","id":"b0780893-76d3-432f-9858-d21063e03906","meta":{"profile":["http://hl7.org/fhir/us/cqfmeasures/StructureDefinition/test-case-cqfm"]},"contained":[{"resourceType":"Parameters","id":"cc358c95-0aeb-4806-a9a9-cb08380d1349-parameters","parameter":[{"name":"subject","valueString":"8e2e72d9-194d-4031-83a3-51dbd703de36"}]}],"extension":[{"url":"http://hl7.org/fhir/us/cqfmeasures/StructureDefinition/cqfm-inputParameters","valueReference":{"reference":"#cc358c95-0aeb-4806-a9a9-cb08380d1349-parameters"}},{"url":"http://hl7.org/fhir/us/cqfmeasures/StructureDefinition/cqfm-testCaseDescription","valueMarkdown":"Enc start  2 days before end of MP that ended last day of MP, has opioid at discharge although LAMA. "}],"modifierExtension":[{"url":"http://hl7.org/fhir/us/cqfmeasures/StructureDefinition/cqfm-isTestCase","valueBoolean":true}],"status":"complete","type":"individual","measure":"https://madie.cms.gov/Measure/CMS506FHIRSafeUseofOpioids","period":{"start":"2026-01-01","end":"2026-12-31"},"group":[{"population":[{"code":{"coding":[{"system":"http://terminology.hl7.org/CodeSystem/measure-population","code":"initial-population","display":"Initial Population"}]},"count":1},{"code":{"coding":[{"system":"http://terminology.hl7.org/CodeSystem/measure-population","code":"denominator","display":"Denominator"}]},"count":1},{"code":{"coding":[{"system":"http://terminology.hl7.org/CodeSystem/measure-population","code":"denominator-exclusion","display":"Denominator Exclusion"}]},"count":1},{"code":{"coding":[{"system":"http://terminology.hl7.org/CodeSystem/measure-population","code":"numerator","display":"Numerator"}]},"count":0}]}]},"request":{"method":"PUT","url":"MeasureReport/b0780893-76d3-432f-9858-d21063e03906"}}]}