{"resourceType":"Bundle","id":"tests-26aeca6a-53c4-4934-9598-e91888f4c696-bundle","type":"transaction","entry":[{"fullUrl":"https://madie.cms.gov/Patient/26aeca6a-53c4-4934-9598-e91888f4c696","resource":{"resourceType":"Patient","id":"26aeca6a-53c4-4934-9598-e91888f4c696","meta":{"profile":["http://hl7.org/fhir/us/qicore/StructureDefinition/qicore-patient"]},"extension":[{"url":"http://hl7.org/fhir/us/core/StructureDefinition/us-core-race","extension":[{"url":"ombCategory","valueCoding":{"system":"urn:oid:2.16.840.1.113883.6.238","code":"2054-5","display":"Black or African American","userSelected":true}},{"url":"text","valueString":"Black or African American"}]},{"url":"http://hl7.org/fhir/us/core/StructureDefinition/us-core-ethnicity","extension":[{"url":"ombCategory","valueCoding":{"system":"urn:oid:2.16.840.1.113883.6.238","code":"2186-5","display":"Not Hispanic or Latino","userSelected":true}},{"url":"text","valueString":"Not Hispanic or Latino"}]}],"identifier":[{"type":{"coding":[{"system":"http://terminology.hl7.org/CodeSystem/v2-0203","code":"MR"}]},"system":"https://bonnie-fhir.healthit.gov/","value":"632368e98d26c655c5601f01"}],"name":[{"family":"NUMERFail","given":["OpioidStatusEnteredInError"]}],"gender":"female","birthDate":"2006-12-31"},"request":{"method":"PUT","url":"Patient/26aeca6a-53c4-4934-9598-e91888f4c696"}},{"fullUrl":"https://madie.cms.gov/Encounter/8c660554-ce36-4380-9761-89bdcbe6550c","resource":{"resourceType":"Encounter","id":"8c660554-ce36-4380-9761-89bdcbe6550c","meta":{"profile":["http://hl7.org/fhir/us/qicore/StructureDefinition/qicore-encounter"]},"status":"finished","class":{"system":"http://terminology.hl7.org/CodeSystem/v3-ActCode","code":"IMP","display":"inpatient"},"type":[{"coding":[{"system":"http://snomed.info/sct","version":"2022-03","code":"183452005","display":"Emergency hospital admission (procedure)","userSelected":true}]}],"subject":{"reference":"Patient/26aeca6a-53c4-4934-9598-e91888f4c696"},"period":{"start":"2026-01-01T00:00:00.000+00:00","end":"2026-01-02T00:15:00.000+00:00"}},"request":{"method":"PUT","url":"Encounter/8c660554-ce36-4380-9761-89bdcbe6550c"}},{"fullUrl":"https://madie.cms.gov/MedicationRequest/ccd370d3-1bc1-4dca-bb89-e0b5f2a43315","resource":{"resourceType":"MedicationRequest","id":"ccd370d3-1bc1-4dca-bb89-e0b5f2a43315","meta":{"profile":["http://hl7.org/fhir/us/qicore/StructureDefinition/qicore-medicationrequest"]},"status":"active","intent":"order","category":[{"coding":[{"system":"http://terminology.hl7.org/CodeSystem/medicationrequest-category","code":"community","display":"Community","userSelected":true}]}],"doNotPerform":false,"medicationCodeableConcept":{"coding":[{"system":"http://www.nlm.nih.gov/research/umls/rxnorm","version":"2022-08","code":"1014632","display":"acetaminophen 300 MG / oxycodone hydrochloride 7.5 MG Oral Tablet","userSelected":true}]},"subject":{"reference":"Patient/26aeca6a-53c4-4934-9598-e91888f4c696"},"authoredOn":"2026-01-02T00:15:00.000+00:00","requester":{"reference":"Practitioner/f007","display":"Patrick Pump"}},"request":{"method":"PUT","url":"MedicationRequest/ccd370d3-1bc1-4dca-bb89-e0b5f2a43315"}},{"fullUrl":"https://madie.cms.gov/MedicationRequest/15138ecb-ecdc-40a4-917d-fa54a0dd62dd","resource":{"resourceType":"MedicationRequest","id":"15138ecb-ecdc-40a4-917d-fa54a0dd62dd","meta":{"profile":["http://hl7.org/fhir/us/qicore/StructureDefinition/qicore-medicationrequest"]},"status":"entered-in-error","intent":"order","category":[{"coding":[{"system":"http://terminology.hl7.org/CodeSystem/medicationrequest-category","code":"community","display":"Community","userSelected":true}]}],"doNotPerform":false,"medicationCodeableConcept":{"coding":[{"system":"http://www.nlm.nih.gov/research/umls/rxnorm","code":"1298088","display":"flurazepam hydrochloride 15 MG Oral Capsule","userSelected":true}]},"subject":{"reference":"Patient/26aeca6a-53c4-4934-9598-e91888f4c696"},"authoredOn":"2026-01-02T00:10:00.000+00:00","requester":{"reference":"Practitioner/f007","display":"Patrick Pump"}},"request":{"method":"PUT","url":"MedicationRequest/15138ecb-ecdc-40a4-917d-fa54a0dd62dd"}},{"fullUrl":"https://madie.cms.gov/Coverage/d67f17b6-54bc-4f93-986f-53793d39177e","resource":{"resourceType":"Coverage","id":"d67f17b6-54bc-4f93-986f-53793d39177e","meta":{"profile":["http://hl7.org/fhir/us/qicore/StructureDefinition/qicore-coverage"]},"status":"active","beneficiary":{"reference":"Patient/26aeca6a-53c4-4934-9598-e91888f4c696"},"payor":[{"reference":"Organization/9e9b3f13-a353-4173-b29b-947d6f1f2031"}]},"request":{"method":"PUT","url":"Coverage/d67f17b6-54bc-4f93-986f-53793d39177e"}},{"fullUrl":"https://madie.cms.gov/Organization/2d85738b-4e33-4ae8-b5c5-60bc104bb020","resource":{"resourceType":"Organization","id":"9e9b3f13-a353-4173-b29b-947d6f1f2031","meta":{"profile":["http://hl7.org/fhir/us/qicore/StructureDefinition/qicore-organization"]},"identifier":[{"use":"temp","system":"urn:oid:2.16.840.1.113883.4.4","value":"21-3259825"}],"active":true,"type":[{"coding":[{"system":"http://terminology.hl7.org/CodeSystem/organization-type","code":"pay","display":"Payer"}]}],"name":"Blue Cross Blue Shield of Texas","telecom":[{"system":"phone","value":"(+1) 972-766-6900"}],"address":[{"use":"billing","type":"postal","line":["P.O. Box 660044"],"city":"Dallas","state":"TX","postalCode":"75266-0044","country":"USA"}]},"request":{"method":"PUT","url":"Organization/9e9b3f13-a353-4173-b29b-947d6f1f2031"}},{"fullUrl":"https://madie.cms.gov/MeasureReport/6d2060eb-f263-46a9-8c75-962338d33a41","resource":{"resourceType":"MeasureReport","id":"6d2060eb-f263-46a9-8c75-962338d33a41","meta":{"profile":["http://hl7.org/fhir/us/cqfmeasures/StructureDefinition/test-case-cqfm"]},"contained":[{"resourceType":"Parameters","id":"dbf22cb5-68a6-41dd-a0fe-cd0fc078ef18-parameters","parameter":[{"name":"subject","valueString":"26aeca6a-53c4-4934-9598-e91888f4c696"}]}],"extension":[{"url":"http://hl7.org/fhir/us/cqfmeasures/StructureDefinition/cqfm-inputParameters","valueReference":{"reference":"#dbf22cb5-68a6-41dd-a0fe-cd0fc078ef18-parameters"}},{"url":"http://hl7.org/fhir/us/cqfmeasures/StructureDefinition/cqfm-testCaseDescription","valueMarkdown":"Encounter first 2 days of MP, 2 orders for distinct opioids but one was entered in error."}],"modifierExtension":[{"url":"http://hl7.org/fhir/us/cqfmeasures/StructureDefinition/cqfm-isTestCase","valueBoolean":true}],"status":"complete","type":"individual","measure":"https://madie.cms.gov/Measure/CMS506FHIRSafeUseofOpioids","period":{"start":"2026-01-01","end":"2026-12-31"},"group":[{"population":[{"code":{"coding":[{"system":"http://terminology.hl7.org/CodeSystem/measure-population","code":"initial-population","display":"Initial Population"}]},"count":1},{"code":{"coding":[{"system":"http://terminology.hl7.org/CodeSystem/measure-population","code":"denominator","display":"Denominator"}]},"count":1},{"code":{"coding":[{"system":"http://terminology.hl7.org/CodeSystem/measure-population","code":"denominator-exclusion","display":"Denominator Exclusion"}]},"count":0},{"code":{"coding":[{"system":"http://terminology.hl7.org/CodeSystem/measure-population","code":"numerator","display":"Numerator"}]},"count":0}]}]},"request":{"method":"PUT","url":"MeasureReport/6d2060eb-f263-46a9-8c75-962338d33a41"}}]}