{
  "resourceType": "Bundle",
  "id": "c1f044ef3e654daa2249",
  "type": "transaction",
  "entry": [ {
    "fullUrl": "https://madie.cms.gov/Patient/1bc5044a-c449-43be-929c-e1956fe9b983",
    "resource": {
      "resourceType": "Patient",
      "id": "1bc5044a-c449-43be-929c-e1956fe9b983",
      "meta": {
        "profile": [ "http://hl7.org/fhir/us/qicore/StructureDefinition/qicore-patient" ]
      },
      "extension": [ {
        "url": "http://hl7.org/fhir/us/core/StructureDefinition/us-core-race",
        "extension": [ {
          "url": "ombCategory",
          "valueCoding": {
            "system": "urn:oid:2.16.840.1.113883.6.238",
            "code": "1002-5",
            "display": "American Indian or Alaska Native",
            "userSelected": true
          }
        }, {
          "url": "text",
          "valueString": "American Indian or Alaska Native"
        } ]
      }, {
        "url": "http://hl7.org/fhir/us/core/StructureDefinition/us-core-ethnicity",
        "extension": [ {
          "url": "ombCategory",
          "valueCoding": {
            "system": "urn:oid:2.16.840.1.113883.6.238",
            "code": "2135-2",
            "display": "Hispanic or Latino",
            "userSelected": true
          }
        }, {
          "url": "text",
          "valueString": "Hispanic or Latino"
        } ]
      } ],
      "identifier": [ {
        "type": {
          "coding": [ {
            "system": "http://terminology.hl7.org/CodeSystem/v2-0203",
            "code": "MR"
          } ]
        },
        "system": "https://bonnie-fhir.healthit.gov/",
        "value": "07abaff2-9fb2-4058-bd91-7a193ee3546a"
      } ],
      "name": [ {
        "family": "DENEXCL11PASS",
        "given": [ "HospiceAssessmentBeforeED" ]
      } ],
      "gender": "male",
      "birthDate": "1927-01-12"
    },
    "request": {
      "method": "PUT",
      "url": "Patient/1bc5044a-c449-43be-929c-e1956fe9b983"
    }
  }, {
    "fullUrl": "https://madie.cms.gov/Encounter/44c0dda1-1d78-420b-9f35-61bbcd0151f8",
    "resource": {
      "resourceType": "Encounter",
      "id": "44c0dda1-1d78-420b-9f35-61bbcd0151f8",
      "meta": {
        "profile": [ "http://hl7.org/fhir/us/qicore/StructureDefinition/qicore-encounter" ]
      },
      "status": "finished",
      "class": {
        "system": "http://terminology.hl7.org/CodeSystem/v3-ActCode",
        "code": "EMER",
        "display": "emergency",
        "userSelected": true
      },
      "type": [ {
        "coding": [ {
          "system": "http://snomed.info/sct",
          "version": "2020-09",
          "code": "4525004",
          "display": "Emergency department patient visit",
          "userSelected": true
        } ]
      } ],
      "subject": {
        "reference": "Patient/1bc5044a-c449-43be-929c-e1956fe9b983"
      },
      "period": {
        "start": "2026-10-09T05:00:00.000+00:00",
        "end": "2026-10-13T17:00:00.000+00:00"
      },
      "reasonCode": [ {
        "coding": [ {
          "system": "http://hl7.org/fhir/sid/icd-10-cm",
          "code": "I21.21",
          "display": "ST elevation (STEMI) myocardial infarction involving left circumflex coronary artery",
          "userSelected": true
        } ]
      } ]
    },
    "request": {
      "method": "PUT",
      "url": "Encounter/44c0dda1-1d78-420b-9f35-61bbcd0151f8"
    }
  }, {
    "fullUrl": "https://madie.cms.gov/Observation/0bd0c32c-0a92-40e8-8aa9-007beeaaba99",
    "resource": {
      "resourceType": "Observation",
      "id": "0bd0c32c-0a92-40e8-8aa9-007beeaaba99",
      "meta": {
        "profile": [ "http://hl7.org/fhir/us/qicore/StructureDefinition/qicore-observation" ]
      },
      "status": "final",
      "category": [ {
        "coding": [ {
          "system": "http://terminology.hl7.org/CodeSystem/observation-category",
          "code": "survey",
          "display": "Survey",
          "userSelected": true
        } ]
      } ],
      "code": {
        "coding": [ {
          "system": "http://loinc.org",
          "code": "45755-6",
          "display": "Hospice care [Minimum Data Set]",
          "userSelected": true
        } ]
      },
      "subject": {
        "reference": "Patient/1bc5044a-c449-43be-929c-e1956fe9b983"
      },
      "effectivePeriod": {
        "start": "2026-08-03T02:00:00.000+00:00",
        "end": "2026-08-03T02:00:00.000+00:00"
      },
      "valueCodeableConcept": {
        "coding": [ {
          "system": "http://snomed.info/sct",
          "code": "373066001",
          "display": "Yes (qualifier value)",
          "userSelected": true
        } ]
      }
    },
    "request": {
      "method": "PUT",
      "url": "Observation/0bd0c32c-0a92-40e8-8aa9-007beeaaba99"
    }
  }, {
    "fullUrl": "https://madie.cms.gov/MeasureReport/c7d8c76a-6c02-433f-8db7-7089161a2ee2",
    "resource": {
      "resourceType": "MeasureReport",
      "id": "c7d8c76a-6c02-433f-8db7-7089161a2ee2",
      "meta": {
        "profile": [ "http://hl7.org/fhir/us/cqfmeasures/StructureDefinition/test-case-cqfm" ]
      },
      "contained": [ {
        "resourceType": "Parameters",
        "id": "336a0e25-a768-4a79-8dcf-776275905b19-parameters",
        "parameter": [ {
          "name": "subject",
          "valueString": "1bc5044a-c449-43be-929c-e1956fe9b983"
        } ]
      } ],
      "extension": [ {
        "url": "http://hl7.org/fhir/us/cqfmeasures/StructureDefinition/cqfm-inputParameters",
        "valueReference": {
          "reference": "#336a0e25-a768-4a79-8dcf-776275905b19-parameters"
        }
      }, {
        "url": "http://hl7.org/fhir/us/cqfmeasures/StructureDefinition/cqfm-testCaseDescription",
        "valueMarkdown": "Hospice Assessment before ED stay"
      } ],
      "modifierExtension": [ {
        "url": "http://hl7.org/fhir/us/cqfmeasures/StructureDefinition/cqfm-isTestCase",
        "valueBoolean": true
      } ],
      "status": "complete",
      "type": "individual",
      "measure": "https://madie.cms.gov/Measure/CMS996FHIRAptTxforSTEMI",
      "period": {
        "start": "2026-01-01",
        "end": "2026-12-31"
      },
      "group": [ {
        "population": [ {
          "code": {
            "coding": [ {
              "system": "http://terminology.hl7.org/CodeSystem/measure-population",
              "code": "initial-population",
              "display": "Initial Population"
            } ]
          },
          "count": 1
        }, {
          "code": {
            "coding": [ {
              "system": "http://terminology.hl7.org/CodeSystem/measure-population",
              "code": "denominator",
              "display": "Denominator"
            } ]
          },
          "count": 1
        }, {
          "code": {
            "coding": [ {
              "system": "http://terminology.hl7.org/CodeSystem/measure-population",
              "code": "denominator-exclusion",
              "display": "Denominator Exclusion"
            } ]
          },
          "count": 1
        }, {
          "code": {
            "coding": [ {
              "system": "http://terminology.hl7.org/CodeSystem/measure-population",
              "code": "numerator",
              "display": "Numerator"
            } ]
          },
          "count": 0
        }, {
          "code": {
            "coding": [ {
              "system": "http://terminology.hl7.org/CodeSystem/measure-population",
              "code": "denominator-exception",
              "display": "Denominator Exception"
            } ]
          },
          "count": 0
        } ]
      } ],
      "evaluatedResource": [ {
        "reference": "Patient/1bc5044a-c449-43be-929c-e1956fe9b983"
      }, {
        "reference": "Encounter/44c0dda1-1d78-420b-9f35-61bbcd0151f8"
      }, {
        "reference": "Observation/0bd0c32c-0a92-40e8-8aa9-007beeaaba99"
      } ]
    },
    "request": {
      "method": "PUT",
      "url": "MeasureReport/c7d8c76a-6c02-433f-8db7-7089161a2ee2"
    }
  } ]
}