{
  "resourceType": "Bundle",
  "id": "6356dca654e383debade75aa",
  "type": "transaction",
  "entry": [ {
    "fullUrl": "https://madie.cms.gov/Patient/1b0eb7b9-ce99-4119-b298-405f32aa30d6",
    "resource": {
      "resourceType": "Patient",
      "id": "1b0eb7b9-ce99-4119-b298-405f32aa30d6",
      "meta": {
        "profile": [ "http://hl7.org/fhir/us/qicore/StructureDefinition/qicore-patient" ]
      },
      "text": {
        "status": "generated",
        "div": "<div xmlns=\"http://www.w3.org/1999/xhtml\"><div class=\"hapiHeaderText\">RISKDXEQPreTermBirthEGAEQ40Weeks <b>RISKFail </b></div><table class=\"hapiPropertyTable\"><tbody><tr><td>Date of birth</td><td><span>01 February 2004</span></td></tr></tbody></table></div>"
      },
      "extension": [ {
        "url": "http://hl7.org/fhir/us/core/StructureDefinition/us-core-race",
        "extension": [ {
          "url": "ombCategory",
          "valueCoding": {
            "system": "urn:oid:2.16.840.1.113883.6.238",
            "code": "1002-5",
            "display": "American Indian or Alaska Native",
            "userSelected": true
          }
        }, {
          "url": "text",
          "valueString": "American Indian or Alaska Native"
        } ]
      }, {
        "url": "http://hl7.org/fhir/us/core/StructureDefinition/us-core-ethnicity",
        "extension": [ {
          "url": "ombCategory",
          "valueCoding": {
            "system": "urn:oid:2.16.840.1.113883.6.238",
            "code": "2135-2",
            "display": "Hispanic or Latino",
            "userSelected": true
          }
        }, {
          "url": "text",
          "valueString": "Hispanic or Latino"
        } ]
      } ],
      "identifier": [ {
        "type": {
          "coding": [ {
            "system": "http://terminology.hl7.org/CodeSystem/v2-0203",
            "code": "MR"
          } ]
        },
        "system": "https://bonnie-fhir.healthit.gov/",
        "value": "6356dca654e383debade75aa"
      } ],
      "active": true,
      "name": [ {
        "use": "usual",
        "family": "RISKFail",
        "given": [ "RISKDXEQPreTermBirthEGAEQ40Weeks" ]
      } ],
      "gender": "female",
      "birthDate": "2004-02-01"
    },
    "request": {
      "method": "PUT",
      "url": "Patient/1b0eb7b9-ce99-4119-b298-405f32aa30d6"
    }
  }, {
    "fullUrl": "https://madie.cms.gov/Observation/fa2e30b3-9bcc-4334-8ec0-f4b68f4f9bea",
    "resource": {
      "resourceType": "Observation",
      "id": "fa2e30b3-9bcc-4334-8ec0-f4b68f4f9bea",
      "meta": {
        "profile": [ "http://hl7.org/fhir/us/qicore/StructureDefinition/qicore-observation" ]
      },
      "status": "final",
      "category": [ {
        "coding": [ {
          "system": "http://terminology.hl7.org/CodeSystem/observation-category",
          "code": "exam",
          "display": "exam",
          "userSelected": true
        } ]
      } ],
      "code": {
        "coding": [ {
          "system": "http://loinc.org",
          "code": "93857-1"
        } ]
      },
      "subject": {
        "reference": "Patient/1b0eb7b9-ce99-4119-b298-405f32aa30d6"
      },
      "effectiveDateTime": "2025-02-01T08:00:00.000+00:00",
      "valueDateTime": "2025-02-01T08:00:00+00:00"
    },
    "request": {
      "method": "PUT",
      "url": "Observation/fa2e30b3-9bcc-4334-8ec0-f4b68f4f9bea"
    }
  }, {
    "fullUrl": "https://madie.cms.gov/Observation/a63fd8e9-24f6-4825-b5f3-02cd606bfac7",
    "resource": {
      "resourceType": "Observation",
      "id": "a63fd8e9-24f6-4825-b5f3-02cd606bfac7",
      "meta": {
        "profile": [ "http://hl7.org/fhir/us/qicore/StructureDefinition/qicore-observation" ]
      },
      "status": "final",
      "category": [ {
        "coding": [ {
          "system": "http://terminology.hl7.org/CodeSystem/observation-category",
          "code": "exam",
          "display": "exam",
          "userSelected": true
        } ]
      } ],
      "code": {
        "coding": [ {
          "system": "http://loinc.org",
          "code": "11884-4"
        } ]
      },
      "subject": {
        "reference": "Patient/1b0eb7b9-ce99-4119-b298-405f32aa30d6"
      },
      "effectiveDateTime": "2025-02-01T08:00:00.000+00:00",
      "valueQuantity": {
        "value": 40,
        "system": "http://unitsofmeasure.org",
        "code": "wk"
      }
    },
    "request": {
      "method": "PUT",
      "url": "Observation/a63fd8e9-24f6-4825-b5f3-02cd606bfac7"
    }
  }, {
    "fullUrl": "https://madie.cms.gov/Encounter/09708ff4-f7e3-42d9-b30e-c539ba734d00",
    "resource": {
      "resourceType": "Encounter",
      "id": "09708ff4-f7e3-42d9-b30e-c539ba734d00",
      "meta": {
        "profile": [ "http://hl7.org/fhir/us/qicore/StructureDefinition/qicore-encounter" ]
      },
      "status": "finished",
      "class": {
        "system": "http://terminology.hl7.org/CodeSystem/v3-ActCode",
        "code": "IMP",
        "display": "inpatient encounter"
      },
      "type": [ {
        "coding": [ {
          "system": "http://snomed.info/sct",
          "code": "183452005"
        } ]
      } ],
      "subject": {
        "reference": "Patient/1b0eb7b9-ce99-4119-b298-405f32aa30d6"
      },
      "period": {
        "start": "2025-02-01T08:00:00.000Z",
        "end": "2025-02-05T08:15:00.000Z"
      },
      "diagnosis": [ {
        "extension": [ {
          "url": "http://hl7.org/fhir/us/qicore/StructureDefinition/qicore-encounter-diagnosisPresentOnAdmission",
          "valueCodeableConcept": {
            "coding": [ {
              "system": "https://www.cms.gov/Medicare/Medicare-Fee-for-Service-Payment/HospitalAcqCond/Coding",
              "code": "Y"
            } ]
          }
        } ],
        "condition": {
          "reference": "Condition/defba625-dbf4-42e9-8460-64a5e9efbba0"
        }
      } ]
    },
    "request": {
      "method": "PUT",
      "url": "Encounter/09708ff4-f7e3-42d9-b30e-c539ba734d00"
    }
  }, {
    "fullUrl": "https://madie.cms.gov/Procedure/5477cafe-d0fb-4c10-8672-0e80fbd6dc1b",
    "resource": {
      "resourceType": "Procedure",
      "id": "5477cafe-d0fb-4c10-8672-0e80fbd6dc1b",
      "meta": {
        "profile": [ "http://hl7.org/fhir/us/qicore/StructureDefinition/qicore-procedure" ]
      },
      "extension": [ {
        "url": "http://hl7.org/fhir/us/qicore/StructureDefinition/qicore-recorded",
        "valueDateTime": "2013-04-05T09:35:00-04:00"
      } ],
      "status": "completed",
      "code": {
        "coding": [ {
          "system": "http://snomed.info/sct",
          "code": "10745001"
        } ]
      },
      "subject": {
        "reference": "Patient/1b0eb7b9-ce99-4119-b298-405f32aa30d6"
      },
      "performedPeriod": {
        "start": "2025-02-01T08:00:00.000Z",
        "end": "2025-02-05T08:15:00.000Z"
      }
    },
    "request": {
      "method": "PUT",
      "url": "Procedure/5477cafe-d0fb-4c10-8672-0e80fbd6dc1b"
    }
  }, {
    "fullUrl": "https://madie.cms.gov/Condition/defba625-dbf4-42e9-8460-64a5e9efbba0",
    "resource": {
      "resourceType": "Condition",
      "id": "defba625-dbf4-42e9-8460-64a5e9efbba0",
      "meta": {
        "profile": [ "http://hl7.org/fhir/us/qicore/StructureDefinition/qicore-condition" ]
      },
      "category": [ {
        "coding": [ {
          "system": "http://terminology.hl7.org/CodeSystem/condition-category",
          "code": "encounter-diagnosis",
          "display": "Encounter Diagnosis"
        } ]
      } ],
      "code": {
        "coding": [ {
          "system": "http://hl7.org/fhir/sid/icd-10-cm",
          "version": "2023",
          "code": "Z3A.20",
          "display": "20 weeks gestation",
          "userSelected": true
        } ]
      },
      "subject": {
        "reference": "Patient/1b0eb7b9-ce99-4119-b298-405f32aa30d6"
      },
      "recordedDate": "2025-10-26T08:00:00.000+00:00"
    },
    "request": {
      "method": "PUT",
      "url": "Condition/defba625-dbf4-42e9-8460-64a5e9efbba0"
    }
  }, {
    "fullUrl": "https://madie.cms.gov/Coverage/8aa3f78e-cd96-4c56-9654-50de13a5c9f4",
    "resource": {
      "resourceType": "Coverage",
      "id": "8aa3f78e-cd96-4c56-9654-50de13a5c9f4",
      "meta": {
        "profile": [ "http://hl7.org/fhir/us/qicore/StructureDefinition/qicore-coverage" ]
      },
      "status": "active",
      "beneficiary": {
        "reference": "Patient/1b0eb7b9-ce99-4119-b298-405f32aa30d6"
      },
      "payor": [ {
        "reference": "Organization/98649d5e-dceb-4fc9-a8ef-fff33465522f"
      } ]
    },
    "request": {
      "method": "PUT",
      "url": "Coverage/8aa3f78e-cd96-4c56-9654-50de13a5c9f4"
    }
  }, {
    "fullUrl": "https://madie.cms.gov/Organization/98649d5e-dceb-4fc9-a8ef-fff33465522f",
    "resource": {
      "resourceType": "Organization",
      "id": "98649d5e-dceb-4fc9-a8ef-fff33465522f",
      "meta": {
        "profile": [ "http://hl7.org/fhir/us/qicore/StructureDefinition/qicore-organization" ]
      },
      "identifier": [ {
        "use": "temp",
        "system": "urn:oid:2.16.840.1.113883.4.4",
        "value": "21-3259825"
      } ],
      "active": true,
      "type": [ {
        "coding": [ {
          "system": "http://terminology.hl7.org/CodeSystem/organization-type",
          "code": "pay",
          "display": "Payer"
        } ]
      } ],
      "name": "Blue Cross Blue Shield of Texas",
      "telecom": [ {
        "system": "phone",
        "value": "(+1) 972-766-6900"
      } ],
      "address": [ {
        "use": "billing",
        "type": "postal",
        "line": [ "P.O. Box 660044" ],
        "city": "Dallas",
        "state": "TX",
        "postalCode": "75266-0044",
        "country": "USA"
      } ]
    },
    "request": {
      "method": "PUT",
      "url": "Organization/98649d5e-dceb-4fc9-a8ef-fff33465522f"
    }
  }, {
    "fullUrl": "https://madie.cms.gov/Practitioner/852fc27b-1d4c-431b-b2b9-8792e4d385f2",
    "resource": {
      "resourceType": "Practitioner",
      "id": "852fc27b-1d4c-431b-b2b9-8792e4d385f2",
      "identifier": [ {
        "system": "http://hl7.org/fhir/sid/us-npi",
        "value": "123456"
      } ],
      "name": [ {
        "family": "Evil",
        "prefix": [ "Dr" ]
      } ]
    },
    "request": {
      "method": "PUT",
      "url": "Practitioner/852fc27b-1d4c-431b-b2b9-8792e4d385f2"
    }
  }, {
    "fullUrl": "https://madie.cms.gov/MeasureReport/60a8642a-2daf-4aab-bf5f-a3ef64be95ac",
    "resource": {
      "resourceType": "MeasureReport",
      "id": "60a8642a-2daf-4aab-bf5f-a3ef64be95ac",
      "meta": {
        "profile": [ "http://hl7.org/fhir/us/cqfmeasures/StructureDefinition/test-case-cqfm" ]
      },
      "contained": [ {
        "resourceType": "Parameters",
        "id": "a2c14f9a-0a9a-4766-9e76-4c62e0a74d47-parameters",
        "parameter": [ {
          "name": "subject",
          "valueString": "1b0eb7b9-ce99-4119-b298-405f32aa30d6"
        } ]
      } ],
      "extension": [ {
        "url": "http://hl7.org/fhir/us/cqfmeasures/StructureDefinition/cqfm-inputParameters",
        "valueReference": {
          "reference": "#a2c14f9a-0a9a-4766-9e76-4c62e0a74d47-parameters"
        }
      }, {
        "url": "http://hl7.org/fhir/us/cqfmeasures/StructureDefinition/cqfm-testCaseDescription",
        "valueMarkdown": "RISKDXEQPreTermBirth And EGAEQ40Weeks\n"
      } ],
      "modifierExtension": [ {
        "url": "http://hl7.org/fhir/us/cqfmeasures/StructureDefinition/cqfm-isTestCase",
        "valueBoolean": true
      } ],
      "status": "complete",
      "type": "individual",
      "measure": "https://madie.cms.gov/Measure/CMS1028FHIRPCSevereOBComps",
      "period": {
        "start": "2025-01-01",
        "end": "2025-12-31"
      },
      "group": [ {
        "population": [ {
          "code": {
            "coding": [ {
              "system": "http://terminology.hl7.org/CodeSystem/measure-population",
              "code": "initial-population",
              "display": "Initial Population"
            } ]
          },
          "count": 1
        }, {
          "code": {
            "coding": [ {
              "system": "http://terminology.hl7.org/CodeSystem/measure-population",
              "code": "denominator",
              "display": "Denominator"
            } ]
          },
          "count": 1
        }, {
          "code": {
            "coding": [ {
              "system": "http://terminology.hl7.org/CodeSystem/measure-population",
              "code": "numerator",
              "display": "Numerator"
            } ]
          },
          "count": 0
        }, {
          "code": {
            "coding": [ {
              "system": "http://terminology.hl7.org/CodeSystem/measure-population",
              "code": "numerator-exclusion",
              "display": "Numerator Exclusion"
            } ]
          },
          "count": 0
        } ]
      }, {
        "population": [ {
          "code": {
            "coding": [ {
              "system": "http://terminology.hl7.org/CodeSystem/measure-population",
              "code": "initial-population",
              "display": "Initial Population"
            } ]
          },
          "count": 1
        }, {
          "code": {
            "coding": [ {
              "system": "http://terminology.hl7.org/CodeSystem/measure-population",
              "code": "denominator",
              "display": "Denominator"
            } ]
          },
          "count": 1
        }, {
          "code": {
            "coding": [ {
              "system": "http://terminology.hl7.org/CodeSystem/measure-population",
              "code": "numerator",
              "display": "Numerator"
            } ]
          },
          "count": 0
        }, {
          "code": {
            "coding": [ {
              "system": "http://terminology.hl7.org/CodeSystem/measure-population",
              "code": "numerator-exclusion",
              "display": "Numerator Exclusion"
            } ]
          },
          "count": 0
        } ]
      } ],
      "evaluatedResource": [ {
        "reference": "Patient/1b0eb7b9-ce99-4119-b298-405f32aa30d6"
      }, {
        "reference": "Observation/fa2e30b3-9bcc-4334-8ec0-f4b68f4f9bea"
      }, {
        "reference": "Observation/a63fd8e9-24f6-4825-b5f3-02cd606bfac7"
      }, {
        "reference": "Encounter/09708ff4-f7e3-42d9-b30e-c539ba734d00"
      }, {
        "reference": "Procedure/5477cafe-d0fb-4c10-8672-0e80fbd6dc1b"
      }, {
        "reference": "Condition/defba625-dbf4-42e9-8460-64a5e9efbba0"
      }, {
        "reference": "Coverage/8aa3f78e-cd96-4c56-9654-50de13a5c9f4"
      }, {
        "reference": "Organization/98649d5e-dceb-4fc9-a8ef-fff33465522f"
      }, {
        "reference": "Practitioner/852fc27b-1d4c-431b-b2b9-8792e4d385f2"
      } ]
    },
    "request": {
      "method": "PUT",
      "url": "MeasureReport/60a8642a-2daf-4aab-bf5f-a3ef64be95ac"
    }
  } ]
}