{"resourceType":"Bundle","id":"tests-ae3b4a2f-7f84-4723-af3f-5022e69331c5-bundle","type":"transaction","entry":[{"fullUrl":"https://madie.cms.gov/Patient/ae3b4a2f-7f84-4723-af3f-5022e69331c5","resource":{"resourceType":"Patient","id":"ae3b4a2f-7f84-4723-af3f-5022e69331c5","meta":{"profile":["http://hl7.org/fhir/us/qicore/StructureDefinition/qicore-patient"]},"extension":[{"url":"http://hl7.org/fhir/us/core/StructureDefinition/us-core-race","extension":[{"url":"ombCategory","valueCoding":{"system":"urn:oid:2.16.840.1.113883.6.238","code":"2028-9","display":"Asian"}},{"url":"text","valueString":"Asian"}]},{"url":"http://hl7.org/fhir/us/core/StructureDefinition/us-core-ethnicity","extension":[{"url":"ombCategory","valueCoding":{"system":"urn:oid:2.16.840.1.113883.6.238","code":"2135-2","display":"Hispanic or Latino"}},{"url":"text","valueString":"Hispanic or Latino"}]}],"identifier":[{"system":"http://hospital.smarthealthit.org","value":"999999995"}],"name":[{"family":"Bertha","given":["Betty"]}],"gender":"female","birthDate":"2024-10-01"},"request":{"method":"PUT","url":"Patient/ae3b4a2f-7f84-4723-af3f-5022e69331c5"}},{"fullUrl":"https://madie.cms.gov/Encounter/Encounter-3","resource":{"resourceType":"Encounter","id":"d59888b3-8d32-45c1-8d27-4fa31cea5a86","meta":{"profile":["http://hl7.org/fhir/us/qicore/StructureDefinition/qicore-encounter"]},"status":"finished","class":{"system":"http://terminology.hl7.org/CodeSystem/v3-ActCode","code":"AMB","display":"ambulatory"},"type":[{"coding":[{"system":"http://snomed.info/sct","code":"4525004","display":"Emergency department patient visit (procedure)"}]}],"subject":{"reference":"Patient/ae3b4a2f-7f84-4723-af3f-5022e69331c5"},"period":{"start":"2025-12-28T12:45:00.000Z","end":"2025-12-28T12:59:00.000Z"}},"request":{"method":"PUT","url":"Encounter/d59888b3-8d32-45c1-8d27-4fa31cea5a86"}},{"fullUrl":"https://madie.cms.gov/Condition/Condition-2","resource":{"resourceType":"Condition","id":"277a95e4-b753-4980-8265-f234277e1a32","meta":{"profile":["http://hl7.org/fhir/us/qicore/StructureDefinition/qicore-condition"]},"clinicalStatus":{"coding":[{"system":"http://terminology.hl7.org/CodeSystem/condition-clinical","code":"active"}]},"category":[{"coding":[{"system":"http://terminology.hl7.org/CodeSystem/condition-category","code":"problem-list-item","display":"Problem List Item"}]}],"code":{"coding":[{"system":"http://snomed.info/sct","code":"54398005","display":"Acute upper respiratory infection (disorder)"}]},"subject":{"reference":"Patient/ae3b4a2f-7f84-4723-af3f-5022e69331c5"},"onsetDateTime":"2025-12-28T12:48:00.000Z"},"request":{"method":"PUT","url":"Condition/277a95e4-b753-4980-8265-f234277e1a32"}},{"fullUrl":"https://madie.cms.gov/Encounter/Encounter-4","resource":{"resourceType":"Encounter","id":"a3b950b9-34a3-4f1b-b839-c6a2dbdb5f72","meta":{"profile":["http://hl7.org/fhir/us/qicore/StructureDefinition/qicore-encounter"]},"status":"finished","class":{"system":"http://terminology.hl7.org/CodeSystem/v3-ActCode","code":"AMB","display":"ambulatory"},"type":[{"coding":[{"system":"http://snomed.info/sct","code":"305336008","display":"Admission to hospice (procedure)"}]}],"subject":{"reference":"Patient/ae3b4a2f-7f84-4723-af3f-5022e69331c5"},"period":{"start":"2024-01-02T01:00:00.000Z","end":"2024-01-02T01:15:00.000Z"}},"request":{"method":"PUT","url":"Encounter/a3b950b9-34a3-4f1b-b839-c6a2dbdb5f72"}},{"fullUrl":"https://madie.cms.gov/MeasureReport/59c81296-3f5b-4019-9fcb-6366cd1661b1","resource":{"resourceType":"MeasureReport","id":"59c81296-3f5b-4019-9fcb-6366cd1661b1","meta":{"profile":["http://hl7.org/fhir/us/cqfmeasures/StructureDefinition/test-case-cqfm"]},"contained":[{"resourceType":"Parameters","id":"ffb9b3a9-d918-4d2a-81bd-92f977d818ef-parameters","parameter":[{"name":"subject","valueString":"ae3b4a2f-7f84-4723-af3f-5022e69331c5"}]}],"extension":[{"url":"http://hl7.org/fhir/us/cqfmeasures/StructureDefinition/cqfm-inputParameters","valueReference":{"reference":"#ffb9b3a9-d918-4d2a-81bd-92f977d818ef-parameters"}},{"url":"http://hl7.org/fhir/us/cqfmeasures/StructureDefinition/cqfm-testCaseDescription","valueMarkdown":"Patient is 3 months, with an encounter with URI diagnosis 3 days before end of MP"}],"modifierExtension":[{"url":"http://hl7.org/fhir/us/cqfmeasures/StructureDefinition/cqfm-isTestCase","valueBoolean":true}],"status":"complete","type":"individual","measure":"https://madie.cms.gov/Measure/AppropriateTreatmentforUpperRespiratoryInfectionURIFHIR","period":{"start":"2025-01-01","end":"2025-12-31"},"group":[{"population":[{"code":{"coding":[{"system":"http://terminology.hl7.org/CodeSystem/measure-population","code":"initial-population","display":"Initial Population"}]},"count":1},{"code":{"coding":[{"system":"http://terminology.hl7.org/CodeSystem/measure-population","code":"denominator","display":"Denominator"}]},"count":1},{"code":{"coding":[{"system":"http://terminology.hl7.org/CodeSystem/measure-population","code":"denominator-exclusion","display":"Denominator Exclusion"}]},"count":0},{"code":{"coding":[{"system":"http://terminology.hl7.org/CodeSystem/measure-population","code":"numerator","display":"Numerator"}]},"count":1}]}]},"request":{"method":"PUT","url":"MeasureReport/59c81296-3f5b-4019-9fcb-6366cd1661b1"}}]}