{"resourceType":"Bundle","id":"tests-61ca9664-580e-4f01-8015-8cb3bcf00a01-bundle","type":"transaction","entry":[{"fullUrl":"https://madie.cms.gov/Patient/61ca9664-580e-4f01-8015-8cb3bcf00a01","resource":{"resourceType":"Patient","id":"61ca9664-580e-4f01-8015-8cb3bcf00a01","meta":{"profile":["http://hl7.org/fhir/us/qicore/StructureDefinition/qicore-patient"]},"extension":[{"url":"http://hl7.org/fhir/us/core/StructureDefinition/us-core-race","extension":[{"url":"ombCategory","valueCoding":{"system":"urn:oid:2.16.840.1.113883.6.238","code":"1002-5","display":"American Indian or Alaska Native","userSelected":true}},{"url":"text","valueString":"American Indian or Alaska Native"}]},{"url":"http://hl7.org/fhir/us/core/StructureDefinition/us-core-ethnicity","extension":[{"url":"ombCategory","valueCoding":{"system":"urn:oid:2.16.840.1.113883.6.238","code":"2186-5","display":"Not Hispanic or Latino","userSelected":true}},{"url":"text","valueString":"Not Hispanic or Latino"}]}],"identifier":[{"type":{"coding":[{"system":"http://terminology.hl7.org/CodeSystem/v2-0203","code":"MR"}]},"system":"https://bonnie-fhir.healthit.gov/","value":"60ec6943bc72857e238afa20"}],"name":[{"family":"DENEXFail","given":["ScleritisEndB4CatSurg"]}],"gender":"male","birthDate":"1967-06-15"},"request":{"method":"PUT","url":"Patient/61ca9664-580e-4f01-8015-8cb3bcf00a01"}},{"fullUrl":"https://madie.cms.gov/Condition/135186135163155","resource":{"resourceType":"Condition","id":"7d4da16d-1bc1-429f-8084-76a10009b55a","meta":{"profile":["http://hl7.org/fhir/us/qicore/StructureDefinition/qicore-condition"]},"category":[{"coding":[{"system":"http://terminology.hl7.org/CodeSystem/condition-category","code":"problem-list-item","display":"Problem List Item"}]}],"code":{"coding":[{"system":"http://snomed.info/sct","version":"http://snomed.info/sct/731000124108/version/20230301","code":"78370002"}]},"subject":{"reference":"Patient/61ca9664-580e-4f01-8015-8cb3bcf00a01"},"recordedDate":"2025-08-12T02:00:00.000+00:00"},"request":{"method":"PUT","url":"Condition/7d4da16d-1bc1-429f-8084-76a10009b55a"}},{"fullUrl":"https://madie.cms.gov/Procedure/51613161513131","resource":{"resourceType":"Procedure","id":"05b0194b-e461-48f1-bd7f-81b6b0f749e9","meta":{"profile":["http://hl7.org/fhir/us/qicore/StructureDefinition/qicore-procedure"]},"extension":[{"url":"http://hl7.org/fhir/us/qicore/StructureDefinition/qicore-recorded","valueDateTime":"2025-08-30T09:35:00-08:00"}],"status":"completed","code":{"coding":[{"system":"http://snomed.info/sct","version":"http://snomed.info/sct/731000124108/version/20230301","code":"5130002"}]},"subject":{"reference":"Patient/61ca9664-580e-4f01-8015-8cb3bcf00a01"},"performedDateTime":"2025-08-15T08:00:00.000+00:00"},"request":{"method":"PUT","url":"Procedure/05b0194b-e461-48f1-bd7f-81b6b0f749e9"}},{"fullUrl":"https://madie.cms.gov/Coverage/116545661661631","resource":{"resourceType":"Coverage","id":"a137c9d6-b3ba-435f-8818-dcb203420b43","meta":{"profile":["http://hl7.org/fhir/us/qicore/StructureDefinition/qicore-coverage"]},"status":"active","beneficiary":{"reference":"Patient/61ca9664-580e-4f01-8015-8cb3bcf00a01"},"payor":[{"reference":"Organization/ec8cac12-7dd8-4c6e-8c44-d6c645085c80"}]},"request":{"method":"PUT","url":"Coverage/a137c9d6-b3ba-435f-8818-dcb203420b43"}},{"fullUrl":"https://madie.cms.gov/Organization/123456","resource":{"resourceType":"Organization","id":"ec8cac12-7dd8-4c6e-8c44-d6c645085c80","meta":{"profile":["http://hl7.org/fhir/us/qicore/StructureDefinition/qicore-organization"]},"identifier":[{"use":"temp","system":"urn:oid:2.16.840.1.113883.4.4","value":"21-3259825"}],"active":true,"type":[{"coding":[{"system":"http://terminology.hl7.org/CodeSystem/organization-type","code":"pay","display":"Payer"}]}],"name":"Blue Cross Blue Shield of Texas","telecom":[{"system":"phone","value":"(+1) 972-766-6900"}],"address":[{"use":"billing","type":"postal","line":["P.O. Box 660044"],"city":"Dallas","state":"TX","postalCode":"75266-0044","country":"USA"}]},"request":{"method":"PUT","url":"Organization/ec8cac12-7dd8-4c6e-8c44-d6c645085c80"}},{"fullUrl":"https://madie.cms.gov/Practitioner/686516161651","resource":{"resourceType":"Practitioner","id":"ce38f771-d60c-4e65-aad7-037799768c66","meta":{"profile":["http://hl7.org/fhir/us/qicore/StructureDefinition/qicore-practitioner"]},"identifier":[{"system":"http://hl7.org/fhir/sid/us-npi","value":"2496541684"}],"name":[{"family":"Smith","prefix":["Dr"]}]},"request":{"method":"PUT","url":"Practitioner/ce38f771-d60c-4e65-aad7-037799768c66"}},{"fullUrl":"https://madie.cms.gov/MeasureReport/ca83bcd8-980b-4dad-8902-8893c7eb658a","resource":{"resourceType":"MeasureReport","id":"ca83bcd8-980b-4dad-8902-8893c7eb658a","meta":{"profile":["http://hl7.org/fhir/us/cqfmeasures/StructureDefinition/test-case-cqfm"]},"contained":[{"resourceType":"Parameters","id":"5d2aadbb-167b-4cf6-9dc2-6374b8d6ae42-parameters","parameter":[{"name":"subject","valueString":"61ca9664-580e-4f01-8015-8cb3bcf00a01"}]}],"extension":[{"url":"http://hl7.org/fhir/us/cqfmeasures/StructureDefinition/cqfm-inputParameters","valueReference":{"reference":"#5d2aadbb-167b-4cf6-9dc2-6374b8d6ae42-parameters"}},{"url":"http://hl7.org/fhir/us/cqfmeasures/StructureDefinition/cqfm-testCaseDescription","valueMarkdown":"Patient with scleritis started but ended before cataract surgery. "}],"modifierExtension":[{"url":"http://hl7.org/fhir/us/cqfmeasures/StructureDefinition/cqfm-isTestCase","valueBoolean":true}],"status":"complete","type":"individual","measure":"https://madie.cms.gov/Measure/Cataracts2040BCVAwithin90DaysFHIR","period":{"start":"2025-01-01","end":"2025-12-31"},"group":[{"population":[{"code":{"coding":[{"system":"http://terminology.hl7.org/CodeSystem/measure-population","code":"initial-population","display":"Initial Population"}]},"count":1},{"code":{"coding":[{"system":"http://terminology.hl7.org/CodeSystem/measure-population","code":"denominator","display":"Denominator"}]},"count":1},{"code":{"coding":[{"system":"http://terminology.hl7.org/CodeSystem/measure-population","code":"denominator-exclusion","display":"Denominator Exclusion"}]},"count":0},{"code":{"coding":[{"system":"http://terminology.hl7.org/CodeSystem/measure-population","code":"numerator","display":"Numerator"}]},"count":0}]}]},"request":{"method":"PUT","url":"MeasureReport/ca83bcd8-980b-4dad-8902-8893c7eb658a"}}]}