{"resourceType":"Bundle","id":"tests-58ffc94d-dd15-4bf4-899e-5574b47f4615-bundle","type":"transaction","entry":[{"fullUrl":"https://madie.cms.gov/Patient/58ffc94d-dd15-4bf4-899e-5574b47f4615","resource":{"resourceType":"Patient","id":"58ffc94d-dd15-4bf4-899e-5574b47f4615","meta":{"profile":["http://hl7.org/fhir/us/qicore/StructureDefinition/qicore-patient"]},"text":{"status":"generated","div":"<div xmlns=\"http://www.w3.org/1999/xhtml\"><div class=\"hapiHeaderText\">Age@18 <b>DENOMPASS </b></div><table class=\"hapiPropertyTable\"><tbody><tr><td>Identifier</td><td>67f3e33acf17bcb386e754d726ed064ccd48ba21ff0ffb2eb678740a684398be</td></tr><tr><td>Date of birth</td><td><span>01 January 1994</span></td></tr></tbody></table></div>"},"extension":[{"url":"http://hl7.org/fhir/us/core/StructureDefinition/us-core-race","extension":[{"url":"ombCategory","valueCoding":{"system":"urn:oid:2.16.840.1.113883.6.238","code":"1002-5","display":"American Indian or Alaska Native","userSelected":true}},{"url":"detailed","valueCoding":{"system":"urn:oid:2.16.840.1.113883.6.238","code":"1586-7","display":"Shoshone"}},{"url":"detailed","valueCoding":{"system":"urn:oid:2.16.840.1.113883.6.238","code":"2036-2","display":"Filipino"}},{"url":"text","valueString":"American Indian or Alaska Native"}]},{"url":"http://hl7.org/fhir/us/core/StructureDefinition/us-core-ethnicity","extension":[{"url":"ombCategory","valueCoding":{"system":"urn:oid:2.16.840.1.113883.6.238","code":"2135-2","display":"Hispanic or Latino","userSelected":true}},{"url":"detailed","valueCoding":{"system":"urn:oid:2.16.840.1.113883.6.238","code":"2184-0","display":"Dominican"}},{"url":"detailed","valueCoding":{"system":"urn:oid:2.16.840.1.113883.6.238","code":"2148-5","display":"Mexican"}},{"url":"text","valueString":"Hispanic or Latino"}]}],"identifier":[{"type":{"coding":[{"system":"http://terminology.hl7.org/CodeSystem/v2-0203","code":"MR"}]},"system":"https://bonnie-fhir.healthit.gov/","value":"61095b0998086b53805591a5"}],"active":true,"name":[{"use":"usual","family":"NUMPASS","given":["VisAcuity20/40=90DaysAfterEdge"]}],"gender":"female","birthDate":"1994-01-01"},"request":{"method":"PUT","url":"Patient/58ffc94d-dd15-4bf4-899e-5574b47f4615"}},{"fullUrl":"https://madie.cms.gov/Observation/5c9a4252b84846291b7a7085","resource":{"resourceType":"Observation","id":"51b04d8a-b42c-4245-937d-584baa7fec89","meta":{"profile":["http://hl7.org/fhir/us/qicore/StructureDefinition/qicore-observation"]},"status":"final","category":[{"coding":[{"system":"http://terminology.hl7.org/CodeSystem/observation-category","code":"exam","display":"exam"}]}],"code":{"coding":[{"system":"http://snomed.info/sct","code":"419775003"}]},"subject":{"reference":"Patient/58ffc94d-dd15-4bf4-899e-5574b47f4615"},"effectivePeriod":{"start":"2025-03-13T09:00:00+00:00","end":"2025-03-13T09:30:00+00:00"}},"request":{"method":"PUT","url":"Observation/51b04d8a-b42c-4245-937d-584baa7fec89"}},{"fullUrl":"https://madie.cms.gov/Observation/best-corrected-visual-acuity-observable-entity-f069","resource":{"resourceType":"Observation","id":"80968426-82fd-4d50-985c-973c5226df1f","meta":{"profile":["http://hl7.org/fhir/us/qicore/StructureDefinition/qicore-observation"]},"status":"final","category":[{"coding":[{"system":"http://terminology.hl7.org/CodeSystem/observation-category","code":"exam","display":"Exam","userSelected":true}]}],"code":{"coding":[{"system":"http://snomed.info/sct","code":"419775003","display":"Best corrected visual acuity (observable entity)","userSelected":true}]},"subject":{"reference":"Patient/58ffc94d-dd15-4bf4-899e-5574b47f4615"},"effectiveDateTime":"2025-03-31T08:00:00.000Z","valueCodeableConcept":{"coding":[{"system":"http://snomed.info/sct","version":"2021-09","code":"424703005","display":"Distance vision 20/40 (finding)","userSelected":true}]}},"request":{"method":"PUT","url":"Observation/80968426-82fd-4d50-985c-973c5226df1f"}},{"fullUrl":"https://madie.cms.gov/Procedure/5c9a4252b84846291b7a7084","resource":{"resourceType":"Procedure","id":"64d0be9d-b45d-4b06-bc50-7c27fec29aac","meta":{"profile":["http://hl7.org/fhir/us/qicore/StructureDefinition/qicore-procedure"]},"extension":[{"url":"http://hl7.org/fhir/us/qicore/StructureDefinition/qicore-recorded","valueDateTime":"2025-01-01T09:35:00-08:00"}],"status":"completed","code":{"coding":[{"system":"http://snomed.info/sct","code":"84149000"}]},"subject":{"reference":"Patient/58ffc94d-dd15-4bf4-899e-5574b47f4615"},"performedPeriod":{"start":"2025-01-01T09:20:00-08:00","end":"2025-01-05T10:30:00-08:00"}},"request":{"method":"PUT","url":"Procedure/64d0be9d-b45d-4b06-bc50-7c27fec29aac"}},{"fullUrl":"https://madie.cms.gov/Coverage/1","resource":{"resourceType":"Coverage","id":"ca6e9cf2-3dd9-4850-9dd2-3a51221b34d8","meta":{"profile":["http://hl7.org/fhir/us/qicore/StructureDefinition/qicore-coverage"]},"status":"active","beneficiary":{"reference":"Patient/58ffc94d-dd15-4bf4-899e-5574b47f4615"},"payor":[{"reference":"Organization/db141f66-a1cc-407b-9e95-adac27adee14"}]},"request":{"method":"PUT","url":"Coverage/ca6e9cf2-3dd9-4850-9dd2-3a51221b34d8"}},{"fullUrl":"https://madie.cms.gov/Organization/123456","resource":{"resourceType":"Organization","id":"db141f66-a1cc-407b-9e95-adac27adee14","meta":{"profile":["http://hl7.org/fhir/us/qicore/StructureDefinition/qicore-organization"]},"identifier":[{"use":"temp","system":"urn:oid:2.16.840.1.113883.4.4","value":"21-3259825"}],"active":true,"type":[{"coding":[{"system":"http://terminology.hl7.org/CodeSystem/organization-type","code":"pay","display":"Payer"}]}],"name":"Blue Cross Blue Shield of Texas","telecom":[{"system":"phone","value":"(+1) 972-766-6900"}],"address":[{"use":"billing","type":"postal","line":["P.O. Box 660044"],"city":"Dallas","state":"TX","postalCode":"75266-0044","country":"USA"}]},"request":{"method":"PUT","url":"Organization/db141f66-a1cc-407b-9e95-adac27adee14"}},{"fullUrl":"https://madie.cms.gov/Practitioner/practitioner-123456","resource":{"resourceType":"Practitioner","id":"c69c2bd4-842c-4df6-942b-dc51b600afef","meta":{"profile":["http://hl7.org/fhir/us/qicore/StructureDefinition/qicore-practitioner"]},"identifier":[{"system":"http://hl7.org/fhir/sid/us-npi","value":"123456"}],"name":[{"family":"Evil","prefix":["Dr"]}]},"request":{"method":"PUT","url":"Practitioner/c69c2bd4-842c-4df6-942b-dc51b600afef"}},{"fullUrl":"https://madie.cms.gov/MeasureReport/70a8f3d0-3ffb-41bd-89de-0b09e34b292c","resource":{"resourceType":"MeasureReport","id":"70a8f3d0-3ffb-41bd-89de-0b09e34b292c","meta":{"profile":["http://hl7.org/fhir/us/cqfmeasures/StructureDefinition/test-case-cqfm"]},"contained":[{"resourceType":"Parameters","id":"3583e835-1c8d-4c3f-853b-42de755bd090-parameters","parameter":[{"name":"subject","valueString":"58ffc94d-dd15-4bf4-899e-5574b47f4615"}]}],"extension":[{"url":"http://hl7.org/fhir/us/cqfmeasures/StructureDefinition/cqfm-inputParameters","valueReference":{"reference":"#3583e835-1c8d-4c3f-853b-42de755bd090-parameters"}},{"url":"http://hl7.org/fhir/us/cqfmeasures/StructureDefinition/cqfm-testCaseDescription","valueMarkdown":"Patient with cataract surgery 1/1 and visual acuity 20/40 or better at 90 days after cataract surgery. "}],"modifierExtension":[{"url":"http://hl7.org/fhir/us/cqfmeasures/StructureDefinition/cqfm-isTestCase","valueBoolean":true}],"status":"complete","type":"individual","measure":"https://madie.cms.gov/Measure/Cataracts2040BCVAwithin90DaysFHIR","period":{"start":"2025-01-01","end":"2025-12-31"},"group":[{"population":[{"code":{"coding":[{"system":"http://terminology.hl7.org/CodeSystem/measure-population","code":"initial-population","display":"Initial Population"}]},"count":1},{"code":{"coding":[{"system":"http://terminology.hl7.org/CodeSystem/measure-population","code":"denominator","display":"Denominator"}]},"count":1},{"code":{"coding":[{"system":"http://terminology.hl7.org/CodeSystem/measure-population","code":"denominator-exclusion","display":"Denominator Exclusion"}]},"count":0},{"code":{"coding":[{"system":"http://terminology.hl7.org/CodeSystem/measure-population","code":"numerator","display":"Numerator"}]},"count":1}]}]},"request":{"method":"PUT","url":"MeasureReport/70a8f3d0-3ffb-41bd-89de-0b09e34b292c"}}]}