{"resourceType":"Bundle","id":"tests-cd97bd33-8e19-409c-ae92-b3c665cf3282-bundle","type":"transaction","entry":[{"fullUrl":"https://madie.cms.gov/Patient/cd97bd33-8e19-409c-ae92-b3c665cf3282","resource":{"resourceType":"Patient","id":"cd97bd33-8e19-409c-ae92-b3c665cf3282","meta":{"profile":["http://hl7.org/fhir/us/qicore/StructureDefinition/qicore-patient"]},"text":{"status":"generated","div":"<div xmlns=\"http://www.w3.org/1999/xhtml\"><div class=\"hapiHeaderText\">Age@18 <b>DENOMPASS </b></div><table class=\"hapiPropertyTable\"><tbody><tr><td>Identifier</td><td>67f3e33acf17bcb386e754d726ed064ccd48ba21ff0ffb2eb678740a684398be</td></tr><tr><td>Date of birth</td><td><span>01 January 1994</span></td></tr></tbody></table></div>"},"extension":[{"url":"http://hl7.org/fhir/us/core/StructureDefinition/us-core-race","extension":[{"url":"ombCategory","valueCoding":{"system":"urn:oid:2.16.840.1.113883.6.238","code":"1002-5","display":"American Indian or Alaska Native","userSelected":true}},{"url":"text","valueString":"American Indian or Alaska Native"}]},{"url":"http://hl7.org/fhir/us/core/StructureDefinition/us-core-ethnicity","extension":[{"url":"ombCategory","valueCoding":{"system":"urn:oid:2.16.840.1.113883.6.238","code":"2135-2","display":"Hispanic or Latino","userSelected":true}},{"url":"text","valueString":"Hispanic or Latino"}]}],"identifier":[{"type":{"coding":[{"system":"http://terminology.hl7.org/CodeSystem/v2-0203","code":"MR"}]},"system":"https://bonnie-fhir.healthit.gov/","value":"61095b0998086b53805591a5"}],"active":true,"name":[{"use":"usual","family":"DENEXPASS","given":["CataractPosteriorPolarOverlapsCatSurg"]}],"gender":"female","birthDate":"1994-01-01"},"request":{"method":"PUT","url":"Patient/cd97bd33-8e19-409c-ae92-b3c665cf3282"}},{"fullUrl":"https://madie.cms.gov/Observation/5c9a4252b84846291b7a7085","resource":{"resourceType":"Observation","id":"a6af034f-a8ec-4e00-8d76-f4a250dabe13","meta":{"profile":["http://hl7.org/fhir/us/qicore/StructureDefinition/qicore-observation"]},"status":"final","category":[{"coding":[{"system":"http://terminology.hl7.org/CodeSystem/observation-category","code":"exam","display":"exam"}]}],"code":{"coding":[{"system":"http://snomed.info/sct","code":"419775003"}]},"subject":{"reference":"Patient/cd97bd33-8e19-409c-ae92-b3c665cf3282"},"effectivePeriod":{"start":"2025-03-13T09:00:00+00:00","end":"2025-03-13T09:30:00+00:00"}},"request":{"method":"PUT","url":"Observation/a6af034f-a8ec-4e00-8d76-f4a250dabe13"}},{"fullUrl":"https://madie.cms.gov/Procedure/5c9a4252b84846291b7a7084","resource":{"resourceType":"Procedure","id":"55d761a1-5ccd-4711-8ab6-1069d4719711","meta":{"profile":["http://hl7.org/fhir/us/qicore/StructureDefinition/qicore-procedure"]},"extension":[{"url":"http://hl7.org/fhir/us/qicore/StructureDefinition/qicore-recorded","valueDateTime":"2025-03-05T09:35:00-04:00"}],"status":"completed","code":{"coding":[{"system":"http://snomed.info/sct","code":"84149000"}]},"subject":{"reference":"Patient/cd97bd33-8e19-409c-ae92-b3c665cf3282"},"performedPeriod":{"start":"2025-03-05T09:20:00-04:00","end":"2025-04-05T10:30:00-04:00"}},"request":{"method":"PUT","url":"Procedure/55d761a1-5ccd-4711-8ab6-1069d4719711"}},{"fullUrl":"https://madie.cms.gov/Condition/CataractPosteriorPolar","resource":{"resourceType":"Condition","id":"f4a608fc-5e05-408e-95e1-3f0e2e20a5ec","meta":{"profile":["http://hl7.org/fhir/us/qicore/StructureDefinition/qicore-condition"]},"clinicalStatus":{"coding":[{"system":"http://terminology.hl7.org/CodeSystem/condition-clinical","code":"active","display":"active","userSelected":true}]},"category":[{"coding":[{"system":"http://terminology.hl7.org/CodeSystem/condition-clinical","code":"active","display":"active","userSelected":true}]}],"code":{"coding":[{"system":"http://hl7.org/fhir/sid/icd-10-cm","code":"H25.041","userSelected":true},{"system":"http://snomed.info/sct","code":"315353005","userSelected":true}]},"subject":{"reference":"Patient/cd97bd33-8e19-409c-ae92-b3c665cf3282"},"onsetDateTime":"2022-11-01T08:00:00.000+00:00"},"request":{"method":"PUT","url":"Condition/f4a608fc-5e05-408e-95e1-3f0e2e20a5ec"}},{"fullUrl":"https://madie.cms.gov/Coverage/1","resource":{"resourceType":"Coverage","id":"8a64e9f8-e4e7-4b53-8ece-126c34576cb9","meta":{"profile":["http://hl7.org/fhir/us/qicore/StructureDefinition/qicore-coverage"]},"status":"active","beneficiary":{"reference":"Patient/cd97bd33-8e19-409c-ae92-b3c665cf3282"},"payor":[{"reference":"Organization/41c75c00-82d9-4ab2-98f6-cfaf7fc3381d"}]},"request":{"method":"PUT","url":"Coverage/8a64e9f8-e4e7-4b53-8ece-126c34576cb9"}},{"fullUrl":"https://madie.cms.gov/Organization/123456","resource":{"resourceType":"Organization","id":"41c75c00-82d9-4ab2-98f6-cfaf7fc3381d","meta":{"profile":["http://hl7.org/fhir/us/qicore/StructureDefinition/qicore-organization"]},"identifier":[{"use":"temp","system":"urn:oid:2.16.840.1.113883.4.4","value":"21-3259825"}],"active":true,"type":[{"coding":[{"system":"http://terminology.hl7.org/CodeSystem/organization-type","code":"pay","display":"Payer"}]}],"name":"Blue Cross Blue Shield of Texas","telecom":[{"system":"phone","value":"(+1) 972-766-6900"}],"address":[{"use":"billing","type":"postal","line":["P.O. Box 660044"],"city":"Dallas","state":"TX","postalCode":"75266-0044","country":"USA"}]},"request":{"method":"PUT","url":"Organization/41c75c00-82d9-4ab2-98f6-cfaf7fc3381d"}},{"fullUrl":"https://madie.cms.gov/Practitioner/practitioner-123456","resource":{"resourceType":"Practitioner","id":"96f0c8eb-8a33-414b-bdd4-702bd714af84","meta":{"profile":["http://hl7.org/fhir/us/qicore/StructureDefinition/qicore-practitioner"]},"identifier":[{"system":"http://hl7.org/fhir/sid/us-npi","value":"123456"}],"name":[{"family":"Evil","prefix":["Dr"]}]},"request":{"method":"PUT","url":"Practitioner/96f0c8eb-8a33-414b-bdd4-702bd714af84"}},{"fullUrl":"https://madie.cms.gov/MeasureReport/2cf38746-ebd0-4d05-8529-46c0102fa1c6","resource":{"resourceType":"MeasureReport","id":"2cf38746-ebd0-4d05-8529-46c0102fa1c6","meta":{"profile":["http://hl7.org/fhir/us/cqfmeasures/StructureDefinition/test-case-cqfm"]},"contained":[{"resourceType":"Parameters","id":"add8b198-3a6d-405a-99d3-9950fa0a7d72-parameters","parameter":[{"name":"subject","valueString":"cd97bd33-8e19-409c-ae92-b3c665cf3282"}]}],"extension":[{"url":"http://hl7.org/fhir/us/cqfmeasures/StructureDefinition/cqfm-inputParameters","valueReference":{"reference":"#add8b198-3a6d-405a-99d3-9950fa0a7d72-parameters"}},{"url":"http://hl7.org/fhir/us/cqfmeasures/StructureDefinition/cqfm-testCaseDescription","valueMarkdown":"Patient with Cataract Posterior Polar overlapping cataract surgery. "}],"modifierExtension":[{"url":"http://hl7.org/fhir/us/cqfmeasures/StructureDefinition/cqfm-isTestCase","valueBoolean":true}],"status":"complete","type":"individual","measure":"https://madie.cms.gov/Measure/Cataracts2040BCVAwithin90DaysFHIR","period":{"start":"2025-01-01","end":"2025-12-31"},"group":[{"population":[{"code":{"coding":[{"system":"http://terminology.hl7.org/CodeSystem/measure-population","code":"initial-population","display":"Initial Population"}]},"count":1},{"code":{"coding":[{"system":"http://terminology.hl7.org/CodeSystem/measure-population","code":"denominator","display":"Denominator"}]},"count":1},{"code":{"coding":[{"system":"http://terminology.hl7.org/CodeSystem/measure-population","code":"denominator-exclusion","display":"Denominator Exclusion"}]},"count":1},{"code":{"coding":[{"system":"http://terminology.hl7.org/CodeSystem/measure-population","code":"numerator","display":"Numerator"}]},"count":0}]}]},"request":{"method":"PUT","url":"MeasureReport/2cf38746-ebd0-4d05-8529-46c0102fa1c6"}}]}