{"resourceType":"Bundle","id":"tests-23a8b7f2-ec1b-4d2e-9ad0-5565ce7bba8c-bundle","type":"transaction","entry":[{"fullUrl":"https://madie.cms.gov/Patient/23a8b7f2-ec1b-4d2e-9ad0-5565ce7bba8c","resource":{"resourceType":"Patient","id":"23a8b7f2-ec1b-4d2e-9ad0-5565ce7bba8c","meta":{"profile":["http://hl7.org/fhir/us/qicore/StructureDefinition/qicore-patient"]},"text":{"status":"generated","div":"<div xmlns=\"http://www.w3.org/1999/xhtml\"><div class=\"hapiHeaderText\">BadDef_NoneSTK <b>IPFAIL </b></div><table class=\"hapiPropertyTable\"><tbody><tr><td>Identifier</td><td>05f04bc3a037918e7f8e8e698f994329</td></tr><tr><td>Date of birth</td><td><span>21 August 1994</span></td></tr></tbody></table></div>"},"extension":[{"url":"http://hl7.org/fhir/us/core/StructureDefinition/us-core-race","extension":[{"url":"ombCategory","valueCoding":{"system":"urn:oid:2.16.840.1.113883.6.238","code":"1002-5","display":"American Indian or Alaska Native","userSelected":true}},{"url":"text","valueString":"American Indian or Alaska Native"}]},{"url":"http://hl7.org/fhir/us/core/StructureDefinition/us-core-ethnicity","extension":[{"url":"ombCategory","valueCoding":{"system":"urn:oid:2.16.840.1.113883.6.238","code":"2135-2","display":"Hispanic or Latino","userSelected":true}},{"url":"text","valueString":"Hispanic or Latino"}]}],"identifier":[{"type":{"coding":[{"system":"http://terminology.hl7.org/CodeSystem/v2-0203","code":"MR"}]},"system":"https://bonnie-fhir.healthit.gov/","value":"6129135702c62a011f2e75cf"}],"active":true,"name":[{"use":"usual","family":"IPFail","given":["BadDef_NoneSTK"]}],"gender":"male","birthDate":"2004-08-21"},"request":{"method":"PUT","url":"Patient/23a8b7f2-ec1b-4d2e-9ad0-5565ce7bba8c"}},{"fullUrl":"https://madie.cms.gov/Encounter/8b1dfded-131c-4c45-9704-f940f81b57d7","resource":{"resourceType":"Encounter","id":"8b1dfded-131c-4c45-9704-f940f81b57d7","meta":{"profile":["http://hl7.org/fhir/us/qicore/StructureDefinition/qicore-encounter"]},"status":"finished","class":{"system":"http://terminology.hl7.org/CodeSystem/v3-ActCode","code":"IMP","display":"inpatient encounter","userSelected":true},"type":[{"coding":[{"system":"http://snomed.info/sct","code":"32485007"}]}],"subject":{"reference":"Patient/23a8b7f2-ec1b-4d2e-9ad0-5565ce7bba8c"},"period":{"start":"2026-08-21T09:30:00.000+00:00","end":"2026-12-19T10:30:00.000+00:00"},"length":{"value":120.0,"unit":"days"}},"request":{"method":"PUT","url":"Encounter/8b1dfded-131c-4c45-9704-f940f81b57d7"}},{"fullUrl":"https://madie.cms.gov/Coverage/895699af-dcba-4f1d-a7ea-1876df816174","resource":{"resourceType":"Coverage","id":"895699af-dcba-4f1d-a7ea-1876df816174","meta":{"profile":["http://hl7.org/fhir/us/qicore/StructureDefinition/qicore-coverage"]},"status":"active","beneficiary":{"reference":"Patient/23a8b7f2-ec1b-4d2e-9ad0-5565ce7bba8c"},"payor":[{"reference":"Organization/5ad6ea38-07e9-4482-9e1b-c09eee595be9"}]},"request":{"method":"PUT","url":"Coverage/895699af-dcba-4f1d-a7ea-1876df816174"}},{"fullUrl":"https://madie.cms.gov/Organization/57dcb88c-0262-48ec-ab04-46575d1d8834","resource":{"resourceType":"Organization","id":"5ad6ea38-07e9-4482-9e1b-c09eee595be9","meta":{"profile":["http://hl7.org/fhir/us/qicore/StructureDefinition/qicore-organization"]},"identifier":[{"use":"temp","system":"urn:oid:2.16.840.1.113883.4.4","value":"21-3259825"}],"active":true,"type":[{"coding":[{"system":"http://terminology.hl7.org/CodeSystem/organization-type","code":"pay","display":"Payer"}]}],"name":"Blue Cross Blue Shield of Texas","telecom":[{"system":"phone","value":"(+1) 972-766-6900"}],"address":[{"use":"billing","type":"postal","line":["P.O. Box 660044"],"city":"Dallas","state":"TX","postalCode":"75266-0044","country":"USA"}]},"request":{"method":"PUT","url":"Organization/5ad6ea38-07e9-4482-9e1b-c09eee595be9"}},{"fullUrl":"https://madie.cms.gov/MeasureReport/f77bfedb-2499-47ca-b4fa-ddbba774fa19","resource":{"resourceType":"MeasureReport","id":"f77bfedb-2499-47ca-b4fa-ddbba774fa19","meta":{"profile":["http://hl7.org/fhir/us/cqfmeasures/StructureDefinition/test-case-cqfm"]},"contained":[{"resourceType":"Parameters","id":"1c30c186-bcf8-463c-89ca-c5c0ec1879d3-parameters","parameter":[{"name":"subject","valueString":"23a8b7f2-ec1b-4d2e-9ad0-5565ce7bba8c"}]}],"extension":[{"url":"http://hl7.org/fhir/us/cqfmeasures/StructureDefinition/cqfm-inputParameters","valueReference":{"reference":"#1c30c186-bcf8-463c-89ca-c5c0ec1879d3-parameters"}},{"url":"http://hl7.org/fhir/us/cqfmeasures/StructureDefinition/cqfm-testCaseDescription","valueMarkdown":"Patient is 18 with Non-Elective Inpatient Encounter (LOS 120 days) ends during MP with no principal diagnosis of stroke\n"}],"modifierExtension":[{"url":"http://hl7.org/fhir/us/cqfmeasures/StructureDefinition/cqfm-isTestCase","valueBoolean":true}],"status":"complete","type":"individual","measure":"https://madie.cms.gov/Measure/CMS104FHIRSTKDCAntithrombotic","period":{"start":"2026-01-01","end":"2026-12-31"},"group":[{"population":[{"code":{"coding":[{"system":"http://terminology.hl7.org/CodeSystem/measure-population","code":"initial-population","display":"Initial Population"}]},"count":0},{"code":{"coding":[{"system":"http://terminology.hl7.org/CodeSystem/measure-population","code":"denominator","display":"Denominator"}]},"count":0},{"code":{"coding":[{"system":"http://terminology.hl7.org/CodeSystem/measure-population","code":"denominator-exclusion","display":"Denominator Exclusion"}]},"count":0},{"code":{"coding":[{"system":"http://terminology.hl7.org/CodeSystem/measure-population","code":"numerator","display":"Numerator"}]},"count":0},{"code":{"coding":[{"system":"http://terminology.hl7.org/CodeSystem/measure-population","code":"denominator-exception","display":"Denominator Exception"}]},"count":0}]}]},"request":{"method":"PUT","url":"MeasureReport/f77bfedb-2499-47ca-b4fa-ddbba774fa19"}}]}