{"resourceType":"Bundle","id":"tests-3da60e55-4952-4341-b2eb-a79707f4ec3e-bundle","type":"transaction","entry":[{"fullUrl":"https://madie.cms.gov/Patient/3da60e55-4952-4341-b2eb-a79707f4ec3e","resource":{"resourceType":"Patient","id":"3da60e55-4952-4341-b2eb-a79707f4ec3e","meta":{"profile":["http://hl7.org/fhir/us/qicore/StructureDefinition/qicore-patient"]},"text":{"status":"generated","div":"<div xmlns=\"http://www.w3.org/1999/xhtml\"><div class=\"hapiHeaderText\">CMOdurObs_ED&lt;1hrObs&lt;1hrBFEnc <b>DENEXPASS </b></div><table class=\"hapiPropertyTable\"><tbody><tr><td>Identifier</td><td>be1b0e9bc1417561cde46dac918ff4d2</td></tr><tr><td>Date of birth</td><td><span>21 August 1994</span></td></tr></tbody></table></div>"},"extension":[{"url":"http://hl7.org/fhir/us/core/StructureDefinition/us-core-race","extension":[{"url":"ombCategory","valueCoding":{"system":"urn:oid:2.16.840.1.113883.6.238","code":"1002-5","display":"American Indian or Alaska Native","userSelected":true}},{"url":"text","valueString":"American Indian or Alaska Native"}]},{"url":"http://hl7.org/fhir/us/core/StructureDefinition/us-core-ethnicity","extension":[{"url":"ombCategory","valueCoding":{"system":"urn:oid:2.16.840.1.113883.6.238","code":"2135-2","display":"Hispanic or Latino","userSelected":true}},{"url":"text","valueString":"Hispanic or Latino"}]}],"identifier":[{"type":{"coding":[{"system":"http://terminology.hl7.org/CodeSystem/v2-0203","code":"MR"}]},"system":"https://bonnie-fhir.healthit.gov/","value":"6129133e02c62a011f2e6a2c"}],"active":true,"name":[{"use":"usual","family":"DENEXPass","given":["CMOdurObs_ED<1hrObs<1hrBFEnc"]}],"gender":"male","birthDate":"1995-08-21"},"request":{"method":"PUT","url":"Patient/3da60e55-4952-4341-b2eb-a79707f4ec3e"}},{"fullUrl":"https://madie.cms.gov/Encounter/251efc29-4c01-4a51-a532-2aae2e430dd6","resource":{"resourceType":"Encounter","id":"251efc29-4c01-4a51-a532-2aae2e430dd6","meta":{"profile":["http://hl7.org/fhir/us/qicore/StructureDefinition/qicore-encounter"]},"status":"finished","class":{"system":"http://terminology.hl7.org/CodeSystem/v3-ActCode","code":"EMER","display":"emergency","userSelected":true},"type":[{"coding":[{"system":"http://snomed.info/sct","code":"4525004"}]}],"subject":{"reference":"Patient/3da60e55-4952-4341-b2eb-a79707f4ec3e"},"period":{"start":"2026-10-10T07:30:00.000+00:00","end":"2026-10-10T07:31:00.000+00:00"},"length":{"value":0,"unit":"days"}},"request":{"method":"PUT","url":"Encounter/251efc29-4c01-4a51-a532-2aae2e430dd6"}},{"fullUrl":"https://madie.cms.gov/Encounter/6f2866c7-65ce-41fe-949e-592a9a265e2d","resource":{"resourceType":"Encounter","id":"6f2866c7-65ce-41fe-949e-592a9a265e2d","meta":{"profile":["http://hl7.org/fhir/us/qicore/StructureDefinition/qicore-encounter"]},"status":"finished","class":{"system":"http://terminology.hl7.org/CodeSystem/v3-ActCode","code":"OBSENC","display":"observation encounter","userSelected":true},"type":[{"coding":[{"system":"http://snomed.info/sct","code":"448851000124103"}]}],"subject":{"reference":"Patient/3da60e55-4952-4341-b2eb-a79707f4ec3e"},"period":{"start":"2026-10-10T07:32:00.000+00:00","end":"2026-10-10T08:00:00.000+00:00"},"length":{"value":0,"unit":"days"}},"request":{"method":"PUT","url":"Encounter/6f2866c7-65ce-41fe-949e-592a9a265e2d"}},{"fullUrl":"https://madie.cms.gov/Encounter/1d4078f0-2b84-4312-81f6-7f433e8730f4","resource":{"resourceType":"Encounter","id":"1d4078f0-2b84-4312-81f6-7f433e8730f4","meta":{"profile":["http://hl7.org/fhir/us/qicore/StructureDefinition/qicore-encounter"]},"status":"finished","class":{"system":"http://terminology.hl7.org/CodeSystem/v3-ActCode","code":"IMP","display":"inpatient encounter","userSelected":true},"type":[{"coding":[{"system":"http://snomed.info/sct","code":"32485007"}]}],"subject":{"reference":"Patient/3da60e55-4952-4341-b2eb-a79707f4ec3e"},"period":{"start":"2026-10-10T08:01:00.000+00:00","end":"2026-10-12T10:30:00.000+00:00"},"length":{"value":2,"unit":"days"},"diagnosis":[{"condition":{"reference":"Condition/ed19f729-aea5-417f-92ec-b353f2e198bf"},"use":{"coding":[{"system":"http://terminology.hl7.org/CodeSystem/diagnosis-role","code":"billing","display":"Billing"}]},"rank":1}]},"request":{"method":"PUT","url":"Encounter/1d4078f0-2b84-4312-81f6-7f433e8730f4"}},{"fullUrl":"https://madie.cms.gov/ServiceRequest/8a4c7b09-0c19-477b-8a2a-5b8c039a9dbe","resource":{"resourceType":"ServiceRequest","id":"8a4c7b09-0c19-477b-8a2a-5b8c039a9dbe","meta":{"profile":["http://hl7.org/fhir/us/qicore/StructureDefinition/qicore-servicerequest"]},"status":"active","intent":"order","code":{"coding":[{"system":"http://snomed.info/sct","code":"133918004"}]},"subject":{"reference":"Patient/3da60e55-4952-4341-b2eb-a79707f4ec3e"},"authoredOn":"2026-10-12T08:00:00.000+00:00"},"request":{"method":"PUT","url":"ServiceRequest/8a4c7b09-0c19-477b-8a2a-5b8c039a9dbe"}},{"fullUrl":"https://madie.cms.gov/Condition/ed19f729-aea5-417f-92ec-b353f2e198bf","resource":{"resourceType":"Condition","id":"ed19f729-aea5-417f-92ec-b353f2e198bf","meta":{"profile":["http://hl7.org/fhir/us/qicore/StructureDefinition/qicore-condition"]},"clinicalStatus":{"coding":[{"system":"http://terminology.hl7.org/CodeSystem/condition-clinical","code":"active"}]},"verificationStatus":{"coding":[{"system":"http://terminology.hl7.org/CodeSystem/condition-ver-status","code":"confirmed"}]},"category":[{"coding":[{"system":"http://terminology.hl7.org/CodeSystem/condition-category","code":"encounter-diagnosis","display":"Encounter Diagnosis"}]}],"code":{"coding":[{"system":"http://snomed.info/sct","version":"2020-09","code":"111297002","display":"Nonparalytic stroke (disorder)","userSelected":true}]},"subject":{"reference":"Patient/3da60e55-4952-4341-b2eb-a79707f4ec3e"},"recordedDate":"2026-07-15T08:00:00.000+00:00"},"request":{"method":"PUT","url":"Condition/ed19f729-aea5-417f-92ec-b353f2e198bf"}},{"fullUrl":"https://madie.cms.gov/Coverage/1ed17ad3-8769-421f-9556-6c8d506a8465","resource":{"resourceType":"Coverage","id":"1ed17ad3-8769-421f-9556-6c8d506a8465","meta":{"profile":["http://hl7.org/fhir/us/qicore/StructureDefinition/qicore-coverage"]},"status":"active","beneficiary":{"reference":"Patient/3da60e55-4952-4341-b2eb-a79707f4ec3e"},"payor":[{"reference":"Organization/db141f66-a1cc-407b-9e95-adac27adee14"}]},"request":{"method":"PUT","url":"Coverage/1ed17ad3-8769-421f-9556-6c8d506a8465"}},{"fullUrl":"https://madie.cms.gov/Organization/a91c0255-e0a7-4bcd-8761-9e0b05cc5f1d","resource":{"resourceType":"Organization","id":"db141f66-a1cc-407b-9e95-adac27adee14","meta":{"profile":["http://hl7.org/fhir/us/qicore/StructureDefinition/qicore-organization"]},"identifier":[{"use":"temp","system":"urn:oid:2.16.840.1.113883.4.4","value":"21-3259825"}],"active":true,"type":[{"coding":[{"system":"http://terminology.hl7.org/CodeSystem/organization-type","code":"pay","display":"Payer"}]}],"name":"Blue Cross Blue Shield of Texas","telecom":[{"system":"phone","value":"(+1) 972-766-6900"}],"address":[{"use":"billing","type":"postal","line":["P.O. Box 660044"],"city":"Dallas","state":"TX","postalCode":"75266-0044","country":"USA"}]},"request":{"method":"PUT","url":"Organization/db141f66-a1cc-407b-9e95-adac27adee14"}},{"fullUrl":"https://madie.cms.gov/MeasureReport/7dbde091-7ba9-4a83-a965-7cd26ece8bee","resource":{"resourceType":"MeasureReport","id":"7dbde091-7ba9-4a83-a965-7cd26ece8bee","meta":{"profile":["http://hl7.org/fhir/us/cqfmeasures/StructureDefinition/test-case-cqfm"]},"contained":[{"resourceType":"Parameters","id":"81193fe3-0fb6-4e1a-aa46-36bf5b3ca617-parameters","parameter":[{"name":"subject","valueString":"3da60e55-4952-4341-b2eb-a79707f4ec3e"}]}],"extension":[{"url":"http://hl7.org/fhir/us/cqfmeasures/StructureDefinition/cqfm-inputParameters","valueReference":{"reference":"#81193fe3-0fb6-4e1a-aa46-36bf5b3ca617-parameters"}},{"url":"http://hl7.org/fhir/us/cqfmeasures/StructureDefinition/cqfm-testCaseDescription","valueMarkdown":"Patient receives comfort measures order during ED visit that ends <= 1 hour before IP Encounter"}],"modifierExtension":[{"url":"http://hl7.org/fhir/us/cqfmeasures/StructureDefinition/cqfm-isTestCase","valueBoolean":true}],"status":"complete","type":"individual","measure":"https://madie.cms.gov/Measure/CMS104FHIRSTKDCAntithrombotic","period":{"start":"2026-01-01","end":"2026-12-31"},"group":[{"population":[{"code":{"coding":[{"system":"http://terminology.hl7.org/CodeSystem/measure-population","code":"initial-population","display":"Initial Population"}]},"count":1},{"code":{"coding":[{"system":"http://terminology.hl7.org/CodeSystem/measure-population","code":"denominator","display":"Denominator"}]},"count":1},{"code":{"coding":[{"system":"http://terminology.hl7.org/CodeSystem/measure-population","code":"denominator-exclusion","display":"Denominator Exclusion"}]},"count":1},{"code":{"coding":[{"system":"http://terminology.hl7.org/CodeSystem/measure-population","code":"numerator","display":"Numerator"}]},"count":0},{"code":{"coding":[{"system":"http://terminology.hl7.org/CodeSystem/measure-population","code":"denominator-exception","display":"Denominator Exception"}]},"count":0}]}]},"request":{"method":"PUT","url":"MeasureReport/7dbde091-7ba9-4a83-a965-7cd26ece8bee"}}]}