{"resourceType":"Bundle","id":"tests-f705cc70-0d7d-4dc1-88f7-9b37ab5290d2-bundle","type":"transaction","entry":[{"fullUrl":"https://madie.cms.gov/Patient/f705cc70-0d7d-4dc1-88f7-9b37ab5290d2","resource":{"resourceType":"Patient","id":"f705cc70-0d7d-4dc1-88f7-9b37ab5290d2","meta":{"profile":["http://hl7.org/fhir/us/qicore/StructureDefinition/qicore-patient"]},"text":{"status":"generated","div":"<div xmlns=\"http://www.w3.org/1999/xhtml\"><div class=\"hapiHeaderText\">AntithromboticTMeqIPDischargeTM <b>NUMERPASS </b></div><table class=\"hapiPropertyTable\"><tbody><tr><td>Identifier</td><td>7ab6e63f108901daa30ab76a624a6e8b</td></tr><tr><td>Date of birth</td><td><span>31 May 1990</span></td></tr></tbody></table></div>"},"extension":[{"url":"http://hl7.org/fhir/us/core/StructureDefinition/us-core-race","extension":[{"url":"ombCategory","valueCoding":{"system":"urn:oid:2.16.840.1.113883.6.238","code":"1002-5","display":"American Indian or Alaska Native","userSelected":true}},{"url":"text","valueString":"American Indian or Alaska Native"}]},{"url":"http://hl7.org/fhir/us/core/StructureDefinition/us-core-ethnicity","extension":[{"url":"ombCategory","valueCoding":{"system":"urn:oid:2.16.840.1.113883.6.238","code":"2135-2","display":"Hispanic or Latino","userSelected":true}},{"url":"text","valueString":"Hispanic or Latino"}]}],"identifier":[{"type":{"coding":[{"system":"http://terminology.hl7.org/CodeSystem/v2-0203","code":"MR"}]},"system":"https://bonnie-fhir.healthit.gov/","value":"6129134002c62a011f2e6b12"}],"active":true,"name":[{"use":"usual","family":"NUMERPass","given":["AntithromboticTMeqIPAdmitTM"]}],"gender":"male","birthDate":"2000-05-31"},"request":{"method":"PUT","url":"Patient/f705cc70-0d7d-4dc1-88f7-9b37ab5290d2"}},{"fullUrl":"https://madie.cms.gov/Encounter/e0b1f8d5-54c5-48e5-a33c-b8dac664643b","resource":{"resourceType":"Encounter","id":"e0b1f8d5-54c5-48e5-a33c-b8dac664643b","meta":{"profile":["http://hl7.org/fhir/us/qicore/StructureDefinition/qicore-encounter"]},"status":"finished","class":{"system":"http://terminology.hl7.org/CodeSystem/v3-ActCode","code":"IMP","display":"inpatient encounter","userSelected":true},"type":[{"coding":[{"system":"http://snomed.info/sct","code":"32485007"}]}],"subject":{"reference":"Patient/f705cc70-0d7d-4dc1-88f7-9b37ab5290d2"},"period":{"start":"2026-06-15T09:30:00.000+00:00","end":"2026-10-12T10:30:00.000+00:00"},"length":{"value":119,"unit":"days"},"diagnosis":[{"condition":{"reference":"Condition/76f57903-c217-41ae-925b-115612ce3543"},"use":{"coding":[{"system":"http://terminology.hl7.org/CodeSystem/diagnosis-role","code":"billing","display":"Billing"}]},"rank":1}]},"request":{"method":"PUT","url":"Encounter/e0b1f8d5-54c5-48e5-a33c-b8dac664643b"}},{"fullUrl":"https://madie.cms.gov/MedicationRequest/5e384fc8-1625-4693-bee8-2747004bae37","resource":{"resourceType":"MedicationRequest","id":"5e384fc8-1625-4693-bee8-2747004bae37","meta":{"profile":["http://hl7.org/fhir/us/qicore/StructureDefinition/qicore-medicationrequest"]},"status":"active","intent":"order","category":[{"coding":[{"system":"http://terminology.hl7.org/CodeSystem/medicationrequest-category","code":"discharge","display":"Discharge","userSelected":true}]}],"medicationCodeableConcept":{"coding":[{"system":"http://www.nlm.nih.gov/research/umls/rxnorm","code":"1037045"}]},"subject":{"reference":"Patient/f705cc70-0d7d-4dc1-88f7-9b37ab5290d2"},"authoredOn":"2026-06-15T09:30:00.000+00:00","requester":{"reference":"Practitioner/example"}},"request":{"method":"PUT","url":"MedicationRequest/5e384fc8-1625-4693-bee8-2747004bae37"}},{"fullUrl":"https://madie.cms.gov/Condition/76f57903-c217-41ae-925b-115612ce3543","resource":{"resourceType":"Condition","id":"76f57903-c217-41ae-925b-115612ce3543","meta":{"profile":["http://hl7.org/fhir/us/qicore/StructureDefinition/qicore-condition"]},"clinicalStatus":{"coding":[{"system":"http://terminology.hl7.org/CodeSystem/condition-clinical","code":"active"}]},"verificationStatus":{"coding":[{"system":"http://terminology.hl7.org/CodeSystem/condition-ver-status","code":"confirmed"}]},"category":[{"coding":[{"system":"http://terminology.hl7.org/CodeSystem/condition-category","code":"encounter-diagnosis","display":"Encounter Diagnosis"}]}],"code":{"coding":[{"system":"http://snomed.info/sct","version":"2020-09","code":"111297002","display":"Nonparalytic stroke (disorder)","userSelected":true}]},"subject":{"reference":"Patient/f705cc70-0d7d-4dc1-88f7-9b37ab5290d2"},"recordedDate":"2026-07-15T08:00:00.000+00:00"},"request":{"method":"PUT","url":"Condition/76f57903-c217-41ae-925b-115612ce3543"}},{"fullUrl":"https://madie.cms.gov/Coverage/2285b921-ddcf-4d17-8c15-3b1145666466","resource":{"resourceType":"Coverage","id":"2285b921-ddcf-4d17-8c15-3b1145666466","meta":{"profile":["http://hl7.org/fhir/us/qicore/StructureDefinition/qicore-coverage"]},"status":"active","beneficiary":{"reference":"Patient/f705cc70-0d7d-4dc1-88f7-9b37ab5290d2"},"payor":[{"reference":"Organization/607fdef9-3983-4cef-ab1a-95434d29b463"}]},"request":{"method":"PUT","url":"Coverage/2285b921-ddcf-4d17-8c15-3b1145666466"}},{"fullUrl":"https://madie.cms.gov/Organization/0da04cbc-1b91-44c5-993f-4623d682c57e","resource":{"resourceType":"Organization","id":"607fdef9-3983-4cef-ab1a-95434d29b463","meta":{"profile":["http://hl7.org/fhir/us/qicore/StructureDefinition/qicore-organization"]},"identifier":[{"use":"temp","system":"urn:oid:2.16.840.1.113883.4.4","value":"21-3259825"}],"active":true,"type":[{"coding":[{"system":"http://terminology.hl7.org/CodeSystem/organization-type","code":"pay","display":"Payer"}]}],"name":"Blue Cross Blue Shield of Texas","telecom":[{"system":"phone","value":"(+1) 972-766-6900"}],"address":[{"use":"billing","type":"postal","line":["P.O. Box 660044"],"city":"Dallas","state":"TX","postalCode":"75266-0044","country":"USA"}]},"request":{"method":"PUT","url":"Organization/607fdef9-3983-4cef-ab1a-95434d29b463"}},{"fullUrl":"https://madie.cms.gov/MeasureReport/3a1d7fad-34c0-4661-87b7-4b0d6a925b5e","resource":{"resourceType":"MeasureReport","id":"3a1d7fad-34c0-4661-87b7-4b0d6a925b5e","meta":{"profile":["http://hl7.org/fhir/us/cqfmeasures/StructureDefinition/test-case-cqfm"]},"contained":[{"resourceType":"Parameters","id":"e6df516c-627c-4a29-9d8b-2644d57b6dd8-parameters","parameter":[{"name":"subject","valueString":"f705cc70-0d7d-4dc1-88f7-9b37ab5290d2"}]}],"extension":[{"url":"http://hl7.org/fhir/us/cqfmeasures/StructureDefinition/cqfm-inputParameters","valueReference":{"reference":"#e6df516c-627c-4a29-9d8b-2644d57b6dd8-parameters"}},{"url":"http://hl7.org/fhir/us/cqfmeasures/StructureDefinition/cqfm-testCaseDescription","valueMarkdown":"Antithrombotic Time equals Admit Time"}],"modifierExtension":[{"url":"http://hl7.org/fhir/us/cqfmeasures/StructureDefinition/cqfm-isTestCase","valueBoolean":true}],"status":"complete","type":"individual","measure":"https://madie.cms.gov/Measure/CMS104FHIRSTKDCAntithrombotic","period":{"start":"2026-01-01","end":"2026-12-31"},"group":[{"population":[{"code":{"coding":[{"system":"http://terminology.hl7.org/CodeSystem/measure-population","code":"initial-population","display":"Initial Population"}]},"count":1},{"code":{"coding":[{"system":"http://terminology.hl7.org/CodeSystem/measure-population","code":"denominator","display":"Denominator"}]},"count":1},{"code":{"coding":[{"system":"http://terminology.hl7.org/CodeSystem/measure-population","code":"denominator-exclusion","display":"Denominator Exclusion"}]},"count":0},{"code":{"coding":[{"system":"http://terminology.hl7.org/CodeSystem/measure-population","code":"numerator","display":"Numerator"}]},"count":1},{"code":{"coding":[{"system":"http://terminology.hl7.org/CodeSystem/measure-population","code":"denominator-exception","display":"Denominator Exception"}]},"count":0}]}]},"request":{"method":"PUT","url":"MeasureReport/3a1d7fad-34c0-4661-87b7-4b0d6a925b5e"}}]}