{"resourceType":"Bundle","id":"tests-d21be273-87ad-4ab5-a936-9de820872e73-bundle","type":"transaction","entry":[{"fullUrl":"https://madie.cms.gov/Patient/d21be273-87ad-4ab5-a936-9de820872e73","resource":{"resourceType":"Patient","id":"d21be273-87ad-4ab5-a936-9de820872e73","meta":{"profile":["http://hl7.org/fhir/us/qicore/StructureDefinition/qicore-patient"]},"text":{"status":"generated","div":"<div xmlns=\"http://www.w3.org/1999/xhtml\"><div class=\"hapiHeaderText\">NonEleInpEncx2 <b>IPPASS </b></div><table class=\"hapiPropertyTable\"><tbody><tr><td>Identifier</td><td>4314501ac9915755d89aa739ef32efe2</td></tr><tr><td>Date of birth</td><td><span>21 August 1994</span></td></tr></tbody></table></div>"},"extension":[{"url":"http://hl7.org/fhir/us/core/StructureDefinition/us-core-race","extension":[{"url":"ombCategory","valueCoding":{"system":"urn:oid:2.16.840.1.113883.6.238","code":"1002-5","display":"American Indian or Alaska Native","userSelected":true}},{"url":"text","valueString":"American Indian or Alaska Native"}]},{"url":"http://hl7.org/fhir/us/core/StructureDefinition/us-core-ethnicity","extension":[{"url":"ombCategory","valueCoding":{"system":"urn:oid:2.16.840.1.113883.6.238","code":"2135-2","display":"Hispanic or Latino","userSelected":true}},{"url":"text","valueString":"Hispanic or Latino"}]}],"identifier":[{"type":{"coding":[{"system":"http://terminology.hl7.org/CodeSystem/v2-0203","code":"MR"}]},"system":"https://bonnie-fhir.healthit.gov/","value":"6129131602c62a011f2e593f"}],"active":true,"name":[{"use":"usual","family":"IPPass","given":["NonEleInpEncx2"]}],"gender":"male","birthDate":"2004-08-21"},"request":{"method":"PUT","url":"Patient/d21be273-87ad-4ab5-a936-9de820872e73"}},{"fullUrl":"https://madie.cms.gov/Encounter/fd22ac12-25c1-4b35-afdb-458c4b94f2d7","resource":{"resourceType":"Encounter","id":"fd22ac12-25c1-4b35-afdb-458c4b94f2d7","meta":{"profile":["http://hl7.org/fhir/us/qicore/StructureDefinition/qicore-encounter"]},"status":"finished","class":{"system":"http://terminology.hl7.org/CodeSystem/v3-ActCode","code":"IMP","display":"inpatient encounter","userSelected":true},"type":[{"coding":[{"system":"http://snomed.info/sct","code":"32485007"}]}],"subject":{"reference":"Patient/d21be273-87ad-4ab5-a936-9de820872e73"},"period":{"start":"2026-10-11T09:30:00.000+00:00","end":"2026-10-13T10:30:00.000+00:00"},"length":{"value":2,"unit":"days"},"diagnosis":[{"condition":{"reference":"Condition/63a7e9e8-674c-4d52-b489-d535f3174a24"},"use":{"coding":[{"system":"http://terminology.hl7.org/CodeSystem/diagnosis-role","code":"billing","display":"Billing"}]},"rank":1}]},"request":{"method":"PUT","url":"Encounter/fd22ac12-25c1-4b35-afdb-458c4b94f2d7"}},{"fullUrl":"https://madie.cms.gov/Encounter/487c846c-569a-4988-886e-b2578f53e284","resource":{"resourceType":"Encounter","id":"487c846c-569a-4988-886e-b2578f53e284","meta":{"profile":["http://hl7.org/fhir/us/qicore/StructureDefinition/qicore-encounter"]},"status":"finished","class":{"system":"http://terminology.hl7.org/CodeSystem/v3-ActCode","code":"IMP","display":"inpatient encounter","userSelected":true},"type":[{"coding":[{"system":"http://snomed.info/sct","code":"32485007"}]}],"subject":{"reference":"Patient/d21be273-87ad-4ab5-a936-9de820872e73"},"period":{"start":"2026-10-10T09:30:00.000+00:00","end":"2026-10-11T10:30:00.000+00:00"},"length":{"value":1,"unit":"day"},"diagnosis":[{"condition":{"reference":"Condition/02df5ab9-7489-42b7-a550-19fa526e5b3c"},"use":{"coding":[{"system":"http://snomed.info/sct","code":"195155004","display":"Subarachnoid hemorrhage from carotid siphon and bifurcation (disorder)"}]},"rank":2}]},"request":{"method":"PUT","url":"Encounter/487c846c-569a-4988-886e-b2578f53e284"}},{"fullUrl":"https://madie.cms.gov/Condition/63a7e9e8-674c-4d52-b489-d535f3174a24","resource":{"resourceType":"Condition","id":"63a7e9e8-674c-4d52-b489-d535f3174a24","meta":{"profile":["http://hl7.org/fhir/us/qicore/StructureDefinition/qicore-condition"]},"clinicalStatus":{"coding":[{"system":"http://terminology.hl7.org/CodeSystem/condition-clinical","code":"active"}]},"verificationStatus":{"coding":[{"system":"http://terminology.hl7.org/CodeSystem/condition-ver-status","code":"confirmed"}]},"category":[{"coding":[{"system":"http://terminology.hl7.org/CodeSystem/condition-category","code":"encounter-diagnosis","display":"Encounter Diagnosis"}]}],"code":{"coding":[{"system":"http://snomed.info/sct","version":"2020-09","code":"111297002","display":"Nonparalytic stroke (disorder)","userSelected":true}]},"subject":{"reference":"Patient/d21be273-87ad-4ab5-a936-9de820872e73"},"recordedDate":"2026-07-15T08:00:00.000+00:00"},"request":{"method":"PUT","url":"Condition/63a7e9e8-674c-4d52-b489-d535f3174a24"}},{"fullUrl":"https://madie.cms.gov/Condition/02df5ab9-7489-42b7-a550-19fa526e5b3c","resource":{"resourceType":"Condition","id":"02df5ab9-7489-42b7-a550-19fa526e5b3c","meta":{"profile":["http://hl7.org/fhir/us/qicore/StructureDefinition/qicore-condition"]},"clinicalStatus":{"coding":[{"system":"http://terminology.hl7.org/CodeSystem/condition-clinical","code":"active"}]},"verificationStatus":{"coding":[{"system":"http://terminology.hl7.org/CodeSystem/condition-ver-status","code":"confirmed"}]},"category":[{"coding":[{"system":"http://terminology.hl7.org/CodeSystem/condition-category","code":"encounter-diagnosis","display":"Encounter Diagnosis"}]}],"code":{"coding":[{"system":"http://snomed.info/sct","version":"2020-09","code":"195155004","display":"Subarachnoid hemorrhage from carotid siphon and bifurcation (disorder)","userSelected":true}]},"subject":{"reference":"Patient/d21be273-87ad-4ab5-a936-9de820872e73"},"recordedDate":"2026-07-15T08:00:00.000+00:00"},"request":{"method":"PUT","url":"Condition/02df5ab9-7489-42b7-a550-19fa526e5b3c"}},{"fullUrl":"https://madie.cms.gov/Coverage/11ad3d1e-bc4b-4148-870a-94ef761041bb","resource":{"resourceType":"Coverage","id":"11ad3d1e-bc4b-4148-870a-94ef761041bb","meta":{"profile":["http://hl7.org/fhir/us/qicore/StructureDefinition/qicore-coverage"]},"status":"active","beneficiary":{"reference":"Patient/d21be273-87ad-4ab5-a936-9de820872e73"},"payor":[{"reference":"Organization/607fdef9-3983-4cef-ab1a-95434d29b463"}]},"request":{"method":"PUT","url":"Coverage/11ad3d1e-bc4b-4148-870a-94ef761041bb"}},{"fullUrl":"https://madie.cms.gov/Organization/148d85ae-e3a7-4211-901f-b37fe6c90adc","resource":{"resourceType":"Organization","id":"607fdef9-3983-4cef-ab1a-95434d29b463","meta":{"profile":["http://hl7.org/fhir/us/qicore/StructureDefinition/qicore-organization"]},"identifier":[{"use":"temp","system":"urn:oid:2.16.840.1.113883.4.4","value":"21-3259825"}],"active":true,"type":[{"coding":[{"system":"http://terminology.hl7.org/CodeSystem/organization-type","code":"pay","display":"Payer"}]}],"name":"Blue Cross Blue Shield of Texas","telecom":[{"system":"phone","value":"(+1) 972-766-6900"}],"address":[{"use":"billing","type":"postal","line":["P.O. Box 660044"],"city":"Dallas","state":"TX","postalCode":"75266-0044","country":"USA"}]},"request":{"method":"PUT","url":"Organization/607fdef9-3983-4cef-ab1a-95434d29b463"}},{"fullUrl":"https://madie.cms.gov/MeasureReport/ff3173d3-37d8-42ff-9060-7899bec2566c","resource":{"resourceType":"MeasureReport","id":"ff3173d3-37d8-42ff-9060-7899bec2566c","meta":{"profile":["http://hl7.org/fhir/us/cqfmeasures/StructureDefinition/test-case-cqfm"]},"contained":[{"resourceType":"Parameters","id":"e7a0356c-9513-4733-bcdc-62cd1c7c77be-parameters","parameter":[{"name":"subject","valueString":"d21be273-87ad-4ab5-a936-9de820872e73"}]}],"extension":[{"url":"http://hl7.org/fhir/us/cqfmeasures/StructureDefinition/cqfm-inputParameters","valueReference":{"reference":"#e7a0356c-9513-4733-bcdc-62cd1c7c77be-parameters"}},{"url":"http://hl7.org/fhir/us/cqfmeasures/StructureDefinition/cqfm-testCaseDescription","valueMarkdown":"Patient is 18 with Non-Elective Inpatient Encounter with principal diagnosis of ischemic stroke ends during MP contains overlapping inpatient encounters. \n"}],"modifierExtension":[{"url":"http://hl7.org/fhir/us/cqfmeasures/StructureDefinition/cqfm-isTestCase","valueBoolean":true}],"status":"complete","type":"individual","measure":"https://madie.cms.gov/Measure/CMS104FHIRSTKDCAntithrombotic","period":{"start":"2026-01-01","end":"2026-12-31"},"group":[{"population":[{"code":{"coding":[{"system":"http://terminology.hl7.org/CodeSystem/measure-population","code":"initial-population","display":"Initial Population"}]},"count":1},{"code":{"coding":[{"system":"http://terminology.hl7.org/CodeSystem/measure-population","code":"denominator","display":"Denominator"}]},"count":1},{"code":{"coding":[{"system":"http://terminology.hl7.org/CodeSystem/measure-population","code":"denominator-exclusion","display":"Denominator Exclusion"}]},"count":0},{"code":{"coding":[{"system":"http://terminology.hl7.org/CodeSystem/measure-population","code":"numerator","display":"Numerator"}]},"count":0},{"code":{"coding":[{"system":"http://terminology.hl7.org/CodeSystem/measure-population","code":"denominator-exception","display":"Denominator Exception"}]},"count":0}]}]},"request":{"method":"PUT","url":"MeasureReport/ff3173d3-37d8-42ff-9060-7899bec2566c"}}]}