{"resourceType":"Bundle","id":"tests-6abe0474-e60b-438d-b661-4be178e6b4bd-bundle","type":"transaction","entry":[{"fullUrl":"https://madie.cms.gov/Patient/6abe0474-e60b-438d-b661-4be178e6b4bd","resource":{"resourceType":"Patient","id":"6abe0474-e60b-438d-b661-4be178e6b4bd","meta":{"profile":["http://hl7.org/fhir/us/qicore/StructureDefinition/qicore-patient"]},"text":{"status":"generated","div":"<div xmlns=\"http://www.w3.org/1999/xhtml\"><div class=\"hapiHeaderText\">CMOdurEnc_ED=1hrObs=1hrBFEnc <b>DENEXPASS </b></div><table class=\"hapiPropertyTable\"><tbody><tr><td>Identifier</td><td>2d91ceeba148db3c346267cbc6c1af8c</td></tr><tr><td>Date of birth</td><td><span>21 August 1994</span></td></tr></tbody></table></div>"},"extension":[{"url":"http://hl7.org/fhir/us/core/StructureDefinition/us-core-race","extension":[{"url":"ombCategory","valueCoding":{"system":"urn:oid:2.16.840.1.113883.6.238","code":"1002-5","display":"American Indian or Alaska Native","userSelected":true}},{"url":"text","valueString":"American Indian or Alaska Native"}]},{"url":"http://hl7.org/fhir/us/core/StructureDefinition/us-core-ethnicity","extension":[{"url":"ombCategory","valueCoding":{"system":"urn:oid:2.16.840.1.113883.6.238","code":"2135-2","display":"Hispanic or Latino","userSelected":true}},{"url":"text","valueString":"Hispanic or Latino"}]}],"identifier":[{"type":{"coding":[{"system":"http://terminology.hl7.org/CodeSystem/v2-0203","code":"MR"}]},"system":"https://bonnie-fhir.healthit.gov/","value":"6129132e02c62a011f2e636e"}],"active":true,"name":[{"use":"usual","family":"DENEXPass","given":["CMOdurEnc_ED=1hrObs=1hrBFEnc"]}],"gender":"male","birthDate":"1995-08-21"},"request":{"method":"PUT","url":"Patient/6abe0474-e60b-438d-b661-4be178e6b4bd"}},{"fullUrl":"https://madie.cms.gov/Encounter/ca27a565-20cd-4069-81eb-de7fb34388c5","resource":{"resourceType":"Encounter","id":"ca27a565-20cd-4069-81eb-de7fb34388c5","meta":{"profile":["http://hl7.org/fhir/us/qicore/StructureDefinition/qicore-encounter"]},"status":"finished","class":{"system":"http://terminology.hl7.org/CodeSystem/v3-ActCode","code":"EMER","display":"emergency","userSelected":true},"type":[{"coding":[{"system":"http://snomed.info/sct","code":"4525004"}]}],"subject":{"reference":"Patient/6abe0474-e60b-438d-b661-4be178e6b4bd"},"period":{"start":"2026-10-09T08:00:00.000+00:00","end":"2026-10-09T08:15:00.000+00:00"},"length":{"value":0,"unit":"days"}},"request":{"method":"PUT","url":"Encounter/ca27a565-20cd-4069-81eb-de7fb34388c5"}},{"fullUrl":"https://madie.cms.gov/Encounter/778d7694-914e-491f-ba01-6e4264106895","resource":{"resourceType":"Encounter","id":"778d7694-914e-491f-ba01-6e4264106895","meta":{"profile":["http://hl7.org/fhir/us/qicore/StructureDefinition/qicore-encounter"]},"status":"finished","class":{"system":"http://terminology.hl7.org/CodeSystem/v3-ActCode","code":"OBSENC","display":"observation encounter","userSelected":true},"type":[{"coding":[{"system":"http://snomed.info/sct","code":"448851000124103"}]}],"subject":{"reference":"Patient/6abe0474-e60b-438d-b661-4be178e6b4bd"},"period":{"start":"2026-10-09T09:15:00.000+00:00","end":"2026-10-09T09:30:00.000+00:00"},"length":{"value":0,"unit":"days"}},"request":{"method":"PUT","url":"Encounter/778d7694-914e-491f-ba01-6e4264106895"}},{"fullUrl":"https://madie.cms.gov/Encounter/bcd2afdd-2786-4ce0-8a7f-5fc8f0a97d39","resource":{"resourceType":"Encounter","id":"bcd2afdd-2786-4ce0-8a7f-5fc8f0a97d39","meta":{"profile":["http://hl7.org/fhir/us/qicore/StructureDefinition/qicore-encounter"]},"status":"finished","class":{"system":"http://terminology.hl7.org/CodeSystem/v3-ActCode","code":"IMP","display":"inpatient encounter","userSelected":true},"type":[{"coding":[{"system":"http://snomed.info/sct","code":"32485007"}]}],"subject":{"reference":"Patient/6abe0474-e60b-438d-b661-4be178e6b4bd"},"period":{"start":"2026-10-10T10:30:00.000+00:00","end":"2026-10-12T10:30:00.000+00:00"},"length":{"value":2,"unit":"days"},"diagnosis":[{"condition":{"reference":"Condition/8d039b92-4ede-4bd5-8c2f-bc169e29b79b"},"use":{"coding":[{"system":"http://terminology.hl7.org/CodeSystem/diagnosis-role","code":"billing","display":"Billing"}]},"rank":1}]},"request":{"method":"PUT","url":"Encounter/bcd2afdd-2786-4ce0-8a7f-5fc8f0a97d39"}},{"fullUrl":"https://madie.cms.gov/ServiceRequest/0f6e8ac4-8535-474f-b76e-e8c505877220","resource":{"resourceType":"ServiceRequest","id":"0f6e8ac4-8535-474f-b76e-e8c505877220","meta":{"profile":["http://hl7.org/fhir/us/qicore/StructureDefinition/qicore-servicerequest"]},"status":"active","intent":"order","code":{"coding":[{"system":"http://snomed.info/sct","code":"133918004"}]},"subject":{"reference":"Patient/6abe0474-e60b-438d-b661-4be178e6b4bd"},"authoredOn":"2026-10-10T10:30:00.000+00:00"},"request":{"method":"PUT","url":"ServiceRequest/0f6e8ac4-8535-474f-b76e-e8c505877220"}},{"fullUrl":"https://madie.cms.gov/Condition/8d039b92-4ede-4bd5-8c2f-bc169e29b79b","resource":{"resourceType":"Condition","id":"8d039b92-4ede-4bd5-8c2f-bc169e29b79b","meta":{"profile":["http://hl7.org/fhir/us/qicore/StructureDefinition/qicore-condition"]},"clinicalStatus":{"coding":[{"system":"http://terminology.hl7.org/CodeSystem/condition-clinical","code":"active"}]},"verificationStatus":{"coding":[{"system":"http://terminology.hl7.org/CodeSystem/condition-ver-status","code":"confirmed"}]},"category":[{"coding":[{"system":"http://terminology.hl7.org/CodeSystem/condition-category","code":"encounter-diagnosis","display":"Encounter Diagnosis"}]}],"code":{"coding":[{"system":"http://snomed.info/sct","version":"2020-09","code":"111297002","display":"Nonparalytic stroke (disorder)","userSelected":true}]},"subject":{"reference":"Patient/6abe0474-e60b-438d-b661-4be178e6b4bd"},"recordedDate":"2026-07-14T08:00:00.000+00:00"},"request":{"method":"PUT","url":"Condition/8d039b92-4ede-4bd5-8c2f-bc169e29b79b"}},{"fullUrl":"https://madie.cms.gov/Coverage/a56f4392-c1f6-4952-9a99-27a22cc057ff","resource":{"resourceType":"Coverage","id":"a56f4392-c1f6-4952-9a99-27a22cc057ff","meta":{"profile":["http://hl7.org/fhir/us/qicore/StructureDefinition/qicore-coverage"]},"status":"active","beneficiary":{"reference":"Patient/6abe0474-e60b-438d-b661-4be178e6b4bd"},"payor":[{"reference":"Organization/607fdef9-3983-4cef-ab1a-95434d29b463"}]},"request":{"method":"PUT","url":"Coverage/a56f4392-c1f6-4952-9a99-27a22cc057ff"}},{"fullUrl":"https://madie.cms.gov/Organization/3e4432c9-8cb1-4eb9-9ea6-455622729b28","resource":{"resourceType":"Organization","id":"607fdef9-3983-4cef-ab1a-95434d29b463","meta":{"profile":["http://hl7.org/fhir/us/qicore/StructureDefinition/qicore-organization"]},"identifier":[{"use":"temp","system":"urn:oid:2.16.840.1.113883.4.4","value":"21-3259825"}],"active":true,"type":[{"coding":[{"system":"http://terminology.hl7.org/CodeSystem/organization-type","code":"pay","display":"Payer"}]}],"name":"Blue Cross Blue Shield of Texas","telecom":[{"system":"phone","value":"(+1) 972-766-6900"}],"address":[{"use":"billing","type":"postal","line":["P.O. Box 660044"],"city":"Dallas","state":"TX","postalCode":"75266-0044","country":"USA"}]},"request":{"method":"PUT","url":"Organization/607fdef9-3983-4cef-ab1a-95434d29b463"}},{"fullUrl":"https://madie.cms.gov/MeasureReport/4445eabc-6c98-45b3-a304-f68c2a3e8f37","resource":{"resourceType":"MeasureReport","id":"4445eabc-6c98-45b3-a304-f68c2a3e8f37","meta":{"profile":["http://hl7.org/fhir/us/cqfmeasures/StructureDefinition/test-case-cqfm"]},"contained":[{"resourceType":"Parameters","id":"b82f28bd-233e-44c7-9688-4793e3fff7d4-parameters","parameter":[{"name":"subject","valueString":"6abe0474-e60b-438d-b661-4be178e6b4bd"}]}],"extension":[{"url":"http://hl7.org/fhir/us/cqfmeasures/StructureDefinition/cqfm-inputParameters","valueReference":{"reference":"#b82f28bd-233e-44c7-9688-4793e3fff7d4-parameters"}},{"url":"http://hl7.org/fhir/us/cqfmeasures/StructureDefinition/cqfm-testCaseDescription","valueMarkdown":"Patient receives CMO during inpatient encounter. ED ends 60 minutes before observation. Obs ends 60 min before inpatient encounter start. Testing day of operator with HospitalizationWithObservation function."}],"modifierExtension":[{"url":"http://hl7.org/fhir/us/cqfmeasures/StructureDefinition/cqfm-isTestCase","valueBoolean":true}],"status":"complete","type":"individual","measure":"https://madie.cms.gov/Measure/CMS104FHIRSTKDCAntithrombotic","period":{"start":"2026-01-01","end":"2026-12-31"},"group":[{"population":[{"code":{"coding":[{"system":"http://terminology.hl7.org/CodeSystem/measure-population","code":"initial-population","display":"Initial Population"}]},"count":1},{"code":{"coding":[{"system":"http://terminology.hl7.org/CodeSystem/measure-population","code":"denominator","display":"Denominator"}]},"count":1},{"code":{"coding":[{"system":"http://terminology.hl7.org/CodeSystem/measure-population","code":"denominator-exclusion","display":"Denominator Exclusion"}]},"count":1},{"code":{"coding":[{"system":"http://terminology.hl7.org/CodeSystem/measure-population","code":"numerator","display":"Numerator"}]},"count":0},{"code":{"coding":[{"system":"http://terminology.hl7.org/CodeSystem/measure-population","code":"denominator-exception","display":"Denominator Exception"}]},"count":0}]}]},"request":{"method":"PUT","url":"MeasureReport/4445eabc-6c98-45b3-a304-f68c2a3e8f37"}}]}