{"resourceType":"Bundle","id":"tests-15e67912-9913-4b22-9f1b-3e86879e1d6d-bundle","type":"transaction","entry":[{"fullUrl":"https://madie.cms.gov/Patient/15e67912-9913-4b22-9f1b-3e86879e1d6d","resource":{"resourceType":"Patient","id":"15e67912-9913-4b22-9f1b-3e86879e1d6d","meta":{"profile":["http://hl7.org/fhir/us/qicore/StructureDefinition/qicore-patient"]},"text":{"status":"generated","div":"<div xmlns=\"http://www.w3.org/1999/xhtml\"><div class=\"hapiHeaderText\">CMOdurEnc_ED&lt;1hrObs&lt;1hrBFEnc <b>DENEXPASS </b></div><table class=\"hapiPropertyTable\"><tbody><tr><td>Identifier</td><td>7f541e179007ad9d60d9a7087c5b8c8d</td></tr><tr><td>Date of birth</td><td><span>21 August 1994</span></td></tr></tbody></table></div>"},"extension":[{"url":"http://hl7.org/fhir/us/core/StructureDefinition/us-core-race","extension":[{"url":"ombCategory","valueCoding":{"system":"urn:oid:2.16.840.1.113883.6.238","code":"1002-5","display":"American Indian or Alaska Native","userSelected":true}},{"url":"text","valueString":"American Indian or Alaska Native"}]},{"url":"http://hl7.org/fhir/us/core/StructureDefinition/us-core-ethnicity","extension":[{"url":"ombCategory","valueCoding":{"system":"urn:oid:2.16.840.1.113883.6.238","code":"2135-2","display":"Hispanic or Latino","userSelected":true}},{"url":"text","valueString":"Hispanic or Latino"}]}],"identifier":[{"type":{"coding":[{"system":"http://terminology.hl7.org/CodeSystem/v2-0203","code":"MR"}]},"system":"https://bonnie-fhir.healthit.gov/","value":"6129133d02c62a011f2e69a8"}],"active":true,"name":[{"use":"usual","family":"DENEXPass","given":["CMOdurEnc_ED<1hrObs<1hrBFEnc"]}],"gender":"male","birthDate":"1995-08-21"},"request":{"method":"PUT","url":"Patient/15e67912-9913-4b22-9f1b-3e86879e1d6d"}},{"fullUrl":"https://madie.cms.gov/Encounter/95c3846d-307e-48e4-b652-a7f127f7d9db","resource":{"resourceType":"Encounter","id":"95c3846d-307e-48e4-b652-a7f127f7d9db","meta":{"profile":["http://hl7.org/fhir/us/qicore/StructureDefinition/qicore-encounter"]},"status":"finished","class":{"system":"http://terminology.hl7.org/CodeSystem/v3-ActCode","code":"EMER","display":"emergency","userSelected":true},"type":[{"coding":[{"system":"http://snomed.info/sct","code":"4525004"}]}],"subject":{"reference":"Patient/15e67912-9913-4b22-9f1b-3e86879e1d6d"},"period":{"start":"2026-10-10T07:30:00.000+00:00","end":"2026-10-10T07:35:00.000+00:00"},"length":{"value":0,"unit":"days"}},"request":{"method":"PUT","url":"Encounter/95c3846d-307e-48e4-b652-a7f127f7d9db"}},{"fullUrl":"https://madie.cms.gov/Encounter/866493f0-513d-420b-8ad1-ff84aac4f0de","resource":{"resourceType":"Encounter","id":"866493f0-513d-420b-8ad1-ff84aac4f0de","meta":{"profile":["http://hl7.org/fhir/us/qicore/StructureDefinition/qicore-encounter"]},"status":"finished","class":{"system":"http://terminology.hl7.org/CodeSystem/v3-ActCode","code":"OBSENC","display":"observation encounter","userSelected":true},"type":[{"coding":[{"system":"http://snomed.info/sct","code":"448851000124103"}]}],"subject":{"reference":"Patient/15e67912-9913-4b22-9f1b-3e86879e1d6d"},"period":{"start":"2026-10-10T07:36:00.000+00:00","end":"2026-10-10T07:40:00.000+00:00"},"length":{"value":0,"unit":"days"}},"request":{"method":"PUT","url":"Encounter/866493f0-513d-420b-8ad1-ff84aac4f0de"}},{"fullUrl":"https://madie.cms.gov/Encounter/8fe37073-49e5-4434-b3a1-9cb8a1d064bc","resource":{"resourceType":"Encounter","id":"8fe37073-49e5-4434-b3a1-9cb8a1d064bc","meta":{"profile":["http://hl7.org/fhir/us/qicore/StructureDefinition/qicore-encounter"]},"status":"finished","class":{"system":"http://terminology.hl7.org/CodeSystem/v3-ActCode","code":"ACUTE","display":"inpatient acute","userSelected":true},"type":[{"coding":[{"system":"http://snomed.info/sct","code":"32485007"}]}],"subject":{"reference":"Patient/15e67912-9913-4b22-9f1b-3e86879e1d6d"},"period":{"start":"2026-10-10T07:41:00.000+00:00","end":"2026-10-12T10:30:00.000+00:00"},"length":{"value":2,"unit":"days"},"diagnosis":[{"condition":{"reference":"Condition/19ca8a37-aba9-4b18-a033-dd83e7885887"},"use":{"coding":[{"system":"http://terminology.hl7.org/CodeSystem/diagnosis-role","code":"billing","display":"Billing"}]},"rank":1}]},"request":{"method":"PUT","url":"Encounter/8fe37073-49e5-4434-b3a1-9cb8a1d064bc"}},{"fullUrl":"https://madie.cms.gov/ServiceRequest/deb18334-0111-437f-afba-31a6834381d7","resource":{"resourceType":"ServiceRequest","id":"deb18334-0111-437f-afba-31a6834381d7","meta":{"profile":["http://hl7.org/fhir/us/qicore/StructureDefinition/qicore-servicerequest"]},"status":"active","intent":"order","code":{"coding":[{"system":"http://snomed.info/sct","code":"133918004"}]},"subject":{"reference":"Patient/15e67912-9913-4b22-9f1b-3e86879e1d6d"},"authoredOn":"2026-10-10T07:46:00.000+00:00"},"request":{"method":"PUT","url":"ServiceRequest/deb18334-0111-437f-afba-31a6834381d7"}},{"fullUrl":"https://madie.cms.gov/Condition/19ca8a37-aba9-4b18-a033-dd83e7885887","resource":{"resourceType":"Condition","id":"19ca8a37-aba9-4b18-a033-dd83e7885887","meta":{"profile":["http://hl7.org/fhir/us/qicore/StructureDefinition/qicore-condition"]},"clinicalStatus":{"coding":[{"system":"http://terminology.hl7.org/CodeSystem/condition-clinical","code":"active"}]},"verificationStatus":{"coding":[{"system":"http://terminology.hl7.org/CodeSystem/condition-ver-status","code":"confirmed"}]},"category":[{"coding":[{"system":"http://terminology.hl7.org/CodeSystem/condition-category","code":"encounter-diagnosis","display":"Encounter Diagnosis"}]}],"code":{"coding":[{"system":"http://snomed.info/sct","version":"2020-09","code":"111297002","display":"Nonparalytic stroke (disorder)","userSelected":true}]},"subject":{"reference":"Patient/15e67912-9913-4b22-9f1b-3e86879e1d6d"},"recordedDate":"2026-07-14T08:00:00.000+00:00"},"request":{"method":"PUT","url":"Condition/19ca8a37-aba9-4b18-a033-dd83e7885887"}},{"fullUrl":"https://madie.cms.gov/Coverage/01bf26ae-15bd-4b82-8969-702b9dd379ab","resource":{"resourceType":"Coverage","id":"01bf26ae-15bd-4b82-8969-702b9dd379ab","meta":{"profile":["http://hl7.org/fhir/us/qicore/StructureDefinition/qicore-coverage"]},"status":"active","beneficiary":{"reference":"Patient/15e67912-9913-4b22-9f1b-3e86879e1d6d"},"payor":[{"reference":"Organization/607fdef9-3983-4cef-ab1a-95434d29b463"}]},"request":{"method":"PUT","url":"Coverage/01bf26ae-15bd-4b82-8969-702b9dd379ab"}},{"fullUrl":"https://madie.cms.gov/Organization/9b7372ed-aeb5-43e4-83d5-ba976a5f12a9","resource":{"resourceType":"Organization","id":"607fdef9-3983-4cef-ab1a-95434d29b463","meta":{"profile":["http://hl7.org/fhir/us/qicore/StructureDefinition/qicore-organization"]},"identifier":[{"use":"temp","system":"urn:oid:2.16.840.1.113883.4.4","value":"21-3259825"}],"active":true,"type":[{"coding":[{"system":"http://terminology.hl7.org/CodeSystem/organization-type","code":"pay","display":"Payer"}]}],"name":"Blue Cross Blue Shield of Texas","telecom":[{"system":"phone","value":"(+1) 972-766-6900"}],"address":[{"use":"billing","type":"postal","line":["P.O. Box 660044"],"city":"Dallas","state":"TX","postalCode":"75266-0044","country":"USA"}]},"request":{"method":"PUT","url":"Organization/607fdef9-3983-4cef-ab1a-95434d29b463"}},{"fullUrl":"https://madie.cms.gov/MeasureReport/55f3805b-241e-4aed-bf7c-fea79b6e647c","resource":{"resourceType":"MeasureReport","id":"55f3805b-241e-4aed-bf7c-fea79b6e647c","meta":{"profile":["http://hl7.org/fhir/us/cqfmeasures/StructureDefinition/test-case-cqfm"]},"contained":[{"resourceType":"Parameters","id":"fcb8ea2b-7ee0-464b-9540-706766ac4816-parameters","parameter":[{"name":"subject","valueString":"15e67912-9913-4b22-9f1b-3e86879e1d6d"}]}],"extension":[{"url":"http://hl7.org/fhir/us/cqfmeasures/StructureDefinition/cqfm-inputParameters","valueReference":{"reference":"#fcb8ea2b-7ee0-464b-9540-706766ac4816-parameters"}},{"url":"http://hl7.org/fhir/us/cqfmeasures/StructureDefinition/cqfm-testCaseDescription","valueMarkdown":"Patient receives CMO during inpatient encounter. ED ends 1 minute before observation. Obs ends 1 min before inpatient encounter start. Testing day of operator with HospitalizationWithObservation function."}],"modifierExtension":[{"url":"http://hl7.org/fhir/us/cqfmeasures/StructureDefinition/cqfm-isTestCase","valueBoolean":true}],"status":"complete","type":"individual","measure":"https://madie.cms.gov/Measure/CMS104FHIRSTKDCAntithrombotic","period":{"start":"2026-01-01","end":"2026-12-31"},"group":[{"population":[{"code":{"coding":[{"system":"http://terminology.hl7.org/CodeSystem/measure-population","code":"initial-population","display":"Initial Population"}]},"count":1},{"code":{"coding":[{"system":"http://terminology.hl7.org/CodeSystem/measure-population","code":"denominator","display":"Denominator"}]},"count":1},{"code":{"coding":[{"system":"http://terminology.hl7.org/CodeSystem/measure-population","code":"denominator-exclusion","display":"Denominator Exclusion"}]},"count":1},{"code":{"coding":[{"system":"http://terminology.hl7.org/CodeSystem/measure-population","code":"numerator","display":"Numerator"}]},"count":0},{"code":{"coding":[{"system":"http://terminology.hl7.org/CodeSystem/measure-population","code":"denominator-exception","display":"Denominator Exception"}]},"count":0}]}]},"request":{"method":"PUT","url":"MeasureReport/55f3805b-241e-4aed-bf7c-fea79b6e647c"}}]}