{"resourceType":"Bundle","id":"tests-0852e05c-94f3-4467-ad2c-255ffc5050e9-bundle","type":"transaction","entry":[{"fullUrl":"https://madie.cms.gov/Patient/0852e05c-94f3-4467-ad2c-255ffc5050e9","resource":{"resourceType":"Patient","id":"0852e05c-94f3-4467-ad2c-255ffc5050e9","meta":{"profile":["http://hl7.org/fhir/us/qicore/StructureDefinition/qicore-patient"]},"text":{"status":"generated","div":"<div xmlns=\"http://www.w3.org/1999/xhtml\"><div class=\"hapiHeaderText\">CMOdurED_ED&lt;1hrObs&lt;1hrBFEnc <b>DENEXPASS </b></div><table class=\"hapiPropertyTable\"><tbody><tr><td>Identifier</td><td>9f33229f87c10a35f78ce016aca297879ccda928800ebb32cb3005131188e0c3</td></tr><tr><td>Date of birth</td><td><span>21 August 1994</span></td></tr></tbody></table></div>"},"extension":[{"url":"http://hl7.org/fhir/us/core/StructureDefinition/us-core-race","extension":[{"url":"ombCategory","valueCoding":{"system":"urn:oid:2.16.840.1.113883.6.238","code":"1002-5","display":"American Indian or Alaska Native","userSelected":true}},{"url":"text","valueString":"American Indian or Alaska Native"}]},{"url":"http://hl7.org/fhir/us/core/StructureDefinition/us-core-ethnicity","extension":[{"url":"ombCategory","valueCoding":{"system":"urn:oid:2.16.840.1.113883.6.238","code":"2135-2","display":"Hispanic or Latino","userSelected":true}},{"url":"text","valueString":"Hispanic or Latino"}]}],"identifier":[{"type":{"coding":[{"system":"http://terminology.hl7.org/CodeSystem/v2-0203","code":"MR"}]},"system":"https://bonnie-fhir.healthit.gov/","value":"6129134d02c62a011f2e7130"}],"active":true,"name":[{"use":"usual","family":"DENEXPass","given":["CMOdurED_ED<1hrObs<1hrBFEnc"]}],"gender":"male","birthDate":"1995-08-21"},"request":{"method":"PUT","url":"Patient/0852e05c-94f3-4467-ad2c-255ffc5050e9"}},{"fullUrl":"https://madie.cms.gov/Encounter/e784f1db-73bc-4ad7-929b-d430686e52fd","resource":{"resourceType":"Encounter","id":"e784f1db-73bc-4ad7-929b-d430686e52fd","meta":{"profile":["http://hl7.org/fhir/us/qicore/StructureDefinition/qicore-encounter"]},"status":"finished","class":{"system":"http://terminology.hl7.org/CodeSystem/v3-ActCode","code":"EMER","display":"emergency","userSelected":true},"type":[{"coding":[{"system":"http://snomed.info/sct","code":"4525004"}]}],"subject":{"reference":"Patient/0852e05c-94f3-4467-ad2c-255ffc5050e9"},"period":{"start":"2026-10-10T09:30:00.000+00:00","end":"2026-10-10T10:30:00.000+00:00"},"length":{"value":0,"unit":"days"}},"request":{"method":"PUT","url":"Encounter/e784f1db-73bc-4ad7-929b-d430686e52fd"}},{"fullUrl":"https://madie.cms.gov/Encounter/a63ece00-04ff-4578-9599-4aa9eaca2f89","resource":{"resourceType":"Encounter","id":"a63ece00-04ff-4578-9599-4aa9eaca2f89","meta":{"profile":["http://hl7.org/fhir/us/qicore/StructureDefinition/qicore-encounter"]},"status":"finished","class":{"system":"http://terminology.hl7.org/CodeSystem/v3-ActCode","code":"OBSENC","display":"observation encounter","userSelected":true},"type":[{"coding":[{"system":"http://snomed.info/sct","code":"448851000124103"}]}],"subject":{"reference":"Patient/0852e05c-94f3-4467-ad2c-255ffc5050e9"},"period":{"start":"2026-10-10T10:31:00.000+00:00","end":"2026-10-10T10:35:00.000+00:00"},"length":{"value":0,"unit":"days"}},"request":{"method":"PUT","url":"Encounter/a63ece00-04ff-4578-9599-4aa9eaca2f89"}},{"fullUrl":"https://madie.cms.gov/Encounter/de193022-b953-42d7-9da8-62f2b99b204d","resource":{"resourceType":"Encounter","id":"de193022-b953-42d7-9da8-62f2b99b204d","meta":{"profile":["http://hl7.org/fhir/us/qicore/StructureDefinition/qicore-encounter"]},"status":"finished","class":{"system":"http://terminology.hl7.org/CodeSystem/v3-ActCode","code":"IMP","display":"inpatient encounter","userSelected":true},"type":[{"coding":[{"system":"http://snomed.info/sct","code":"32485007"}]}],"subject":{"reference":"Patient/0852e05c-94f3-4467-ad2c-255ffc5050e9"},"period":{"start":"2026-10-10T11:36:00.000+00:00","end":"2026-10-12T11:30:00.000+00:00"},"length":{"value":2,"unit":"days"},"diagnosis":[{"condition":{"reference":"Condition/7ed8a52c-ce29-4a1c-91bb-160410359af6"},"use":{"coding":[{"system":"http://terminology.hl7.org/CodeSystem/diagnosis-role","code":"billing","display":"Billing"}]},"rank":1}]},"request":{"method":"PUT","url":"Encounter/de193022-b953-42d7-9da8-62f2b99b204d"}},{"fullUrl":"https://madie.cms.gov/ServiceRequest/38718283-8281-436f-ae34-c29ab8143390","resource":{"resourceType":"ServiceRequest","id":"38718283-8281-436f-ae34-c29ab8143390","meta":{"profile":["http://hl7.org/fhir/us/qicore/StructureDefinition/qicore-servicerequest"]},"status":"active","intent":"order","code":{"coding":[{"system":"http://snomed.info/sct","code":"133918004"}]},"subject":{"reference":"Patient/0852e05c-94f3-4467-ad2c-255ffc5050e9"},"authoredOn":"2026-10-10T09:30:00.000+00:00"},"request":{"method":"PUT","url":"ServiceRequest/38718283-8281-436f-ae34-c29ab8143390"}},{"fullUrl":"https://madie.cms.gov/Condition/7ed8a52c-ce29-4a1c-91bb-160410359af6","resource":{"resourceType":"Condition","id":"7ed8a52c-ce29-4a1c-91bb-160410359af6","meta":{"profile":["http://hl7.org/fhir/us/qicore/StructureDefinition/qicore-condition"]},"clinicalStatus":{"coding":[{"system":"http://terminology.hl7.org/CodeSystem/condition-clinical","code":"active"}]},"verificationStatus":{"coding":[{"system":"http://terminology.hl7.org/CodeSystem/condition-ver-status","code":"confirmed"}]},"category":[{"coding":[{"system":"http://terminology.hl7.org/CodeSystem/condition-category","code":"encounter-diagnosis","display":"Encounter Diagnosis"}]}],"code":{"coding":[{"system":"http://snomed.info/sct","version":"2020-09","code":"111297002","display":"Nonparalytic stroke (disorder)","userSelected":true}]},"subject":{"reference":"Patient/0852e05c-94f3-4467-ad2c-255ffc5050e9"},"recordedDate":"2026-07-14T08:00:00.000+00:00"},"request":{"method":"PUT","url":"Condition/7ed8a52c-ce29-4a1c-91bb-160410359af6"}},{"fullUrl":"https://madie.cms.gov/Coverage/0157ffcb-d6aa-4c9a-bf9f-d109c87243a9","resource":{"resourceType":"Coverage","id":"0157ffcb-d6aa-4c9a-bf9f-d109c87243a9","meta":{"profile":["http://hl7.org/fhir/us/qicore/StructureDefinition/qicore-coverage"]},"status":"active","beneficiary":{"reference":"Patient/0852e05c-94f3-4467-ad2c-255ffc5050e9"},"payor":[{"reference":"Organization/5ad6ea38-07e9-4482-9e1b-c09eee595be9"}]},"request":{"method":"PUT","url":"Coverage/0157ffcb-d6aa-4c9a-bf9f-d109c87243a9"}},{"fullUrl":"https://madie.cms.gov/Organization/d71aa232-05bb-4227-ae52-e19cbcc7c46a","resource":{"resourceType":"Organization","id":"5ad6ea38-07e9-4482-9e1b-c09eee595be9","meta":{"profile":["http://hl7.org/fhir/us/qicore/StructureDefinition/qicore-organization"]},"identifier":[{"use":"temp","system":"urn:oid:2.16.840.1.113883.4.4","value":"21-3259825"}],"active":true,"type":[{"coding":[{"system":"http://terminology.hl7.org/CodeSystem/organization-type","code":"pay","display":"Payer"}]}],"name":"Blue Cross Blue Shield of Texas","telecom":[{"system":"phone","value":"(+1) 972-766-6900"}],"address":[{"use":"billing","type":"postal","line":["P.O. Box 660044"],"city":"Dallas","state":"TX","postalCode":"75266-0044","country":"USA"}]},"request":{"method":"PUT","url":"Organization/5ad6ea38-07e9-4482-9e1b-c09eee595be9"}},{"fullUrl":"https://madie.cms.gov/MeasureReport/5f4c692b-5140-481b-9662-eb6ec4f41264","resource":{"resourceType":"MeasureReport","id":"5f4c692b-5140-481b-9662-eb6ec4f41264","meta":{"profile":["http://hl7.org/fhir/us/cqfmeasures/StructureDefinition/test-case-cqfm"]},"contained":[{"resourceType":"Parameters","id":"ddfd3b83-2ba3-4c6d-b226-64caf6339a31-parameters","parameter":[{"name":"subject","valueString":"0852e05c-94f3-4467-ad2c-255ffc5050e9"}]}],"extension":[{"url":"http://hl7.org/fhir/us/cqfmeasures/StructureDefinition/cqfm-inputParameters","valueReference":{"reference":"#ddfd3b83-2ba3-4c6d-b226-64caf6339a31-parameters"}},{"url":"http://hl7.org/fhir/us/cqfmeasures/StructureDefinition/cqfm-testCaseDescription","valueMarkdown":"Patient receives CMO during ED. ED ends 1 minute before Obs. Obs ends 61 min before inpatient encounter start.  Testing day of operator with HospitalizationWithObservation function."}],"modifierExtension":[{"url":"http://hl7.org/fhir/us/cqfmeasures/StructureDefinition/cqfm-isTestCase","valueBoolean":true}],"status":"complete","type":"individual","measure":"https://madie.cms.gov/Measure/CMS104FHIRSTKDCAntithrombotic","period":{"start":"2026-01-01","end":"2026-12-31"},"group":[{"population":[{"code":{"coding":[{"system":"http://terminology.hl7.org/CodeSystem/measure-population","code":"initial-population","display":"Initial Population"}]},"count":1},{"code":{"coding":[{"system":"http://terminology.hl7.org/CodeSystem/measure-population","code":"denominator","display":"Denominator"}]},"count":1},{"code":{"coding":[{"system":"http://terminology.hl7.org/CodeSystem/measure-population","code":"denominator-exclusion","display":"Denominator Exclusion"}]},"count":0},{"code":{"coding":[{"system":"http://terminology.hl7.org/CodeSystem/measure-population","code":"numerator","display":"Numerator"}]},"count":0},{"code":{"coding":[{"system":"http://terminology.hl7.org/CodeSystem/measure-population","code":"denominator-exception","display":"Denominator Exception"}]},"count":0}]}]},"request":{"method":"PUT","url":"MeasureReport/5f4c692b-5140-481b-9662-eb6ec4f41264"}}]}