{"resourceType":"Bundle","id":"tests-e6202628-baf6-4d44-acd6-d1affdf3c989-bundle","type":"transaction","entry":[{"fullUrl":"https://madie.cms.gov/Patient/e6202628-baf6-4d44-acd6-d1affdf3c989","resource":{"resourceType":"Patient","id":"e6202628-baf6-4d44-acd6-d1affdf3c989","meta":{"profile":["http://hl7.org/fhir/us/qicore/StructureDefinition/qicore-patient"]},"text":{"status":"generated","div":"<div xmlns=\"http://www.w3.org/1999/xhtml\"><div class=\"hapiHeaderText\">AntithromboticTMeqIPAdmTM <b>NUMERPASS </b></div><table class=\"hapiPropertyTable\"><tbody><tr><td>Identifier</td><td>09185becde4292df8c5ecbeb8287eadc</td></tr><tr><td>Date of birth</td><td><span>31 May 1990</span></td></tr></tbody></table></div>"},"extension":[{"url":"http://hl7.org/fhir/us/core/StructureDefinition/us-core-race","extension":[{"url":"ombCategory","valueCoding":{"system":"urn:oid:2.16.840.1.113883.6.238","code":"1002-5","display":"American Indian or Alaska Native","userSelected":true}},{"url":"text","valueString":"American Indian or Alaska Native"}]},{"url":"http://hl7.org/fhir/us/core/StructureDefinition/us-core-ethnicity","extension":[{"url":"ombCategory","valueCoding":{"system":"urn:oid:2.16.840.1.113883.6.238","code":"2135-2","display":"Hispanic or Latino","userSelected":true}},{"url":"text","valueString":"Hispanic or Latino"}]}],"identifier":[{"type":{"coding":[{"system":"http://terminology.hl7.org/CodeSystem/v2-0203","code":"MR"}]},"system":"https://bonnie-fhir.healthit.gov/","value":"6129134702c62a011f2e6e49"}],"active":true,"name":[{"use":"usual","family":"NUMERPass","given":["AntithromboticTMeqIPAdmTM"]}],"gender":"male","birthDate":"1991-05-31"},"request":{"method":"PUT","url":"Patient/e6202628-baf6-4d44-acd6-d1affdf3c989"}},{"fullUrl":"https://madie.cms.gov/Encounter/2445a581-9456-4b95-9b2c-707f834ba803","resource":{"resourceType":"Encounter","id":"2445a581-9456-4b95-9b2c-707f834ba803","meta":{"profile":["http://hl7.org/fhir/us/qicore/StructureDefinition/qicore-encounter"]},"status":"finished","class":{"system":"http://terminology.hl7.org/CodeSystem/v3-ActCode","code":"IMP","display":"inpatient encounter","userSelected":true},"type":[{"coding":[{"system":"http://snomed.info/sct","code":"32485007"}]}],"subject":{"reference":"Patient/e6202628-baf6-4d44-acd6-d1affdf3c989"},"period":{"start":"2026-06-15T09:30:00.000+00:00","end":"2026-10-12T10:30:00.000+00:00"},"length":{"value":119,"unit":"days"},"diagnosis":[{"condition":{"reference":"Condition/e594a4e4-0a1c-485c-b19d-747ee81e8e08"},"use":{"coding":[{"system":"http://terminology.hl7.org/CodeSystem/diagnosis-role","code":"billing","display":"Billing"}]},"rank":1}]},"request":{"method":"PUT","url":"Encounter/2445a581-9456-4b95-9b2c-707f834ba803"}},{"fullUrl":"https://madie.cms.gov/MedicationRequest/175459af-ca09-4e98-b5bb-3d9ef7def99e","resource":{"resourceType":"MedicationRequest","id":"175459af-ca09-4e98-b5bb-3d9ef7def99e","meta":{"profile":["http://hl7.org/fhir/us/qicore/StructureDefinition/qicore-medicationrequest"]},"status":"active","intent":"order","category":[{"coding":[{"system":"http://terminology.hl7.org/CodeSystem/medicationrequest-category","code":"discharge","display":"Discharge","userSelected":true}]}],"medicationCodeableConcept":{"coding":[{"system":"http://www.nlm.nih.gov/research/umls/rxnorm","code":"1037045"}]},"subject":{"reference":"Patient/e6202628-baf6-4d44-acd6-d1affdf3c989"},"authoredOn":"2026-06-15T09:30:00.000+00:00","requester":{"reference":"Practitioner/example"}},"request":{"method":"PUT","url":"MedicationRequest/175459af-ca09-4e98-b5bb-3d9ef7def99e"}},{"fullUrl":"https://madie.cms.gov/Condition/e594a4e4-0a1c-485c-b19d-747ee81e8e08","resource":{"resourceType":"Condition","id":"e594a4e4-0a1c-485c-b19d-747ee81e8e08","meta":{"profile":["http://hl7.org/fhir/us/qicore/StructureDefinition/qicore-condition"]},"clinicalStatus":{"coding":[{"system":"http://terminology.hl7.org/CodeSystem/condition-clinical","code":"active"}]},"verificationStatus":{"coding":[{"system":"http://terminology.hl7.org/CodeSystem/condition-ver-status","code":"confirmed"}]},"category":[{"coding":[{"system":"http://terminology.hl7.org/CodeSystem/condition-category","code":"encounter-diagnosis","display":"Encounter Diagnosis"}]}],"code":{"coding":[{"system":"http://snomed.info/sct","version":"2020-09","code":"111297002","display":"Nonparalytic stroke (disorder)","userSelected":true}]},"subject":{"reference":"Patient/e6202628-baf6-4d44-acd6-d1affdf3c989"},"recordedDate":"2026-07-15T08:00:00.000+00:00"},"request":{"method":"PUT","url":"Condition/e594a4e4-0a1c-485c-b19d-747ee81e8e08"}},{"fullUrl":"https://madie.cms.gov/Coverage/20282eb3-a81a-469b-a8b1-285dec854bc0","resource":{"resourceType":"Coverage","id":"20282eb3-a81a-469b-a8b1-285dec854bc0","meta":{"profile":["http://hl7.org/fhir/us/qicore/StructureDefinition/qicore-coverage"]},"status":"active","beneficiary":{"reference":"Patient/e6202628-baf6-4d44-acd6-d1affdf3c989"},"payor":[{"reference":"Organization/e75793c9-fdf6-463a-8c1d-4ee44320dc25"}]},"request":{"method":"PUT","url":"Coverage/20282eb3-a81a-469b-a8b1-285dec854bc0"}},{"fullUrl":"https://madie.cms.gov/Organization/a0cdb731-4381-4b1a-8e07-c1766b1f0750","resource":{"resourceType":"Organization","id":"e75793c9-fdf6-463a-8c1d-4ee44320dc25","meta":{"profile":["http://hl7.org/fhir/us/qicore/StructureDefinition/qicore-organization"]},"identifier":[{"use":"temp","system":"urn:oid:2.16.840.1.113883.4.4","value":"21-3259825"}],"active":true,"type":[{"coding":[{"system":"http://terminology.hl7.org/CodeSystem/organization-type","code":"pay","display":"Payer"}]}],"name":"Blue Cross Blue Shield of Texas","telecom":[{"system":"phone","value":"(+1) 972-766-6900"}],"address":[{"use":"billing","type":"postal","line":["P.O. Box 660044"],"city":"Dallas","state":"TX","postalCode":"75266-0044","country":"USA"}]},"request":{"method":"PUT","url":"Organization/e75793c9-fdf6-463a-8c1d-4ee44320dc25"}},{"fullUrl":"https://madie.cms.gov/MeasureReport/864c2686-110e-48b7-9be7-274ae4f828c2","resource":{"resourceType":"MeasureReport","id":"864c2686-110e-48b7-9be7-274ae4f828c2","meta":{"profile":["http://hl7.org/fhir/us/cqfmeasures/StructureDefinition/test-case-cqfm"]},"contained":[{"resourceType":"Parameters","id":"2178fd80-7b91-41c9-aff5-45f2813171f3-parameters","parameter":[{"name":"subject","valueString":"e6202628-baf6-4d44-acd6-d1affdf3c989"}]}],"extension":[{"url":"http://hl7.org/fhir/us/cqfmeasures/StructureDefinition/cqfm-inputParameters","valueReference":{"reference":"#2178fd80-7b91-41c9-aff5-45f2813171f3-parameters"}},{"url":"http://hl7.org/fhir/us/cqfmeasures/StructureDefinition/cqfm-testCaseDescription","valueMarkdown":"Patient is GT 18 with Non-Elective Inpatient Encounter (LOS 120 days) with principal diagnosis of ischemic stroke ends during MP received antithrombotic during IP encounter\n"}],"modifierExtension":[{"url":"http://hl7.org/fhir/us/cqfmeasures/StructureDefinition/cqfm-isTestCase","valueBoolean":true}],"status":"complete","type":"individual","measure":"https://madie.cms.gov/Measure/CMS104FHIRSTKDCAntithrombotic","period":{"start":"2026-01-01","end":"2026-12-31"},"group":[{"population":[{"code":{"coding":[{"system":"http://terminology.hl7.org/CodeSystem/measure-population","code":"initial-population","display":"Initial Population"}]},"count":1},{"code":{"coding":[{"system":"http://terminology.hl7.org/CodeSystem/measure-population","code":"denominator","display":"Denominator"}]},"count":1},{"code":{"coding":[{"system":"http://terminology.hl7.org/CodeSystem/measure-population","code":"denominator-exclusion","display":"Denominator Exclusion"}]},"count":0},{"code":{"coding":[{"system":"http://terminology.hl7.org/CodeSystem/measure-population","code":"numerator","display":"Numerator"}]},"count":1},{"code":{"coding":[{"system":"http://terminology.hl7.org/CodeSystem/measure-population","code":"denominator-exception","display":"Denominator Exception"}]},"count":0}]}]},"request":{"method":"PUT","url":"MeasureReport/864c2686-110e-48b7-9be7-274ae4f828c2"}}]}