{"resourceType":"Bundle","id":"tests-0b1aa8ee-e8bf-49f5-b968-48c5a9702843-bundle","type":"transaction","entry":[{"fullUrl":"https://madie.cms.gov/Patient/0b1aa8ee-e8bf-49f5-b968-48c5a9702843","resource":{"resourceType":"Patient","id":"0b1aa8ee-e8bf-49f5-b968-48c5a9702843","meta":{"profile":["http://hl7.org/fhir/us/qicore/StructureDefinition/qicore-patient"]},"text":{"status":"generated","div":"<div xmlns=\"http://www.w3.org/1999/xhtml\"><div class=\"hapiHeaderText\">CMOdurED_ED=1hrNoObsBFEnc <b>DENEXPASS </b></div><table class=\"hapiPropertyTable\"><tbody><tr><td>Identifier</td><td>670854918483ca8b7894283bd5cddbcf5037c5392991b8777bf3c4f78ed05f0b</td></tr><tr><td>Date of birth</td><td><span>18 September 1985</span></td></tr></tbody></table></div>"},"extension":[{"url":"http://hl7.org/fhir/us/core/StructureDefinition/us-core-race","extension":[{"url":"ombCategory","valueCoding":{"system":"urn:oid:2.16.840.1.113883.6.238","code":"1002-5","display":"American Indian or Alaska Native","userSelected":true}},{"url":"text","valueString":"American Indian or Alaska Native"}]},{"url":"http://hl7.org/fhir/us/core/StructureDefinition/us-core-ethnicity","extension":[{"url":"ombCategory","valueCoding":{"system":"urn:oid:2.16.840.1.113883.6.238","code":"2135-2","display":"Hispanic or Latino","userSelected":true}},{"url":"text","valueString":"Hispanic or Latino"}]}],"identifier":[{"type":{"coding":[{"system":"http://terminology.hl7.org/CodeSystem/v2-0203","code":"MR"}]},"system":"https://bonnie-fhir.healthit.gov/","value":"633c9d040968f8012250fca3"}],"active":true,"name":[{"use":"usual","family":"DENEXFail","given":["CMOdurEDEDEQ1hrNoObsBFEncdoNotPerform"]}],"gender":"female","birthDate":"1986-09-18"},"request":{"method":"PUT","url":"Patient/0b1aa8ee-e8bf-49f5-b968-48c5a9702843"}},{"fullUrl":"https://madie.cms.gov/Condition/9c6fe1de-cb0f-4f25-ba2a-d23489c8ee32","resource":{"resourceType":"Condition","id":"9c6fe1de-cb0f-4f25-ba2a-d23489c8ee32","meta":{"profile":["http://hl7.org/fhir/us/qicore/StructureDefinition/qicore-condition"]},"clinicalStatus":{"coding":[{"system":"http://terminology.hl7.org/CodeSystem/condition-clinical","code":"inactive"}]},"verificationStatus":{"coding":[{"system":"http://terminology.hl7.org/CodeSystem/condition-ver-status","code":"confirmed"}]},"category":[{"coding":[{"system":"http://terminology.hl7.org/CodeSystem/condition-category","code":"encounter-diagnosis","display":"Encounter Diagnosis"}]}],"code":{"coding":[{"system":"http://hl7.org/fhir/sid/icd-10-cm","code":"I48.20"},{"system":"http://hl7.org/fhir/sid/icd-10-cm","code":"I48.0"},{"system":"http://snomed.info/sct","code":"5370000"}]},"subject":{"reference":"Patient/0b1aa8ee-e8bf-49f5-b968-48c5a9702843"},"onsetDateTime":"2026-10-01T09:01:00.000Z","abatementDateTime":"2026-10-12T00:15:00.000Z"},"request":{"method":"PUT","url":"Condition/9c6fe1de-cb0f-4f25-ba2a-d23489c8ee32"}},{"fullUrl":"https://madie.cms.gov/Encounter/fcb2e515-57dc-4f8c-9c8e-9d4d24c4aece","resource":{"resourceType":"Encounter","id":"fcb2e515-57dc-4f8c-9c8e-9d4d24c4aece","meta":{"profile":["http://hl7.org/fhir/us/qicore/StructureDefinition/qicore-encounter"]},"status":"finished","class":{"system":"http://terminology.hl7.org/CodeSystem/v3-ActCode","code":"EMER","display":"emergency"},"type":[{"coding":[{"system":"http://snomed.info/sct","code":"4525004"}]}],"subject":{"reference":"Patient/0b1aa8ee-e8bf-49f5-b968-48c5a9702843"},"period":{"start":"2026-10-01T09:01:00.000Z","end":"2026-10-01T12:15:00.000Z"},"length":{"value":0,"unit":"days"}},"request":{"method":"PUT","url":"Encounter/fcb2e515-57dc-4f8c-9c8e-9d4d24c4aece"}},{"fullUrl":"https://madie.cms.gov/Encounter/8f86e8aa-2c56-4989-ae6b-4569f6a4ca3e","resource":{"resourceType":"Encounter","id":"8f86e8aa-2c56-4989-ae6b-4569f6a4ca3e","meta":{"profile":["http://hl7.org/fhir/us/qicore/StructureDefinition/qicore-encounter"]},"status":"finished","class":{"system":"http://terminology.hl7.org/CodeSystem/v3-ActCode","code":"IMP","display":"inpatient encounter"},"type":[{"coding":[{"system":"http://snomed.info/sct","code":"32485007"}]}],"subject":{"reference":"Patient/0b1aa8ee-e8bf-49f5-b968-48c5a9702843"},"period":{"start":"2026-10-01T13:15:00.000Z","end":"2026-10-12T00:15:00.000Z"},"length":{"value":11,"unit":"days"},"diagnosis":[{"condition":{"reference":"Condition/87fa875a-a28e-45bd-814b-dd787a04306d"},"use":{"coding":[{"system":"http://terminology.hl7.org/CodeSystem/diagnosis-role","code":"billing","display":"Billing"}]},"rank":1}]},"request":{"method":"PUT","url":"Encounter/8f86e8aa-2c56-4989-ae6b-4569f6a4ca3e"}},{"fullUrl":"https://madie.cms.gov/ServiceRequest/e0d18ab5-8b6e-4af3-9b3a-bb101c974de7","resource":{"resourceType":"ServiceRequest","id":"e0d18ab5-8b6e-4af3-9b3a-bb101c974de7","meta":{"profile":["http://hl7.org/fhir/us/qicore/StructureDefinition/qicore-servicerequest"]},"status":"active","intent":"order","doNotPerform":false,"code":{"coding":[{"system":"http://snomed.info/sct","code":"133918004"}]},"subject":{"reference":"Patient/0b1aa8ee-e8bf-49f5-b968-48c5a9702843"},"authoredOn":"2026-10-01T09:15:00.000+00:00"},"request":{"method":"PUT","url":"ServiceRequest/e0d18ab5-8b6e-4af3-9b3a-bb101c974de7"}},{"fullUrl":"https://madie.cms.gov/Coverage/31ceefdc-caca-4822-9b74-1cb37b9253a0","resource":{"resourceType":"Coverage","id":"31ceefdc-caca-4822-9b74-1cb37b9253a0","status":"active","beneficiary":{"reference":"Patient/0b1aa8ee-e8bf-49f5-b968-48c5a9702843"},"period":{"start":"1986-09-18T08:00:00.000Z"},"payor":[{"reference":"Organization/5ad6ea38-07e9-4482-9e1b-c09eee595be9"}]},"request":{"method":"PUT","url":"Coverage/31ceefdc-caca-4822-9b74-1cb37b9253a0"}},{"fullUrl":"https://madie.cms.gov/Condition/87fa875a-a28e-45bd-814b-dd787a04306d","resource":{"resourceType":"Condition","id":"87fa875a-a28e-45bd-814b-dd787a04306d","meta":{"profile":["http://hl7.org/fhir/us/qicore/StructureDefinition/qicore-condition"]},"clinicalStatus":{"coding":[{"system":"http://terminology.hl7.org/CodeSystem/condition-clinical","code":"active"}]},"verificationStatus":{"coding":[{"system":"http://terminology.hl7.org/CodeSystem/condition-ver-status","code":"confirmed"}]},"category":[{"coding":[{"system":"http://terminology.hl7.org/CodeSystem/condition-category","code":"encounter-diagnosis","display":"Encounter Diagnosis"}]}],"code":{"coding":[{"system":"http://snomed.info/sct","version":"2021-09","code":"111297002","display":"Nonparalytic stroke (disorder)","userSelected":true}]},"subject":{"reference":"Patient/0b1aa8ee-e8bf-49f5-b968-48c5a9702843"},"recordedDate":"2026-10-13T08:00:00.000+00:00"},"request":{"method":"PUT","url":"Condition/87fa875a-a28e-45bd-814b-dd787a04306d"}},{"fullUrl":"https://madie.cms.gov/Organization/ad00a0cc-0de2-458c-ae3e-55b1f8969caa","resource":{"resourceType":"Organization","id":"5ad6ea38-07e9-4482-9e1b-c09eee595be9","meta":{"profile":["http://hl7.org/fhir/us/qicore/StructureDefinition/qicore-organization"]},"identifier":[{"use":"temp","system":"urn:oid:2.16.840.1.113883.4.4","value":"21-3259825"}],"active":true,"type":[{"coding":[{"system":"http://terminology.hl7.org/CodeSystem/organization-type","code":"pay","display":"Payer"}]}],"name":"Blue Cross Blue Shield of Texas","telecom":[{"system":"phone","value":"(+1) 972-766-6900"}],"address":[{"use":"billing","type":"postal","line":["P.O. Box 660044"],"city":"Dallas","state":"TX","postalCode":"75266-0044","country":"USA"}]},"request":{"method":"PUT","url":"Organization/5ad6ea38-07e9-4482-9e1b-c09eee595be9"}},{"fullUrl":"https://madie.cms.gov/Practitioner/9afb491c-a961-458c-8a63-297cbfc3e096","resource":{"resourceType":"Practitioner","id":"9afb491c-a961-458c-8a63-297cbfc3e096","identifier":[{"system":"http://hl7.org/fhir/sid/us-npi","value":"123456"}],"name":[{"family":"Evil","prefix":["Dr"]}]},"request":{"method":"PUT","url":"Practitioner/9afb491c-a961-458c-8a63-297cbfc3e096"}},{"fullUrl":"https://madie.cms.gov/MeasureReport/30034229-7797-42ed-b33d-5ddfd14b07ed","resource":{"resourceType":"MeasureReport","id":"30034229-7797-42ed-b33d-5ddfd14b07ed","meta":{"profile":["http://hl7.org/fhir/us/cqfmeasures/StructureDefinition/test-case-cqfm"]},"contained":[{"resourceType":"Parameters","id":"6089aa4d-8fd7-45cc-a81c-2c4c5daa04bd-parameters","parameter":[{"name":"subject","valueString":"0b1aa8ee-e8bf-49f5-b968-48c5a9702843"}]}],"extension":[{"url":"http://hl7.org/fhir/us/cqfmeasures/StructureDefinition/cqfm-inputParameters","valueReference":{"reference":"#6089aa4d-8fd7-45cc-a81c-2c4c5daa04bd-parameters"}},{"url":"http://hl7.org/fhir/us/cqfmeasures/StructureDefinition/cqfm-testCaseDescription","valueMarkdown":"Testing do not perform not true"}],"modifierExtension":[{"url":"http://hl7.org/fhir/us/cqfmeasures/StructureDefinition/cqfm-isTestCase","valueBoolean":true}],"status":"complete","type":"individual","measure":"https://madie.cms.gov/Measure/CMS104FHIRSTKDCAntithrombotic","period":{"start":"2026-01-01","end":"2026-12-31"},"group":[{"population":[{"code":{"coding":[{"system":"http://terminology.hl7.org/CodeSystem/measure-population","code":"initial-population","display":"Initial Population"}]},"count":1},{"code":{"coding":[{"system":"http://terminology.hl7.org/CodeSystem/measure-population","code":"denominator","display":"Denominator"}]},"count":1},{"code":{"coding":[{"system":"http://terminology.hl7.org/CodeSystem/measure-population","code":"denominator-exclusion","display":"Denominator Exclusion"}]},"count":1},{"code":{"coding":[{"system":"http://terminology.hl7.org/CodeSystem/measure-population","code":"numerator","display":"Numerator"}]},"count":0},{"code":{"coding":[{"system":"http://terminology.hl7.org/CodeSystem/measure-population","code":"denominator-exception","display":"Denominator Exception"}]},"count":0}]}]},"request":{"method":"PUT","url":"MeasureReport/30034229-7797-42ed-b33d-5ddfd14b07ed"}}]}