{"resourceType":"Bundle","id":"tests-d8ea50e2-e1a9-41ae-ac73-480bb198d963-bundle","type":"transaction","entry":[{"fullUrl":"https://madie.cms.gov/Patient/d8ea50e2-e1a9-41ae-ac73-480bb198d963","resource":{"resourceType":"Patient","id":"d8ea50e2-e1a9-41ae-ac73-480bb198d963","meta":{"profile":["http://hl7.org/fhir/us/qicore/StructureDefinition/qicore-patient"]},"text":{"status":"generated","div":"<div xmlns=\"http://www.w3.org/1999/xhtml\"><div class=\"hapiHeaderText\">AntithromboticDuringIPTestOccur <b>NUMERPASS </b></div><table class=\"hapiPropertyTable\"><tbody><tr><td>Identifier</td><td>be14f222c0646cc5d7ac050774528f5e42a5a6df28c00c64454006e7ac2a1af3</td></tr><tr><td>Date of birth</td><td><span>31 May 1990</span></td></tr></tbody></table></div>"},"extension":[{"url":"http://hl7.org/fhir/us/core/StructureDefinition/us-core-race","extension":[{"url":"ombCategory","valueCoding":{"system":"urn:oid:2.16.840.1.113883.6.238","code":"1002-5","display":"American Indian or Alaska Native","userSelected":true}},{"url":"text","valueString":"American Indian or Alaska Native"}]},{"url":"http://hl7.org/fhir/us/core/StructureDefinition/us-core-ethnicity","extension":[{"url":"ombCategory","valueCoding":{"system":"urn:oid:2.16.840.1.113883.6.238","code":"2135-2","display":"Hispanic or Latino","userSelected":true}},{"url":"text","valueString":"Hispanic or Latino"}]}],"identifier":[{"type":{"coding":[{"system":"http://terminology.hl7.org/CodeSystem/v2-0203","code":"MR"}]},"system":"https://bonnie-fhir.healthit.gov/","value":"6129135302c62a011f2e7423"}],"active":true,"name":[{"use":"usual","family":"NUMERPass","given":["AntithromboticDuringIPTestOccur"]}],"gender":"male","birthDate":"1991-05-31"},"request":{"method":"PUT","url":"Patient/d8ea50e2-e1a9-41ae-ac73-480bb198d963"}},{"fullUrl":"https://madie.cms.gov/Encounter/1dd32e76-df70-4138-acfb-1aab4d352b28","resource":{"resourceType":"Encounter","id":"1dd32e76-df70-4138-acfb-1aab4d352b28","meta":{"profile":["http://hl7.org/fhir/us/qicore/StructureDefinition/qicore-encounter"]},"status":"finished","class":{"system":"http://terminology.hl7.org/CodeSystem/v3-ActCode","code":"IMP","display":"inpatient encounter","userSelected":true},"type":[{"coding":[{"system":"http://snomed.info/sct","code":"183452005"}]}],"subject":{"reference":"Patient/d8ea50e2-e1a9-41ae-ac73-480bb198d963"},"period":{"start":"2026-06-14T09:30:00.000+00:00","end":"2026-06-14T10:30:00.000+00:00"},"length":{"value":0,"unit":"days"}},"request":{"method":"PUT","url":"Encounter/1dd32e76-df70-4138-acfb-1aab4d352b28"}},{"fullUrl":"https://madie.cms.gov/Encounter/9d34890e-29e7-4a3f-9322-df506006428b","resource":{"resourceType":"Encounter","id":"9d34890e-29e7-4a3f-9322-df506006428b","meta":{"profile":["http://hl7.org/fhir/us/qicore/StructureDefinition/qicore-encounter"]},"status":"finished","class":{"system":"http://terminology.hl7.org/CodeSystem/v3-ActCode","code":"IMP","display":"inpatient encounter","userSelected":true},"type":[{"coding":[{"system":"http://snomed.info/sct","code":"32485007"}]}],"subject":{"reference":"Patient/d8ea50e2-e1a9-41ae-ac73-480bb198d963"},"period":{"start":"2026-06-15T09:30:00.000+00:00","end":"2026-10-12T10:30:00.000+00:00"},"length":{"value":119,"unit":"days"},"diagnosis":[{"condition":{"reference":"Condition/489411f7-78d1-4fc3-96c4-902da074c2e2"},"use":{"coding":[{"system":"http://terminology.hl7.org/CodeSystem/diagnosis-role","code":"billing","display":"Billing"}]},"rank":1}]},"request":{"method":"PUT","url":"Encounter/9d34890e-29e7-4a3f-9322-df506006428b"}},{"fullUrl":"https://madie.cms.gov/MedicationRequest/09cbe3ec-de34-4c7b-bbbc-544280c7b34a","resource":{"resourceType":"MedicationRequest","id":"09cbe3ec-de34-4c7b-bbbc-544280c7b34a","meta":{"profile":["http://hl7.org/fhir/us/qicore/StructureDefinition/qicore-medicationrequest"]},"status":"active","intent":"order","category":[{"coding":[{"system":"http://terminology.hl7.org/CodeSystem/medicationrequest-category","code":"discharge","display":"Discharge","userSelected":true}]}],"medicationCodeableConcept":{"coding":[{"system":"http://www.nlm.nih.gov/research/umls/rxnorm","code":"1037045"}]},"subject":{"reference":"Patient/d8ea50e2-e1a9-41ae-ac73-480bb198d963"},"authoredOn":"2026-10-10T10:00:00.000+00:00","requester":{"reference":"Practitioner/example"}},"request":{"method":"PUT","url":"MedicationRequest/09cbe3ec-de34-4c7b-bbbc-544280c7b34a"}},{"fullUrl":"https://madie.cms.gov/Condition/35b34f0b-02e4-4e78-91e6-adcc6c15eef0","resource":{"resourceType":"Condition","id":"35b34f0b-02e4-4e78-91e6-adcc6c15eef0","meta":{"profile":["http://hl7.org/fhir/us/qicore/StructureDefinition/qicore-condition"]},"clinicalStatus":{"coding":[{"system":"http://terminology.hl7.org/CodeSystem/condition-clinical","code":"active"}]},"verificationStatus":{"coding":[{"system":"http://terminology.hl7.org/CodeSystem/condition-ver-status","code":"confirmed"}]},"category":[{"coding":[{"system":"http://terminology.hl7.org/CodeSystem/condition-category","code":"encounter-diagnosis","display":"Encounter Diagnosis"}]}],"code":{"coding":[{"system":"http://snomed.info/sct","version":"2020-09","code":"111297002","display":"Nonparalytic stroke (disorder)","userSelected":true}]},"subject":{"reference":"Patient/d8ea50e2-e1a9-41ae-ac73-480bb198d963"},"recordedDate":"2026-07-15T08:00:00.000+00:00"},"request":{"method":"PUT","url":"Condition/35b34f0b-02e4-4e78-91e6-adcc6c15eef0"}},{"fullUrl":"https://madie.cms.gov/Condition/489411f7-78d1-4fc3-96c4-902da074c2e2","resource":{"resourceType":"Condition","id":"489411f7-78d1-4fc3-96c4-902da074c2e2","meta":{"profile":["http://hl7.org/fhir/us/qicore/StructureDefinition/qicore-condition"]},"clinicalStatus":{"coding":[{"system":"http://terminology.hl7.org/CodeSystem/condition-clinical","code":"active"}]},"verificationStatus":{"coding":[{"system":"http://terminology.hl7.org/CodeSystem/condition-ver-status","code":"confirmed"}]},"category":[{"coding":[{"system":"http://terminology.hl7.org/CodeSystem/condition-category","code":"encounter-diagnosis","display":"Encounter Diagnosis"}]}],"code":{"coding":[{"system":"http://snomed.info/sct","version":"2020-09","code":"111297002","display":"Nonparalytic stroke (disorder)","userSelected":true}]},"subject":{"reference":"Patient/d8ea50e2-e1a9-41ae-ac73-480bb198d963"},"recordedDate":"2026-07-15T08:00:00.000+00:00"},"request":{"method":"PUT","url":"Condition/489411f7-78d1-4fc3-96c4-902da074c2e2"}},{"fullUrl":"https://madie.cms.gov/Coverage/fc5b2c2c-4b30-45e2-ac37-3735cc31b25c","resource":{"resourceType":"Coverage","id":"fc5b2c2c-4b30-45e2-ac37-3735cc31b25c","meta":{"profile":["http://hl7.org/fhir/us/qicore/StructureDefinition/qicore-coverage"]},"status":"active","beneficiary":{"reference":"Patient/d8ea50e2-e1a9-41ae-ac73-480bb198d963"},"payor":[{"reference":"Organization/e75793c9-fdf6-463a-8c1d-4ee44320dc25"}]},"request":{"method":"PUT","url":"Coverage/fc5b2c2c-4b30-45e2-ac37-3735cc31b25c"}},{"fullUrl":"https://madie.cms.gov/Organization/069b9785-ee26-4dc3-a03d-3afdbcf11a6b","resource":{"resourceType":"Organization","id":"e75793c9-fdf6-463a-8c1d-4ee44320dc25","meta":{"profile":["http://hl7.org/fhir/us/qicore/StructureDefinition/qicore-organization"]},"identifier":[{"use":"temp","system":"urn:oid:2.16.840.1.113883.4.4","value":"21-3259825"}],"active":true,"type":[{"coding":[{"system":"http://terminology.hl7.org/CodeSystem/organization-type","code":"pay","display":"Payer"}]}],"name":"Blue Cross Blue Shield of Texas","telecom":[{"system":"phone","value":"(+1) 972-766-6900"}],"address":[{"use":"billing","type":"postal","line":["P.O. Box 660044"],"city":"Dallas","state":"TX","postalCode":"75266-0044","country":"USA"}]},"request":{"method":"PUT","url":"Organization/e75793c9-fdf6-463a-8c1d-4ee44320dc25"}},{"fullUrl":"https://madie.cms.gov/MeasureReport/a0f87537-5a69-4923-af39-aacdb57638a9","resource":{"resourceType":"MeasureReport","id":"a0f87537-5a69-4923-af39-aacdb57638a9","meta":{"profile":["http://hl7.org/fhir/us/cqfmeasures/StructureDefinition/test-case-cqfm"]},"contained":[{"resourceType":"Parameters","id":"090be9b4-ed13-4479-b92d-a41410131a80-parameters","parameter":[{"name":"subject","valueString":"d8ea50e2-e1a9-41ae-ac73-480bb198d963"}]}],"extension":[{"url":"http://hl7.org/fhir/us/cqfmeasures/StructureDefinition/cqfm-inputParameters","valueReference":{"reference":"#090be9b4-ed13-4479-b92d-a41410131a80-parameters"}},{"url":"http://hl7.org/fhir/us/cqfmeasures/StructureDefinition/cqfm-testCaseDescription","valueMarkdown":"Patient is GT 18 with Non-Elective Inpatient Encounter (LOS 120 days) with principal diagnosis of ischemic stroke ends during MP received antithrombotic during IP encounter. testing 2 occurrences\n"}],"modifierExtension":[{"url":"http://hl7.org/fhir/us/cqfmeasures/StructureDefinition/cqfm-isTestCase","valueBoolean":true}],"status":"complete","type":"individual","measure":"https://madie.cms.gov/Measure/CMS104FHIRSTKDCAntithrombotic","period":{"start":"2026-01-01","end":"2026-12-31"},"group":[{"population":[{"code":{"coding":[{"system":"http://terminology.hl7.org/CodeSystem/measure-population","code":"initial-population","display":"Initial Population"}]},"count":1},{"code":{"coding":[{"system":"http://terminology.hl7.org/CodeSystem/measure-population","code":"denominator","display":"Denominator"}]},"count":1},{"code":{"coding":[{"system":"http://terminology.hl7.org/CodeSystem/measure-population","code":"denominator-exclusion","display":"Denominator Exclusion"}]},"count":0},{"code":{"coding":[{"system":"http://terminology.hl7.org/CodeSystem/measure-population","code":"numerator","display":"Numerator"}]},"count":1},{"code":{"coding":[{"system":"http://terminology.hl7.org/CodeSystem/measure-population","code":"denominator-exception","display":"Denominator Exception"}]},"count":0}]}]},"request":{"method":"PUT","url":"MeasureReport/a0f87537-5a69-4923-af39-aacdb57638a9"}}]}