{"resourceType":"Bundle","id":"tests-fdd3fe25-b12c-4417-a999-91e4583f6cd4-bundle","type":"transaction","entry":[{"fullUrl":"https://madie.cms.gov/Patient/fdd3fe25-b12c-4417-a999-91e4583f6cd4","resource":{"resourceType":"Patient","id":"fdd3fe25-b12c-4417-a999-91e4583f6cd4","meta":{"profile":["http://hl7.org/fhir/us/qicore/StructureDefinition/qicore-patient"]},"text":{"status":"generated","div":"<div xmlns=\"http://www.w3.org/1999/xhtml\"><div class=\"hapiHeaderText\">CMOdurEnc_ED&lt;1hrNoObsBFEnc <b>DENEXPASS </b></div><table class=\"hapiPropertyTable\"><tbody><tr><td>Identifier</td><td>5726f5c347f01d94789527cd3b0f9cc5</td></tr><tr><td>Date of birth</td><td><span>21 August 1994</span></td></tr></tbody></table></div>"},"extension":[{"url":"http://hl7.org/fhir/us/core/StructureDefinition/us-core-race","extension":[{"url":"ombCategory","valueCoding":{"system":"urn:oid:2.16.840.1.113883.6.238","code":"1002-5","display":"American Indian or Alaska Native","userSelected":true}},{"url":"text","valueString":"American Indian or Alaska Native"}]},{"url":"http://hl7.org/fhir/us/core/StructureDefinition/us-core-ethnicity","extension":[{"url":"ombCategory","valueCoding":{"system":"urn:oid:2.16.840.1.113883.6.238","code":"2135-2","display":"Hispanic or Latino","userSelected":true}},{"url":"text","valueString":"Hispanic or Latino"}]}],"identifier":[{"type":{"coding":[{"system":"http://terminology.hl7.org/CodeSystem/v2-0203","code":"MR"}]},"system":"https://bonnie-fhir.healthit.gov/","value":"6129134602c62a011f2e6d77"}],"active":true,"name":[{"use":"usual","family":"DENEXPass","given":["CMOdurEnc_ED<1hrNoObsBFEnc"]}],"gender":"male","birthDate":"1995-08-21"},"request":{"method":"PUT","url":"Patient/fdd3fe25-b12c-4417-a999-91e4583f6cd4"}},{"fullUrl":"https://madie.cms.gov/Encounter/a9c2b783-8578-42bb-9fd4-7e0888b11cb4","resource":{"resourceType":"Encounter","id":"a9c2b783-8578-42bb-9fd4-7e0888b11cb4","meta":{"profile":["http://hl7.org/fhir/us/qicore/StructureDefinition/qicore-encounter"]},"status":"finished","class":{"system":"http://terminology.hl7.org/CodeSystem/v3-ActCode","code":"EMER","display":"emergency","userSelected":true},"type":[{"coding":[{"system":"http://snomed.info/sct","code":"4525004"}]}],"subject":{"reference":"Patient/fdd3fe25-b12c-4417-a999-91e4583f6cd4"},"period":{"start":"2026-10-10T09:00:00.000+00:00","end":"2026-10-10T09:29:00.000+00:00"},"length":{"value":0,"unit":"days"}},"request":{"method":"PUT","url":"Encounter/a9c2b783-8578-42bb-9fd4-7e0888b11cb4"}},{"fullUrl":"https://madie.cms.gov/Encounter/5a7fb315-ea94-4d74-b717-4626b77427fc","resource":{"resourceType":"Encounter","id":"5a7fb315-ea94-4d74-b717-4626b77427fc","meta":{"profile":["http://hl7.org/fhir/us/qicore/StructureDefinition/qicore-encounter"]},"status":"finished","class":{"system":"http://terminology.hl7.org/CodeSystem/v3-ActCode","code":"IMP","display":"inpatient encounter","userSelected":true},"type":[{"coding":[{"system":"http://snomed.info/sct","code":"32485007"}]}],"subject":{"reference":"Patient/fdd3fe25-b12c-4417-a999-91e4583f6cd4"},"period":{"start":"2026-10-10T09:30:00.000+00:00","end":"2026-10-12T10:30:00.000+00:00"},"length":{"value":2,"unit":"days"},"diagnosis":[{"condition":{"reference":"Condition/25b624ae-4544-4603-a814-737f742bf49c"},"use":{"coding":[{"system":"http://terminology.hl7.org/CodeSystem/diagnosis-role","code":"billing","display":"Billing"}]},"rank":1}]},"request":{"method":"PUT","url":"Encounter/5a7fb315-ea94-4d74-b717-4626b77427fc"}},{"fullUrl":"https://madie.cms.gov/ServiceRequest/93d423fb-cfb4-4fe0-84c9-9f66878694aa","resource":{"resourceType":"ServiceRequest","id":"93d423fb-cfb4-4fe0-84c9-9f66878694aa","meta":{"profile":["http://hl7.org/fhir/us/qicore/StructureDefinition/qicore-servicerequest"]},"status":"active","intent":"order","code":{"coding":[{"system":"http://snomed.info/sct","code":"133918004"}]},"subject":{"reference":"Patient/fdd3fe25-b12c-4417-a999-91e4583f6cd4"},"authoredOn":"2026-10-10T09:31:00.000+00:00"},"request":{"method":"PUT","url":"ServiceRequest/93d423fb-cfb4-4fe0-84c9-9f66878694aa"}},{"fullUrl":"https://madie.cms.gov/Condition/25b624ae-4544-4603-a814-737f742bf49c","resource":{"resourceType":"Condition","id":"25b624ae-4544-4603-a814-737f742bf49c","meta":{"profile":["http://hl7.org/fhir/us/qicore/StructureDefinition/qicore-condition"]},"clinicalStatus":{"coding":[{"system":"http://terminology.hl7.org/CodeSystem/condition-clinical","code":"active"}]},"verificationStatus":{"coding":[{"system":"http://terminology.hl7.org/CodeSystem/condition-ver-status","code":"confirmed"}]},"category":[{"coding":[{"system":"http://terminology.hl7.org/CodeSystem/condition-category","code":"encounter-diagnosis","display":"Encounter Diagnosis"}]}],"code":{"coding":[{"system":"http://snomed.info/sct","version":"2020-09","code":"111297002","display":"Nonparalytic stroke (disorder)","userSelected":true}]},"subject":{"reference":"Patient/fdd3fe25-b12c-4417-a999-91e4583f6cd4"},"recordedDate":"2026-07-14T08:00:00.000+00:00"},"request":{"method":"PUT","url":"Condition/25b624ae-4544-4603-a814-737f742bf49c"}},{"fullUrl":"https://madie.cms.gov/Coverage/44ea0a68-f83b-4b70-a0e3-8c4e099f97e8","resource":{"resourceType":"Coverage","id":"44ea0a68-f83b-4b70-a0e3-8c4e099f97e8","meta":{"profile":["http://hl7.org/fhir/us/qicore/StructureDefinition/qicore-coverage"]},"status":"active","beneficiary":{"reference":"Patient/fdd3fe25-b12c-4417-a999-91e4583f6cd4"},"payor":[{"reference":"Organization/e75793c9-fdf6-463a-8c1d-4ee44320dc25"}]},"request":{"method":"PUT","url":"Coverage/44ea0a68-f83b-4b70-a0e3-8c4e099f97e8"}},{"fullUrl":"https://madie.cms.gov/Organization/a549aa23-0c6e-4924-a5fe-7ddec414aa6f","resource":{"resourceType":"Organization","id":"e75793c9-fdf6-463a-8c1d-4ee44320dc25","meta":{"profile":["http://hl7.org/fhir/us/qicore/StructureDefinition/qicore-organization"]},"identifier":[{"use":"temp","system":"urn:oid:2.16.840.1.113883.4.4","value":"21-3259825"}],"active":true,"type":[{"coding":[{"system":"http://terminology.hl7.org/CodeSystem/organization-type","code":"pay","display":"Payer"}]}],"name":"Blue Cross Blue Shield of Texas","telecom":[{"system":"phone","value":"(+1) 972-766-6900"}],"address":[{"use":"billing","type":"postal","line":["P.O. Box 660044"],"city":"Dallas","state":"TX","postalCode":"75266-0044","country":"USA"}]},"request":{"method":"PUT","url":"Organization/e75793c9-fdf6-463a-8c1d-4ee44320dc25"}},{"fullUrl":"https://madie.cms.gov/MeasureReport/1199b1ac-1ceb-413b-8ac2-0894aa9a80d7","resource":{"resourceType":"MeasureReport","id":"1199b1ac-1ceb-413b-8ac2-0894aa9a80d7","meta":{"profile":["http://hl7.org/fhir/us/cqfmeasures/StructureDefinition/test-case-cqfm"]},"contained":[{"resourceType":"Parameters","id":"92b4a240-cca7-4759-8387-a80145d30163-parameters","parameter":[{"name":"subject","valueString":"fdd3fe25-b12c-4417-a999-91e4583f6cd4"}]}],"extension":[{"url":"http://hl7.org/fhir/us/cqfmeasures/StructureDefinition/cqfm-inputParameters","valueReference":{"reference":"#92b4a240-cca7-4759-8387-a80145d30163-parameters"}},{"url":"http://hl7.org/fhir/us/cqfmeasures/StructureDefinition/cqfm-testCaseDescription","valueMarkdown":"Patient receives CMO during inpatient encounter. ED ends 1 minute before inpatient encounter start. No Observation. Testing day of operator with HospitalizationWithObservation function."}],"modifierExtension":[{"url":"http://hl7.org/fhir/us/cqfmeasures/StructureDefinition/cqfm-isTestCase","valueBoolean":true}],"status":"complete","type":"individual","measure":"https://madie.cms.gov/Measure/CMS104FHIRSTKDCAntithrombotic","period":{"start":"2026-01-01","end":"2026-12-31"},"group":[{"population":[{"code":{"coding":[{"system":"http://terminology.hl7.org/CodeSystem/measure-population","code":"initial-population","display":"Initial Population"}]},"count":1},{"code":{"coding":[{"system":"http://terminology.hl7.org/CodeSystem/measure-population","code":"denominator","display":"Denominator"}]},"count":1},{"code":{"coding":[{"system":"http://terminology.hl7.org/CodeSystem/measure-population","code":"denominator-exclusion","display":"Denominator Exclusion"}]},"count":1},{"code":{"coding":[{"system":"http://terminology.hl7.org/CodeSystem/measure-population","code":"numerator","display":"Numerator"}]},"count":0},{"code":{"coding":[{"system":"http://terminology.hl7.org/CodeSystem/measure-population","code":"denominator-exception","display":"Denominator Exception"}]},"count":0}]}]},"request":{"method":"PUT","url":"MeasureReport/1199b1ac-1ceb-413b-8ac2-0894aa9a80d7"}}]}