{"resourceType":"Bundle","id":"tests-d3bfef01-fbcd-47a1-912b-c27c23a4280b-bundle","type":"transaction","entry":[{"fullUrl":"https://madie.cms.gov/Patient/d3bfef01-fbcd-47a1-912b-c27c23a4280b","resource":{"resourceType":"Patient","id":"d3bfef01-fbcd-47a1-912b-c27c23a4280b","meta":{"profile":["http://hl7.org/fhir/us/qicore/StructureDefinition/qicore-patient"]},"text":{"status":"generated","div":"<div xmlns=\"http://www.w3.org/1999/xhtml\"><div class=\"hapiHeaderText\">PrinDxIsHemo <b>IPPASS </b></div><table class=\"hapiPropertyTable\"><tbody><tr><td>Identifier</td><td>36cd0e918a6d0523f6b1248c5af83d68</td></tr><tr><td>Date of birth</td><td><span>21 August 1994</span></td></tr></tbody></table></div>"},"extension":[{"url":"http://hl7.org/fhir/us/core/StructureDefinition/us-core-race","extension":[{"url":"ombCategory","valueCoding":{"system":"urn:oid:2.16.840.1.113883.6.238","code":"1002-5","display":"American Indian or Alaska Native","userSelected":true}},{"url":"text","valueString":"American Indian or Alaska Native"}]},{"url":"http://hl7.org/fhir/us/core/StructureDefinition/us-core-ethnicity","extension":[{"url":"ombCategory","valueCoding":{"system":"urn:oid:2.16.840.1.113883.6.238","code":"2135-2","display":"Hispanic or Latino","userSelected":true}},{"url":"text","valueString":"Hispanic or Latino"}]}],"identifier":[{"type":{"coding":[{"system":"http://terminology.hl7.org/CodeSystem/v2-0203","code":"MR"}]},"system":"https://bonnie-fhir.healthit.gov/","value":"6129133802c62a011f2e6764"}],"active":true,"name":[{"use":"usual","family":"IPPass","given":["PrinDxIsHemo"]}],"gender":"male","birthDate":"2004-08-21"},"request":{"method":"PUT","url":"Patient/d3bfef01-fbcd-47a1-912b-c27c23a4280b"}},{"fullUrl":"https://madie.cms.gov/Encounter/a43b292d-5352-4386-a476-8b2c3d32c38d","resource":{"resourceType":"Encounter","id":"a43b292d-5352-4386-a476-8b2c3d32c38d","meta":{"profile":["http://hl7.org/fhir/us/qicore/StructureDefinition/qicore-encounter"]},"status":"finished","class":{"system":"http://terminology.hl7.org/CodeSystem/v3-ActCode","code":"IMP","display":"inpatient encounter","userSelected":true},"type":[{"coding":[{"system":"http://snomed.info/sct","code":"32485007"}]}],"subject":{"reference":"Patient/d3bfef01-fbcd-47a1-912b-c27c23a4280b"},"period":{"start":"2026-08-21T08:00:00.000+00:00","end":"2026-12-19T08:15:00.000+00:00"},"length":{"value":120,"unit":"days"},"diagnosis":[{"condition":{"reference":"Condition/38444acb-bc34-47dc-acdd-4305cefbffc9"},"use":{"coding":[{"system":"http://terminology.hl7.org/CodeSystem/diagnosis-role","code":"billing","display":"Billing"}]},"rank":1}]},"request":{"method":"PUT","url":"Encounter/a43b292d-5352-4386-a476-8b2c3d32c38d"}},{"fullUrl":"https://madie.cms.gov/Condition/38444acb-bc34-47dc-acdd-4305cefbffc9","resource":{"resourceType":"Condition","id":"38444acb-bc34-47dc-acdd-4305cefbffc9","meta":{"profile":["http://hl7.org/fhir/us/qicore/StructureDefinition/qicore-condition"]},"clinicalStatus":{"coding":[{"system":"http://terminology.hl7.org/CodeSystem/condition-clinical","code":"active"}]},"verificationStatus":{"coding":[{"system":"http://terminology.hl7.org/CodeSystem/condition-ver-status","code":"confirmed"}]},"category":[{"coding":[{"system":"http://terminology.hl7.org/CodeSystem/condition-category","code":"encounter-diagnosis","display":"Encounter Diagnosis"}]}],"code":{"coding":[{"system":"http://snomed.info/sct","version":"2020-09","code":"195155004","display":"Subarachnoid hemorrhage from carotid siphon and bifurcation (disorder)","userSelected":true}]},"subject":{"reference":"Patient/d3bfef01-fbcd-47a1-912b-c27c23a4280b"},"recordedDate":"2026-07-15T08:00:00.000+00:00"},"request":{"method":"PUT","url":"Condition/38444acb-bc34-47dc-acdd-4305cefbffc9"}},{"fullUrl":"https://madie.cms.gov/Coverage/cb3137a7-9d44-4d4a-aa82-75482aad98f8","resource":{"resourceType":"Coverage","id":"cb3137a7-9d44-4d4a-aa82-75482aad98f8","meta":{"profile":["http://hl7.org/fhir/us/qicore/StructureDefinition/qicore-coverage"]},"status":"active","beneficiary":{"reference":"Patient/d3bfef01-fbcd-47a1-912b-c27c23a4280b"},"payor":[{"reference":"Organization/db141f66-a1cc-407b-9e95-adac27adee14"}]},"request":{"method":"PUT","url":"Coverage/cb3137a7-9d44-4d4a-aa82-75482aad98f8"}},{"fullUrl":"https://madie.cms.gov/Organization/295057d9-b6b8-44c5-acd9-4285bfa765a6","resource":{"resourceType":"Organization","id":"db141f66-a1cc-407b-9e95-adac27adee14","meta":{"profile":["http://hl7.org/fhir/us/qicore/StructureDefinition/qicore-organization"]},"identifier":[{"use":"temp","system":"urn:oid:2.16.840.1.113883.4.4","value":"21-3259825"}],"active":true,"type":[{"coding":[{"system":"http://terminology.hl7.org/CodeSystem/organization-type","code":"pay","display":"Payer"}]}],"name":"Blue Cross Blue Shield of Texas","telecom":[{"system":"phone","value":"(+1) 972-766-6900"}],"address":[{"use":"billing","type":"postal","line":["P.O. Box 660044"],"city":"Dallas","state":"TX","postalCode":"75266-0044","country":"USA"}]},"request":{"method":"PUT","url":"Organization/db141f66-a1cc-407b-9e95-adac27adee14"}},{"fullUrl":"https://madie.cms.gov/MeasureReport/d40a6326-650e-480c-acdc-f5e801a9cff2","resource":{"resourceType":"MeasureReport","id":"d40a6326-650e-480c-acdc-f5e801a9cff2","meta":{"profile":["http://hl7.org/fhir/us/cqfmeasures/StructureDefinition/test-case-cqfm"]},"contained":[{"resourceType":"Parameters","id":"1517375a-885e-47bc-8f6e-e533f67b819a-parameters","parameter":[{"name":"subject","valueString":"d3bfef01-fbcd-47a1-912b-c27c23a4280b"}]}],"extension":[{"url":"http://hl7.org/fhir/us/cqfmeasures/StructureDefinition/cqfm-inputParameters","valueReference":{"reference":"#1517375a-885e-47bc-8f6e-e533f67b819a-parameters"}},{"url":"http://hl7.org/fhir/us/cqfmeasures/StructureDefinition/cqfm-testCaseDescription","valueMarkdown":"Patient is 18 with Encounter Inpatient (LOS 120 days) with principal diagnosis of hemorrhagic stroke.\n"}],"modifierExtension":[{"url":"http://hl7.org/fhir/us/cqfmeasures/StructureDefinition/cqfm-isTestCase","valueBoolean":true}],"status":"complete","type":"individual","measure":"https://madie.cms.gov/Measure/CMS104FHIRSTKDCAntithrombotic","period":{"start":"2026-01-01","end":"2026-12-31"},"group":[{"population":[{"code":{"coding":[{"system":"http://terminology.hl7.org/CodeSystem/measure-population","code":"initial-population","display":"Initial Population"}]},"count":0},{"code":{"coding":[{"system":"http://terminology.hl7.org/CodeSystem/measure-population","code":"denominator","display":"Denominator"}]},"count":0},{"code":{"coding":[{"system":"http://terminology.hl7.org/CodeSystem/measure-population","code":"denominator-exclusion","display":"Denominator Exclusion"}]},"count":0},{"code":{"coding":[{"system":"http://terminology.hl7.org/CodeSystem/measure-population","code":"numerator","display":"Numerator"}]},"count":0},{"code":{"coding":[{"system":"http://terminology.hl7.org/CodeSystem/measure-population","code":"denominator-exception","display":"Denominator Exception"}]},"count":0}]}]},"request":{"method":"PUT","url":"MeasureReport/d40a6326-650e-480c-acdc-f5e801a9cff2"}}]}