{"resourceType":"Bundle","id":"tests-1498de63-ecb3-4ff2-89be-34af68ab7a84-bundle","type":"transaction","entry":[{"fullUrl":"https://madie.cms.gov/Patient/1498de63-ecb3-4ff2-89be-34af68ab7a84","resource":{"resourceType":"Patient","id":"1498de63-ecb3-4ff2-89be-34af68ab7a84","meta":{"profile":["http://hl7.org/fhir/us/qicore/StructureDefinition/qicore-patient"]},"text":{"status":"generated","div":"<div xmlns=\"http://www.w3.org/1999/xhtml\"><div class=\"hapiHeaderText\">CMOdurED_ED=1hrNoObsBFEnc <b>DENEXPASS </b></div><table class=\"hapiPropertyTable\"><tbody><tr><td>Identifier</td><td>670854918483ca8b7894283bd5cddbcf5037c5392991b8777bf3c4f78ed05f0b</td></tr><tr><td>Date of birth</td><td><span>18 September 1985</span></td></tr></tbody></table></div>"},"extension":[{"url":"http://hl7.org/fhir/us/core/StructureDefinition/us-core-race","extension":[{"url":"ombCategory","valueCoding":{"system":"urn:oid:2.16.840.1.113883.6.238","code":"1002-5","display":"American Indian or Alaska Native","userSelected":true}},{"url":"text","valueString":"American Indian or Alaska Native"}]},{"url":"http://hl7.org/fhir/us/core/StructureDefinition/us-core-ethnicity","extension":[{"url":"ombCategory","valueCoding":{"system":"urn:oid:2.16.840.1.113883.6.238","code":"2135-2","display":"Hispanic or Latino","userSelected":true}},{"url":"text","valueString":"Hispanic or Latino"}]}],"identifier":[{"type":{"coding":[{"system":"http://terminology.hl7.org/CodeSystem/v2-0203","code":"MR"}]},"system":"https://bonnie-fhir.healthit.gov/","value":"633c9d040968f8012250fca3"}],"active":true,"name":[{"use":"usual","family":"DENEXFail","given":["CMOdurEDEDEQ1hrNoObsBFEncdoNotPerform"]}],"gender":"female","birthDate":"1986-09-18"},"request":{"method":"PUT","url":"Patient/1498de63-ecb3-4ff2-89be-34af68ab7a84"}},{"fullUrl":"https://madie.cms.gov/Condition/39d052f9-a800-40b4-b899-9853e56fa32b","resource":{"resourceType":"Condition","id":"39d052f9-a800-40b4-b899-9853e56fa32b","meta":{"profile":["http://hl7.org/fhir/us/qicore/StructureDefinition/qicore-condition"]},"clinicalStatus":{"coding":[{"system":"http://terminology.hl7.org/CodeSystem/condition-clinical","code":"inactive"}]},"verificationStatus":{"coding":[{"system":"http://terminology.hl7.org/CodeSystem/condition-ver-status","code":"confirmed"}]},"category":[{"coding":[{"system":"http://terminology.hl7.org/CodeSystem/condition-category","code":"encounter-diagnosis","display":"Encounter Diagnosis"}]}],"code":{"coding":[{"system":"http://hl7.org/fhir/sid/icd-10-cm","code":"I48.20"},{"system":"http://hl7.org/fhir/sid/icd-10-cm","code":"I48.0"},{"system":"http://snomed.info/sct","code":"5370000"}]},"subject":{"reference":"Patient/1498de63-ecb3-4ff2-89be-34af68ab7a84"},"onsetDateTime":"2026-10-01T09:01:00.000Z","abatementDateTime":"2026-10-12T00:15:00.000Z"},"request":{"method":"PUT","url":"Condition/39d052f9-a800-40b4-b899-9853e56fa32b"}},{"fullUrl":"https://madie.cms.gov/Encounter/c5a85b2e-2339-42d5-a1f7-5b7b7070672b","resource":{"resourceType":"Encounter","id":"c5a85b2e-2339-42d5-a1f7-5b7b7070672b","meta":{"profile":["http://hl7.org/fhir/us/qicore/StructureDefinition/qicore-encounter"]},"status":"finished","class":{"system":"http://terminology.hl7.org/CodeSystem/v3-ActCode","code":"EMER","display":"emergency"},"type":[{"coding":[{"system":"http://snomed.info/sct","code":"4525004"}]}],"subject":{"reference":"Patient/1498de63-ecb3-4ff2-89be-34af68ab7a84"},"period":{"start":"2026-10-01T09:01:00.000Z","end":"2026-10-01T12:15:00.000Z"},"length":{"value":0,"unit":"days"}},"request":{"method":"PUT","url":"Encounter/c5a85b2e-2339-42d5-a1f7-5b7b7070672b"}},{"fullUrl":"https://madie.cms.gov/Encounter/74757310-d564-4574-bf26-429a9e3d8bb6","resource":{"resourceType":"Encounter","id":"74757310-d564-4574-bf26-429a9e3d8bb6","meta":{"profile":["http://hl7.org/fhir/us/qicore/StructureDefinition/qicore-encounter"]},"status":"finished","class":{"system":"http://terminology.hl7.org/CodeSystem/v3-ActCode","code":"IMP","display":"inpatient encounter"},"type":[{"coding":[{"system":"http://snomed.info/sct","code":"32485007"}]}],"subject":{"reference":"Patient/1498de63-ecb3-4ff2-89be-34af68ab7a84"},"period":{"start":"2026-10-01T13:15:00.000Z","end":"2026-10-12T00:15:00.000Z"},"length":{"value":11,"unit":"days"},"diagnosis":[{"condition":{"reference":"Condition/e55229b3-e497-4380-aacf-4fcbbaac4596"},"use":{"coding":[{"system":"http://terminology.hl7.org/CodeSystem/diagnosis-role","code":"billing","display":"Billing"}]},"rank":1}]},"request":{"method":"PUT","url":"Encounter/74757310-d564-4574-bf26-429a9e3d8bb6"}},{"fullUrl":"https://madie.cms.gov/ServiceRequest/80f3ca29-7dee-475f-bae8-dd0e6ff6b27a","resource":{"resourceType":"ServiceRequest","id":"80f3ca29-7dee-475f-bae8-dd0e6ff6b27a","meta":{"profile":["http://hl7.org/fhir/us/qicore/StructureDefinition/qicore-servicerequest"]},"status":"active","intent":"order","doNotPerform":true,"code":{"coding":[{"system":"http://snomed.info/sct","code":"133918004"}]},"subject":{"reference":"Patient/1498de63-ecb3-4ff2-89be-34af68ab7a84"},"authoredOn":"2026-10-01T09:15:00.000+00:00"},"request":{"method":"PUT","url":"ServiceRequest/80f3ca29-7dee-475f-bae8-dd0e6ff6b27a"}},{"fullUrl":"https://madie.cms.gov/Coverage/8d21a2cb-c02d-41f4-a854-9ca36262e7fc","resource":{"resourceType":"Coverage","id":"8d21a2cb-c02d-41f4-a854-9ca36262e7fc","status":"active","beneficiary":{"reference":"Patient/1498de63-ecb3-4ff2-89be-34af68ab7a84"},"period":{"start":"1986-09-18T08:00:00.000Z"},"payor":[{"reference":"Organization/607fdef9-3983-4cef-ab1a-95434d29b463"}]},"request":{"method":"PUT","url":"Coverage/8d21a2cb-c02d-41f4-a854-9ca36262e7fc"}},{"fullUrl":"https://madie.cms.gov/Condition/e55229b3-e497-4380-aacf-4fcbbaac4596","resource":{"resourceType":"Condition","id":"e55229b3-e497-4380-aacf-4fcbbaac4596","meta":{"profile":["http://hl7.org/fhir/us/qicore/StructureDefinition/qicore-condition"]},"clinicalStatus":{"coding":[{"system":"http://terminology.hl7.org/CodeSystem/condition-clinical","code":"active"}]},"verificationStatus":{"coding":[{"system":"http://terminology.hl7.org/CodeSystem/condition-ver-status","code":"confirmed"}]},"category":[{"coding":[{"system":"http://terminology.hl7.org/CodeSystem/condition-category","code":"encounter-diagnosis","display":"Encounter Diagnosis"}]}],"code":{"coding":[{"system":"http://snomed.info/sct","version":"2021-09","code":"111297002","display":"Nonparalytic stroke (disorder)","userSelected":true}]},"subject":{"reference":"Patient/1498de63-ecb3-4ff2-89be-34af68ab7a84"},"recordedDate":"2026-10-13T08:00:00.000+00:00"},"request":{"method":"PUT","url":"Condition/e55229b3-e497-4380-aacf-4fcbbaac4596"}},{"fullUrl":"https://madie.cms.gov/Organization/43bf830f-8e45-4d3f-811a-2611d3f7a5d1","resource":{"resourceType":"Organization","id":"607fdef9-3983-4cef-ab1a-95434d29b463","meta":{"profile":["http://hl7.org/fhir/us/qicore/StructureDefinition/qicore-organization"]},"identifier":[{"use":"temp","system":"urn:oid:2.16.840.1.113883.4.4","value":"21-3259825"}],"active":true,"type":[{"coding":[{"system":"http://terminology.hl7.org/CodeSystem/organization-type","code":"pay","display":"Payer"}]}],"name":"Blue Cross Blue Shield of Texas","telecom":[{"system":"phone","value":"(+1) 972-766-6900"}],"address":[{"use":"billing","type":"postal","line":["P.O. Box 660044"],"city":"Dallas","state":"TX","postalCode":"75266-0044","country":"USA"}]},"request":{"method":"PUT","url":"Organization/607fdef9-3983-4cef-ab1a-95434d29b463"}},{"fullUrl":"https://madie.cms.gov/Practitioner/dc3ac7c5-a8d4-4ad0-83d1-30611cc28acb","resource":{"resourceType":"Practitioner","id":"dc3ac7c5-a8d4-4ad0-83d1-30611cc28acb","identifier":[{"system":"http://hl7.org/fhir/sid/us-npi","value":"123456"}],"name":[{"family":"Evil","prefix":["Dr"]}]},"request":{"method":"PUT","url":"Practitioner/dc3ac7c5-a8d4-4ad0-83d1-30611cc28acb"}},{"fullUrl":"https://madie.cms.gov/MeasureReport/c44ce5fe-bce3-42f6-89e5-b521b655a311","resource":{"resourceType":"MeasureReport","id":"c44ce5fe-bce3-42f6-89e5-b521b655a311","meta":{"profile":["http://hl7.org/fhir/us/cqfmeasures/StructureDefinition/test-case-cqfm"]},"contained":[{"resourceType":"Parameters","id":"641302a2-2b36-4232-9900-8e5e30617c8e-parameters","parameter":[{"name":"subject","valueString":"1498de63-ecb3-4ff2-89be-34af68ab7a84"}]}],"extension":[{"url":"http://hl7.org/fhir/us/cqfmeasures/StructureDefinition/cqfm-inputParameters","valueReference":{"reference":"#641302a2-2b36-4232-9900-8e5e30617c8e-parameters"}},{"url":"http://hl7.org/fhir/us/cqfmeasures/StructureDefinition/cqfm-testCaseDescription","valueMarkdown":"Testing do not perform equal to true"}],"modifierExtension":[{"url":"http://hl7.org/fhir/us/cqfmeasures/StructureDefinition/cqfm-isTestCase","valueBoolean":true}],"status":"complete","type":"individual","measure":"https://madie.cms.gov/Measure/CMS104FHIRSTKDCAntithrombotic","period":{"start":"2026-01-01","end":"2026-12-31"},"group":[{"population":[{"code":{"coding":[{"system":"http://terminology.hl7.org/CodeSystem/measure-population","code":"initial-population","display":"Initial Population"}]},"count":1},{"code":{"coding":[{"system":"http://terminology.hl7.org/CodeSystem/measure-population","code":"denominator","display":"Denominator"}]},"count":1},{"code":{"coding":[{"system":"http://terminology.hl7.org/CodeSystem/measure-population","code":"denominator-exclusion","display":"Denominator Exclusion"}]},"count":0},{"code":{"coding":[{"system":"http://terminology.hl7.org/CodeSystem/measure-population","code":"numerator","display":"Numerator"}]},"count":0},{"code":{"coding":[{"system":"http://terminology.hl7.org/CodeSystem/measure-population","code":"denominator-exception","display":"Denominator Exception"}]},"count":0}]}]},"request":{"method":"PUT","url":"MeasureReport/c44ce5fe-bce3-42f6-89e5-b521b655a311"}}]}