{"resourceType":"Bundle","id":"tests-db5afa02-02e2-4c0d-88c8-d3c0682333a1-bundle","type":"transaction","entry":[{"fullUrl":"https://madie.cms.gov/Patient/db5afa02-02e2-4c0d-88c8-d3c0682333a1","resource":{"resourceType":"Patient","id":"db5afa02-02e2-4c0d-88c8-d3c0682333a1","meta":{"profile":["http://hl7.org/fhir/us/qicore/StructureDefinition/qicore-patient"]},"text":{"status":"generated","div":"<div xmlns=\"http://www.w3.org/1999/xhtml\"><div class=\"hapiHeaderText\">CMOdurObs_ED&gt;1hrObs&gt;1hrBFEnc <b>DENEXFAIL </b></div><table class=\"hapiPropertyTable\"><tbody><tr><td>Identifier</td><td>b295efb5520a7037dac313f631f555ba</td></tr><tr><td>Date of birth</td><td><span>21 August 1994</span></td></tr></tbody></table></div>"},"extension":[{"url":"http://hl7.org/fhir/us/core/StructureDefinition/us-core-race","extension":[{"url":"ombCategory","valueCoding":{"system":"urn:oid:2.16.840.1.113883.6.238","code":"1002-5","display":"American Indian or Alaska Native","userSelected":true}},{"url":"text","valueString":"American Indian or Alaska Native"}]},{"url":"http://hl7.org/fhir/us/core/StructureDefinition/us-core-ethnicity","extension":[{"url":"ombCategory","valueCoding":{"system":"urn:oid:2.16.840.1.113883.6.238","code":"2135-2","display":"Hispanic or Latino","userSelected":true}},{"url":"text","valueString":"Hispanic or Latino"}]}],"identifier":[{"type":{"coding":[{"system":"http://terminology.hl7.org/CodeSystem/v2-0203","code":"MR"}]},"system":"https://bonnie-fhir.healthit.gov/","value":"6129133f02c62a011f2e6ab0"}],"active":true,"name":[{"use":"usual","family":"DENEXFail","given":["CMOdurObs_ED>1hrObs>1hrBFEnc"]}],"gender":"male","birthDate":"1995-08-21"},"request":{"method":"PUT","url":"Patient/db5afa02-02e2-4c0d-88c8-d3c0682333a1"}},{"fullUrl":"https://madie.cms.gov/Encounter/f7aa6453-c8c0-466e-b074-0b6b55a146c7","resource":{"resourceType":"Encounter","id":"f7aa6453-c8c0-466e-b074-0b6b55a146c7","meta":{"profile":["http://hl7.org/fhir/us/qicore/StructureDefinition/qicore-encounter"]},"status":"finished","class":{"system":"http://terminology.hl7.org/CodeSystem/v3-ActCode","code":"EMER","display":"emergency","userSelected":true},"type":[{"coding":[{"system":"http://snomed.info/sct","code":"4525004"}]}],"subject":{"reference":"Patient/db5afa02-02e2-4c0d-88c8-d3c0682333a1"},"period":{"start":"2026-10-10T07:30:00.000+00:00","end":"2026-10-10T07:35:00.000+00:00"},"length":{"value":0,"unit":"days"}},"request":{"method":"PUT","url":"Encounter/f7aa6453-c8c0-466e-b074-0b6b55a146c7"}},{"fullUrl":"https://madie.cms.gov/Encounter/03bed3a7-0eae-4c7f-b045-c4600d5bf2d2","resource":{"resourceType":"Encounter","id":"03bed3a7-0eae-4c7f-b045-c4600d5bf2d2","meta":{"profile":["http://hl7.org/fhir/us/qicore/StructureDefinition/qicore-encounter"]},"status":"finished","class":{"system":"http://terminology.hl7.org/CodeSystem/v3-ActCode","code":"OBSENC","display":"observation encounter","userSelected":true},"type":[{"coding":[{"system":"http://snomed.info/sct","code":"448851000124103"}]}],"subject":{"reference":"Patient/db5afa02-02e2-4c0d-88c8-d3c0682333a1"},"period":{"start":"2026-10-10T08:36:00.000+00:00","end":"2026-10-10T09:00:00.000+00:00"},"length":{"value":0,"unit":"days"}},"request":{"method":"PUT","url":"Encounter/03bed3a7-0eae-4c7f-b045-c4600d5bf2d2"}},{"fullUrl":"https://madie.cms.gov/Encounter/981f7314-7d92-4388-b18a-9917b9aa58cd","resource":{"resourceType":"Encounter","id":"981f7314-7d92-4388-b18a-9917b9aa58cd","meta":{"profile":["http://hl7.org/fhir/us/qicore/StructureDefinition/qicore-encounter"]},"status":"finished","class":{"system":"http://terminology.hl7.org/CodeSystem/v3-ActCode","code":"IMP","display":"inpatient encounter","userSelected":true},"type":[{"coding":[{"system":"http://snomed.info/sct","code":"32485007"}]}],"subject":{"reference":"Patient/db5afa02-02e2-4c0d-88c8-d3c0682333a1"},"period":{"start":"2026-10-10T10:01:00.000+00:00","end":"2026-10-12T10:30:00.000+00:00"},"length":{"value":2,"unit":"days"},"diagnosis":[{"condition":{"reference":"Condition/5a27c9b6-87dc-4e7a-8c5d-eb98ce7c59d4"},"use":{"coding":[{"system":"http://terminology.hl7.org/CodeSystem/diagnosis-role","code":"billing","display":"Billing"}]},"rank":1}]},"request":{"method":"PUT","url":"Encounter/981f7314-7d92-4388-b18a-9917b9aa58cd"}},{"fullUrl":"https://madie.cms.gov/ServiceRequest/46cd383a-f353-4ba9-80ed-ee885f2337a5","resource":{"resourceType":"ServiceRequest","id":"46cd383a-f353-4ba9-80ed-ee885f2337a5","meta":{"profile":["http://hl7.org/fhir/us/qicore/StructureDefinition/qicore-servicerequest"]},"status":"active","intent":"order","code":{"coding":[{"system":"http://snomed.info/sct","code":"133918004"}]},"subject":{"reference":"Patient/db5afa02-02e2-4c0d-88c8-d3c0682333a1"},"authoredOn":"2026-10-10T08:37:00.000+00:00"},"request":{"method":"PUT","url":"ServiceRequest/46cd383a-f353-4ba9-80ed-ee885f2337a5"}},{"fullUrl":"https://madie.cms.gov/Condition/5a27c9b6-87dc-4e7a-8c5d-eb98ce7c59d4","resource":{"resourceType":"Condition","id":"5a27c9b6-87dc-4e7a-8c5d-eb98ce7c59d4","meta":{"profile":["http://hl7.org/fhir/us/qicore/StructureDefinition/qicore-condition"]},"clinicalStatus":{"coding":[{"system":"http://terminology.hl7.org/CodeSystem/condition-clinical","code":"active"}]},"verificationStatus":{"coding":[{"system":"http://terminology.hl7.org/CodeSystem/condition-ver-status","code":"confirmed"}]},"category":[{"coding":[{"system":"http://terminology.hl7.org/CodeSystem/condition-category","code":"encounter-diagnosis","display":"Encounter Diagnosis"}]}],"code":{"coding":[{"system":"http://snomed.info/sct","version":"2020-09","code":"111297002","display":"Nonparalytic stroke (disorder)","userSelected":true}]},"subject":{"reference":"Patient/db5afa02-02e2-4c0d-88c8-d3c0682333a1"},"recordedDate":"2026-07-14T08:00:00.000+00:00"},"request":{"method":"PUT","url":"Condition/5a27c9b6-87dc-4e7a-8c5d-eb98ce7c59d4"}},{"fullUrl":"https://madie.cms.gov/Coverage/c68d8468-e5bf-476e-81bf-8eb7dd2b8eb7","resource":{"resourceType":"Coverage","id":"c68d8468-e5bf-476e-81bf-8eb7dd2b8eb7","meta":{"profile":["http://hl7.org/fhir/us/qicore/StructureDefinition/qicore-coverage"]},"status":"active","beneficiary":{"reference":"Patient/db5afa02-02e2-4c0d-88c8-d3c0682333a1"},"payor":[{"reference":"Organization/db141f66-a1cc-407b-9e95-adac27adee14"}]},"request":{"method":"PUT","url":"Coverage/c68d8468-e5bf-476e-81bf-8eb7dd2b8eb7"}},{"fullUrl":"https://madie.cms.gov/Organization/4352eeec-65e7-4170-8ffa-2f617813168e","resource":{"resourceType":"Organization","id":"db141f66-a1cc-407b-9e95-adac27adee14","meta":{"profile":["http://hl7.org/fhir/us/qicore/StructureDefinition/qicore-organization"]},"identifier":[{"use":"temp","system":"urn:oid:2.16.840.1.113883.4.4","value":"21-3259825"}],"active":true,"type":[{"coding":[{"system":"http://terminology.hl7.org/CodeSystem/organization-type","code":"pay","display":"Payer"}]}],"name":"Blue Cross Blue Shield of Texas","telecom":[{"system":"phone","value":"(+1) 972-766-6900"}],"address":[{"use":"billing","type":"postal","line":["P.O. Box 660044"],"city":"Dallas","state":"TX","postalCode":"75266-0044","country":"USA"}]},"request":{"method":"PUT","url":"Organization/db141f66-a1cc-407b-9e95-adac27adee14"}},{"fullUrl":"https://madie.cms.gov/MeasureReport/39bd303c-dd9a-4fb5-a6d6-a090bc39daa8","resource":{"resourceType":"MeasureReport","id":"39bd303c-dd9a-4fb5-a6d6-a090bc39daa8","meta":{"profile":["http://hl7.org/fhir/us/cqfmeasures/StructureDefinition/test-case-cqfm"]},"contained":[{"resourceType":"Parameters","id":"a83c4e30-185e-4d29-8822-b77a8e433ea5-parameters","parameter":[{"name":"subject","valueString":"db5afa02-02e2-4c0d-88c8-d3c0682333a1"}]}],"extension":[{"url":"http://hl7.org/fhir/us/cqfmeasures/StructureDefinition/cqfm-inputParameters","valueReference":{"reference":"#a83c4e30-185e-4d29-8822-b77a8e433ea5-parameters"}},{"url":"http://hl7.org/fhir/us/cqfmeasures/StructureDefinition/cqfm-testCaseDescription","valueMarkdown":"\"Patient receives CMO during observation. ED ends 61 minute before observation. Obs ends 61 min before inpatient encounter start. Testing day of operator with HospitalizationWithObservation function.\n\"\n"}],"modifierExtension":[{"url":"http://hl7.org/fhir/us/cqfmeasures/StructureDefinition/cqfm-isTestCase","valueBoolean":true}],"status":"complete","type":"individual","measure":"https://madie.cms.gov/Measure/CMS104FHIRSTKDCAntithrombotic","period":{"start":"2026-01-01","end":"2026-12-31"},"group":[{"population":[{"code":{"coding":[{"system":"http://terminology.hl7.org/CodeSystem/measure-population","code":"initial-population","display":"Initial Population"}]},"count":1},{"code":{"coding":[{"system":"http://terminology.hl7.org/CodeSystem/measure-population","code":"denominator","display":"Denominator"}]},"count":1},{"code":{"coding":[{"system":"http://terminology.hl7.org/CodeSystem/measure-population","code":"denominator-exclusion","display":"Denominator Exclusion"}]},"count":0},{"code":{"coding":[{"system":"http://terminology.hl7.org/CodeSystem/measure-population","code":"numerator","display":"Numerator"}]},"count":0},{"code":{"coding":[{"system":"http://terminology.hl7.org/CodeSystem/measure-population","code":"denominator-exception","display":"Denominator Exception"}]},"count":0}]}]},"request":{"method":"PUT","url":"MeasureReport/39bd303c-dd9a-4fb5-a6d6-a090bc39daa8"}}]}