{"resourceType":"Bundle","id":"tests-728a543b-9149-4b2a-9e65-3fb41ce3f35b-bundle","type":"transaction","entry":[{"fullUrl":"https://madie.cms.gov/Patient/728a543b-9149-4b2a-9e65-3fb41ce3f35b","resource":{"resourceType":"Patient","id":"728a543b-9149-4b2a-9e65-3fb41ce3f35b","meta":{"profile":["http://hl7.org/fhir/us/qicore/StructureDefinition/qicore-patient"]},"text":{"status":"generated","div":"<div xmlns=\"http://www.w3.org/1999/xhtml\"><div class=\"hapiHeaderText\"> CMOdurDiffEDTestOccur <b>DENEXFail </b></div><table class=\"hapiPropertyTable\"><tbody><tr><td>Identifier</td><td>8ca2b35206ea67637d1637609c7d085ff3b14c20bc19eae5b26464da239a5345</td></tr><tr><td>Date of birth</td><td><span>21 August 1994</span></td></tr></tbody></table></div>"},"extension":[{"url":"http://hl7.org/fhir/us/core/StructureDefinition/us-core-race","extension":[{"url":"ombCategory","valueCoding":{"system":"urn:oid:2.16.840.1.113883.6.238","code":"1002-5","display":"American Indian or Alaska Native","userSelected":true}},{"url":"text","valueString":"American Indian or Alaska Native"}]},{"url":"http://hl7.org/fhir/us/core/StructureDefinition/us-core-ethnicity","extension":[{"url":"ombCategory","valueCoding":{"system":"urn:oid:2.16.840.1.113883.6.238","code":"2135-2","display":"Hispanic or Latino","userSelected":true}},{"url":"text","valueString":"Hispanic or Latino"}]}],"identifier":[{"type":{"coding":[{"system":"http://terminology.hl7.org/CodeSystem/v2-0203","code":"MR"}]},"system":"https://bonnie-fhir.healthit.gov/","value":"6129135502c62a011f2e752c"}],"active":true,"name":[{"use":"usual","family":"DENEXFail","given":[" CMOdurDiffEDTestOccur"]}],"gender":"male","birthDate":"1995-08-21"},"request":{"method":"PUT","url":"Patient/728a543b-9149-4b2a-9e65-3fb41ce3f35b"}},{"fullUrl":"https://madie.cms.gov/Encounter/b34a1a48-ecfe-4abb-81bc-c9ba817aed1d","resource":{"resourceType":"Encounter","id":"b34a1a48-ecfe-4abb-81bc-c9ba817aed1d","meta":{"profile":["http://hl7.org/fhir/us/qicore/StructureDefinition/qicore-encounter"]},"status":"finished","class":{"system":"http://terminology.hl7.org/CodeSystem/v3-ActCode","code":"EMER","display":"emergency","userSelected":true},"type":[{"coding":[{"system":"http://snomed.info/sct","code":"4525004"}]}],"subject":{"reference":"Patient/728a543b-9149-4b2a-9e65-3fb41ce3f35b"},"period":{"start":"2026-10-10T12:31:00.000+00:00","end":"2026-10-10T12:46:00.000+00:00"},"length":{"value":0,"unit":"days"}},"request":{"method":"PUT","url":"Encounter/b34a1a48-ecfe-4abb-81bc-c9ba817aed1d"}},{"fullUrl":"https://madie.cms.gov/Encounter/19569ce4-a018-4fe2-8e66-1dec7c1f7ea8","resource":{"resourceType":"Encounter","id":"19569ce4-a018-4fe2-8e66-1dec7c1f7ea8","meta":{"profile":["http://hl7.org/fhir/us/qicore/StructureDefinition/qicore-encounter"]},"status":"finished","class":{"system":"http://terminology.hl7.org/CodeSystem/v3-ActCode","code":"EMER","display":"emergency","userSelected":true},"type":[{"coding":[{"system":"http://snomed.info/sct","code":"4525004"}]}],"subject":{"reference":"Patient/728a543b-9149-4b2a-9e65-3fb41ce3f35b"},"period":{"start":"2026-10-11T10:30:00.000+00:00","end":"2026-10-11T11:30:00.000+00:00"},"length":{"value":0,"unit":"days"}},"request":{"method":"PUT","url":"Encounter/19569ce4-a018-4fe2-8e66-1dec7c1f7ea8"}},{"fullUrl":"https://madie.cms.gov/Encounter/05d14319-53aa-48c4-81e7-58fc52921761","resource":{"resourceType":"Encounter","id":"05d14319-53aa-48c4-81e7-58fc52921761","meta":{"profile":["http://hl7.org/fhir/us/qicore/StructureDefinition/qicore-encounter"]},"status":"finished","class":{"system":"http://terminology.hl7.org/CodeSystem/v3-ActCode","code":"IMP","display":"inpatient encounter","userSelected":true},"type":[{"coding":[{"system":"http://snomed.info/sct","code":"32485007"}]}],"subject":{"reference":"Patient/728a543b-9149-4b2a-9e65-3fb41ce3f35b"},"period":{"start":"2026-10-11T12:30:00.000+00:00","end":"2026-10-13T11:30:00.000+00:00"},"length":{"value":2,"unit":"days"},"diagnosis":[{"condition":{"reference":"Condition/1bc50ce2-c4f9-4ae6-acd7-d1f618299d61"},"use":{"coding":[{"system":"http://terminology.hl7.org/CodeSystem/diagnosis-role","code":"billing","display":"Billing"}]},"rank":1}]},"request":{"method":"PUT","url":"Encounter/05d14319-53aa-48c4-81e7-58fc52921761"}},{"fullUrl":"https://madie.cms.gov/ServiceRequest/26f9b134-ee6f-4f91-b80f-a48ffcd654b3","resource":{"resourceType":"ServiceRequest","id":"26f9b134-ee6f-4f91-b80f-a48ffcd654b3","meta":{"profile":["http://hl7.org/fhir/us/qicore/StructureDefinition/qicore-servicerequest"]},"status":"active","intent":"order","code":{"coding":[{"system":"http://snomed.info/sct","code":"133918004"}]},"subject":{"reference":"Patient/728a543b-9149-4b2a-9e65-3fb41ce3f35b"},"authoredOn":"2026-10-10T12:31:00.000+00:00"},"request":{"method":"PUT","url":"ServiceRequest/26f9b134-ee6f-4f91-b80f-a48ffcd654b3"}},{"fullUrl":"https://madie.cms.gov/Condition/1bc50ce2-c4f9-4ae6-acd7-d1f618299d61","resource":{"resourceType":"Condition","id":"1bc50ce2-c4f9-4ae6-acd7-d1f618299d61","meta":{"profile":["http://hl7.org/fhir/us/qicore/StructureDefinition/qicore-condition"]},"clinicalStatus":{"coding":[{"system":"http://terminology.hl7.org/CodeSystem/condition-clinical","code":"active"}]},"verificationStatus":{"coding":[{"system":"http://terminology.hl7.org/CodeSystem/condition-ver-status","code":"confirmed"}]},"category":[{"coding":[{"system":"http://terminology.hl7.org/CodeSystem/condition-category","code":"encounter-diagnosis","display":"Encounter Diagnosis"}]}],"code":{"coding":[{"system":"http://snomed.info/sct","version":"2020-09","code":"111297002","display":"Nonparalytic stroke (disorder)","userSelected":true}]},"subject":{"reference":"Patient/728a543b-9149-4b2a-9e65-3fb41ce3f35b"},"recordedDate":"2026-07-14T08:00:00.000+00:00"},"request":{"method":"PUT","url":"Condition/1bc50ce2-c4f9-4ae6-acd7-d1f618299d61"}},{"fullUrl":"https://madie.cms.gov/Coverage/9c81f916-b1c6-4e85-aaae-d98ef1bd880a","resource":{"resourceType":"Coverage","id":"9c81f916-b1c6-4e85-aaae-d98ef1bd880a","meta":{"profile":["http://hl7.org/fhir/us/qicore/StructureDefinition/qicore-coverage"]},"status":"active","beneficiary":{"reference":"Patient/728a543b-9149-4b2a-9e65-3fb41ce3f35b"},"payor":[{"reference":"Organization/e75793c9-fdf6-463a-8c1d-4ee44320dc25"}]},"request":{"method":"PUT","url":"Coverage/9c81f916-b1c6-4e85-aaae-d98ef1bd880a"}},{"fullUrl":"https://madie.cms.gov/Organization/3c671595-8e9c-48a0-a20d-c07687deb368","resource":{"resourceType":"Organization","id":"e75793c9-fdf6-463a-8c1d-4ee44320dc25","meta":{"profile":["http://hl7.org/fhir/us/qicore/StructureDefinition/qicore-organization"]},"identifier":[{"use":"temp","system":"urn:oid:2.16.840.1.113883.4.4","value":"21-3259825"}],"active":true,"type":[{"coding":[{"system":"http://terminology.hl7.org/CodeSystem/organization-type","code":"pay","display":"Payer"}]}],"name":"Blue Cross Blue Shield of Texas","telecom":[{"system":"phone","value":"(+1) 972-766-6900"}],"address":[{"use":"billing","type":"postal","line":["P.O. Box 660044"],"city":"Dallas","state":"TX","postalCode":"75266-0044","country":"USA"}]},"request":{"method":"PUT","url":"Organization/e75793c9-fdf6-463a-8c1d-4ee44320dc25"}},{"fullUrl":"https://madie.cms.gov/MeasureReport/27a058a9-dd16-4d2a-8220-e0c4fc0f90b7","resource":{"resourceType":"MeasureReport","id":"27a058a9-dd16-4d2a-8220-e0c4fc0f90b7","meta":{"profile":["http://hl7.org/fhir/us/cqfmeasures/StructureDefinition/test-case-cqfm"]},"contained":[{"resourceType":"Parameters","id":"a1c065a0-140f-4ea0-8d71-e16428b6d284-parameters","parameter":[{"name":"subject","valueString":"728a543b-9149-4b2a-9e65-3fb41ce3f35b"}]}],"extension":[{"url":"http://hl7.org/fhir/us/cqfmeasures/StructureDefinition/cqfm-inputParameters","valueReference":{"reference":"#a1c065a0-140f-4ea0-8d71-e16428b6d284-parameters"}},{"url":"http://hl7.org/fhir/us/cqfmeasures/StructureDefinition/cqfm-testCaseDescription","valueMarkdown":"Patient receives CMO during a different ED encounter.  Testing multiple  Encounter."}],"modifierExtension":[{"url":"http://hl7.org/fhir/us/cqfmeasures/StructureDefinition/cqfm-isTestCase","valueBoolean":true}],"status":"complete","type":"individual","measure":"https://madie.cms.gov/Measure/CMS104FHIRSTKDCAntithrombotic","period":{"start":"2026-01-01","end":"2026-12-31"},"group":[{"population":[{"code":{"coding":[{"system":"http://terminology.hl7.org/CodeSystem/measure-population","code":"initial-population","display":"Initial Population"}]},"count":1},{"code":{"coding":[{"system":"http://terminology.hl7.org/CodeSystem/measure-population","code":"denominator","display":"Denominator"}]},"count":1},{"code":{"coding":[{"system":"http://terminology.hl7.org/CodeSystem/measure-population","code":"denominator-exclusion","display":"Denominator Exclusion"}]},"count":0},{"code":{"coding":[{"system":"http://terminology.hl7.org/CodeSystem/measure-population","code":"numerator","display":"Numerator"}]},"count":0},{"code":{"coding":[{"system":"http://terminology.hl7.org/CodeSystem/measure-population","code":"denominator-exception","display":"Denominator Exception"}]},"count":0}]}]},"request":{"method":"PUT","url":"MeasureReport/27a058a9-dd16-4d2a-8220-e0c4fc0f90b7"}}]}