{"resourceType":"Bundle","id":"tests-8e28076e-2fc9-4170-95e9-a4de9e04fd5e-bundle","type":"transaction","entry":[{"fullUrl":"https://madie.cms.gov/Patient/8e28076e-2fc9-4170-95e9-a4de9e04fd5e","resource":{"resourceType":"Patient","id":"8e28076e-2fc9-4170-95e9-a4de9e04fd5e","meta":{"profile":["http://hl7.org/fhir/us/qicore/StructureDefinition/qicore-patient"]},"text":{"status":"generated","div":"<div xmlns=\"http://www.w3.org/1999/xhtml\"><div class=\"hapiHeaderText\">AntiThrpNotgivenDischarge <b>DENEXCEPFAIL </b></div><table class=\"hapiPropertyTable\"><tbody><tr><td>Identifier</td><td>293fb1fd3bc833ae97dde55abf9f00ff</td></tr><tr><td>Date of birth</td><td><span>31 May 1990</span></td></tr></tbody></table></div>"},"extension":[{"url":"http://hl7.org/fhir/us/core/StructureDefinition/us-core-race","extension":[{"url":"ombCategory","valueCoding":{"system":"urn:oid:2.16.840.1.113883.6.238","code":"1002-5","display":"American Indian or Alaska Native","userSelected":true}},{"url":"text","valueString":"American Indian or Alaska Native"}]},{"url":"http://hl7.org/fhir/us/core/StructureDefinition/us-core-ethnicity","extension":[{"url":"ombCategory","valueCoding":{"system":"urn:oid:2.16.840.1.113883.6.238","code":"2135-2","display":"Hispanic or Latino","userSelected":true}},{"url":"text","valueString":"Hispanic or Latino"}]}],"identifier":[{"type":{"coding":[{"system":"http://terminology.hl7.org/CodeSystem/v2-0203","code":"MR"}]},"system":"https://bonnie-fhir.healthit.gov/","value":"6129134102c62a011f2e6b63"}],"active":true,"name":[{"use":"usual","family":"DENEXCEPFail","given":["AntiThrpNotgivenDischarge"]}],"gender":"male","birthDate":"1991-05-31"},"request":{"method":"PUT","url":"Patient/8e28076e-2fc9-4170-95e9-a4de9e04fd5e"}},{"fullUrl":"https://madie.cms.gov/Encounter/db3132c9-a4ca-4120-92fe-51305474edc0","resource":{"resourceType":"Encounter","id":"db3132c9-a4ca-4120-92fe-51305474edc0","meta":{"profile":["http://hl7.org/fhir/us/qicore/StructureDefinition/qicore-encounter"]},"status":"finished","class":{"system":"http://terminology.hl7.org/CodeSystem/v3-ActCode","code":"IMP","display":"inpatient encounter","userSelected":true},"type":[{"coding":[{"system":"http://snomed.info/sct","code":"32485007"}]}],"subject":{"reference":"Patient/8e28076e-2fc9-4170-95e9-a4de9e04fd5e"},"period":{"start":"2026-06-15T09:30:00.000+00:00","end":"2026-10-12T10:30:00.000+00:00"},"length":{"value":119,"unit":"days"},"diagnosis":[{"condition":{"reference":"Condition/c8cc7a58-00ab-4184-9c3f-53e4bd339591"},"use":{"coding":[{"system":"http://terminology.hl7.org/CodeSystem/diagnosis-role","code":"billing","display":"Billing"}]},"rank":1}]},"request":{"method":"PUT","url":"Encounter/db3132c9-a4ca-4120-92fe-51305474edc0"}},{"fullUrl":"https://madie.cms.gov/Condition/c8cc7a58-00ab-4184-9c3f-53e4bd339591","resource":{"resourceType":"Condition","id":"c8cc7a58-00ab-4184-9c3f-53e4bd339591","meta":{"profile":["http://hl7.org/fhir/us/qicore/StructureDefinition/qicore-condition"]},"clinicalStatus":{"coding":[{"system":"http://terminology.hl7.org/CodeSystem/condition-clinical","code":"active"}]},"verificationStatus":{"coding":[{"system":"http://terminology.hl7.org/CodeSystem/condition-ver-status","code":"confirmed"}]},"category":[{"coding":[{"system":"http://terminology.hl7.org/CodeSystem/condition-category","code":"encounter-diagnosis","display":"Encounter Diagnosis"}]}],"code":{"coding":[{"system":"http://snomed.info/sct","version":"2020-09","code":"111297002","display":"Nonparalytic stroke (disorder)","userSelected":true}]},"subject":{"reference":"Patient/8e28076e-2fc9-4170-95e9-a4de9e04fd5e"},"recordedDate":"2026-07-13T08:00:00.000+00:00"},"request":{"method":"PUT","url":"Condition/c8cc7a58-00ab-4184-9c3f-53e4bd339591"}},{"fullUrl":"https://madie.cms.gov/Coverage/a9df7c2d-e0b7-49a7-9830-2aa2560f8c5c","resource":{"resourceType":"Coverage","id":"a9df7c2d-e0b7-49a7-9830-2aa2560f8c5c","meta":{"profile":["http://hl7.org/fhir/us/qicore/StructureDefinition/qicore-coverage"]},"status":"active","type":{"coding":[{"system":"https://nahdo.org/sopt","code":"1","display":"MEDICARE"}]},"beneficiary":{"reference":"Patient/8e28076e-2fc9-4170-95e9-a4de9e04fd5e"},"payor":[{"reference":"Organization/e75793c9-fdf6-463a-8c1d-4ee44320dc25"}]},"request":{"method":"PUT","url":"Coverage/a9df7c2d-e0b7-49a7-9830-2aa2560f8c5c"}},{"fullUrl":"https://madie.cms.gov/Organization/93c9f5f4-aa73-4a19-8edf-ddea94a20946","resource":{"resourceType":"Organization","id":"e75793c9-fdf6-463a-8c1d-4ee44320dc25","meta":{"profile":["http://hl7.org/fhir/us/qicore/StructureDefinition/qicore-organization"]},"identifier":[{"use":"temp","system":"urn:oid:2.16.840.1.113883.4.4","value":"21-3259825"}],"active":true,"type":[{"coding":[{"system":"http://terminology.hl7.org/CodeSystem/organization-type","code":"pay","display":"Payer"}]}],"name":"Blue Cross Blue Shield of Texas","telecom":[{"system":"phone","value":"(+1) 972-766-6900"}],"address":[{"use":"billing","type":"postal","line":["P.O. Box 660044"],"city":"Dallas","state":"TX","postalCode":"75266-0044","country":"USA"}]},"request":{"method":"PUT","url":"Organization/e75793c9-fdf6-463a-8c1d-4ee44320dc25"}},{"fullUrl":"https://madie.cms.gov/MeasureReport/a52723fb-ceef-440a-b92f-b58af580d8da","resource":{"resourceType":"MeasureReport","id":"a52723fb-ceef-440a-b92f-b58af580d8da","meta":{"profile":["http://hl7.org/fhir/us/cqfmeasures/StructureDefinition/test-case-cqfm"]},"contained":[{"resourceType":"Parameters","id":"9fc955ab-a7d6-4242-bfed-fdc6f7930dc1-parameters","parameter":[{"name":"subject","valueString":"8e28076e-2fc9-4170-95e9-a4de9e04fd5e"}]}],"extension":[{"url":"http://hl7.org/fhir/us/cqfmeasures/StructureDefinition/cqfm-inputParameters","valueReference":{"reference":"#9fc955ab-a7d6-4242-bfed-fdc6f7930dc1-parameters"}},{"url":"http://hl7.org/fhir/us/cqfmeasures/StructureDefinition/cqfm-testCaseDescription","valueMarkdown":"Patient is GT 18 with Non-Elective Inpatient Encounter (LOS 120 days) with principal diagnosis of ischemic stroke  and did not received antithrombotic during IP encounter and did not have a reason why.  negative test for negation rationale."}],"modifierExtension":[{"url":"http://hl7.org/fhir/us/cqfmeasures/StructureDefinition/cqfm-isTestCase","valueBoolean":true}],"status":"complete","type":"individual","measure":"https://madie.cms.gov/Measure/CMS104FHIRSTKDCAntithrombotic","period":{"start":"2026-01-01","end":"2026-12-31"},"group":[{"population":[{"code":{"coding":[{"system":"http://terminology.hl7.org/CodeSystem/measure-population","code":"initial-population","display":"Initial Population"}]},"count":1},{"code":{"coding":[{"system":"http://terminology.hl7.org/CodeSystem/measure-population","code":"denominator","display":"Denominator"}]},"count":1},{"code":{"coding":[{"system":"http://terminology.hl7.org/CodeSystem/measure-population","code":"denominator-exclusion","display":"Denominator Exclusion"}]},"count":0},{"code":{"coding":[{"system":"http://terminology.hl7.org/CodeSystem/measure-population","code":"numerator","display":"Numerator"}]},"count":0},{"code":{"coding":[{"system":"http://terminology.hl7.org/CodeSystem/measure-population","code":"denominator-exception","display":"Denominator Exception"}]},"count":0}]}]},"request":{"method":"PUT","url":"MeasureReport/a52723fb-ceef-440a-b92f-b58af580d8da"}}]}