{"resourceType":"Bundle","id":"tests-a86dcf01-3c5f-43ca-a426-c118d5974332-bundle","type":"transaction","entry":[{"fullUrl":"https://madie.cms.gov/Patient/a86dcf01-3c5f-43ca-a426-c118d5974332","resource":{"resourceType":"Patient","id":"a86dcf01-3c5f-43ca-a426-c118d5974332","meta":{"profile":["http://hl7.org/fhir/us/qicore/StructureDefinition/qicore-patient"]},"text":{"status":"generated","div":"<div xmlns=\"http://www.w3.org/1999/xhtml\"><div class=\"hapiHeaderText\">CMOdurED_EDGT1hrNoObsBFEnc <b>DENEXPASS </b></div><table class=\"hapiPropertyTable\"><tbody><tr><td>Identifier</td><td>fad666e4c2c1dfdd2a733d377f721b1d97a846f6f50f3ff47ba2a0a21aa13fc6</td></tr><tr><td>Date of birth</td><td><span>21 August 1994</span></td></tr></tbody></table></div>"},"extension":[{"url":"http://hl7.org/fhir/us/core/StructureDefinition/us-core-race","extension":[{"url":"ombCategory","valueCoding":{"system":"urn:oid:2.16.840.1.113883.6.238","code":"1002-5","display":"American Indian or Alaska Native","userSelected":true}},{"url":"text","valueString":"American Indian or Alaska Native"}]},{"url":"http://hl7.org/fhir/us/core/StructureDefinition/us-core-ethnicity","extension":[{"url":"ombCategory","valueCoding":{"system":"urn:oid:2.16.840.1.113883.6.238","code":"2135-2","display":"Hispanic or Latino","userSelected":true}},{"url":"text","valueString":"Hispanic or Latino"}]}],"identifier":[{"type":{"coding":[{"system":"http://terminology.hl7.org/CodeSystem/v2-0203","code":"MR"}]},"system":"https://bonnie-fhir.healthit.gov/","value":"6129134c02c62a011f2e70ac"}],"active":true,"name":[{"use":"usual","family":"DENEXFail","given":["CMOdurED_EDGT1hrNoObsBFEnc"]}],"gender":"male","birthDate":"1995-08-21"},"request":{"method":"PUT","url":"Patient/a86dcf01-3c5f-43ca-a426-c118d5974332"}},{"fullUrl":"https://madie.cms.gov/Encounter/6c41cbf5-d108-4c8b-92d0-5faef68481ab","resource":{"resourceType":"Encounter","id":"6c41cbf5-d108-4c8b-92d0-5faef68481ab","meta":{"profile":["http://hl7.org/fhir/us/qicore/StructureDefinition/qicore-encounter"]},"status":"finished","class":{"system":"http://terminology.hl7.org/CodeSystem/v3-ActCode","code":"EMER","display":"emergency","userSelected":true},"type":[{"coding":[{"system":"http://snomed.info/sct","code":"4525004"}]}],"subject":{"reference":"Patient/a86dcf01-3c5f-43ca-a426-c118d5974332"},"period":{"start":"2026-10-10T09:30:00.000+00:00","end":"2026-10-10T10:29:00.000+00:00"},"length":{"value":0,"unit":"days"}},"request":{"method":"PUT","url":"Encounter/6c41cbf5-d108-4c8b-92d0-5faef68481ab"}},{"fullUrl":"https://madie.cms.gov/Encounter/a648d964-31f4-4927-b345-e5796949a117","resource":{"resourceType":"Encounter","id":"a648d964-31f4-4927-b345-e5796949a117","meta":{"profile":["http://hl7.org/fhir/us/qicore/StructureDefinition/qicore-encounter"]},"status":"finished","class":{"system":"http://terminology.hl7.org/CodeSystem/v3-ActCode","code":"IMP","display":"inpatient encounter","userSelected":true},"type":[{"coding":[{"system":"http://snomed.info/sct","code":"32485007"}]}],"subject":{"reference":"Patient/a86dcf01-3c5f-43ca-a426-c118d5974332"},"period":{"start":"2026-10-10T11:30:00.000+00:00","end":"2026-10-12T11:30:00.000+00:00"},"length":{"value":2,"unit":"days"},"diagnosis":[{"condition":{"reference":"Condition/b76675c5-5d95-495c-93c6-f52a718f3dc1"},"use":{"coding":[{"system":"http://terminology.hl7.org/CodeSystem/diagnosis-role","code":"billing","display":"Billing"}]},"rank":1}]},"request":{"method":"PUT","url":"Encounter/a648d964-31f4-4927-b345-e5796949a117"}},{"fullUrl":"https://madie.cms.gov/ServiceRequest/6499701b-f5f2-4161-9583-582f7f55ffbc","resource":{"resourceType":"ServiceRequest","id":"6499701b-f5f2-4161-9583-582f7f55ffbc","meta":{"profile":["http://hl7.org/fhir/us/qicore/StructureDefinition/qicore-servicerequest"]},"status":"active","intent":"order","code":{"coding":[{"system":"http://snomed.info/sct","code":"133918004"}]},"subject":{"reference":"Patient/a86dcf01-3c5f-43ca-a426-c118d5974332"},"authoredOn":"2026-10-10T09:30:00.000+00:00"},"request":{"method":"PUT","url":"ServiceRequest/6499701b-f5f2-4161-9583-582f7f55ffbc"}},{"fullUrl":"https://madie.cms.gov/Condition/b76675c5-5d95-495c-93c6-f52a718f3dc1","resource":{"resourceType":"Condition","id":"b76675c5-5d95-495c-93c6-f52a718f3dc1","meta":{"profile":["http://hl7.org/fhir/us/qicore/StructureDefinition/qicore-condition"]},"clinicalStatus":{"coding":[{"system":"http://terminology.hl7.org/CodeSystem/condition-clinical","code":"active"}]},"verificationStatus":{"coding":[{"system":"http://terminology.hl7.org/CodeSystem/condition-ver-status","code":"confirmed"}]},"category":[{"coding":[{"system":"http://terminology.hl7.org/CodeSystem/condition-category","code":"encounter-diagnosis","display":"Encounter Diagnosis"}]}],"code":{"coding":[{"system":"http://snomed.info/sct","version":"2020-09","code":"111297002","display":"Nonparalytic stroke (disorder)","userSelected":true}]},"subject":{"reference":"Patient/a86dcf01-3c5f-43ca-a426-c118d5974332"},"recordedDate":"2026-07-14T08:00:00.000+00:00"},"request":{"method":"PUT","url":"Condition/b76675c5-5d95-495c-93c6-f52a718f3dc1"}},{"fullUrl":"https://madie.cms.gov/Coverage/bbf59a8a-decf-4cf3-b56a-53f7fd3f9461","resource":{"resourceType":"Coverage","id":"bbf59a8a-decf-4cf3-b56a-53f7fd3f9461","meta":{"profile":["http://hl7.org/fhir/us/qicore/StructureDefinition/qicore-coverage"]},"status":"active","beneficiary":{"reference":"Patient/a86dcf01-3c5f-43ca-a426-c118d5974332"},"payor":[{"reference":"Organization/5ad6ea38-07e9-4482-9e1b-c09eee595be9"}]},"request":{"method":"PUT","url":"Coverage/bbf59a8a-decf-4cf3-b56a-53f7fd3f9461"}},{"fullUrl":"https://madie.cms.gov/Organization/059e318f-6fa8-4f53-a23f-b1de524637fd","resource":{"resourceType":"Organization","id":"5ad6ea38-07e9-4482-9e1b-c09eee595be9","meta":{"profile":["http://hl7.org/fhir/us/qicore/StructureDefinition/qicore-organization"]},"identifier":[{"use":"temp","system":"urn:oid:2.16.840.1.113883.4.4","value":"21-3259825"}],"active":true,"type":[{"coding":[{"system":"http://terminology.hl7.org/CodeSystem/organization-type","code":"pay","display":"Payer"}]}],"name":"Blue Cross Blue Shield of Texas","telecom":[{"system":"phone","value":"(+1) 972-766-6900"}],"address":[{"use":"billing","type":"postal","line":["P.O. Box 660044"],"city":"Dallas","state":"TX","postalCode":"75266-0044","country":"USA"}]},"request":{"method":"PUT","url":"Organization/5ad6ea38-07e9-4482-9e1b-c09eee595be9"}},{"fullUrl":"https://madie.cms.gov/MeasureReport/7a35819c-d679-47bb-8fe4-fc94c0c5b82c","resource":{"resourceType":"MeasureReport","id":"7a35819c-d679-47bb-8fe4-fc94c0c5b82c","meta":{"profile":["http://hl7.org/fhir/us/cqfmeasures/StructureDefinition/test-case-cqfm"]},"contained":[{"resourceType":"Parameters","id":"02850631-eb3a-4ab3-b803-b9c0cfa2023b-parameters","parameter":[{"name":"subject","valueString":"a86dcf01-3c5f-43ca-a426-c118d5974332"}]}],"extension":[{"url":"http://hl7.org/fhir/us/cqfmeasures/StructureDefinition/cqfm-inputParameters","valueReference":{"reference":"#02850631-eb3a-4ab3-b803-b9c0cfa2023b-parameters"}},{"url":"http://hl7.org/fhir/us/cqfmeasures/StructureDefinition/cqfm-testCaseDescription","valueMarkdown":"Patient receives CMO during ED. ED ends 61 minute before inpatient encounter start. No Observation. Testing day of operator with HospitalizationWithObservation function."}],"modifierExtension":[{"url":"http://hl7.org/fhir/us/cqfmeasures/StructureDefinition/cqfm-isTestCase","valueBoolean":true}],"status":"complete","type":"individual","measure":"https://madie.cms.gov/Measure/CMS104FHIRSTKDCAntithrombotic","period":{"start":"2026-01-01","end":"2026-12-31"},"group":[{"population":[{"code":{"coding":[{"system":"http://terminology.hl7.org/CodeSystem/measure-population","code":"initial-population","display":"Initial Population"}]},"count":1},{"code":{"coding":[{"system":"http://terminology.hl7.org/CodeSystem/measure-population","code":"denominator","display":"Denominator"}]},"count":1},{"code":{"coding":[{"system":"http://terminology.hl7.org/CodeSystem/measure-population","code":"denominator-exclusion","display":"Denominator Exclusion"}]},"count":0},{"code":{"coding":[{"system":"http://terminology.hl7.org/CodeSystem/measure-population","code":"numerator","display":"Numerator"}]},"count":0},{"code":{"coding":[{"system":"http://terminology.hl7.org/CodeSystem/measure-population","code":"denominator-exception","display":"Denominator Exception"}]},"count":0}]}]},"request":{"method":"PUT","url":"MeasureReport/7a35819c-d679-47bb-8fe4-fc94c0c5b82c"}}]}