{
  "resourceType": "Bundle",
  "id": "ippfail-notduringencounter",
  "type": "transaction",
  "entry": [ {
    "fullUrl": "https://madie.cms.gov/Patient/b39185cc-754c-4c8e-85bc-497c2e6a37aa",
    "resource": {
      "resourceType": "Patient",
      "id": "b39185cc-754c-4c8e-85bc-497c2e6a37aa",
      "meta": {
        "profile": [ "http://hl7.org/fhir/us/core/StructureDefinition/us-core-patient", "http://hl7.org/fhir/us/qicore/StructureDefinition/qicore-patient" ]
      },
      "extension": [ {
        "url": "http://hl7.org/fhir/us/core/StructureDefinition/us-core-race",
        "extension": [ {
          "url": "ombCategory",
          "valueCoding": {
            "system": "urn:oid:2.16.840.1.113883.6.238",
            "code": "2028-9",
            "display": "Asian"
          }
        }, {
          "url": "text",
          "valueString": "Asian"
        } ]
      }, {
        "url": "http://hl7.org/fhir/us/core/StructureDefinition/us-core-ethnicity",
        "extension": [ {
          "url": "ombCategory",
          "valueCoding": {
            "system": "urn:oid:2.16.840.1.113883.6.238",
            "code": "2135-2",
            "display": "Hispanic or Latino"
          }
        }, {
          "url": "text",
          "valueString": "Hispanic or Latino"
        } ]
      } ],
      "identifier": [ {
        "system": "http://hospital.smarthealthit.org",
        "value": "999999995"
      } ],
      "name": [ {
        "family": "NotDuringEncounter",
        "given": [ "IPPFail" ]
      } ],
      "gender": "unknown",
      "birthDate": "1992-06-12"
    },
    "request": {
      "method": "PUT",
      "url": "Patient/b39185cc-754c-4c8e-85bc-497c2e6a37aa"
    }
  }, {
    "fullUrl": "https://madie.cms.gov/Encounter/5bac30f0-6532-42ab-9c7a-d020a0c6d140",
    "resource": {
      "resourceType": "Encounter",
      "id": "5bac30f0-6532-42ab-9c7a-d020a0c6d140",
      "meta": {
        "profile": [ "http://hl7.org/fhir/us/qicore/StructureDefinition/qicore-encounter" ]
      },
      "status": "finished",
      "class": {
        "system": "http://terminology.hl7.org/CodeSystem/v3-ActCode",
        "code": "IMP",
        "display": "inpatient encounter"
      },
      "type": [ {
        "coding": [ {
          "system": "http://snomed.info/sct",
          "code": "183452005",
          "display": "Emergency hospital admission"
        } ]
      } ],
      "subject": {
        "reference": "Patient/b39185cc-754c-4c8e-85bc-497c2e6a37aa"
      },
      "period": {
        "start": "2026-02-01T00:00:00.000Z",
        "end": "2026-02-03T01:00:00.000Z"
      }
    },
    "request": {
      "method": "PUT",
      "url": "Encounter/5bac30f0-6532-42ab-9c7a-d020a0c6d140"
    }
  }, {
    "fullUrl": "https://madie.cms.gov/Observation/912254ca-3977-46ba-acbf-d0c8b8949cd6",
    "resource": {
      "resourceType": "Observation",
      "id": "912254ca-3977-46ba-acbf-d0c8b8949cd6",
      "meta": {
        "profile": [ "http://hl7.org/fhir/us/qicore/StructureDefinition/qicore-observation" ]
      },
      "status": "final",
      "category": [ {
        "coding": [ {
          "system": "http://terminology.hl7.org/CodeSystem/observation-category",
          "code": "imaging",
          "display": "Imaging"
        } ]
      } ],
      "code": {
        "coding": [ {
          "system": "http://loinc.org",
          "code": "96914-7",
          "display": "CT dose and image quality category"
        } ],
        "text": "CT dose and image quality category"
      },
      "subject": {
        "reference": "Patient/b39185cc-754c-4c8e-85bc-497c2e6a37aa"
      },
      "encounter": {
        "reference": "Encounter/5bac30f0-6532-42ab-9c7a-d020a0c6d140"
      },
      "effectiveDateTime": "2026-03-02T00:00:00.000Z",
      "valueCodeableConcept": {
        "coding": [ {
          "system": "http://loinc.org",
          "code": "LA31753-9",
          "display": "Abdomen and Pelvis Routine Dose"
        } ]
      },
      "component": [ {
        "code": {
          "coding": [ {
            "system": "http://loinc.org",
            "code": "96912-1",
            "display": "Calculated CT global noise"
          } ]
        },
        "valueQuantity": {
          "value": 63,
          "unit": "[hnsf'U]",
          "system": "http://unitsofmeasure.org",
          "code": "[hnsf'U]"
        }
      }, {
        "code": {
          "coding": [ {
            "system": "http://loinc.org",
            "code": "96913-9",
            "display": "Calculated CT size-adjusted dose"
          } ]
        },
        "valueQuantity": {
          "value": 597,
          "unit": "mGy.cm",
          "system": "http://unitsofmeasure.org",
          "code": "mGy.cm"
        }
      } ]
    },
    "request": {
      "method": "PUT",
      "url": "Observation/912254ca-3977-46ba-acbf-d0c8b8949cd6"
    }
  }, {
    "fullUrl": "https://madie.cms.gov/MeasureReport/a4c0c90d-9d58-4c8a-ba29-951855af5694",
    "resource": {
      "resourceType": "MeasureReport",
      "id": "a4c0c90d-9d58-4c8a-ba29-951855af5694",
      "meta": {
        "profile": [ "http://hl7.org/fhir/us/cqfmeasures/StructureDefinition/test-case-cqfm" ]
      },
      "contained": [ {
        "resourceType": "Parameters",
        "id": "a0c7fcd4-efcd-4e3c-ba4b-84e09a8a1a4e-parameters",
        "parameter": [ {
          "name": "subject",
          "valueString": "b39185cc-754c-4c8e-85bc-497c2e6a37aa"
        } ]
      } ],
      "extension": [ {
        "url": "http://hl7.org/fhir/us/cqfmeasures/StructureDefinition/cqfm-inputParameters",
        "valueReference": {
          "reference": "#a0c7fcd4-efcd-4e3c-ba4b-84e09a8a1a4e-parameters"
        }
      }, {
        "url": "http://hl7.org/fhir/us/cqfmeasures/StructureDefinition/cqfm-testCaseDescription",
        "valueMarkdown": "Patient has a CT scan with results but not during the encounter"
      } ],
      "modifierExtension": [ {
        "url": "http://hl7.org/fhir/us/cqfmeasures/StructureDefinition/cqfm-isTestCase",
        "valueBoolean": true
      } ],
      "status": "complete",
      "type": "individual",
      "measure": "https://madie.cms.gov/Measure/AlaraCTIQRFHIR",
      "period": {
        "start": "2026-01-01",
        "end": "2026-12-31"
      },
      "group": [ {
        "population": [ {
          "code": {
            "coding": [ {
              "system": "http://terminology.hl7.org/CodeSystem/measure-population",
              "code": "initial-population",
              "display": "Initial Population"
            } ]
          },
          "count": 0
        }, {
          "code": {
            "coding": [ {
              "system": "http://terminology.hl7.org/CodeSystem/measure-population",
              "code": "denominator",
              "display": "Denominator"
            } ]
          },
          "count": 0
        }, {
          "code": {
            "coding": [ {
              "system": "http://terminology.hl7.org/CodeSystem/measure-population",
              "code": "denominator-exclusion",
              "display": "Denominator Exclusion"
            } ]
          },
          "count": 0
        }, {
          "code": {
            "coding": [ {
              "system": "http://terminology.hl7.org/CodeSystem/measure-population",
              "code": "numerator",
              "display": "Numerator"
            } ]
          },
          "count": 0
        } ]
      } ],
      "evaluatedResource": [ {
        "reference": "Patient/b39185cc-754c-4c8e-85bc-497c2e6a37aa"
      }, {
        "reference": "Encounter/5bac30f0-6532-42ab-9c7a-d020a0c6d140"
      }, {
        "reference": "Observation/912254ca-3977-46ba-acbf-d0c8b8949cd6"
      } ]
    },
    "request": {
      "method": "PUT",
      "url": "MeasureReport/a4c0c90d-9d58-4c8a-ba29-951855af5694"
    }
  } ]
}