{"resourceType":"Bundle","id":"tests-eca96880-3727-4f14-9439-269f16d9391e-bundle","type":"transaction","entry":[{"fullUrl":"https://madie.cms.gov/Patient/eca96880-3727-4f14-9439-269f16d9391e","resource":{"resourceType":"Patient","id":"eca96880-3727-4f14-9439-269f16d9391e","meta":{"profile":["http://hl7.org/fhir/us/qicore/StructureDefinition/qicore-patient"]},"text":{"status":"generated","div":"<div xmlns=\"http://www.w3.org/1999/xhtml\"><div class=\"hapiHeaderText\">CesareanBirthRelvtDTDuringEnc <b>NUMPASS </b></div><table class=\"hapiPropertyTable\"><tbody><tr><td>Identifier</td><td>51bc91759da5bde99551dcfdd772aded6a0c8eacab7ec3cd70b3b8f217efaea9</td></tr><tr><td>Date of birth</td><td><span>14 February 1985</span></td></tr></tbody></table></div>"},"extension":[{"url":"http://hl7.org/fhir/us/core/StructureDefinition/us-core-race","extension":[{"url":"ombCategory","valueCoding":{"system":"urn:oid:2.16.840.1.113883.6.238","code":"1002-5","display":"American Indian or Alaska Native","userSelected":true}},{"url":"text","valueString":"American Indian or Alaska Native"}]},{"url":"http://hl7.org/fhir/us/core/StructureDefinition/us-core-ethnicity","extension":[{"url":"ombCategory","valueCoding":{"system":"urn:oid:2.16.840.1.113883.6.238","code":"2135-2","display":"Hispanic or Latino","userSelected":true}},{"url":"text","valueString":"Hispanic or Latino"}]}],"identifier":[{"type":{"coding":[{"system":"http://terminology.hl7.org/CodeSystem/v2-0203","code":"MR"}]},"system":"https://bonnie-fhir.healthit.gov/","value":"63487c300968f801225401cf"}],"active":true,"name":[{"use":"usual","family":"NUMPass","given":["CesareanBirthRelvtDTDuringEnc"]}],"gender":"female","birthDate":"1998-02-14"},"request":{"method":"PUT","url":"Patient/eca96880-3727-4f14-9439-269f16d9391e"}},{"fullUrl":"https://madie.cms.gov/Observation/f436bb5a-bcbb-4e60-aad2-72a1ab83f2fc","resource":{"resourceType":"Observation","id":"f436bb5a-bcbb-4e60-aad2-72a1ab83f2fc","meta":{"profile":["http://hl7.org/fhir/us/qicore/StructureDefinition/qicore-observation"]},"status":"final","category":[{"coding":[{"system":"http://terminology.hl7.org/CodeSystem/observation-category","code":"exam","display":"exam","userSelected":true}]}],"code":{"coding":[{"system":"http://loinc.org","code":"11996-6"}]},"subject":{"reference":"Patient/eca96880-3727-4f14-9439-269f16d9391e"},"effectiveDateTime":"2026-02-09T08:00:00.000+00:00","valueInteger":1},"request":{"method":"PUT","url":"Observation/f436bb5a-bcbb-4e60-aad2-72a1ab83f2fc"}},{"fullUrl":"https://madie.cms.gov/Observation/79e3859b-5ad0-4bdf-8f4c-6dbaeb53a1f1","resource":{"resourceType":"Observation","id":"79e3859b-5ad0-4bdf-8f4c-6dbaeb53a1f1","meta":{"profile":["http://hl7.org/fhir/us/qicore/StructureDefinition/qicore-observation"]},"status":"final","category":[{"coding":[{"system":"http://terminology.hl7.org/CodeSystem/observation-category","code":"exam","display":"exam","userSelected":true}]}],"code":{"coding":[{"system":"http://loinc.org","code":"11884-4"}]},"subject":{"reference":"Patient/eca96880-3727-4f14-9439-269f16d9391e"},"effectiveDateTime":"2026-11-28T21:15:00.000+00:00","valueQuantity":{"value":40,"system":"http://unitsofmeasure.org","code":"wk"}},"request":{"method":"PUT","url":"Observation/79e3859b-5ad0-4bdf-8f4c-6dbaeb53a1f1"}},{"fullUrl":"https://madie.cms.gov/Observation/a229fbbb-d957-44a6-8e6f-c751afb0f3e3","resource":{"resourceType":"Observation","id":"a229fbbb-d957-44a6-8e6f-c751afb0f3e3","meta":{"profile":["http://hl7.org/fhir/us/qicore/StructureDefinition/qicore-observation"]},"status":"final","category":[{"coding":[{"system":"http://terminology.hl7.org/CodeSystem/observation-category","code":"exam","display":"exam","userSelected":true}]}],"code":{"coding":[{"system":"http://loinc.org","code":"93857-1"}]},"subject":{"reference":"Patient/eca96880-3727-4f14-9439-269f16d9391e"},"effectiveDateTime":"2026-11-28T21:15:00.000+00:00","valueDateTime":"2026-11-28T21:15:00+00:00"},"request":{"method":"PUT","url":"Observation/a229fbbb-d957-44a6-8e6f-c751afb0f3e3"}},{"fullUrl":"https://madie.cms.gov/Encounter/fd071cff-0c68-4f91-890a-5df46479d54f","resource":{"resourceType":"Encounter","id":"fd071cff-0c68-4f91-890a-5df46479d54f","meta":{"profile":["http://hl7.org/fhir/us/qicore/StructureDefinition/qicore-encounter"]},"status":"finished","class":{"system":"http://terminology.hl7.org/CodeSystem/v3-ActCode","code":"IMP","display":"inpatient encounter"},"type":[{"coding":[{"system":"http://snomed.info/sct","code":"8715000"}]}],"subject":{"reference":"Patient/eca96880-3727-4f14-9439-269f16d9391e"},"period":{"start":"2026-11-28T08:00:00.000Z","end":"2026-11-30T08:15:00.000Z"},"diagnosis":[{"condition":{"reference":"Condition/fcf2cc0f-ae71-4509-8b09-f3152d721586"}}]},"request":{"method":"PUT","url":"Encounter/fd071cff-0c68-4f91-890a-5df46479d54f"}},{"fullUrl":"https://madie.cms.gov/Procedure/27e57405-9164-4827-8d27-60dc432135b9","resource":{"resourceType":"Procedure","id":"27e57405-9164-4827-8d27-60dc432135b9","meta":{"profile":["http://hl7.org/fhir/us/qicore/StructureDefinition/qicore-procedure"]},"extension":[{"url":"http://hl7.org/fhir/us/qicore/StructureDefinition/qicore-recorded","valueDateTime":"2014-04-05T09:35:00-04:00"}],"status":"completed","code":{"coding":[{"system":"http://www.cms.gov/Medicare/Coding/ICD10","code":"10D00Z0"},{"system":"http://www.icd10data.com/icd10pcs","code":"10D00Z0","userSelected":true}]},"subject":{"reference":"Patient/eca96880-3727-4f14-9439-269f16d9391e"},"performedDateTime":"2026-11-28T09:00:00.000Z"},"request":{"method":"PUT","url":"Procedure/27e57405-9164-4827-8d27-60dc432135b9"}},{"fullUrl":"https://madie.cms.gov/Condition/fcf2cc0f-ae71-4509-8b09-f3152d721586","resource":{"resourceType":"Condition","id":"fcf2cc0f-ae71-4509-8b09-f3152d721586","meta":{"profile":["http://hl7.org/fhir/us/qicore/StructureDefinition/qicore-condition"]},"category":[{"coding":[{"system":"http://terminology.hl7.org/CodeSystem/condition-category","code":"encounter-diagnosis","display":"Encounter Diagnosis"}]}],"code":{"coding":[{"system":"http://snomed.info/sct","version":"2022-09","code":"169826009","display":"Single live birth (finding)","userSelected":true}]},"subject":{"reference":"Patient/eca96880-3727-4f14-9439-269f16d9391e"},"recordedDate":"2026-10-17T08:00:00.000+00:00"},"request":{"method":"PUT","url":"Condition/fcf2cc0f-ae71-4509-8b09-f3152d721586"}},{"fullUrl":"https://madie.cms.gov/Coverage/447e5507-a638-459a-997e-c0e3b226c428","resource":{"resourceType":"Coverage","id":"447e5507-a638-459a-997e-c0e3b226c428","meta":{"profile":["http://hl7.org/fhir/us/qicore/StructureDefinition/qicore-coverage"]},"status":"active","beneficiary":{"reference":"Patient/eca96880-3727-4f14-9439-269f16d9391e"},"payor":[{"reference":"Organization/f7da4368-fb6d-4d73-a75b-f78024cbb18d"}]},"request":{"method":"PUT","url":"Coverage/447e5507-a638-459a-997e-c0e3b226c428"}},{"fullUrl":"https://madie.cms.gov/Organization/163ffd08-f919-45bb-940a-a02a74428986","resource":{"resourceType":"Organization","id":"f7da4368-fb6d-4d73-a75b-f78024cbb18d","meta":{"profile":["http://hl7.org/fhir/us/qicore/StructureDefinition/qicore-organization"]},"identifier":[{"use":"temp","system":"urn:oid:2.16.840.1.113883.4.4","value":"21-3259825"}],"active":true,"type":[{"coding":[{"system":"http://terminology.hl7.org/CodeSystem/organization-type","code":"pay","display":"Payer"}]}],"name":"Blue Cross Blue Shield of Texas","telecom":[{"system":"phone","value":"(+1) 972-766-6900"}],"address":[{"use":"billing","type":"postal","line":["P.O. Box 660044"],"city":"Dallas","state":"TX","postalCode":"75266-0044","country":"USA"}]},"request":{"method":"PUT","url":"Organization/f7da4368-fb6d-4d73-a75b-f78024cbb18d"}},{"fullUrl":"https://madie.cms.gov/Practitioner/a3c17d1f-5e1e-4bc1-b3bc-8c86652cd511","resource":{"resourceType":"Practitioner","id":"a3c17d1f-5e1e-4bc1-b3bc-8c86652cd511","identifier":[{"system":"http://hl7.org/fhir/sid/us-npi","value":"123456"}],"name":[{"family":"Evil","prefix":["Dr"]}]},"request":{"method":"PUT","url":"Practitioner/a3c17d1f-5e1e-4bc1-b3bc-8c86652cd511"}},{"fullUrl":"https://madie.cms.gov/MeasureReport/78895bc0-d05f-44d9-893c-47c047d0d45d","resource":{"resourceType":"MeasureReport","id":"78895bc0-d05f-44d9-893c-47c047d0d45d","meta":{"profile":["http://hl7.org/fhir/us/cqfmeasures/StructureDefinition/test-case-cqfm"]},"contained":[{"resourceType":"Parameters","id":"bfa1271e-5726-43ab-847a-ea66c4e73d23-parameters","parameter":[{"name":"subject","valueString":"eca96880-3727-4f14-9439-269f16d9391e"}]}],"extension":[{"url":"http://hl7.org/fhir/us/cqfmeasures/StructureDefinition/cqfm-inputParameters","valueReference":{"reference":"#bfa1271e-5726-43ab-847a-ea66c4e73d23-parameters"}},{"url":"http://hl7.org/fhir/us/cqfmeasures/StructureDefinition/cqfm-testCaseDescription","valueMarkdown":"Passes IP, DEN, NUM; Gravida 1(effective date 42 weeks)  and EGA 40 weeks; Cesarean Birth DateTime during Enc"}],"modifierExtension":[{"url":"http://hl7.org/fhir/us/cqfmeasures/StructureDefinition/cqfm-isTestCase","valueBoolean":true}],"status":"complete","type":"individual","measure":"https://madie.cms.gov/Measure/CMS334FHIRPCCesareanBirth","period":{"start":"2026-01-01","end":"2026-12-31"},"group":[{"population":[{"code":{"coding":[{"system":"http://terminology.hl7.org/CodeSystem/measure-population","code":"initial-population","display":"Initial Population"}]},"count":1},{"code":{"coding":[{"system":"http://terminology.hl7.org/CodeSystem/measure-population","code":"denominator","display":"Denominator"}]},"count":1},{"code":{"coding":[{"system":"http://terminology.hl7.org/CodeSystem/measure-population","code":"denominator-exclusion","display":"Denominator Exclusion"}]},"count":0},{"code":{"coding":[{"system":"http://terminology.hl7.org/CodeSystem/measure-population","code":"numerator","display":"Numerator"}]},"count":1}]}]},"request":{"method":"PUT","url":"MeasureReport/78895bc0-d05f-44d9-893c-47c047d0d45d"}}]}