{"resourceType":"Bundle","id":"tests-5279c487-da7f-459d-9e7b-0b5cb185e3a4-bundle","type":"transaction","entry":[{"fullUrl":"https://madie.cms.gov/Patient/5279c487-da7f-459d-9e7b-0b5cb185e3a4","resource":{"resourceType":"Patient","id":"5279c487-da7f-459d-9e7b-0b5cb185e3a4","meta":{"profile":["http://hl7.org/fhir/us/qicore/StructureDefinition/qicore-patient"]},"text":{"status":"generated","div":"<div xmlns=\"http://www.w3.org/1999/xhtml\"><div class=\"hapiHeaderText\">2AssessPerfAbnPresRelDtTime_1BFTimeOfDeliv_1AFDelivery <b>DENEXPASS </b></div><table class=\"hapiPropertyTable\"><tbody><tr><td>Identifier</td><td>026ef11ad83a8a7cf2dd9a5df623df3fb5fe5e8210cfb6bc83e410fca26c8633</td></tr><tr><td>Date of birth</td><td><span>14 February 1985</span></td></tr></tbody></table></div>"},"extension":[{"url":"http://hl7.org/fhir/us/core/StructureDefinition/us-core-race","extension":[{"url":"ombCategory","valueCoding":{"system":"urn:oid:2.16.840.1.113883.6.238","code":"1002-5","display":"American Indian or Alaska Native","userSelected":true}},{"url":"text","valueString":"American Indian or Alaska Native"}]},{"url":"http://hl7.org/fhir/us/core/StructureDefinition/us-core-ethnicity","extension":[{"url":"ombCategory","valueCoding":{"system":"urn:oid:2.16.840.1.113883.6.238","code":"2135-2","display":"Hispanic or Latino","userSelected":true}},{"url":"text","valueString":"Hispanic or Latino"}]}],"identifier":[{"type":{"coding":[{"system":"http://terminology.hl7.org/CodeSystem/v2-0203","code":"MR"}]},"system":"https://bonnie-fhir.healthit.gov/","value":"63487c300968f801225401d1"}],"active":true,"name":[{"use":"usual","family":"DENEXPass","given":["2AssessPerfAbnPresRelDtTime_1BFTimeOfDeliv_1AFDelivery"]}],"gender":"female","birthDate":"1998-02-14"},"request":{"method":"PUT","url":"Patient/5279c487-da7f-459d-9e7b-0b5cb185e3a4"}},{"fullUrl":"https://madie.cms.gov/Observation/1d103cb9-4231-45e6-953f-aebe1fff1378","resource":{"resourceType":"Observation","id":"1d103cb9-4231-45e6-953f-aebe1fff1378","meta":{"profile":["http://hl7.org/fhir/us/qicore/StructureDefinition/qicore-observation"]},"status":"final","category":[{"coding":[{"system":"http://terminology.hl7.org/CodeSystem/observation-category","code":"exam","display":"exam","userSelected":true}]}],"code":{"coding":[{"system":"http://loinc.org","code":"11996-6"}]},"subject":{"reference":"Patient/5279c487-da7f-459d-9e7b-0b5cb185e3a4"},"effectiveDateTime":"2026-06-08T08:00:00.000+00:00","valueInteger":1},"request":{"method":"PUT","url":"Observation/1d103cb9-4231-45e6-953f-aebe1fff1378"}},{"fullUrl":"https://madie.cms.gov/Observation/f34125e3-357c-424d-adb1-69a544440674","resource":{"resourceType":"Observation","id":"f34125e3-357c-424d-adb1-69a544440674","meta":{"profile":["http://hl7.org/fhir/us/qicore/StructureDefinition/qicore-observation"]},"status":"final","category":[{"coding":[{"system":"http://terminology.hl7.org/CodeSystem/observation-category","code":"exam","display":"exam","userSelected":true}]}],"code":{"coding":[{"system":"http://loinc.org","code":"11884-4"}]},"subject":{"reference":"Patient/5279c487-da7f-459d-9e7b-0b5cb185e3a4"},"effectiveDateTime":"2026-06-08T19:59:00.000+00:00","valueQuantity":{"value":43,"system":"http://unitsofmeasure.org","code":"wk"}},"request":{"method":"PUT","url":"Observation/f34125e3-357c-424d-adb1-69a544440674"}},{"fullUrl":"https://madie.cms.gov/Observation/b2a9a6da-34bd-4ddd-bd8e-f88870d8422e","resource":{"resourceType":"Observation","id":"b2a9a6da-34bd-4ddd-bd8e-f88870d8422e","meta":{"profile":["http://hl7.org/fhir/us/qicore/StructureDefinition/qicore-observation"]},"status":"final","category":[{"coding":[{"system":"http://terminology.hl7.org/CodeSystem/observation-category","code":"exam","display":"exam","userSelected":true}]}],"code":{"coding":[{"system":"http://loinc.org","code":"93857-1"}]},"subject":{"reference":"Patient/5279c487-da7f-459d-9e7b-0b5cb185e3a4"},"effectiveDateTime":"2026-06-08T20:00:00.000+00:00","valueDateTime":"2026-06-08T20:00:00+00:00"},"request":{"method":"PUT","url":"Observation/b2a9a6da-34bd-4ddd-bd8e-f88870d8422e"}},{"fullUrl":"https://madie.cms.gov/Observation/31ff73b9-9594-49c2-b0c7-8f4a8d91f95f","resource":{"resourceType":"Observation","id":"31ff73b9-9594-49c2-b0c7-8f4a8d91f95f","meta":{"profile":["http://hl7.org/fhir/us/qicore/StructureDefinition/qicore-observation"]},"status":"final","category":[{"coding":[{"system":"http://terminology.hl7.org/CodeSystem/observation-category","code":"exam","display":"exam","userSelected":true}]}],"code":{"coding":[{"system":"http://snomed.info/sct","code":"18559007"}]},"subject":{"reference":"Patient/5279c487-da7f-459d-9e7b-0b5cb185e3a4"},"effectiveDateTime":"2026-06-08T19:59:00.000+00:00"},"request":{"method":"PUT","url":"Observation/31ff73b9-9594-49c2-b0c7-8f4a8d91f95f"}},{"fullUrl":"https://madie.cms.gov/Encounter/9e363e50-ccd4-40c1-993c-44dee834014d","resource":{"resourceType":"Encounter","id":"9e363e50-ccd4-40c1-993c-44dee834014d","meta":{"profile":["http://hl7.org/fhir/us/qicore/StructureDefinition/qicore-encounter"]},"status":"finished","class":{"system":"http://terminology.hl7.org/CodeSystem/v3-ActCode","code":"IMP","display":"inpatient encounter"},"type":[{"coding":[{"system":"http://snomed.info/sct","code":"8715000"}]}],"subject":{"reference":"Patient/5279c487-da7f-459d-9e7b-0b5cb185e3a4"},"period":{"start":"2026-06-08T08:00:00.000Z","end":"2026-06-10T08:15:00.000Z"},"diagnosis":[{"condition":{"reference":"Condition/a3021e3f-7ff6-4ca2-8daf-271383725bf3"}}]},"request":{"method":"PUT","url":"Encounter/9e363e50-ccd4-40c1-993c-44dee834014d"}},{"fullUrl":"https://madie.cms.gov/Procedure/43d2d639-3aa9-49e5-801a-4076e9a63a66","resource":{"resourceType":"Procedure","id":"43d2d639-3aa9-49e5-801a-4076e9a63a66","meta":{"profile":["http://hl7.org/fhir/us/qicore/StructureDefinition/qicore-procedure"]},"extension":[{"url":"http://hl7.org/fhir/us/qicore/StructureDefinition/qicore-recorded","valueDateTime":"2014-04-05T09:35:00-04:00"}],"status":"completed","code":{"coding":[{"system":"http://snomed.info/sct","code":"4504004"}]},"subject":{"reference":"Patient/5279c487-da7f-459d-9e7b-0b5cb185e3a4"},"performedPeriod":{"start":"2026-06-08T20:00:00.000Z","end":"2026-06-18T20:00:00.000Z"}},"request":{"method":"PUT","url":"Procedure/43d2d639-3aa9-49e5-801a-4076e9a63a66"}},{"fullUrl":"https://madie.cms.gov/Condition/a3021e3f-7ff6-4ca2-8daf-271383725bf3","resource":{"resourceType":"Condition","id":"a3021e3f-7ff6-4ca2-8daf-271383725bf3","meta":{"profile":["http://hl7.org/fhir/us/qicore/StructureDefinition/qicore-condition"]},"category":[{"coding":[{"system":"http://terminology.hl7.org/CodeSystem/condition-category","code":"encounter-diagnosis","display":"Encounter Diagnosis"}]}],"code":{"coding":[{"system":"http://snomed.info/sct","version":"2022-09","code":"169826009","display":"Single live birth (finding)","userSelected":true}]},"subject":{"reference":"Patient/5279c487-da7f-459d-9e7b-0b5cb185e3a4"},"recordedDate":"2026-10-17T08:00:00.000+00:00"},"request":{"method":"PUT","url":"Condition/a3021e3f-7ff6-4ca2-8daf-271383725bf3"}},{"fullUrl":"https://madie.cms.gov/Observation/3620336f-40a3-4973-8736-255363508f70","resource":{"resourceType":"Observation","id":"3620336f-40a3-4973-8736-255363508f70","status":"final","category":[{"coding":[{"system":"http://terminology.hl7.org/CodeSystem/observation-category","code":"exam","display":"exam","userSelected":true}]}],"code":{"coding":[{"system":"http://snomed.info/sct","version":"2022-09","code":"18559007","display":"Frank breech presentation (finding)","userSelected":true}]},"subject":{"reference":"Patient/5279c487-da7f-459d-9e7b-0b5cb185e3a4"},"effectiveDateTime":"2026-06-08T20:01:00.000+00:00"},"request":{"method":"PUT","url":"Observation/3620336f-40a3-4973-8736-255363508f70"}},{"fullUrl":"https://madie.cms.gov/Coverage/cb1c3edc-c114-406e-a31d-96a6f0e092ad","resource":{"resourceType":"Coverage","id":"cb1c3edc-c114-406e-a31d-96a6f0e092ad","meta":{"profile":["http://hl7.org/fhir/us/qicore/StructureDefinition/qicore-coverage"]},"status":"active","beneficiary":{"reference":"Patient/5279c487-da7f-459d-9e7b-0b5cb185e3a4"},"payor":[{"reference":"Organization/aeb2c6be-6577-4bba-a6b6-6eab95111f1b"}]},"request":{"method":"PUT","url":"Coverage/cb1c3edc-c114-406e-a31d-96a6f0e092ad"}},{"fullUrl":"https://madie.cms.gov/Organization/555d2b08-a61f-40dd-b14e-bf9f69b67390","resource":{"resourceType":"Organization","id":"aeb2c6be-6577-4bba-a6b6-6eab95111f1b","meta":{"profile":["http://hl7.org/fhir/us/qicore/StructureDefinition/qicore-organization"]},"identifier":[{"use":"temp","system":"urn:oid:2.16.840.1.113883.4.4","value":"21-3259825"}],"active":true,"type":[{"coding":[{"system":"http://terminology.hl7.org/CodeSystem/organization-type","code":"pay","display":"Payer"}]}],"name":"Blue Cross Blue Shield of Texas","telecom":[{"system":"phone","value":"(+1) 972-766-6900"}],"address":[{"use":"billing","type":"postal","line":["P.O. Box 660044"],"city":"Dallas","state":"TX","postalCode":"75266-0044","country":"USA"}]},"request":{"method":"PUT","url":"Organization/aeb2c6be-6577-4bba-a6b6-6eab95111f1b"}},{"fullUrl":"https://madie.cms.gov/Practitioner/63cf6222-8095-472d-8d1f-ab7262a385c4","resource":{"resourceType":"Practitioner","id":"63cf6222-8095-472d-8d1f-ab7262a385c4","identifier":[{"system":"http://hl7.org/fhir/sid/us-npi","value":"123456"}],"name":[{"family":"Evil","prefix":["Dr"]}]},"request":{"method":"PUT","url":"Practitioner/63cf6222-8095-472d-8d1f-ab7262a385c4"}},{"fullUrl":"https://madie.cms.gov/MeasureReport/e5c459b6-a949-4b47-b316-3570889005fa","resource":{"resourceType":"MeasureReport","id":"e5c459b6-a949-4b47-b316-3570889005fa","meta":{"profile":["http://hl7.org/fhir/us/cqfmeasures/StructureDefinition/test-case-cqfm"]},"contained":[{"resourceType":"Parameters","id":"9cec537e-68a6-4872-b046-74663b56fba0-parameters","parameter":[{"name":"subject","valueString":"5279c487-da7f-459d-9e7b-0b5cb185e3a4"}]}],"extension":[{"url":"http://hl7.org/fhir/us/cqfmeasures/StructureDefinition/cqfm-inputParameters","valueReference":{"reference":"#9cec537e-68a6-4872-b046-74663b56fba0-parameters"}},{"url":"http://hl7.org/fhir/us/cqfmeasures/StructureDefinition/cqfm-testCaseDescription","valueMarkdown":"EGA 43 weeks; the last Assessment performed Abnormal presentation prior to delivery, another one is after Delivery time. THe logic pick one prior to delivery time.\n"}],"modifierExtension":[{"url":"http://hl7.org/fhir/us/cqfmeasures/StructureDefinition/cqfm-isTestCase","valueBoolean":true}],"status":"complete","type":"individual","measure":"https://madie.cms.gov/Measure/CMS334FHIRPCCesareanBirth","period":{"start":"2026-01-01","end":"2026-12-31"},"group":[{"population":[{"code":{"coding":[{"system":"http://terminology.hl7.org/CodeSystem/measure-population","code":"initial-population","display":"Initial Population"}]},"count":1},{"code":{"coding":[{"system":"http://terminology.hl7.org/CodeSystem/measure-population","code":"denominator","display":"Denominator"}]},"count":1},{"code":{"coding":[{"system":"http://terminology.hl7.org/CodeSystem/measure-population","code":"denominator-exclusion","display":"Denominator Exclusion"}]},"count":1},{"code":{"coding":[{"system":"http://terminology.hl7.org/CodeSystem/measure-population","code":"numerator","display":"Numerator"}]},"count":0}]}]},"request":{"method":"PUT","url":"MeasureReport/e5c459b6-a949-4b47-b316-3570889005fa"}}]}