{"resourceType":"Bundle","id":"tests-6a8804e3-d7cc-494e-8cb8-0befa0566c14-bundle","type":"transaction","entry":[{"fullUrl":"https://madie.cms.gov/Patient/6a8804e3-d7cc-494e-8cb8-0befa0566c14","resource":{"resourceType":"Patient","id":"6a8804e3-d7cc-494e-8cb8-0befa0566c14","meta":{"profile":["http://hl7.org/fhir/us/qicore/StructureDefinition/qicore-patient"]},"text":{"status":"generated","div":"<div xmlns=\"http://www.w3.org/1999/xhtml\"><div class=\"hapiHeaderText\">AssessP0RelDateTime42wkB4TimeOfDeliv <b>DENPASS </b></div><table class=\"hapiPropertyTable\"><tbody><tr><td>Identifier</td><td>49e75344440120387e89419ee36282f99bbbbc9526c96f4d2baf4981f8757fa2</td></tr><tr><td>Date of birth</td><td><span>14 February 1985</span></td></tr></tbody></table></div>"},"extension":[{"url":"http://hl7.org/fhir/us/core/StructureDefinition/us-core-race","extension":[{"url":"ombCategory","valueCoding":{"system":"urn:oid:2.16.840.1.113883.6.238","code":"1002-5","display":"American Indian or Alaska Native","userSelected":true}},{"url":"text","valueString":"American Indian or Alaska Native"}]},{"url":"http://hl7.org/fhir/us/core/StructureDefinition/us-core-ethnicity","extension":[{"url":"ombCategory","valueCoding":{"system":"urn:oid:2.16.840.1.113883.6.238","code":"2135-2","display":"Hispanic or Latino","userSelected":true}},{"url":"text","valueString":"Hispanic or Latino"}]}],"identifier":[{"type":{"coding":[{"system":"http://terminology.hl7.org/CodeSystem/v2-0203","code":"MR"}]},"system":"https://bonnie-fhir.healthit.gov/","value":"63487c2f0968f80122540192"}],"active":true,"name":[{"use":"usual","family":"DENPass","given":["AssessP0RelDateTime42wkB4TimeOfDeliv"]}],"gender":"female","birthDate":"1998-02-14"},"request":{"method":"PUT","url":"Patient/6a8804e3-d7cc-494e-8cb8-0befa0566c14"}},{"fullUrl":"https://madie.cms.gov/Observation/0c50a604-c328-47da-8718-6ba33c8d2be8","resource":{"resourceType":"Observation","id":"0c50a604-c328-47da-8718-6ba33c8d2be8","meta":{"profile":["http://hl7.org/fhir/us/qicore/StructureDefinition/qicore-observation"]},"status":"final","category":[{"coding":[{"system":"http://terminology.hl7.org/CodeSystem/observation-category","code":"exam","display":"exam","userSelected":true}]}],"code":{"coding":[{"system":"http://loinc.org","code":"11977-6"}]},"subject":{"reference":"Patient/6a8804e3-d7cc-494e-8cb8-0befa0566c14"},"effectiveDateTime":"2025-08-19T20:00:00.000+00:00","valueInteger":0},"request":{"method":"PUT","url":"Observation/0c50a604-c328-47da-8718-6ba33c8d2be8"}},{"fullUrl":"https://madie.cms.gov/Observation/5185be12-f2e7-47f0-8020-3894e122370e","resource":{"resourceType":"Observation","id":"5185be12-f2e7-47f0-8020-3894e122370e","meta":{"profile":["http://hl7.org/fhir/us/qicore/StructureDefinition/qicore-observation"]},"status":"final","category":[{"coding":[{"system":"http://terminology.hl7.org/CodeSystem/observation-category","code":"exam","display":"exam","userSelected":true}]}],"code":{"coding":[{"system":"http://loinc.org","code":"11884-4"}]},"subject":{"reference":"Patient/6a8804e3-d7cc-494e-8cb8-0befa0566c14"},"effectiveDateTime":"2026-06-08T20:00:00.000+00:00","valueQuantity":{"value":37,"system":"http://unitsofmeasure.org","code":"wk"}},"request":{"method":"PUT","url":"Observation/5185be12-f2e7-47f0-8020-3894e122370e"}},{"fullUrl":"https://madie.cms.gov/Observation/0cbbc6d5-d242-4037-a57c-1586aaa34010","resource":{"resourceType":"Observation","id":"0cbbc6d5-d242-4037-a57c-1586aaa34010","meta":{"profile":["http://hl7.org/fhir/us/qicore/StructureDefinition/qicore-observation"]},"status":"final","category":[{"coding":[{"system":"http://terminology.hl7.org/CodeSystem/observation-category","code":"exam","display":"exam","userSelected":true}]}],"code":{"coding":[{"system":"http://loinc.org","code":"93857-1"}]},"subject":{"reference":"Patient/6a8804e3-d7cc-494e-8cb8-0befa0566c14"},"effectiveDateTime":"2026-06-08T20:00:00.000+00:00","valueDateTime":"2026-06-08T20:00:00+00:00"},"request":{"method":"PUT","url":"Observation/0cbbc6d5-d242-4037-a57c-1586aaa34010"}},{"fullUrl":"https://madie.cms.gov/Encounter/f9733883-0046-4c98-872a-3e82e6537283","resource":{"resourceType":"Encounter","id":"f9733883-0046-4c98-872a-3e82e6537283","meta":{"profile":["http://hl7.org/fhir/us/qicore/StructureDefinition/qicore-encounter"]},"status":"finished","class":{"system":"http://terminology.hl7.org/CodeSystem/v3-ActCode","code":"IMP","display":"inpatient encounter"},"type":[{"coding":[{"system":"http://snomed.info/sct","code":"8715000"}]}],"subject":{"reference":"Patient/6a8804e3-d7cc-494e-8cb8-0befa0566c14"},"period":{"start":"2026-06-08T08:00:00.000Z","end":"2026-06-10T08:15:00.000Z"},"length":{"value":2,"unit":"days"},"diagnosis":[{"condition":{"reference":"Condition/delivery-of-singleton-f83c"},"use":{"coding":[{"system":"http://snomed.info/sct","code":"169826009","display":"Delivery of Singleton"}]}},{"condition":{"reference":"Condition/4ae85844-51aa-4894-b81b-5c8d98523f8c"}}]},"request":{"method":"PUT","url":"Encounter/f9733883-0046-4c98-872a-3e82e6537283"}},{"fullUrl":"https://madie.cms.gov/Procedure/4446643f-783e-45e0-b1f9-bccfa25ec93b","resource":{"resourceType":"Procedure","id":"4446643f-783e-45e0-b1f9-bccfa25ec93b","meta":{"profile":["http://hl7.org/fhir/us/qicore/StructureDefinition/qicore-procedure"]},"extension":[{"url":"http://hl7.org/fhir/us/qicore/StructureDefinition/qicore-recorded","valueDateTime":"2014-04-05T09:35:00-04:00"}],"status":"completed","code":{"coding":[{"system":"http://www.cms.gov/Medicare/Coding/ICD10","code":"10D00Z0"},{"system":"http://www.icd10data.com/icd10pcs","code":"10D00Z0","userSelected":true}]},"subject":{"reference":"Patient/6a8804e3-d7cc-494e-8cb8-0befa0566c14"},"performedPeriod":{"start":"2026-06-08T20:00:00.000Z","end":"2026-06-08T20:15:00.000Z"}},"request":{"method":"PUT","url":"Procedure/4446643f-783e-45e0-b1f9-bccfa25ec93b"}},{"fullUrl":"https://madie.cms.gov/Condition/4ae85844-51aa-4894-b81b-5c8d98523f8c","resource":{"resourceType":"Condition","id":"4ae85844-51aa-4894-b81b-5c8d98523f8c","meta":{"profile":["http://hl7.org/fhir/us/qicore/StructureDefinition/qicore-condition"]},"category":[{"coding":[{"system":"http://terminology.hl7.org/CodeSystem/condition-category","code":"encounter-diagnosis","display":"Encounter Diagnosis"}]}],"code":{"coding":[{"system":"http://snomed.info/sct","version":"2022-09","code":"169826009","display":"Single live birth (finding)","userSelected":true}]},"subject":{"reference":"Patient/6a8804e3-d7cc-494e-8cb8-0befa0566c14"},"recordedDate":"2026-10-18T08:00:00.000+00:00"},"request":{"method":"PUT","url":"Condition/4ae85844-51aa-4894-b81b-5c8d98523f8c"}},{"fullUrl":"https://madie.cms.gov/Coverage/a51cc6fe-8def-4f39-8f97-3accc85e67cd","resource":{"resourceType":"Coverage","id":"a51cc6fe-8def-4f39-8f97-3accc85e67cd","meta":{"profile":["http://hl7.org/fhir/us/qicore/StructureDefinition/qicore-coverage"]},"status":"active","beneficiary":{"reference":"Patient/6a8804e3-d7cc-494e-8cb8-0befa0566c14"},"payor":[{"reference":"Organization/18ca435c-cae6-4c34-8033-af717477f9fc"}]},"request":{"method":"PUT","url":"Coverage/a51cc6fe-8def-4f39-8f97-3accc85e67cd"}},{"fullUrl":"https://madie.cms.gov/Organization/541213fe-21cb-4b06-b997-eda98e32aa6f","resource":{"resourceType":"Organization","id":"18ca435c-cae6-4c34-8033-af717477f9fc","meta":{"profile":["http://hl7.org/fhir/us/qicore/StructureDefinition/qicore-organization"]},"identifier":[{"use":"temp","system":"urn:oid:2.16.840.1.113883.4.4","value":"21-3259825"}],"active":true,"type":[{"coding":[{"system":"http://terminology.hl7.org/CodeSystem/organization-type","code":"pay","display":"Payer"}]}],"name":"Blue Cross Blue Shield of Texas","telecom":[{"system":"phone","value":"(+1) 972-766-6900"}],"address":[{"use":"billing","type":"postal","line":["P.O. Box 660044"],"city":"Dallas","state":"TX","postalCode":"75266-0044","country":"USA"}]},"request":{"method":"PUT","url":"Organization/18ca435c-cae6-4c34-8033-af717477f9fc"}},{"fullUrl":"https://madie.cms.gov/Practitioner/8eebc6eb-be96-4eb5-8a74-c9cb948c4208","resource":{"resourceType":"Practitioner","id":"8eebc6eb-be96-4eb5-8a74-c9cb948c4208","identifier":[{"system":"http://hl7.org/fhir/sid/us-npi","value":"123456"}],"name":[{"family":"Evil","prefix":["Dr"]}]},"request":{"method":"PUT","url":"Practitioner/8eebc6eb-be96-4eb5-8a74-c9cb948c4208"}},{"fullUrl":"https://madie.cms.gov/MeasureReport/bad38934-d0a9-42c1-ba6e-39b89068e626","resource":{"resourceType":"MeasureReport","id":"bad38934-d0a9-42c1-ba6e-39b89068e626","meta":{"profile":["http://hl7.org/fhir/us/cqfmeasures/StructureDefinition/test-case-cqfm"]},"contained":[{"resourceType":"Parameters","id":"7e322631-5de2-4fb9-8b78-80af788d0bff-parameters","parameter":[{"name":"subject","valueString":"6a8804e3-d7cc-494e-8cb8-0befa0566c14"}]}],"extension":[{"url":"http://hl7.org/fhir/us/cqfmeasures/StructureDefinition/cqfm-inputParameters","valueReference":{"reference":"#7e322631-5de2-4fb9-8b78-80af788d0bff-parameters"}},{"url":"http://hl7.org/fhir/us/cqfmeasures/StructureDefinition/cqfm-testCaseDescription","valueMarkdown":"Parity=0, relevant date/time exactly 42 weeks prior to delivery date/time.  \n"}],"modifierExtension":[{"url":"http://hl7.org/fhir/us/cqfmeasures/StructureDefinition/cqfm-isTestCase","valueBoolean":true}],"status":"complete","type":"individual","measure":"https://madie.cms.gov/Measure/CMS334FHIRPCCesareanBirth","period":{"start":"2026-01-01","end":"2026-12-31"},"group":[{"population":[{"code":{"coding":[{"system":"http://terminology.hl7.org/CodeSystem/measure-population","code":"initial-population","display":"Initial Population"}]},"count":1},{"code":{"coding":[{"system":"http://terminology.hl7.org/CodeSystem/measure-population","code":"denominator","display":"Denominator"}]},"count":1},{"code":{"coding":[{"system":"http://terminology.hl7.org/CodeSystem/measure-population","code":"denominator-exclusion","display":"Denominator Exclusion"}]},"count":0},{"code":{"coding":[{"system":"http://terminology.hl7.org/CodeSystem/measure-population","code":"numerator","display":"Numerator"}]},"count":1}]}]},"request":{"method":"PUT","url":"MeasureReport/bad38934-d0a9-42c1-ba6e-39b89068e626"}}]}