{"resourceType":"Bundle","id":"tests-194c8f74-f131-4d08-aff3-e9740333e874-bundle","type":"transaction","entry":[{"fullUrl":"https://madie.cms.gov/Patient/194c8f74-f131-4d08-aff3-e9740333e874","resource":{"resourceType":"Patient","id":"194c8f74-f131-4d08-aff3-e9740333e874","meta":{"profile":["http://hl7.org/fhir/us/qicore/StructureDefinition/qicore-patient"]},"text":{"status":"generated","div":"<div xmlns=\"http://www.w3.org/1999/xhtml\"><div class=\"hapiHeaderText\">AssessGARelDtTimeLT24HourB4TimeOfDeliv <b>DENPASS </b></div><table class=\"hapiPropertyTable\"><tbody><tr><td>Identifier</td><td>d274dc96f6308f67a52f29a83387fce6248cd6fafffcbb90145ed6c834e32b90</td></tr><tr><td>Date of birth</td><td><span>14 February 1985</span></td></tr></tbody></table></div>"},"extension":[{"url":"http://hl7.org/fhir/us/core/StructureDefinition/us-core-race","extension":[{"url":"ombCategory","valueCoding":{"system":"urn:oid:2.16.840.1.113883.6.238","code":"1002-5","display":"American Indian or Alaska Native","userSelected":true}},{"url":"text","valueString":"American Indian or Alaska Native"}]},{"url":"http://hl7.org/fhir/us/core/StructureDefinition/us-core-ethnicity","extension":[{"url":"ombCategory","valueCoding":{"system":"urn:oid:2.16.840.1.113883.6.238","code":"2135-2","display":"Hispanic or Latino","userSelected":true}},{"url":"text","valueString":"Hispanic or Latino"}]}],"identifier":[{"type":{"coding":[{"system":"http://terminology.hl7.org/CodeSystem/v2-0203","code":"MR"}]},"system":"https://bonnie-fhir.healthit.gov/","value":"63487c2e0968f8012254018c"}],"active":true,"name":[{"use":"usual","family":"DENPass","given":["AssessGARelDtTimeLT24HourB4TimeOfDeliv"]}],"gender":"female","birthDate":"1998-02-14"},"request":{"method":"PUT","url":"Patient/194c8f74-f131-4d08-aff3-e9740333e874"}},{"fullUrl":"https://madie.cms.gov/Observation/bd995ad4-2bcd-4b41-8a68-a6b46b6ef96a","resource":{"resourceType":"Observation","id":"bd995ad4-2bcd-4b41-8a68-a6b46b6ef96a","meta":{"profile":["http://hl7.org/fhir/us/qicore/StructureDefinition/qicore-observation"]},"status":"final","category":[{"coding":[{"system":"http://terminology.hl7.org/CodeSystem/observation-category","code":"exam","display":"exam","userSelected":true}]}],"code":{"coding":[{"system":"http://loinc.org","code":"11884-4"}]},"subject":{"reference":"Patient/194c8f74-f131-4d08-aff3-e9740333e874"},"effectiveDateTime":"2026-06-07T11:59:00.000+00:00","valueQuantity":{"value":37,"system":"http://unitsofmeasure.org","code":"wk"}},"request":{"method":"PUT","url":"Observation/bd995ad4-2bcd-4b41-8a68-a6b46b6ef96a"}},{"fullUrl":"https://madie.cms.gov/Observation/52d37917-cc27-477b-b297-02b8af0c81d0","resource":{"resourceType":"Observation","id":"52d37917-cc27-477b-b297-02b8af0c81d0","meta":{"profile":["http://hl7.org/fhir/us/qicore/StructureDefinition/qicore-observation"]},"status":"final","category":[{"coding":[{"system":"http://terminology.hl7.org/CodeSystem/observation-category","code":"exam","display":"exam","userSelected":true}]}],"code":{"coding":[{"system":"http://loinc.org","code":"11996-6"}]},"subject":{"reference":"Patient/194c8f74-f131-4d08-aff3-e9740333e874"},"effectiveDateTime":"2026-06-08T08:00:00.000+00:00","valueInteger":1},"request":{"method":"PUT","url":"Observation/52d37917-cc27-477b-b297-02b8af0c81d0"}},{"fullUrl":"https://madie.cms.gov/Observation/1963036f-18c6-4252-b3a0-303cf0c8d98a","resource":{"resourceType":"Observation","id":"1963036f-18c6-4252-b3a0-303cf0c8d98a","meta":{"profile":["http://hl7.org/fhir/us/qicore/StructureDefinition/qicore-observation"]},"status":"final","category":[{"coding":[{"system":"http://terminology.hl7.org/CodeSystem/observation-category","code":"exam","display":"exam","userSelected":true}]}],"code":{"coding":[{"system":"http://loinc.org","code":"93857-1"}]},"subject":{"reference":"Patient/194c8f74-f131-4d08-aff3-e9740333e874"},"effectiveDateTime":"2026-06-08T09:15:00.000+00:00","valueDateTime":"2026-06-08T09:15:00+00:00"},"request":{"method":"PUT","url":"Observation/1963036f-18c6-4252-b3a0-303cf0c8d98a"}},{"fullUrl":"https://madie.cms.gov/Encounter/a2b2d90b-c90a-4568-a3f4-269f2fa62f22","resource":{"resourceType":"Encounter","id":"a2b2d90b-c90a-4568-a3f4-269f2fa62f22","meta":{"profile":["http://hl7.org/fhir/us/qicore/StructureDefinition/qicore-encounter"]},"status":"finished","class":{"system":"http://terminology.hl7.org/CodeSystem/v3-ActCode","code":"IMP","display":"inpatient encounter"},"type":[{"coding":[{"system":"http://snomed.info/sct","code":"183452005"}]}],"subject":{"reference":"Patient/194c8f74-f131-4d08-aff3-e9740333e874"},"period":{"start":"2026-06-08T08:00:00.000Z","end":"2026-06-10T08:15:00.000Z"},"length":{"value":2,"unit":"days"},"diagnosis":[{"condition":{"reference":"Condition/5e6d7d59-5da6-4204-9abf-e9a544446cad"},"use":{"coding":[{"system":"http://snomed.info/sct","code":"169826009","display":"Delivery of Singleton"}]}}]},"request":{"method":"PUT","url":"Encounter/a2b2d90b-c90a-4568-a3f4-269f2fa62f22"}},{"fullUrl":"https://madie.cms.gov/Procedure/5c5b7aef-7601-43f5-bb10-886068e9c4ec","resource":{"resourceType":"Procedure","id":"5c5b7aef-7601-43f5-bb10-886068e9c4ec","meta":{"profile":["http://hl7.org/fhir/us/qicore/StructureDefinition/qicore-procedure"]},"extension":[{"url":"http://hl7.org/fhir/us/qicore/StructureDefinition/qicore-recorded","valueDateTime":"2014-04-05T09:35:00-04:00"}],"status":"completed","code":{"coding":[{"system":"http://www.cms.gov/Medicare/Coding/ICD10","code":"10D07Z3"},{"system":"http://www.icd10data.com/icd10pcs","code":"10D07Z3","userSelected":true}]},"subject":{"reference":"Patient/194c8f74-f131-4d08-aff3-e9740333e874"},"performedPeriod":{"start":"2026-06-08T08:00:00.000Z","end":"2026-06-08T09:15:00.000Z"}},"request":{"method":"PUT","url":"Procedure/5c5b7aef-7601-43f5-bb10-886068e9c4ec"}},{"fullUrl":"https://madie.cms.gov/Condition/5e6d7d59-5da6-4204-9abf-e9a544446cad","resource":{"resourceType":"Condition","id":"5e6d7d59-5da6-4204-9abf-e9a544446cad","meta":{"profile":["http://hl7.org/fhir/us/qicore/StructureDefinition/qicore-condition"]},"category":[{"coding":[{"system":"http://terminology.hl7.org/CodeSystem/condition-category","code":"encounter-diagnosis","display":"Encounter Diagnosis"}]}],"code":{"coding":[{"system":"http://snomed.info/sct","version":"2022-09","code":"169826009","display":"Single live birth (finding)","userSelected":true}]},"subject":{"reference":"Patient/194c8f74-f131-4d08-aff3-e9740333e874"},"recordedDate":"2026-10-21T08:00:00.000+00:00"},"request":{"method":"PUT","url":"Condition/5e6d7d59-5da6-4204-9abf-e9a544446cad"}},{"fullUrl":"https://madie.cms.gov/Coverage/232d87bc-3203-4edc-a8e8-c4ab44e1dc61","resource":{"resourceType":"Coverage","id":"232d87bc-3203-4edc-a8e8-c4ab44e1dc61","meta":{"profile":["http://hl7.org/fhir/us/qicore/StructureDefinition/qicore-coverage"]},"status":"active","beneficiary":{"reference":"Patient/194c8f74-f131-4d08-aff3-e9740333e874"},"payor":[{"reference":"Organization/5ad6ea38-07e9-4482-9e1b-c09eee595be9"}]},"request":{"method":"PUT","url":"Coverage/232d87bc-3203-4edc-a8e8-c4ab44e1dc61"}},{"fullUrl":"https://madie.cms.gov/Organization/ecb5a48f-8177-4bbc-9024-6456831dd889","resource":{"resourceType":"Organization","id":"5ad6ea38-07e9-4482-9e1b-c09eee595be9","meta":{"profile":["http://hl7.org/fhir/us/qicore/StructureDefinition/qicore-organization"]},"identifier":[{"use":"temp","system":"urn:oid:2.16.840.1.113883.4.4","value":"21-3259825"}],"active":true,"type":[{"coding":[{"system":"http://terminology.hl7.org/CodeSystem/organization-type","code":"pay","display":"Payer"}]}],"name":"Blue Cross Blue Shield of Texas","telecom":[{"system":"phone","value":"(+1) 972-766-6900"}],"address":[{"use":"billing","type":"postal","line":["P.O. Box 660044"],"city":"Dallas","state":"TX","postalCode":"75266-0044","country":"USA"}]},"request":{"method":"PUT","url":"Organization/5ad6ea38-07e9-4482-9e1b-c09eee595be9"}},{"fullUrl":"https://madie.cms.gov/Practitioner/0f3d9a30-cae9-4bc7-bec9-4942820f9afa","resource":{"resourceType":"Practitioner","id":"0f3d9a30-cae9-4bc7-bec9-4942820f9afa","identifier":[{"system":"http://hl7.org/fhir/sid/us-npi","value":"123456"}],"name":[{"family":"Evil","prefix":["Dr"]}]},"request":{"method":"PUT","url":"Practitioner/0f3d9a30-cae9-4bc7-bec9-4942820f9afa"}},{"fullUrl":"https://madie.cms.gov/MeasureReport/fbcf0631-d773-43a7-a930-3fa425319dcd","resource":{"resourceType":"MeasureReport","id":"fbcf0631-d773-43a7-a930-3fa425319dcd","meta":{"profile":["http://hl7.org/fhir/us/cqfmeasures/StructureDefinition/test-case-cqfm"]},"contained":[{"resourceType":"Parameters","id":"d1c12254-5e09-4ddd-ba36-cfab9679d2c0-parameters","parameter":[{"name":"subject","valueString":"194c8f74-f131-4d08-aff3-e9740333e874"}]}],"extension":[{"url":"http://hl7.org/fhir/us/cqfmeasures/StructureDefinition/cqfm-inputParameters","valueReference":{"reference":"#d1c12254-5e09-4ddd-ba36-cfab9679d2c0-parameters"}},{"url":"http://hl7.org/fhir/us/cqfmeasures/StructureDefinition/cqfm-testCaseDescription","valueMarkdown":"Passes: IP, Pt is 27 years of age,  encounter dx of delivery of singleton, gravida, AsseEGA37 within 24 hours of  TmDelivery.   Breech presentation meets denom exclusion.\n\n"}],"modifierExtension":[{"url":"http://hl7.org/fhir/us/cqfmeasures/StructureDefinition/cqfm-isTestCase","valueBoolean":true}],"status":"complete","type":"individual","measure":"https://madie.cms.gov/Measure/CMS334FHIRPCCesareanBirth","period":{"start":"2026-01-01","end":"2026-12-31"},"group":[{"population":[{"code":{"coding":[{"system":"http://terminology.hl7.org/CodeSystem/measure-population","code":"initial-population","display":"Initial Population"}]},"count":1},{"code":{"coding":[{"system":"http://terminology.hl7.org/CodeSystem/measure-population","code":"denominator","display":"Denominator"}]},"count":1},{"code":{"coding":[{"system":"http://terminology.hl7.org/CodeSystem/measure-population","code":"denominator-exclusion","display":"Denominator Exclusion"}]},"count":0},{"code":{"coding":[{"system":"http://terminology.hl7.org/CodeSystem/measure-population","code":"numerator","display":"Numerator"}]},"count":0}]}]},"request":{"method":"PUT","url":"MeasureReport/fbcf0631-d773-43a7-a930-3fa425319dcd"}}]}