{"resourceType":"Bundle","id":"tests-d819c502-0f8e-43a3-a9c3-639c8cc24a49-bundle","type":"transaction","entry":[{"fullUrl":"https://madie.cms.gov/Patient/d819c502-0f8e-43a3-a9c3-639c8cc24a49","resource":{"resourceType":"Patient","id":"d819c502-0f8e-43a3-a9c3-639c8cc24a49","meta":{"profile":["http://hl7.org/fhir/us/qicore/StructureDefinition/qicore-patient"]},"text":{"status":"generated","div":"<div xmlns=\"http://www.w3.org/1999/xhtml\"><div class=\"hapiHeaderText\">AssessTerm0PreTerm0NoGravNoPar <b>DENPASS </b></div><table class=\"hapiPropertyTable\"><tbody><tr><td>Identifier</td><td>64127fc9d7fd126eace3c4b20a012fe3796c9abd90c573be4c372bf5eb0ed0f9</td></tr><tr><td>Date of birth</td><td><span>14 February 1985</span></td></tr></tbody></table></div>"},"extension":[{"url":"http://hl7.org/fhir/us/core/StructureDefinition/us-core-race","extension":[{"url":"ombCategory","valueCoding":{"system":"urn:oid:2.16.840.1.113883.6.238","code":"1002-5","display":"American Indian or Alaska Native","userSelected":true}},{"url":"text","valueString":"American Indian or Alaska Native"}]},{"url":"http://hl7.org/fhir/us/core/StructureDefinition/us-core-ethnicity","extension":[{"url":"ombCategory","valueCoding":{"system":"urn:oid:2.16.840.1.113883.6.238","code":"2135-2","display":"Hispanic or Latino","userSelected":true}},{"url":"text","valueString":"Hispanic or Latino"}]}],"identifier":[{"type":{"coding":[{"system":"http://terminology.hl7.org/CodeSystem/v2-0203","code":"MR"}]},"system":"https://bonnie-fhir.healthit.gov/","value":"63487c2d0968f80122540165"}],"active":true,"name":[{"use":"usual","family":"DENPass","given":["2AssessPreTerm0"]}],"gender":"female","birthDate":"1998-02-14"},"request":{"method":"PUT","url":"Patient/d819c502-0f8e-43a3-a9c3-639c8cc24a49"}},{"fullUrl":"https://madie.cms.gov/Observation/166ab89c-3fc5-42dd-a7d7-42704683c878","resource":{"resourceType":"Observation","id":"166ab89c-3fc5-42dd-a7d7-42704683c878","meta":{"profile":["http://hl7.org/fhir/us/qicore/StructureDefinition/qicore-observation"]},"status":"final","category":[{"coding":[{"system":"http://terminology.hl7.org/CodeSystem/observation-category","code":"exam","display":"exam","userSelected":true}]}],"code":{"coding":[{"system":"http://loinc.org","code":"11639-2"}]},"subject":{"reference":"Patient/d819c502-0f8e-43a3-a9c3-639c8cc24a49"},"effectiveDateTime":"2025-08-19T21:15:00.000+00:00","valueInteger":0},"request":{"method":"PUT","url":"Observation/166ab89c-3fc5-42dd-a7d7-42704683c878"}},{"fullUrl":"https://madie.cms.gov/Observation/18b72710-d4d3-4e53-b910-3c187235eb31","resource":{"resourceType":"Observation","id":"18b72710-d4d3-4e53-b910-3c187235eb31","meta":{"profile":["http://hl7.org/fhir/us/qicore/StructureDefinition/qicore-observation"]},"status":"final","category":[{"coding":[{"system":"http://terminology.hl7.org/CodeSystem/observation-category","code":"exam","display":"exam","userSelected":true}]}],"code":{"coding":[{"system":"http://loinc.org","code":"11637-6"}]},"subject":{"reference":"Patient/d819c502-0f8e-43a3-a9c3-639c8cc24a49"},"effectiveDateTime":"2025-08-19T21:15:00.000+00:00","valueInteger":0},"request":{"method":"PUT","url":"Observation/18b72710-d4d3-4e53-b910-3c187235eb31"}},{"fullUrl":"https://madie.cms.gov/Observation/d2b1d807-10ee-4eba-b202-6fd1ff0b5c3e","resource":{"resourceType":"Observation","id":"d2b1d807-10ee-4eba-b202-6fd1ff0b5c3e","meta":{"profile":["http://hl7.org/fhir/us/qicore/StructureDefinition/qicore-observation"]},"status":"final","category":[{"coding":[{"system":"http://terminology.hl7.org/CodeSystem/observation-category","code":"exam","display":"exam","userSelected":true}]}],"code":{"coding":[{"system":"http://loinc.org","code":"11637-6"}]},"subject":{"reference":"Patient/d819c502-0f8e-43a3-a9c3-639c8cc24a49"},"effectiveDateTime":"2025-08-19T21:14:00.000+00:00","valueInteger":1},"request":{"method":"PUT","url":"Observation/d2b1d807-10ee-4eba-b202-6fd1ff0b5c3e"}},{"fullUrl":"https://madie.cms.gov/Observation/4307172d-c119-4d25-8a7e-1926c642af99","resource":{"resourceType":"Observation","id":"4307172d-c119-4d25-8a7e-1926c642af99","meta":{"profile":["http://hl7.org/fhir/us/qicore/StructureDefinition/qicore-observation"]},"status":"final","category":[{"coding":[{"system":"http://terminology.hl7.org/CodeSystem/observation-category","code":"exam","display":"exam","userSelected":true}]}],"code":{"coding":[{"system":"http://loinc.org","code":"11884-4"}]},"subject":{"reference":"Patient/d819c502-0f8e-43a3-a9c3-639c8cc24a49"},"effectiveDateTime":"2026-06-08T21:15:00.000+00:00","valueQuantity":{"value":37,"system":"http://unitsofmeasure.org","code":"wk"}},"request":{"method":"PUT","url":"Observation/4307172d-c119-4d25-8a7e-1926c642af99"}},{"fullUrl":"https://madie.cms.gov/Observation/28f1dcff-af36-46b3-8059-8f2bca03b52b","resource":{"resourceType":"Observation","id":"28f1dcff-af36-46b3-8059-8f2bca03b52b","meta":{"profile":["http://hl7.org/fhir/us/qicore/StructureDefinition/qicore-observation"]},"status":"final","category":[{"coding":[{"system":"http://terminology.hl7.org/CodeSystem/observation-category","code":"exam","display":"exam","userSelected":true}]}],"code":{"coding":[{"system":"http://loinc.org","code":"93857-1"}]},"subject":{"reference":"Patient/d819c502-0f8e-43a3-a9c3-639c8cc24a49"},"effectiveDateTime":"2026-06-08T21:15:00.000+00:00","valueDateTime":"2026-06-08T21:15:00+00:00"},"request":{"method":"PUT","url":"Observation/28f1dcff-af36-46b3-8059-8f2bca03b52b"}},{"fullUrl":"https://madie.cms.gov/Encounter/243f9734-3375-4622-b0f0-6a9286f0af5b","resource":{"resourceType":"Encounter","id":"243f9734-3375-4622-b0f0-6a9286f0af5b","meta":{"profile":["http://hl7.org/fhir/us/qicore/StructureDefinition/qicore-encounter"]},"status":"finished","class":{"system":"http://terminology.hl7.org/CodeSystem/v3-ActCode","code":"IMP","display":"inpatient encounter"},"type":[{"coding":[{"system":"http://snomed.info/sct","code":"8715000"}]}],"subject":{"reference":"Patient/d819c502-0f8e-43a3-a9c3-639c8cc24a49"},"period":{"start":"2026-06-08T08:00:00.000Z","end":"2026-06-10T08:15:00.000Z"},"length":{"value":2,"unit":"days"},"diagnosis":[{"condition":{"reference":"Condition/delivery-of-singleton-f83c"},"use":{"coding":[{"system":"http://snomed.info/sct","code":"169826009","display":"Delivery of Singleton"}]}},{"condition":{"reference":"Condition/094d8f56-9b78-4fe0-8c83-682bb9e6f635"}}]},"request":{"method":"PUT","url":"Encounter/243f9734-3375-4622-b0f0-6a9286f0af5b"}},{"fullUrl":"https://madie.cms.gov/Procedure/c109b5e6-407f-4368-88a6-2f7593286a12","resource":{"resourceType":"Procedure","id":"c109b5e6-407f-4368-88a6-2f7593286a12","meta":{"profile":["http://hl7.org/fhir/us/qicore/StructureDefinition/qicore-procedure"]},"extension":[{"url":"http://hl7.org/fhir/us/qicore/StructureDefinition/qicore-recorded","valueDateTime":"2014-04-05T09:35:00-04:00"}],"status":"completed","code":{"coding":[{"system":"http://www.cms.gov/Medicare/Coding/ICD10","code":"10D00Z0"},{"system":"http://www.icd10data.com/icd10pcs","code":"10D00Z2","userSelected":true}]},"subject":{"reference":"Patient/d819c502-0f8e-43a3-a9c3-639c8cc24a49"},"performedPeriod":{"start":"2026-06-08T20:00:00.000Z","end":"2026-06-08T21:15:00.000Z"}},"request":{"method":"PUT","url":"Procedure/c109b5e6-407f-4368-88a6-2f7593286a12"}},{"fullUrl":"https://madie.cms.gov/Condition/094d8f56-9b78-4fe0-8c83-682bb9e6f635","resource":{"resourceType":"Condition","id":"094d8f56-9b78-4fe0-8c83-682bb9e6f635","meta":{"profile":["http://hl7.org/fhir/us/qicore/StructureDefinition/qicore-condition"]},"category":[{"coding":[{"system":"http://terminology.hl7.org/CodeSystem/condition-category","code":"encounter-diagnosis","display":"Encounter Diagnosis"}]}],"code":{"coding":[{"system":"http://snomed.info/sct","version":"2022-09","code":"169826009","display":"Single live birth (finding)","userSelected":true}]},"subject":{"reference":"Patient/d819c502-0f8e-43a3-a9c3-639c8cc24a49"},"recordedDate":"2026-10-20T08:00:00.000+00:00"},"request":{"method":"PUT","url":"Condition/094d8f56-9b78-4fe0-8c83-682bb9e6f635"}},{"fullUrl":"https://madie.cms.gov/Coverage/ab6b361d-5849-4cd4-8d48-b47a2f4e7b40","resource":{"resourceType":"Coverage","id":"ab6b361d-5849-4cd4-8d48-b47a2f4e7b40","meta":{"profile":["http://hl7.org/fhir/us/qicore/StructureDefinition/qicore-coverage"]},"status":"active","beneficiary":{"reference":"Patient/d819c502-0f8e-43a3-a9c3-639c8cc24a49"},"payor":[{"reference":"Organization/f7da4368-fb6d-4d73-a75b-f78024cbb18d"}]},"request":{"method":"PUT","url":"Coverage/ab6b361d-5849-4cd4-8d48-b47a2f4e7b40"}},{"fullUrl":"https://madie.cms.gov/Organization/4c64e462-66da-4f46-bd9b-e1b113fb73b1","resource":{"resourceType":"Organization","id":"f7da4368-fb6d-4d73-a75b-f78024cbb18d","meta":{"profile":["http://hl7.org/fhir/us/qicore/StructureDefinition/qicore-organization"]},"identifier":[{"use":"temp","system":"urn:oid:2.16.840.1.113883.4.4","value":"21-3259825"}],"active":true,"type":[{"coding":[{"system":"http://terminology.hl7.org/CodeSystem/organization-type","code":"pay","display":"Payer"}]}],"name":"Blue Cross Blue Shield of Texas","telecom":[{"system":"phone","value":"(+1) 972-766-6900"}],"address":[{"use":"billing","type":"postal","line":["P.O. Box 660044"],"city":"Dallas","state":"TX","postalCode":"75266-0044","country":"USA"}]},"request":{"method":"PUT","url":"Organization/f7da4368-fb6d-4d73-a75b-f78024cbb18d"}},{"fullUrl":"https://madie.cms.gov/Practitioner/168d2a1d-a0ad-4818-a047-19980b1a76f0","resource":{"resourceType":"Practitioner","id":"168d2a1d-a0ad-4818-a047-19980b1a76f0","identifier":[{"system":"http://hl7.org/fhir/sid/us-npi","value":"123456"}],"name":[{"family":"Evil","prefix":["Dr"]}]},"request":{"method":"PUT","url":"Practitioner/168d2a1d-a0ad-4818-a047-19980b1a76f0"}},{"fullUrl":"https://madie.cms.gov/MeasureReport/847fd529-2313-4942-816d-fbd9a5f1fbc2","resource":{"resourceType":"MeasureReport","id":"847fd529-2313-4942-816d-fbd9a5f1fbc2","meta":{"profile":["http://hl7.org/fhir/us/cqfmeasures/StructureDefinition/test-case-cqfm"]},"contained":[{"resourceType":"Parameters","id":"53408dda-ead3-4a70-9297-0c85463c93ae-parameters","parameter":[{"name":"subject","valueString":"d819c502-0f8e-43a3-a9c3-639c8cc24a49"}]}],"extension":[{"url":"http://hl7.org/fhir/us/cqfmeasures/StructureDefinition/cqfm-inputParameters","valueReference":{"reference":"#53408dda-ead3-4a70-9297-0c85463c93ae-parameters"}},{"url":"http://hl7.org/fhir/us/cqfmeasures/StructureDefinition/cqfm-testCaseDescription","valueMarkdown":"2 assessments of PreTermBirths.  One relevant start time is 42 weeks before delivery, other is 42 weeks and 1 minute.  Denom is met as LAST is applied and the one meets.."}],"modifierExtension":[{"url":"http://hl7.org/fhir/us/cqfmeasures/StructureDefinition/cqfm-isTestCase","valueBoolean":true}],"status":"complete","type":"individual","measure":"https://madie.cms.gov/Measure/CMS334FHIRPCCesareanBirth","period":{"start":"2026-01-01","end":"2026-12-31"},"group":[{"population":[{"code":{"coding":[{"system":"http://terminology.hl7.org/CodeSystem/measure-population","code":"initial-population","display":"Initial Population"}]},"count":1},{"code":{"coding":[{"system":"http://terminology.hl7.org/CodeSystem/measure-population","code":"denominator","display":"Denominator"}]},"count":1},{"code":{"coding":[{"system":"http://terminology.hl7.org/CodeSystem/measure-population","code":"denominator-exclusion","display":"Denominator Exclusion"}]},"count":0},{"code":{"coding":[{"system":"http://terminology.hl7.org/CodeSystem/measure-population","code":"numerator","display":"Numerator"}]},"count":1}]}]},"request":{"method":"PUT","url":"MeasureReport/847fd529-2313-4942-816d-fbd9a5f1fbc2"}}]}