{"resourceType":"Bundle","id":"tests-8f3e1bc6-45ca-40ae-9e33-e9d97c6df55f-bundle","type":"transaction","entry":[{"fullUrl":"https://madie.cms.gov/Patient/8f3e1bc6-45ca-40ae-9e33-e9d97c6df55f","resource":{"resourceType":"Patient","id":"8f3e1bc6-45ca-40ae-9e33-e9d97c6df55f","meta":{"profile":["http://hl7.org/fhir/us/qicore/StructureDefinition/qicore-patient"]},"text":{"status":"generated","div":"<div xmlns=\"http://www.w3.org/1999/xhtml\"><div class=\"hapiHeaderText\">TermMissingResultAssessPre <b>DENFAIL </b></div><table class=\"hapiPropertyTable\"><tbody><tr><td>Identifier</td><td>f1b9e4b3392b77f1a2fea2b625f7cf28fad883bb54105146a2733314d50d6a83</td></tr><tr><td>Date of birth</td><td><span>14 February 1985</span></td></tr></tbody></table></div>"},"extension":[{"url":"http://hl7.org/fhir/us/core/StructureDefinition/us-core-race","extension":[{"url":"ombCategory","valueCoding":{"system":"urn:oid:2.16.840.1.113883.6.238","code":"1002-5","display":"American Indian or Alaska Native","userSelected":true}},{"url":"text","valueString":"American Indian or Alaska Native"}]},{"url":"http://hl7.org/fhir/us/core/StructureDefinition/us-core-ethnicity","extension":[{"url":"ombCategory","valueCoding":{"system":"urn:oid:2.16.840.1.113883.6.238","code":"2135-2","display":"Hispanic or Latino","userSelected":true}},{"url":"text","valueString":"Hispanic or Latino"}]}],"identifier":[{"type":{"coding":[{"system":"http://terminology.hl7.org/CodeSystem/v2-0203","code":"MR"}]},"system":"https://bonnie-fhir.healthit.gov/","value":"63487c2d0968f8012254015a"}],"active":true,"name":[{"use":"usual","family":"DENFail","given":["TermMissingResultAssessPre"]}],"gender":"female","birthDate":"1998-02-14"},"request":{"method":"PUT","url":"Patient/8f3e1bc6-45ca-40ae-9e33-e9d97c6df55f"}},{"fullUrl":"https://madie.cms.gov/Observation/4a6e9ba9-2342-49f0-9ee6-3b7386d462a0","resource":{"resourceType":"Observation","id":"4a6e9ba9-2342-49f0-9ee6-3b7386d462a0","meta":{"profile":["http://hl7.org/fhir/us/qicore/StructureDefinition/qicore-observation"]},"status":"final","category":[{"coding":[{"system":"http://terminology.hl7.org/CodeSystem/observation-category","code":"exam","display":"exam","userSelected":true}]}],"code":{"coding":[{"system":"http://loinc.org","code":"11637-6"}]},"subject":{"reference":"Patient/8f3e1bc6-45ca-40ae-9e33-e9d97c6df55f"},"effectiveDateTime":"2025-09-19T09:00:00.000+00:00"},"request":{"method":"PUT","url":"Observation/4a6e9ba9-2342-49f0-9ee6-3b7386d462a0"}},{"fullUrl":"https://madie.cms.gov/Observation/f36d246e-18cb-4a58-b7db-bfc1d8f56994","resource":{"resourceType":"Observation","id":"f36d246e-18cb-4a58-b7db-bfc1d8f56994","meta":{"profile":["http://hl7.org/fhir/us/qicore/StructureDefinition/qicore-observation"]},"status":"final","category":[{"coding":[{"system":"http://terminology.hl7.org/CodeSystem/observation-category","code":"exam","display":"exam","userSelected":true}]}],"code":{"coding":[{"system":"http://loinc.org","code":"11639-2"}]},"subject":{"reference":"Patient/8f3e1bc6-45ca-40ae-9e33-e9d97c6df55f"},"effectiveDateTime":"2025-09-19T09:00:00.000+00:00","valueInteger":0},"request":{"method":"PUT","url":"Observation/f36d246e-18cb-4a58-b7db-bfc1d8f56994"}},{"fullUrl":"https://madie.cms.gov/Observation/234dbb7a-ad7e-429c-8c0a-b2a9e64c7fe0","resource":{"resourceType":"Observation","id":"234dbb7a-ad7e-429c-8c0a-b2a9e64c7fe0","meta":{"profile":["http://hl7.org/fhir/us/qicore/StructureDefinition/qicore-observation"]},"status":"final","category":[{"coding":[{"system":"http://terminology.hl7.org/CodeSystem/observation-category","code":"exam","display":"exam","userSelected":true}]}],"code":{"coding":[{"system":"http://loinc.org","code":"11884-4"}]},"subject":{"reference":"Patient/8f3e1bc6-45ca-40ae-9e33-e9d97c6df55f"},"effectiveDateTime":"2026-06-08T20:00:00.000+00:00","valueQuantity":{"value":37,"system":"http://unitsofmeasure.org","code":"wk"}},"request":{"method":"PUT","url":"Observation/234dbb7a-ad7e-429c-8c0a-b2a9e64c7fe0"}},{"fullUrl":"https://madie.cms.gov/Observation/6c2796c7-3a06-487e-bd72-d78dab5cf2da","resource":{"resourceType":"Observation","id":"6c2796c7-3a06-487e-bd72-d78dab5cf2da","meta":{"profile":["http://hl7.org/fhir/us/qicore/StructureDefinition/qicore-observation"]},"status":"final","category":[{"coding":[{"system":"http://terminology.hl7.org/CodeSystem/observation-category","code":"exam","display":"exam","userSelected":true}]}],"code":{"coding":[{"system":"http://loinc.org","code":"93857-1"}]},"subject":{"reference":"Patient/8f3e1bc6-45ca-40ae-9e33-e9d97c6df55f"},"effectiveDateTime":"2026-06-08T20:00:00.000+00:00","valueDateTime":"2026-06-08T20:00:00+00:00"},"request":{"method":"PUT","url":"Observation/6c2796c7-3a06-487e-bd72-d78dab5cf2da"}},{"fullUrl":"https://madie.cms.gov/Encounter/5e1fc7aa-2f2e-4748-b039-f7a4986e8885","resource":{"resourceType":"Encounter","id":"5e1fc7aa-2f2e-4748-b039-f7a4986e8885","meta":{"profile":["http://hl7.org/fhir/us/qicore/StructureDefinition/qicore-encounter"]},"status":"finished","class":{"system":"http://terminology.hl7.org/CodeSystem/v3-ActCode","code":"IMP","display":"inpatient encounter"},"type":[{"coding":[{"system":"http://snomed.info/sct","code":"8715000"}]}],"subject":{"reference":"Patient/8f3e1bc6-45ca-40ae-9e33-e9d97c6df55f"},"period":{"start":"2026-06-08T08:00:00.000Z","end":"2026-06-10T08:15:00.000Z"},"length":{"value":2,"unit":"days"},"diagnosis":[{"condition":{"reference":"Condition/delivery-of-singleton-f83c"},"use":{"coding":[{"system":"http://snomed.info/sct","code":"169826009","display":"Delivery of Singleton"}]}},{"condition":{"reference":"Condition/1fee3ca0-6c3e-43c8-b92c-32bb5fc19653"}}]},"request":{"method":"PUT","url":"Encounter/5e1fc7aa-2f2e-4748-b039-f7a4986e8885"}},{"fullUrl":"https://madie.cms.gov/Procedure/ca2e3db4-b12d-4937-abdf-53e9edf6d131","resource":{"resourceType":"Procedure","id":"ca2e3db4-b12d-4937-abdf-53e9edf6d131","meta":{"profile":["http://hl7.org/fhir/us/qicore/StructureDefinition/qicore-procedure"]},"extension":[{"url":"http://hl7.org/fhir/us/qicore/StructureDefinition/qicore-recorded","valueDateTime":"2014-04-05T09:35:00-04:00"}],"status":"completed","code":{"coding":[{"system":"http://www.cms.gov/Medicare/Coding/ICD10","code":"10D00Z0"},{"system":"http://snomed.info/sct","code":"4504004"},{"system":"http://www.icd10data.com/icd10pcs","code":"10D00Z0","userSelected":true}]},"subject":{"reference":"Patient/8f3e1bc6-45ca-40ae-9e33-e9d97c6df55f"},"performedPeriod":{"start":"2026-06-08T20:00:00.000Z","end":"2026-06-08T20:15:00.000Z"}},"request":{"method":"PUT","url":"Procedure/ca2e3db4-b12d-4937-abdf-53e9edf6d131"}},{"fullUrl":"https://madie.cms.gov/Condition/1fee3ca0-6c3e-43c8-b92c-32bb5fc19653","resource":{"resourceType":"Condition","id":"1fee3ca0-6c3e-43c8-b92c-32bb5fc19653","meta":{"profile":["http://hl7.org/fhir/us/qicore/StructureDefinition/qicore-condition"]},"category":[{"coding":[{"system":"http://terminology.hl7.org/CodeSystem/condition-category","code":"encounter-diagnosis","display":"Encounter Diagnosis"}]}],"code":{"coding":[{"system":"http://snomed.info/sct","version":"2022-09","code":"169826009","display":"Single live birth (finding)","userSelected":true}]},"subject":{"reference":"Patient/8f3e1bc6-45ca-40ae-9e33-e9d97c6df55f"},"recordedDate":"2026-10-21T08:00:00.000+00:00"},"request":{"method":"PUT","url":"Condition/1fee3ca0-6c3e-43c8-b92c-32bb5fc19653"}},{"fullUrl":"https://madie.cms.gov/Coverage/6c385972-605d-4c47-bbf3-cb2e6ec9fdae","resource":{"resourceType":"Coverage","id":"6c385972-605d-4c47-bbf3-cb2e6ec9fdae","meta":{"profile":["http://hl7.org/fhir/us/qicore/StructureDefinition/qicore-coverage"]},"status":"active","beneficiary":{"reference":"Patient/8f3e1bc6-45ca-40ae-9e33-e9d97c6df55f"},"payor":[{"reference":"Organization/607fdef9-3983-4cef-ab1a-95434d29b463"}]},"request":{"method":"PUT","url":"Coverage/6c385972-605d-4c47-bbf3-cb2e6ec9fdae"}},{"fullUrl":"https://madie.cms.gov/Organization/78ba9dc7-7bc1-4cf5-a246-c6ba563bf20c","resource":{"resourceType":"Organization","id":"607fdef9-3983-4cef-ab1a-95434d29b463","meta":{"profile":["http://hl7.org/fhir/us/qicore/StructureDefinition/qicore-organization"]},"identifier":[{"use":"temp","system":"urn:oid:2.16.840.1.113883.4.4","value":"21-3259825"}],"active":true,"type":[{"coding":[{"system":"http://terminology.hl7.org/CodeSystem/organization-type","code":"pay","display":"Payer"}]}],"name":"Blue Cross Blue Shield of Texas","telecom":[{"system":"phone","value":"(+1) 972-766-6900"}],"address":[{"use":"billing","type":"postal","line":["P.O. Box 660044"],"city":"Dallas","state":"TX","postalCode":"75266-0044","country":"USA"}]},"request":{"method":"PUT","url":"Organization/607fdef9-3983-4cef-ab1a-95434d29b463"}},{"fullUrl":"https://madie.cms.gov/Practitioner/e4c1b3af-caef-4e93-abf5-f4a57939c11c","resource":{"resourceType":"Practitioner","id":"e4c1b3af-caef-4e93-abf5-f4a57939c11c","identifier":[{"system":"http://hl7.org/fhir/sid/us-npi","value":"123456"}],"name":[{"family":"Evil","prefix":["Dr"]}]},"request":{"method":"PUT","url":"Practitioner/e4c1b3af-caef-4e93-abf5-f4a57939c11c"}},{"fullUrl":"https://madie.cms.gov/MeasureReport/711aa056-160a-493b-8d6b-5dcf479fa724","resource":{"resourceType":"MeasureReport","id":"711aa056-160a-493b-8d6b-5dcf479fa724","meta":{"profile":["http://hl7.org/fhir/us/cqfmeasures/StructureDefinition/test-case-cqfm"]},"contained":[{"resourceType":"Parameters","id":"c5b689c8-dbd5-4e47-932d-ab9300014d7d-parameters","parameter":[{"name":"subject","valueString":"8f3e1bc6-45ca-40ae-9e33-e9d97c6df55f"}]}],"extension":[{"url":"http://hl7.org/fhir/us/cqfmeasures/StructureDefinition/cqfm-inputParameters","valueReference":{"reference":"#c5b689c8-dbd5-4e47-932d-ab9300014d7d-parameters"}},{"url":"http://hl7.org/fhir/us/cqfmeasures/StructureDefinition/cqfm-testCaseDescription","valueMarkdown":"\"Preterm Births missing result,   rel date/time < 42weeks prior to asse delivery\nTerm Newborn=0, rel date/time < 42weeks prior to Asse delivery\"\n"}],"modifierExtension":[{"url":"http://hl7.org/fhir/us/cqfmeasures/StructureDefinition/cqfm-isTestCase","valueBoolean":true}],"status":"complete","type":"individual","measure":"https://madie.cms.gov/Measure/CMS334FHIRPCCesareanBirth","period":{"start":"2026-01-01","end":"2026-12-31"},"group":[{"population":[{"code":{"coding":[{"system":"http://terminology.hl7.org/CodeSystem/measure-population","code":"initial-population","display":"Initial Population"}]},"count":1},{"code":{"coding":[{"system":"http://terminology.hl7.org/CodeSystem/measure-population","code":"denominator","display":"Denominator"}]},"count":0},{"code":{"coding":[{"system":"http://terminology.hl7.org/CodeSystem/measure-population","code":"denominator-exclusion","display":"Denominator Exclusion"}]},"count":0},{"code":{"coding":[{"system":"http://terminology.hl7.org/CodeSystem/measure-population","code":"numerator","display":"Numerator"}]},"count":0}]}]},"request":{"method":"PUT","url":"MeasureReport/711aa056-160a-493b-8d6b-5dcf479fa724"}}]}