{"resourceType":"Bundle","id":"tests-6131e62d-2869-4814-9060-4442dbcdc7be-bundle","type":"transaction","entry":[{"fullUrl":"https://madie.cms.gov/Patient/6131e62d-2869-4814-9060-4442dbcdc7be","resource":{"resourceType":"Patient","id":"6131e62d-2869-4814-9060-4442dbcdc7be","meta":{"profile":["http://hl7.org/fhir/us/qicore/StructureDefinition/qicore-patient"]},"text":{"status":"generated","div":"<div xmlns=\"http://www.w3.org/1999/xhtml\"><div class=\"hapiHeaderText\">AssessPerfAbnPresRelvtPeriodAFTimeOfDeliv_DuringEnc <b>DENEXFAIL </b></div><table class=\"hapiPropertyTable\"><tbody><tr><td>Identifier</td><td>db09244543fe550232b604cb7d87decbeb851047882e641e3fe736fdce398a0a</td></tr><tr><td>Date of birth</td><td><span>14 February 1985</span></td></tr></tbody></table></div>"},"extension":[{"url":"http://hl7.org/fhir/us/core/StructureDefinition/us-core-race","extension":[{"url":"ombCategory","valueCoding":{"system":"urn:oid:2.16.840.1.113883.6.238","code":"1002-5","display":"American Indian or Alaska Native","userSelected":true}},{"url":"text","valueString":"American Indian or Alaska Native"}]},{"url":"http://hl7.org/fhir/us/core/StructureDefinition/us-core-ethnicity","extension":[{"url":"ombCategory","valueCoding":{"system":"urn:oid:2.16.840.1.113883.6.238","code":"2135-2","display":"Hispanic or Latino","userSelected":true}},{"url":"text","valueString":"Hispanic or Latino"}]}],"identifier":[{"type":{"coding":[{"system":"http://terminology.hl7.org/CodeSystem/v2-0203","code":"MR"}]},"system":"https://bonnie-fhir.healthit.gov/","value":"63487c300968f801225401d0"}],"active":true,"name":[{"use":"usual","family":"DENEXFail","given":["AssessPerfAbnPresRelvtPeriodAFTimeOfDeliv_DuringEnc"]}],"gender":"female","birthDate":"1998-02-14"},"request":{"method":"PUT","url":"Patient/6131e62d-2869-4814-9060-4442dbcdc7be"}},{"fullUrl":"https://madie.cms.gov/Observation/40225727-b4d8-434b-b89c-77a91d3f7cca","resource":{"resourceType":"Observation","id":"40225727-b4d8-434b-b89c-77a91d3f7cca","meta":{"profile":["http://hl7.org/fhir/us/qicore/StructureDefinition/qicore-observation"]},"status":"final","category":[{"coding":[{"system":"http://terminology.hl7.org/CodeSystem/observation-category","code":"exam","display":"exam","userSelected":true}]}],"code":{"coding":[{"system":"http://loinc.org","code":"11996-6"}]},"subject":{"reference":"Patient/6131e62d-2869-4814-9060-4442dbcdc7be"},"effectiveDateTime":"2026-06-08T08:00:00.000+00:00","valueInteger":1},"request":{"method":"PUT","url":"Observation/40225727-b4d8-434b-b89c-77a91d3f7cca"}},{"fullUrl":"https://madie.cms.gov/Observation/8d56a897-a178-42ff-baa1-efcb461b1866","resource":{"resourceType":"Observation","id":"8d56a897-a178-42ff-baa1-efcb461b1866","meta":{"profile":["http://hl7.org/fhir/us/qicore/StructureDefinition/qicore-observation"]},"status":"final","category":[{"coding":[{"system":"http://terminology.hl7.org/CodeSystem/observation-category","code":"exam","display":"exam","userSelected":true}]}],"code":{"coding":[{"system":"http://loinc.org","code":"11884-4"}]},"subject":{"reference":"Patient/6131e62d-2869-4814-9060-4442dbcdc7be"},"effectiveDateTime":"2026-06-08T08:00:00.000+00:00","valueQuantity":{"value":43,"system":"http://unitsofmeasure.org","code":"wk"}},"request":{"method":"PUT","url":"Observation/8d56a897-a178-42ff-baa1-efcb461b1866"}},{"fullUrl":"https://madie.cms.gov/Observation/dd5bf623-c165-4a11-9d74-557a39b10f0b","resource":{"resourceType":"Observation","id":"dd5bf623-c165-4a11-9d74-557a39b10f0b","meta":{"profile":["http://hl7.org/fhir/us/qicore/StructureDefinition/qicore-observation"]},"status":"final","category":[{"coding":[{"system":"http://terminology.hl7.org/CodeSystem/observation-category","code":"exam","display":"exam","userSelected":true}]}],"code":{"coding":[{"system":"http://loinc.org","code":"93857-1"}]},"subject":{"reference":"Patient/6131e62d-2869-4814-9060-4442dbcdc7be"},"effectiveDateTime":"2026-06-08T20:30:00.000+00:00","valueDateTime":"2026-06-08T08:30:00+00:00"},"request":{"method":"PUT","url":"Observation/dd5bf623-c165-4a11-9d74-557a39b10f0b"}},{"fullUrl":"https://madie.cms.gov/Observation/78f55d69-123a-418c-8da5-74e6ad98d516","resource":{"resourceType":"Observation","id":"78f55d69-123a-418c-8da5-74e6ad98d516","meta":{"profile":["http://hl7.org/fhir/us/qicore/StructureDefinition/qicore-observation"]},"status":"final","category":[{"coding":[{"system":"http://terminology.hl7.org/CodeSystem/observation-category","code":"exam","display":"exam","userSelected":true}]}],"code":{"coding":[{"system":"http://snomed.info/sct","code":"18559007"}]},"subject":{"reference":"Patient/6131e62d-2869-4814-9060-4442dbcdc7be"},"effectivePeriod":{"start":"2026-06-08T08:35:00.000Z","end":"2026-06-08T08:35:00.000Z"}},"request":{"method":"PUT","url":"Observation/78f55d69-123a-418c-8da5-74e6ad98d516"}},{"fullUrl":"https://madie.cms.gov/Encounter/99cfea63-1be9-428d-90a8-cedee7affa71","resource":{"resourceType":"Encounter","id":"99cfea63-1be9-428d-90a8-cedee7affa71","meta":{"profile":["http://hl7.org/fhir/us/qicore/StructureDefinition/qicore-encounter"]},"status":"finished","class":{"system":"http://terminology.hl7.org/CodeSystem/v3-ActCode","code":"IMP","display":"inpatient encounter"},"type":[{"coding":[{"system":"http://snomed.info/sct","code":"8715000"}]}],"subject":{"reference":"Patient/6131e62d-2869-4814-9060-4442dbcdc7be"},"period":{"start":"2026-06-08T08:00:00.000Z","end":"2026-06-10T08:15:00.000Z"},"diagnosis":[{"condition":{"reference":"Condition/ec8681c4-e76d-4ba8-910d-fd647cfe3ffd"}}]},"request":{"method":"PUT","url":"Encounter/99cfea63-1be9-428d-90a8-cedee7affa71"}},{"fullUrl":"https://madie.cms.gov/Procedure/c18495b6-fd61-470b-a31a-b008bebf2753","resource":{"resourceType":"Procedure","id":"c18495b6-fd61-470b-a31a-b008bebf2753","meta":{"profile":["http://hl7.org/fhir/us/qicore/StructureDefinition/qicore-procedure"]},"extension":[{"url":"http://hl7.org/fhir/us/qicore/StructureDefinition/qicore-recorded","valueDateTime":"2014-04-05T09:35:00-04:00"}],"status":"completed","code":{"coding":[{"system":"http://snomed.info/sct","code":"4504004"}]},"subject":{"reference":"Patient/6131e62d-2869-4814-9060-4442dbcdc7be"},"performedPeriod":{"start":"2026-06-08T20:00:00.000Z","end":"2026-06-18T20:00:00.000Z"}},"request":{"method":"PUT","url":"Procedure/c18495b6-fd61-470b-a31a-b008bebf2753"}},{"fullUrl":"https://madie.cms.gov/Condition/ec8681c4-e76d-4ba8-910d-fd647cfe3ffd","resource":{"resourceType":"Condition","id":"ec8681c4-e76d-4ba8-910d-fd647cfe3ffd","meta":{"profile":["http://hl7.org/fhir/us/qicore/StructureDefinition/qicore-condition"]},"category":[{"coding":[{"system":"http://terminology.hl7.org/CodeSystem/condition-category","code":"encounter-diagnosis","display":"Encounter Diagnosis"}]}],"code":{"coding":[{"system":"http://snomed.info/sct","version":"2022-09","code":"169826009","display":"Single live birth (finding)","userSelected":true}]},"subject":{"reference":"Patient/6131e62d-2869-4814-9060-4442dbcdc7be"},"recordedDate":"2026-10-17T08:00:00.000+00:00"},"request":{"method":"PUT","url":"Condition/ec8681c4-e76d-4ba8-910d-fd647cfe3ffd"}},{"fullUrl":"https://madie.cms.gov/Coverage/2745ecd8-5d00-4d07-90a2-a738426a052e","resource":{"resourceType":"Coverage","id":"2745ecd8-5d00-4d07-90a2-a738426a052e","meta":{"profile":["http://hl7.org/fhir/us/qicore/StructureDefinition/qicore-coverage"]},"status":"active","beneficiary":{"reference":"Patient/6131e62d-2869-4814-9060-4442dbcdc7be"},"payor":[{"reference":"Organization/607fdef9-3983-4cef-ab1a-95434d29b463"}]},"request":{"method":"PUT","url":"Coverage/2745ecd8-5d00-4d07-90a2-a738426a052e"}},{"fullUrl":"https://madie.cms.gov/Organization/a12dc1d4-214d-4f5a-9b16-41b3c52e9a16","resource":{"resourceType":"Organization","id":"607fdef9-3983-4cef-ab1a-95434d29b463","meta":{"profile":["http://hl7.org/fhir/us/qicore/StructureDefinition/qicore-organization"]},"identifier":[{"use":"temp","system":"urn:oid:2.16.840.1.113883.4.4","value":"21-3259825"}],"active":true,"type":[{"coding":[{"system":"http://terminology.hl7.org/CodeSystem/organization-type","code":"pay","display":"Payer"}]}],"name":"Blue Cross Blue Shield of Texas","telecom":[{"system":"phone","value":"(+1) 972-766-6900"}],"address":[{"use":"billing","type":"postal","line":["P.O. Box 660044"],"city":"Dallas","state":"TX","postalCode":"75266-0044","country":"USA"}]},"request":{"method":"PUT","url":"Organization/607fdef9-3983-4cef-ab1a-95434d29b463"}},{"fullUrl":"https://madie.cms.gov/Practitioner/e9a04c1c-b61e-43c5-a27a-d7ca9e2a2f19","resource":{"resourceType":"Practitioner","id":"e9a04c1c-b61e-43c5-a27a-d7ca9e2a2f19","identifier":[{"system":"http://hl7.org/fhir/sid/us-npi","value":"123456"}],"name":[{"family":"Evil","prefix":["Dr"]}]},"request":{"method":"PUT","url":"Practitioner/e9a04c1c-b61e-43c5-a27a-d7ca9e2a2f19"}},{"fullUrl":"https://madie.cms.gov/MeasureReport/39879b49-2b25-4c91-a41e-602ac0605668","resource":{"resourceType":"MeasureReport","id":"39879b49-2b25-4c91-a41e-602ac0605668","meta":{"profile":["http://hl7.org/fhir/us/cqfmeasures/StructureDefinition/test-case-cqfm"]},"contained":[{"resourceType":"Parameters","id":"84818729-7473-47fe-b660-b905697901fe-parameters","parameter":[{"name":"subject","valueString":"6131e62d-2869-4814-9060-4442dbcdc7be"}]}],"extension":[{"url":"http://hl7.org/fhir/us/cqfmeasures/StructureDefinition/cqfm-inputParameters","valueReference":{"reference":"#84818729-7473-47fe-b660-b905697901fe-parameters"}},{"url":"http://hl7.org/fhir/us/cqfmeasures/StructureDefinition/cqfm-testCaseDescription","valueMarkdown":"EGA 43 weeks; Failed DenExcl because Assessment performed Abnormal presentation relevant Period after time of delivery and during Enc \n"}],"modifierExtension":[{"url":"http://hl7.org/fhir/us/cqfmeasures/StructureDefinition/cqfm-isTestCase","valueBoolean":true}],"status":"complete","type":"individual","measure":"https://madie.cms.gov/Measure/CMS334FHIRPCCesareanBirth","period":{"start":"2026-01-01","end":"2026-12-31"},"group":[{"population":[{"code":{"coding":[{"system":"http://terminology.hl7.org/CodeSystem/measure-population","code":"initial-population","display":"Initial Population"}]},"count":1},{"code":{"coding":[{"system":"http://terminology.hl7.org/CodeSystem/measure-population","code":"denominator","display":"Denominator"}]},"count":1},{"code":{"coding":[{"system":"http://terminology.hl7.org/CodeSystem/measure-population","code":"denominator-exclusion","display":"Denominator Exclusion"}]},"count":0},{"code":{"coding":[{"system":"http://terminology.hl7.org/CodeSystem/measure-population","code":"numerator","display":"Numerator"}]},"count":0}]}]},"request":{"method":"PUT","url":"MeasureReport/39879b49-2b25-4c91-a41e-602ac0605668"}}]}