{"resourceType":"Bundle","id":"tests-9f57cf87-16db-42df-90fc-10b68d59c9af-bundle","type":"transaction","entry":[{"fullUrl":"https://madie.cms.gov/Patient/9f57cf87-16db-42df-90fc-10b68d59c9af","resource":{"resourceType":"Patient","id":"9f57cf87-16db-42df-90fc-10b68d59c9af","meta":{"profile":["http://hl7.org/fhir/us/qicore/StructureDefinition/qicore-patient"]},"text":{"status":"generated","div":"<div xmlns=\"http://www.w3.org/1999/xhtml\"><div class=\"hapiHeaderText\">AssessG2 <b>DENFAIL </b></div><table class=\"hapiPropertyTable\"><tbody><tr><td>Identifier</td><td>6f0356902024199e6d960c23a612f7378959e827eecb2b03b3a499369c8970e4</td></tr><tr><td>Date of birth</td><td><span>14 February 1985</span></td></tr></tbody></table></div>"},"extension":[{"url":"http://hl7.org/fhir/us/core/StructureDefinition/us-core-race","extension":[{"url":"ombCategory","valueCoding":{"system":"urn:oid:2.16.840.1.113883.6.238","code":"1002-5","display":"American Indian or Alaska Native","userSelected":true}},{"url":"text","valueString":"American Indian or Alaska Native"}]},{"url":"http://hl7.org/fhir/us/core/StructureDefinition/us-core-ethnicity","extension":[{"url":"ombCategory","valueCoding":{"system":"urn:oid:2.16.840.1.113883.6.238","code":"2135-2","display":"Hispanic or Latino","userSelected":true}},{"url":"text","valueString":"Hispanic or Latino"}]}],"identifier":[{"type":{"coding":[{"system":"http://terminology.hl7.org/CodeSystem/v2-0203","code":"MR"}]},"system":"https://bonnie-fhir.healthit.gov/","value":"63487c2e0968f8012254016b"}],"active":true,"name":[{"use":"usual","family":"DENFail","given":["AssessG2"]}],"gender":"female","birthDate":"1998-02-14"},"request":{"method":"PUT","url":"Patient/9f57cf87-16db-42df-90fc-10b68d59c9af"}},{"fullUrl":"https://madie.cms.gov/Observation/1e2f7225-5722-4dae-a789-8d173d794cc8","resource":{"resourceType":"Observation","id":"1e2f7225-5722-4dae-a789-8d173d794cc8","meta":{"profile":["http://hl7.org/fhir/us/qicore/StructureDefinition/qicore-observation"]},"status":"final","category":[{"coding":[{"system":"http://terminology.hl7.org/CodeSystem/observation-category","code":"exam","display":"exam","userSelected":true}]}],"code":{"coding":[{"system":"http://loinc.org","code":"11977-6"}]},"subject":{"reference":"Patient/9f57cf87-16db-42df-90fc-10b68d59c9af"},"effectiveDateTime":"2026-03-08T09:00:00.000+00:00"},"request":{"method":"PUT","url":"Observation/1e2f7225-5722-4dae-a789-8d173d794cc8"}},{"fullUrl":"https://madie.cms.gov/Observation/1f5a3b0e-b8b2-4edf-abfe-00f09003088d","resource":{"resourceType":"Observation","id":"1f5a3b0e-b8b2-4edf-abfe-00f09003088d","meta":{"profile":["http://hl7.org/fhir/us/qicore/StructureDefinition/qicore-observation"]},"status":"final","category":[{"coding":[{"system":"http://terminology.hl7.org/CodeSystem/observation-category","code":"exam","display":"exam","userSelected":true}]}],"code":{"coding":[{"system":"http://loinc.org","code":"11996-6"}]},"subject":{"reference":"Patient/9f57cf87-16db-42df-90fc-10b68d59c9af"},"effectiveDateTime":"2026-03-09T08:00:00.000+00:00","valueInteger":2},"request":{"method":"PUT","url":"Observation/1f5a3b0e-b8b2-4edf-abfe-00f09003088d"}},{"fullUrl":"https://madie.cms.gov/Observation/b9a8e29c-bbc8-4b6e-a95e-8db3b1cc821c","resource":{"resourceType":"Observation","id":"b9a8e29c-bbc8-4b6e-a95e-8db3b1cc821c","meta":{"profile":["http://hl7.org/fhir/us/qicore/StructureDefinition/qicore-observation"]},"status":"final","category":[{"coding":[{"system":"http://terminology.hl7.org/CodeSystem/observation-category","code":"exam","display":"exam","userSelected":true}]}],"code":{"coding":[{"system":"http://loinc.org","code":"11884-4"}]},"subject":{"reference":"Patient/9f57cf87-16db-42df-90fc-10b68d59c9af"},"effectiveDateTime":"2026-06-08T20:00:00.000+00:00","valueQuantity":{"value":37,"system":"http://unitsofmeasure.org","code":"wk"}},"request":{"method":"PUT","url":"Observation/b9a8e29c-bbc8-4b6e-a95e-8db3b1cc821c"}},{"fullUrl":"https://madie.cms.gov/Observation/eb84d4fd-ef95-48f9-92cc-05b61c3e7715","resource":{"resourceType":"Observation","id":"eb84d4fd-ef95-48f9-92cc-05b61c3e7715","meta":{"profile":["http://hl7.org/fhir/us/qicore/StructureDefinition/qicore-observation"]},"status":"final","category":[{"coding":[{"system":"http://terminology.hl7.org/CodeSystem/observation-category","code":"exam","display":"exam","userSelected":true}]}],"code":{"coding":[{"system":"http://loinc.org","code":"93857-1"}]},"subject":{"reference":"Patient/9f57cf87-16db-42df-90fc-10b68d59c9af"},"effectiveDateTime":"2026-06-08T20:00:00.000+00:00","valueDateTime":"2026-06-08T20:00:00+00:00"},"request":{"method":"PUT","url":"Observation/eb84d4fd-ef95-48f9-92cc-05b61c3e7715"}},{"fullUrl":"https://madie.cms.gov/Encounter/5efc5d65-5392-4b95-9d9a-bf04eebd2f64","resource":{"resourceType":"Encounter","id":"5efc5d65-5392-4b95-9d9a-bf04eebd2f64","meta":{"profile":["http://hl7.org/fhir/us/qicore/StructureDefinition/qicore-encounter"]},"status":"finished","class":{"system":"http://terminology.hl7.org/CodeSystem/v3-ActCode","code":"IMP","display":"inpatient encounter"},"type":[{"coding":[{"system":"http://snomed.info/sct","code":"8715000"}]}],"subject":{"reference":"Patient/9f57cf87-16db-42df-90fc-10b68d59c9af"},"period":{"start":"2026-06-08T08:00:00.000Z","end":"2026-06-10T08:15:00.000Z"},"length":{"value":2,"unit":"days"},"diagnosis":[{"condition":{"reference":"Condition/2a688872-bd81-4566-b9e4-9a21c3b6fbe4"},"use":{"coding":[{"system":"http://snomed.info/sct","code":"169826009","display":"Delivery of Singleton"}]}}]},"request":{"method":"PUT","url":"Encounter/5efc5d65-5392-4b95-9d9a-bf04eebd2f64"}},{"fullUrl":"https://madie.cms.gov/Procedure/b264500f-8696-4dd5-bc8d-883b65216a28","resource":{"resourceType":"Procedure","id":"b264500f-8696-4dd5-bc8d-883b65216a28","meta":{"profile":["http://hl7.org/fhir/us/qicore/StructureDefinition/qicore-procedure"]},"extension":[{"url":"http://hl7.org/fhir/us/qicore/StructureDefinition/qicore-recorded","valueDateTime":"2014-04-05T09:35:00-04:00"}],"status":"completed","code":{"coding":[{"system":"http://www.cms.gov/Medicare/Coding/ICD10","code":"10D00Z0"},{"system":"http://snomed.info/sct","code":"4504004"}]},"subject":{"reference":"Patient/9f57cf87-16db-42df-90fc-10b68d59c9af"},"performedPeriod":{"start":"2026-06-08T20:00:00.000Z","end":"2026-06-08T20:15:00.000Z"}},"request":{"method":"PUT","url":"Procedure/b264500f-8696-4dd5-bc8d-883b65216a28"}},{"fullUrl":"https://madie.cms.gov/Coverage/62785df5-64ab-4c2d-b854-6e6c77a15ddf","resource":{"resourceType":"Coverage","id":"62785df5-64ab-4c2d-b854-6e6c77a15ddf","meta":{"profile":["http://hl7.org/fhir/us/qicore/StructureDefinition/qicore-coverage"]},"status":"active","beneficiary":{"reference":"Patient/9f57cf87-16db-42df-90fc-10b68d59c9af"},"payor":[{"reference":"Organization/f4907415-83c5-4eae-ab0b-cb63a840880d"}]},"request":{"method":"PUT","url":"Coverage/62785df5-64ab-4c2d-b854-6e6c77a15ddf"}},{"fullUrl":"https://madie.cms.gov/Organization/fb23dfdf-176e-4687-a070-5c7ddb9b9302","resource":{"resourceType":"Organization","id":"f4907415-83c5-4eae-ab0b-cb63a840880d","meta":{"profile":["http://hl7.org/fhir/us/qicore/StructureDefinition/qicore-organization"]},"identifier":[{"use":"temp","system":"urn:oid:2.16.840.1.113883.4.4","value":"21-3259825"}],"active":true,"type":[{"coding":[{"system":"http://terminology.hl7.org/CodeSystem/organization-type","code":"pay","display":"Payer"}]}],"name":"Blue Cross Blue Shield of Texas","telecom":[{"system":"phone","value":"(+1) 972-766-6900"}],"address":[{"use":"billing","type":"postal","line":["P.O. Box 660044"],"city":"Dallas","state":"TX","postalCode":"75266-0044","country":"USA"}]},"request":{"method":"PUT","url":"Organization/f4907415-83c5-4eae-ab0b-cb63a840880d"}},{"fullUrl":"https://madie.cms.gov/Condition/2a688872-bd81-4566-b9e4-9a21c3b6fbe4","resource":{"resourceType":"Condition","id":"2a688872-bd81-4566-b9e4-9a21c3b6fbe4","meta":{"profile":["http://hl7.org/fhir/us/qicore/StructureDefinition/qicore-condition"]},"category":[{"coding":[{"system":"http://terminology.hl7.org/CodeSystem/condition-category","code":"encounter-diagnosis","display":"Encounter Diagnosis"}]}],"code":{"coding":[{"system":"http://snomed.info/sct","code":"169826009","display":"Single live birth (finding)"}]},"subject":{"reference":"Patient/9f57cf87-16db-42df-90fc-10b68d59c9af"}},"request":{"method":"PUT","url":"Condition/2a688872-bd81-4566-b9e4-9a21c3b6fbe4"}},{"fullUrl":"https://madie.cms.gov/Practitioner/3b21f490-0dfe-47c5-9440-75159b44c438","resource":{"resourceType":"Practitioner","id":"3b21f490-0dfe-47c5-9440-75159b44c438","identifier":[{"system":"http://hl7.org/fhir/sid/us-npi","value":"123456"}],"name":[{"family":"Evil","prefix":["Dr"]}]},"request":{"method":"PUT","url":"Practitioner/3b21f490-0dfe-47c5-9440-75159b44c438"}},{"fullUrl":"https://madie.cms.gov/MeasureReport/ec274ca1-ffb5-44cf-91ea-354dc7aa329a","resource":{"resourceType":"MeasureReport","id":"ec274ca1-ffb5-44cf-91ea-354dc7aa329a","meta":{"profile":["http://hl7.org/fhir/us/cqfmeasures/StructureDefinition/test-case-cqfm"]},"contained":[{"resourceType":"Parameters","id":"b62f4dfc-8e23-4240-87eb-048b4eef7950-parameters","parameter":[{"name":"subject","valueString":"9f57cf87-16db-42df-90fc-10b68d59c9af"}]}],"extension":[{"url":"http://hl7.org/fhir/us/cqfmeasures/StructureDefinition/cqfm-inputParameters","valueReference":{"reference":"#b62f4dfc-8e23-4240-87eb-048b4eef7950-parameters"}},{"url":"http://hl7.org/fhir/us/cqfmeasures/StructureDefinition/cqfm-testCaseDescription","valueMarkdown":"Passes IP,   Gravida 2, Parity has no result. *Note: if change to P0 will then pass even tho G2*\n"}],"modifierExtension":[{"url":"http://hl7.org/fhir/us/cqfmeasures/StructureDefinition/cqfm-isTestCase","valueBoolean":true}],"status":"complete","type":"individual","measure":"https://madie.cms.gov/Measure/CMS334FHIRPCCesareanBirth","period":{"start":"2026-01-01","end":"2026-12-31"},"group":[{"population":[{"code":{"coding":[{"system":"http://terminology.hl7.org/CodeSystem/measure-population","code":"initial-population","display":"Initial Population"}]},"count":1},{"code":{"coding":[{"system":"http://terminology.hl7.org/CodeSystem/measure-population","code":"denominator","display":"Denominator"}]},"count":0},{"code":{"coding":[{"system":"http://terminology.hl7.org/CodeSystem/measure-population","code":"denominator-exclusion","display":"Denominator Exclusion"}]},"count":0},{"code":{"coding":[{"system":"http://terminology.hl7.org/CodeSystem/measure-population","code":"numerator","display":"Numerator"}]},"count":0}]}]},"request":{"method":"PUT","url":"MeasureReport/ec274ca1-ffb5-44cf-91ea-354dc7aa329a"}}]}