{"resourceType":"Bundle","id":"tests-deba38c2-7841-4133-a2e6-981e9095d19c-bundle","type":"transaction","entry":[{"fullUrl":"https://madie.cms.gov/Patient/deba38c2-7841-4133-a2e6-981e9095d19c","resource":{"resourceType":"Patient","id":"deba38c2-7841-4133-a2e6-981e9095d19c","meta":{"profile":["http://hl7.org/fhir/us/qicore/StructureDefinition/qicore-patient"]},"text":{"status":"generated","div":"<div xmlns=\"http://www.w3.org/1999/xhtml\"><div class=\"hapiHeaderText\">AssessPreTerm0RelDtTimeB4TimeOfDeliv <b>DENPASS </b></div><table class=\"hapiPropertyTable\"><tbody><tr><td>Identifier</td><td>68ae6e24f0fface97c058e998841dc5fd1e621f11f5d5bc2aeef1a3a248ebc14</td></tr><tr><td>Date of birth</td><td><span>14 February 1985</span></td></tr></tbody></table></div>"},"extension":[{"url":"http://hl7.org/fhir/us/core/StructureDefinition/us-core-race","extension":[{"url":"ombCategory","valueCoding":{"system":"urn:oid:2.16.840.1.113883.6.238","code":"1002-5","display":"American Indian or Alaska Native","userSelected":true}},{"url":"text","valueString":"American Indian or Alaska Native"}]},{"url":"http://hl7.org/fhir/us/core/StructureDefinition/us-core-ethnicity","extension":[{"url":"ombCategory","valueCoding":{"system":"urn:oid:2.16.840.1.113883.6.238","code":"2135-2","display":"Hispanic or Latino","userSelected":true}},{"url":"text","valueString":"Hispanic or Latino"}]}],"identifier":[{"type":{"coding":[{"system":"http://terminology.hl7.org/CodeSystem/v2-0203","code":"MR"}]},"system":"https://bonnie-fhir.healthit.gov/","value":"63487c2d0968f80122540157"}],"active":true,"name":[{"use":"usual","family":"DENPass","given":["AssessPreTerm0RelDtTimeB4TimeOfDeliv"]}],"gender":"female","birthDate":"1998-02-14"},"request":{"method":"PUT","url":"Patient/deba38c2-7841-4133-a2e6-981e9095d19c"}},{"fullUrl":"https://madie.cms.gov/Observation/957d8593-0a8e-476f-8b37-b9db2971a7b2","resource":{"resourceType":"Observation","id":"957d8593-0a8e-476f-8b37-b9db2971a7b2","meta":{"profile":["http://hl7.org/fhir/us/qicore/StructureDefinition/qicore-observation"]},"status":"final","category":[{"coding":[{"system":"http://terminology.hl7.org/CodeSystem/observation-category","code":"exam","display":"exam","userSelected":true}]}],"code":{"coding":[{"system":"http://loinc.org","code":"11639-2"}]},"subject":{"reference":"Patient/deba38c2-7841-4133-a2e6-981e9095d19c"},"effectiveDateTime":"2025-09-19T09:00:00.000+00:00","valueInteger":0},"request":{"method":"PUT","url":"Observation/957d8593-0a8e-476f-8b37-b9db2971a7b2"}},{"fullUrl":"https://madie.cms.gov/Observation/b4e9796f-8874-4468-a3b0-799e32551775","resource":{"resourceType":"Observation","id":"b4e9796f-8874-4468-a3b0-799e32551775","meta":{"profile":["http://hl7.org/fhir/us/qicore/StructureDefinition/qicore-observation"]},"status":"final","category":[{"coding":[{"system":"http://terminology.hl7.org/CodeSystem/observation-category","code":"exam","display":"exam","userSelected":true}]}],"code":{"coding":[{"system":"http://loinc.org","code":"11637-6"}]},"subject":{"reference":"Patient/deba38c2-7841-4133-a2e6-981e9095d19c"},"effectiveDateTime":"2026-06-08T09:00:00.000+00:00","valueInteger":0},"request":{"method":"PUT","url":"Observation/b4e9796f-8874-4468-a3b0-799e32551775"}},{"fullUrl":"https://madie.cms.gov/Observation/a05bb076-316f-4dec-8595-d65c99e12644","resource":{"resourceType":"Observation","id":"a05bb076-316f-4dec-8595-d65c99e12644","meta":{"profile":["http://hl7.org/fhir/us/qicore/StructureDefinition/qicore-observation"]},"status":"final","category":[{"coding":[{"system":"http://terminology.hl7.org/CodeSystem/observation-category","code":"exam","display":"exam","userSelected":true}]}],"code":{"coding":[{"system":"http://loinc.org","code":"11884-4"}]},"subject":{"reference":"Patient/deba38c2-7841-4133-a2e6-981e9095d19c"},"effectiveDateTime":"2026-06-08T20:00:00.000+00:00","valueQuantity":{"value":37,"system":"http://unitsofmeasure.org","code":"wk"}},"request":{"method":"PUT","url":"Observation/a05bb076-316f-4dec-8595-d65c99e12644"}},{"fullUrl":"https://madie.cms.gov/Observation/c8931bf7-32ff-4501-ac4d-813a10f57b97","resource":{"resourceType":"Observation","id":"c8931bf7-32ff-4501-ac4d-813a10f57b97","meta":{"profile":["http://hl7.org/fhir/us/qicore/StructureDefinition/qicore-observation"]},"status":"final","category":[{"coding":[{"system":"http://terminology.hl7.org/CodeSystem/observation-category","code":"exam","display":"exam","userSelected":true}]}],"code":{"coding":[{"system":"http://loinc.org","code":"93857-1"}]},"subject":{"reference":"Patient/deba38c2-7841-4133-a2e6-981e9095d19c"},"effectiveDateTime":"2026-06-08T20:00:00.000+00:00","valueDateTime":"2026-06-08T20:00:00+00:00"},"request":{"method":"PUT","url":"Observation/c8931bf7-32ff-4501-ac4d-813a10f57b97"}},{"fullUrl":"https://madie.cms.gov/Encounter/c3b022f0-7842-47f1-8849-8d4b1be226fe","resource":{"resourceType":"Encounter","id":"c3b022f0-7842-47f1-8849-8d4b1be226fe","meta":{"profile":["http://hl7.org/fhir/us/qicore/StructureDefinition/qicore-encounter"]},"status":"finished","class":{"system":"http://terminology.hl7.org/CodeSystem/v3-ActCode","code":"IMP","display":"inpatient encounter"},"type":[{"coding":[{"system":"http://snomed.info/sct","code":"8715000"}]}],"subject":{"reference":"Patient/deba38c2-7841-4133-a2e6-981e9095d19c"},"period":{"start":"2026-06-08T08:00:00.000Z","end":"2026-06-10T08:15:00.000Z"},"length":{"value":2,"unit":"days"},"diagnosis":[{"condition":{"reference":"Condition/delivery-of-singleton-f83c"},"use":{"coding":[{"system":"http://snomed.info/sct","code":"169826009","display":"Delivery of Singleton"}]}},{"condition":{"reference":"Condition/1651297b-bf5c-4a70-bd50-679cd0e4a2ab"}}]},"request":{"method":"PUT","url":"Encounter/c3b022f0-7842-47f1-8849-8d4b1be226fe"}},{"fullUrl":"https://madie.cms.gov/Procedure/bb1fb1c5-9486-45e1-9bff-37fa56bb36ce","resource":{"resourceType":"Procedure","id":"bb1fb1c5-9486-45e1-9bff-37fa56bb36ce","meta":{"profile":["http://hl7.org/fhir/us/qicore/StructureDefinition/qicore-procedure"]},"extension":[{"url":"http://hl7.org/fhir/us/qicore/StructureDefinition/qicore-recorded","valueDateTime":"2014-04-05T09:35:00-04:00"}],"status":"completed","code":{"coding":[{"system":"http://www.cms.gov/Medicare/Coding/ICD10","code":"10D00Z0"},{"system":"http://snomed.info/sct","code":"4504004"},{"system":"http://www.icd10data.com/icd10pcs","code":"10D00Z1","userSelected":true}]},"subject":{"reference":"Patient/deba38c2-7841-4133-a2e6-981e9095d19c"},"performedPeriod":{"start":"2026-06-08T20:00:00.000Z","end":"2026-06-08T20:15:00.000Z"}},"request":{"method":"PUT","url":"Procedure/bb1fb1c5-9486-45e1-9bff-37fa56bb36ce"}},{"fullUrl":"https://madie.cms.gov/Condition/1651297b-bf5c-4a70-bd50-679cd0e4a2ab","resource":{"resourceType":"Condition","id":"1651297b-bf5c-4a70-bd50-679cd0e4a2ab","meta":{"profile":["http://hl7.org/fhir/us/qicore/StructureDefinition/qicore-condition"]},"category":[{"coding":[{"system":"http://terminology.hl7.org/CodeSystem/condition-category","code":"encounter-diagnosis","display":"Encounter Diagnosis"}]}],"code":{"coding":[{"system":"http://snomed.info/sct","version":"2022-09","code":"169826009","display":"Single live birth (finding)","userSelected":true}]},"subject":{"reference":"Patient/deba38c2-7841-4133-a2e6-981e9095d19c"},"recordedDate":"2026-10-20T08:00:00.000+00:00"},"request":{"method":"PUT","url":"Condition/1651297b-bf5c-4a70-bd50-679cd0e4a2ab"}},{"fullUrl":"https://madie.cms.gov/Coverage/78e6737d-785f-4e1c-9f40-807c2995bf48","resource":{"resourceType":"Coverage","id":"78e6737d-785f-4e1c-9f40-807c2995bf48","meta":{"profile":["http://hl7.org/fhir/us/qicore/StructureDefinition/qicore-coverage"]},"status":"active","beneficiary":{"reference":"Patient/deba38c2-7841-4133-a2e6-981e9095d19c"},"payor":[{"reference":"Organization/607fdef9-3983-4cef-ab1a-95434d29b463"}]},"request":{"method":"PUT","url":"Coverage/78e6737d-785f-4e1c-9f40-807c2995bf48"}},{"fullUrl":"https://madie.cms.gov/Organization/208ee6a4-4525-48da-88d0-2edf710a7bce","resource":{"resourceType":"Organization","id":"607fdef9-3983-4cef-ab1a-95434d29b463","meta":{"profile":["http://hl7.org/fhir/us/qicore/StructureDefinition/qicore-organization"]},"identifier":[{"use":"temp","system":"urn:oid:2.16.840.1.113883.4.4","value":"21-3259825"}],"active":true,"type":[{"coding":[{"system":"http://terminology.hl7.org/CodeSystem/organization-type","code":"pay","display":"Payer"}]}],"name":"Blue Cross Blue Shield of Texas","telecom":[{"system":"phone","value":"(+1) 972-766-6900"}],"address":[{"use":"billing","type":"postal","line":["P.O. Box 660044"],"city":"Dallas","state":"TX","postalCode":"75266-0044","country":"USA"}]},"request":{"method":"PUT","url":"Organization/607fdef9-3983-4cef-ab1a-95434d29b463"}},{"fullUrl":"https://madie.cms.gov/Practitioner/7c0b99f8-2f71-4427-91d8-9088fc60362c","resource":{"resourceType":"Practitioner","id":"7c0b99f8-2f71-4427-91d8-9088fc60362c","identifier":[{"system":"http://hl7.org/fhir/sid/us-npi","value":"123456"}],"name":[{"family":"Evil","prefix":["Dr"]}]},"request":{"method":"PUT","url":"Practitioner/7c0b99f8-2f71-4427-91d8-9088fc60362c"}},{"fullUrl":"https://madie.cms.gov/MeasureReport/a348d3c5-4d87-46e5-963c-32b689cd8382","resource":{"resourceType":"MeasureReport","id":"a348d3c5-4d87-46e5-963c-32b689cd8382","meta":{"profile":["http://hl7.org/fhir/us/cqfmeasures/StructureDefinition/test-case-cqfm"]},"contained":[{"resourceType":"Parameters","id":"cd1293a4-a503-41a9-a31a-27c4a0441853-parameters","parameter":[{"name":"subject","valueString":"deba38c2-7841-4133-a2e6-981e9095d19c"}]}],"extension":[{"url":"http://hl7.org/fhir/us/cqfmeasures/StructureDefinition/cqfm-inputParameters","valueReference":{"reference":"#cd1293a4-a503-41a9-a31a-27c4a0441853-parameters"}},{"url":"http://hl7.org/fhir/us/cqfmeasures/StructureDefinition/cqfm-testCaseDescription","valueMarkdown":"\"Preterm Births=0, relevant date/time before Asse delivery datetime\nTerm Newborn=0, authored < 42weeks prior to Asse delivery\"\n"}],"modifierExtension":[{"url":"http://hl7.org/fhir/us/cqfmeasures/StructureDefinition/cqfm-isTestCase","valueBoolean":true}],"status":"complete","type":"individual","measure":"https://madie.cms.gov/Measure/CMS334FHIRPCCesareanBirth","period":{"start":"2026-01-01","end":"2026-12-31"},"group":[{"population":[{"code":{"coding":[{"system":"http://terminology.hl7.org/CodeSystem/measure-population","code":"initial-population","display":"Initial Population"}]},"count":1},{"code":{"coding":[{"system":"http://terminology.hl7.org/CodeSystem/measure-population","code":"denominator","display":"Denominator"}]},"count":1},{"code":{"coding":[{"system":"http://terminology.hl7.org/CodeSystem/measure-population","code":"denominator-exclusion","display":"Denominator Exclusion"}]},"count":0},{"code":{"coding":[{"system":"http://terminology.hl7.org/CodeSystem/measure-population","code":"numerator","display":"Numerator"}]},"count":1}]}]},"request":{"method":"PUT","url":"MeasureReport/a348d3c5-4d87-46e5-963c-32b689cd8382"}}]}