{"resourceType":"Bundle","id":"tests-9cc71655-c4cd-47cf-ad10-de338da53885-bundle","type":"transaction","entry":[{"fullUrl":"https://madie.cms.gov/Patient/9cc71655-c4cd-47cf-ad10-de338da53885","resource":{"resourceType":"Patient","id":"9cc71655-c4cd-47cf-ad10-de338da53885","meta":{"profile":["http://hl7.org/fhir/us/qicore/StructureDefinition/qicore-patient"]},"text":{"status":"generated","div":"<div xmlns=\"http://www.w3.org/1999/xhtml\"><div class=\"hapiHeaderText\">AssessTerm0PreTerm0NoGravNoPar <b>DENPASS </b></div><table class=\"hapiPropertyTable\"><tbody><tr><td>Identifier</td><td>64127fc9d7fd126eace3c4b20a012fe3796c9abd90c573be4c372bf5eb0ed0f9</td></tr><tr><td>Date of birth</td><td><span>14 February 1985</span></td></tr></tbody></table></div>"},"extension":[{"url":"http://hl7.org/fhir/us/core/StructureDefinition/us-core-race","extension":[{"url":"ombCategory","valueCoding":{"system":"urn:oid:2.16.840.1.113883.6.238","code":"1002-5","display":"American Indian or Alaska Native","userSelected":true}},{"url":"text","valueString":"American Indian or Alaska Native"}]},{"url":"http://hl7.org/fhir/us/core/StructureDefinition/us-core-ethnicity","extension":[{"url":"ombCategory","valueCoding":{"system":"urn:oid:2.16.840.1.113883.6.238","code":"2135-2","display":"Hispanic or Latino","userSelected":true}},{"url":"text","valueString":"Hispanic or Latino"}]}],"identifier":[{"type":{"coding":[{"system":"http://terminology.hl7.org/CodeSystem/v2-0203","code":"MR"}]},"system":"https://bonnie-fhir.healthit.gov/","value":"63487c2d0968f80122540165"}],"active":true,"name":[{"use":"usual","family":"DENPass","given":["AssessTerm0PreTerm0NoGravNoPar"]}],"gender":"female","birthDate":"1998-02-14"},"request":{"method":"PUT","url":"Patient/9cc71655-c4cd-47cf-ad10-de338da53885"}},{"fullUrl":"https://madie.cms.gov/Observation/8d6463c4-5741-4460-a260-964d2060587f","resource":{"resourceType":"Observation","id":"8d6463c4-5741-4460-a260-964d2060587f","meta":{"profile":["http://hl7.org/fhir/us/qicore/StructureDefinition/qicore-observation"]},"status":"final","category":[{"coding":[{"system":"http://terminology.hl7.org/CodeSystem/observation-category","code":"exam","display":"exam","userSelected":true}]}],"code":{"coding":[{"system":"http://loinc.org","code":"11639-2"}]},"subject":{"reference":"Patient/9cc71655-c4cd-47cf-ad10-de338da53885"},"effectiveDateTime":"2026-06-08T09:00:00.000+00:00","valueInteger":0},"request":{"method":"PUT","url":"Observation/8d6463c4-5741-4460-a260-964d2060587f"}},{"fullUrl":"https://madie.cms.gov/Observation/f285e07d-1408-4121-b315-ddb8b68356bf","resource":{"resourceType":"Observation","id":"f285e07d-1408-4121-b315-ddb8b68356bf","meta":{"profile":["http://hl7.org/fhir/us/qicore/StructureDefinition/qicore-observation"]},"status":"final","category":[{"coding":[{"system":"http://terminology.hl7.org/CodeSystem/observation-category","code":"exam","display":"exam","userSelected":true}]}],"code":{"coding":[{"system":"http://loinc.org","code":"11637-6"}]},"subject":{"reference":"Patient/9cc71655-c4cd-47cf-ad10-de338da53885"},"effectiveDateTime":"2026-06-08T09:15:00.000+00:00","valueInteger":0},"request":{"method":"PUT","url":"Observation/f285e07d-1408-4121-b315-ddb8b68356bf"}},{"fullUrl":"https://madie.cms.gov/Observation/b65c9d74-467c-4734-870b-6b72968f3e36","resource":{"resourceType":"Observation","id":"b65c9d74-467c-4734-870b-6b72968f3e36","meta":{"profile":["http://hl7.org/fhir/us/qicore/StructureDefinition/qicore-observation"]},"status":"final","category":[{"coding":[{"system":"http://terminology.hl7.org/CodeSystem/observation-category","code":"exam","display":"exam","userSelected":true}]}],"code":{"coding":[{"system":"http://loinc.org","code":"11884-4"}]},"subject":{"reference":"Patient/9cc71655-c4cd-47cf-ad10-de338da53885"},"effectiveDateTime":"2026-06-08T21:15:00.000+00:00","valueQuantity":{"value":37,"system":"http://unitsofmeasure.org","code":"wk"}},"request":{"method":"PUT","url":"Observation/b65c9d74-467c-4734-870b-6b72968f3e36"}},{"fullUrl":"https://madie.cms.gov/Observation/e3fe827d-eba5-40a0-be21-159a7710cf20","resource":{"resourceType":"Observation","id":"e3fe827d-eba5-40a0-be21-159a7710cf20","meta":{"profile":["http://hl7.org/fhir/us/qicore/StructureDefinition/qicore-observation"]},"status":"final","category":[{"coding":[{"system":"http://terminology.hl7.org/CodeSystem/observation-category","code":"exam","display":"exam","userSelected":true}]}],"code":{"coding":[{"system":"http://loinc.org","code":"93857-1"}]},"subject":{"reference":"Patient/9cc71655-c4cd-47cf-ad10-de338da53885"},"effectiveDateTime":"2026-06-08T21:15:00.000+00:00","valueDateTime":"2026-06-08T21:15:00+00:00"},"request":{"method":"PUT","url":"Observation/e3fe827d-eba5-40a0-be21-159a7710cf20"}},{"fullUrl":"https://madie.cms.gov/Encounter/dd245132-f167-49ad-8c2e-3188b89e1401","resource":{"resourceType":"Encounter","id":"dd245132-f167-49ad-8c2e-3188b89e1401","meta":{"profile":["http://hl7.org/fhir/us/qicore/StructureDefinition/qicore-encounter"]},"status":"finished","class":{"system":"http://terminology.hl7.org/CodeSystem/v3-ActCode","code":"IMP","display":"inpatient encounter"},"type":[{"coding":[{"system":"http://snomed.info/sct","code":"8715000"}]}],"subject":{"reference":"Patient/9cc71655-c4cd-47cf-ad10-de338da53885"},"period":{"start":"2026-06-08T08:00:00.000Z","end":"2026-06-10T08:15:00.000Z"},"length":{"value":2,"unit":"days"},"diagnosis":[{"condition":{"reference":"Condition/delivery-of-singleton-f83c"},"use":{"coding":[{"system":"http://snomed.info/sct","code":"169826009","display":"Delivery of Singleton"}]}},{"condition":{"reference":"Condition/10be395a-e92a-4cf7-91ec-6c4065e7c759"}}]},"request":{"method":"PUT","url":"Encounter/dd245132-f167-49ad-8c2e-3188b89e1401"}},{"fullUrl":"https://madie.cms.gov/Procedure/ba475a62-80fa-492b-ba5f-96c523cd6c46","resource":{"resourceType":"Procedure","id":"ba475a62-80fa-492b-ba5f-96c523cd6c46","meta":{"profile":["http://hl7.org/fhir/us/qicore/StructureDefinition/qicore-procedure"]},"extension":[{"url":"http://hl7.org/fhir/us/qicore/StructureDefinition/qicore-recorded","valueDateTime":"2014-04-05T09:35:00-04:00"}],"status":"completed","code":{"coding":[{"system":"http://www.cms.gov/Medicare/Coding/ICD10","code":"10D00Z0"},{"system":"http://www.icd10data.com/icd10pcs","code":"10D00Z2","userSelected":true}]},"subject":{"reference":"Patient/9cc71655-c4cd-47cf-ad10-de338da53885"},"performedPeriod":{"start":"2026-06-08T20:00:00.000Z","end":"2026-06-08T21:15:00.000Z"}},"request":{"method":"PUT","url":"Procedure/ba475a62-80fa-492b-ba5f-96c523cd6c46"}},{"fullUrl":"https://madie.cms.gov/Condition/10be395a-e92a-4cf7-91ec-6c4065e7c759","resource":{"resourceType":"Condition","id":"10be395a-e92a-4cf7-91ec-6c4065e7c759","meta":{"profile":["http://hl7.org/fhir/us/qicore/StructureDefinition/qicore-condition"]},"category":[{"coding":[{"system":"http://terminology.hl7.org/CodeSystem/condition-category","code":"encounter-diagnosis","display":"Encounter Diagnosis"}]}],"code":{"coding":[{"system":"http://snomed.info/sct","version":"2022-09","code":"169826009","display":"Single live birth (finding)","userSelected":true}]},"subject":{"reference":"Patient/9cc71655-c4cd-47cf-ad10-de338da53885"},"recordedDate":"2026-10-20T08:00:00.000+00:00"},"request":{"method":"PUT","url":"Condition/10be395a-e92a-4cf7-91ec-6c4065e7c759"}},{"fullUrl":"https://madie.cms.gov/Coverage/8878787c-b38a-4f56-9f60-c2b4b083d6d6","resource":{"resourceType":"Coverage","id":"8878787c-b38a-4f56-9f60-c2b4b083d6d6","meta":{"profile":["http://hl7.org/fhir/us/qicore/StructureDefinition/qicore-coverage"]},"status":"active","beneficiary":{"reference":"Patient/9cc71655-c4cd-47cf-ad10-de338da53885"},"payor":[{"reference":"Organization/f4907415-83c5-4eae-ab0b-cb63a840880d"}]},"request":{"method":"PUT","url":"Coverage/8878787c-b38a-4f56-9f60-c2b4b083d6d6"}},{"fullUrl":"https://madie.cms.gov/Organization/f3c13c16-c50b-45c2-8dfe-d8f4176c7570","resource":{"resourceType":"Organization","id":"f4907415-83c5-4eae-ab0b-cb63a840880d","meta":{"profile":["http://hl7.org/fhir/us/qicore/StructureDefinition/qicore-organization"]},"identifier":[{"use":"temp","system":"urn:oid:2.16.840.1.113883.4.4","value":"21-3259825"}],"active":true,"type":[{"coding":[{"system":"http://terminology.hl7.org/CodeSystem/organization-type","code":"pay","display":"Payer"}]}],"name":"Blue Cross Blue Shield of Texas","telecom":[{"system":"phone","value":"(+1) 972-766-6900"}],"address":[{"use":"billing","type":"postal","line":["P.O. Box 660044"],"city":"Dallas","state":"TX","postalCode":"75266-0044","country":"USA"}]},"request":{"method":"PUT","url":"Organization/f4907415-83c5-4eae-ab0b-cb63a840880d"}},{"fullUrl":"https://madie.cms.gov/Practitioner/861edb19-491d-4cb1-9183-34a8778ef09e","resource":{"resourceType":"Practitioner","id":"861edb19-491d-4cb1-9183-34a8778ef09e","identifier":[{"system":"http://hl7.org/fhir/sid/us-npi","value":"123456"}],"name":[{"family":"Evil","prefix":["Dr"]}]},"request":{"method":"PUT","url":"Practitioner/861edb19-491d-4cb1-9183-34a8778ef09e"}},{"fullUrl":"https://madie.cms.gov/MeasureReport/e5ef39aa-ac9d-40c9-9a69-c8abd4c80804","resource":{"resourceType":"MeasureReport","id":"e5ef39aa-ac9d-40c9-9a69-c8abd4c80804","meta":{"profile":["http://hl7.org/fhir/us/cqfmeasures/StructureDefinition/test-case-cqfm"]},"contained":[{"resourceType":"Parameters","id":"276c6e25-7f38-4410-ba84-fa15fe3bc59a-parameters","parameter":[{"name":"subject","valueString":"9cc71655-c4cd-47cf-ad10-de338da53885"}]}],"extension":[{"url":"http://hl7.org/fhir/us/cqfmeasures/StructureDefinition/cqfm-inputParameters","valueReference":{"reference":"#276c6e25-7f38-4410-ba84-fa15fe3bc59a-parameters"}},{"url":"http://hl7.org/fhir/us/cqfmeasures/StructureDefinition/cqfm-testCaseDescription","valueMarkdown":"Pass - IP, DEN, NUM. preterm 0 and term 0 but no Gravida and no Parity, c-section, singleton delivery\n"}],"modifierExtension":[{"url":"http://hl7.org/fhir/us/cqfmeasures/StructureDefinition/cqfm-isTestCase","valueBoolean":true}],"status":"complete","type":"individual","measure":"https://madie.cms.gov/Measure/CMS334FHIRPCCesareanBirth","period":{"start":"2026-01-01","end":"2026-12-31"},"group":[{"population":[{"code":{"coding":[{"system":"http://terminology.hl7.org/CodeSystem/measure-population","code":"initial-population","display":"Initial Population"}]},"count":1},{"code":{"coding":[{"system":"http://terminology.hl7.org/CodeSystem/measure-population","code":"denominator","display":"Denominator"}]},"count":1},{"code":{"coding":[{"system":"http://terminology.hl7.org/CodeSystem/measure-population","code":"denominator-exclusion","display":"Denominator Exclusion"}]},"count":0},{"code":{"coding":[{"system":"http://terminology.hl7.org/CodeSystem/measure-population","code":"numerator","display":"Numerator"}]},"count":1}]}]},"request":{"method":"PUT","url":"MeasureReport/e5ef39aa-ac9d-40c9-9a69-c8abd4c80804"}}]}