{"resourceType":"Bundle","id":"tests-5c63b5e1-88d4-4449-8296-605cb3178732-bundle","type":"transaction","entry":[{"fullUrl":"https://madie.cms.gov/Patient/5c63b5e1-88d4-4449-8296-605cb3178732","resource":{"resourceType":"Patient","id":"5c63b5e1-88d4-4449-8296-605cb3178732","meta":{"profile":["http://hl7.org/fhir/us/qicore/StructureDefinition/qicore-patient"]},"text":{"status":"generated","div":"<div xmlns=\"http://www.w3.org/1999/xhtml\"><div class=\"hapiHeaderText\">SexIsMale<b>IPPASS </b></div><table class=\"hapiPropertyTable\"><tbody><tr><td>Identifier</td><td>d130de5f4e42b38bd935fc8ebcd660c0e5f442917fd322d307794dfacd0563d2</td></tr><tr><td>Date of birth</td><td><span>14 February 2004</span></td></tr></tbody></table></div>"},"extension":[{"url":"http://hl7.org/fhir/us/core/StructureDefinition/us-core-race","extension":[{"url":"ombCategory","valueCoding":{"system":"urn:oid:2.16.840.1.113883.6.238","code":"1002-5","display":"American Indian or Alaska Native","userSelected":true}},{"url":"text","valueString":"American Indian or Alaska Native"}]},{"url":"http://hl7.org/fhir/us/core/StructureDefinition/us-core-ethnicity","extension":[{"url":"ombCategory","valueCoding":{"system":"urn:oid:2.16.840.1.113883.6.238","code":"2135-2","display":"Hispanic or Latino","userSelected":true}},{"url":"text","valueString":"Hispanic or Latino"}]}],"identifier":[{"type":{"coding":[{"system":"http://terminology.hl7.org/CodeSystem/v2-0203","code":"MR"}]},"system":"https://bonnie-fhir.healthit.gov/","value":"63487c2d0968f80122540149"}],"active":true,"name":[{"use":"usual","family":"IPPass","given":["SexIsMale"]}],"gender":"male","birthDate":"2016-02-14"},"request":{"method":"PUT","url":"Patient/5c63b5e1-88d4-4449-8296-605cb3178732"}},{"fullUrl":"https://madie.cms.gov/Encounter/8c1bb1fe-c114-4b4e-907d-28ea72280f2b","resource":{"resourceType":"Encounter","id":"8c1bb1fe-c114-4b4e-907d-28ea72280f2b","meta":{"profile":["http://hl7.org/fhir/us/qicore/StructureDefinition/qicore-encounter"]},"status":"finished","class":{"system":"http://terminology.hl7.org/CodeSystem/v3-ActCode","code":"IMP","display":"inpatient encounter"},"type":[{"coding":[{"system":"http://snomed.info/sct","code":"8715000"}]}],"subject":{"reference":"Patient/5c63b5e1-88d4-4449-8296-605cb3178732"},"period":{"start":"2026-11-28T08:00:00.000Z","end":"2026-11-30T08:16:00.000Z"},"diagnosis":[{"condition":{"reference":"Condition/Condition-2"},"use":{"coding":[{"system":"http://snomed.info/sct","code":"169826009","display":"Delivery of Singleton"}]}}]},"request":{"method":"PUT","url":"Encounter/8c1bb1fe-c114-4b4e-907d-28ea72280f2b"}},{"fullUrl":"https://madie.cms.gov/Procedure/6b379fdd-f90e-4af3-b966-6a6517fe8cb1","resource":{"resourceType":"Procedure","id":"6b379fdd-f90e-4af3-b966-6a6517fe8cb1","meta":{"profile":["http://hl7.org/fhir/us/qicore/StructureDefinition/qicore-procedure"]},"extension":[{"url":"http://hl7.org/fhir/us/qicore/StructureDefinition/qicore-recorded","valueDateTime":"2014-04-05T09:35:00-04:00"}],"status":"completed","code":{"coding":[{"system":"http://snomed.info/sct","version":"2022-09","code":"10745001","display":"Delivery of transverse presentation (procedure)","userSelected":true}]},"subject":{"reference":"Patient/5c63b5e1-88d4-4449-8296-605cb3178732"},"performedDateTime":"2026-11-30T08:16:00.000+00:00"},"request":{"method":"PUT","url":"Procedure/6b379fdd-f90e-4af3-b966-6a6517fe8cb1"}},{"fullUrl":"https://madie.cms.gov/Coverage/109c12b1-c356-428e-bcfb-5ebe09961e16","resource":{"resourceType":"Coverage","id":"109c12b1-c356-428e-bcfb-5ebe09961e16","meta":{"profile":["http://hl7.org/fhir/us/qicore/StructureDefinition/qicore-coverage"]},"status":"active","type":{"coding":[{"system":"https://nahdo.org/sopt","code":"1","display":"MEDICARE"}]},"beneficiary":{"reference":"Patient/5c63b5e1-88d4-4449-8296-605cb3178732"},"period":{"start":"2026-11-28T08:00:00.000Z","end":"2026-11-30T08:15:00.000Z"},"payor":[{"reference":"Organization/5ad6ea38-07e9-4482-9e1b-c09eee595be9"}]},"request":{"method":"PUT","url":"Coverage/109c12b1-c356-428e-bcfb-5ebe09961e16"}},{"fullUrl":"https://madie.cms.gov/Organization/c6ff2aeb-0003-4107-b184-e1a156027875","resource":{"resourceType":"Organization","id":"5ad6ea38-07e9-4482-9e1b-c09eee595be9","meta":{"profile":["http://hl7.org/fhir/us/qicore/StructureDefinition/qicore-organization"]},"identifier":[{"use":"temp","system":"urn:oid:2.16.840.1.113883.4.4","value":"21-3259825"}],"active":true,"type":[{"coding":[{"system":"http://terminology.hl7.org/CodeSystem/organization-type","code":"pay","display":"Payer"}]}],"name":"Blue Cross Blue Shield of Texas","telecom":[{"system":"phone","value":"(+1) 972-766-6900"}],"address":[{"use":"billing","type":"postal","line":["P.O. Box 660044"],"city":"Dallas","state":"TX","postalCode":"75266-0044","country":"USA"}]},"request":{"method":"PUT","url":"Organization/5ad6ea38-07e9-4482-9e1b-c09eee595be9"}},{"fullUrl":"https://madie.cms.gov/Practitioner/f5bd21ff-f585-40f5-87f2-963bb1c18348","resource":{"resourceType":"Practitioner","id":"f5bd21ff-f585-40f5-87f2-963bb1c18348","identifier":[{"system":"http://hl7.org/fhir/sid/us-npi","value":"123456"}],"name":[{"family":"Evil","prefix":["Dr"]}]},"request":{"method":"PUT","url":"Practitioner/f5bd21ff-f585-40f5-87f2-963bb1c18348"}},{"fullUrl":"https://madie.cms.gov/MeasureReport/6c2608a1-eac2-4dbd-8622-c591cb22bffb","resource":{"resourceType":"MeasureReport","id":"6c2608a1-eac2-4dbd-8622-c591cb22bffb","meta":{"profile":["http://hl7.org/fhir/us/cqfmeasures/StructureDefinition/test-case-cqfm"]},"contained":[{"resourceType":"Parameters","id":"ec7463c2-ac88-431a-b2a2-473b568ed7ea-parameters","parameter":[{"name":"subject","valueString":"5c63b5e1-88d4-4449-8296-605cb3178732"}]}],"extension":[{"url":"http://hl7.org/fhir/us/cqfmeasures/StructureDefinition/cqfm-inputParameters","valueReference":{"reference":"#ec7463c2-ac88-431a-b2a2-473b568ed7ea-parameters"}},{"url":"http://hl7.org/fhir/us/cqfmeasures/StructureDefinition/cqfm-testCaseDescription","valueMarkdown":"Sex=male, will still pass measure as sex is not qualified in the measure"}],"modifierExtension":[{"url":"http://hl7.org/fhir/us/cqfmeasures/StructureDefinition/cqfm-isTestCase","valueBoolean":true}],"status":"complete","type":"individual","measure":"https://madie.cms.gov/Measure/CMS334FHIRPCCesareanBirth","period":{"start":"2026-01-01","end":"2026-12-31"},"group":[{"population":[{"code":{"coding":[{"system":"http://terminology.hl7.org/CodeSystem/measure-population","code":"initial-population","display":"Initial Population"}]},"count":1},{"code":{"coding":[{"system":"http://terminology.hl7.org/CodeSystem/measure-population","code":"denominator","display":"Denominator"}]},"count":0},{"code":{"coding":[{"system":"http://terminology.hl7.org/CodeSystem/measure-population","code":"denominator-exclusion","display":"Denominator Exclusion"}]},"count":0},{"code":{"coding":[{"system":"http://terminology.hl7.org/CodeSystem/measure-population","code":"numerator","display":"Numerator"}]},"count":0}]}]},"request":{"method":"PUT","url":"MeasureReport/6c2608a1-eac2-4dbd-8622-c591cb22bffb"}}]}