{"resourceType":"Bundle","id":"tests-20bb7712-ab47-4505-bfbf-5bebe074afa2-bundle","type":"transaction","entry":[{"fullUrl":"https://madie.cms.gov/Patient/20bb7712-ab47-4505-bfbf-5bebe074afa2","resource":{"resourceType":"Patient","id":"20bb7712-ab47-4505-bfbf-5bebe074afa2","meta":{"profile":["http://hl7.org/fhir/us/qicore/StructureDefinition/qicore-patient"]},"text":{"status":"generated","div":"<div xmlns=\"http://www.w3.org/1999/xhtml\"><div class=\"hapiHeaderText\">AssessParity1Gravida2 <b>DENFAIL </b></div><table class=\"hapiPropertyTable\"><tbody><tr><td>Identifier</td><td>e960a66b595990cb41cd1209fad2cf00</td></tr><tr><td>Date of birth</td><td><span>14 February 1985</span></td></tr></tbody></table></div>"},"extension":[{"url":"http://hl7.org/fhir/us/core/StructureDefinition/us-core-race","extension":[{"url":"ombCategory","valueCoding":{"system":"urn:oid:2.16.840.1.113883.6.238","code":"1002-5","display":"American Indian or Alaska Native","userSelected":true}},{"url":"text","valueString":"American Indian or Alaska Native"}]},{"url":"http://hl7.org/fhir/us/core/StructureDefinition/us-core-ethnicity","extension":[{"url":"ombCategory","valueCoding":{"system":"urn:oid:2.16.840.1.113883.6.238","code":"2135-2","display":"Hispanic or Latino","userSelected":true}},{"url":"text","valueString":"Hispanic or Latino"}]}],"identifier":[{"type":{"coding":[{"system":"http://terminology.hl7.org/CodeSystem/v2-0203","code":"MR"}]},"system":"https://bonnie-fhir.healthit.gov/","value":"63487c2d0968f80122540144"}],"active":true,"name":[{"use":"usual","family":"DENFail","given":["AssessParity1Gravida2"]}],"gender":"female","birthDate":"1998-02-14"},"request":{"method":"PUT","url":"Patient/20bb7712-ab47-4505-bfbf-5bebe074afa2"}},{"fullUrl":"https://madie.cms.gov/Observation/a28b81d4-e091-4201-8bd7-28666b1afcf2","resource":{"resourceType":"Observation","id":"a28b81d4-e091-4201-8bd7-28666b1afcf2","meta":{"profile":["http://hl7.org/fhir/us/qicore/StructureDefinition/qicore-observation"]},"status":"final","category":[{"coding":[{"system":"http://terminology.hl7.org/CodeSystem/observation-category","code":"exam","display":"exam","userSelected":true}]}],"code":{"coding":[{"system":"http://loinc.org","code":"11977-6"}]},"subject":{"reference":"Patient/20bb7712-ab47-4505-bfbf-5bebe074afa2"},"effectiveDateTime":"2026-03-08T09:00:00.000+00:00","valueInteger":1},"request":{"method":"PUT","url":"Observation/a28b81d4-e091-4201-8bd7-28666b1afcf2"}},{"fullUrl":"https://madie.cms.gov/Observation/da7448ca-3297-4379-8e3e-60ac83ced172","resource":{"resourceType":"Observation","id":"da7448ca-3297-4379-8e3e-60ac83ced172","meta":{"profile":["http://hl7.org/fhir/us/qicore/StructureDefinition/qicore-observation"]},"status":"final","category":[{"coding":[{"system":"http://terminology.hl7.org/CodeSystem/observation-category","code":"exam","display":"exam","userSelected":true}]}],"code":{"coding":[{"system":"http://loinc.org","code":"11996-6"}]},"subject":{"reference":"Patient/20bb7712-ab47-4505-bfbf-5bebe074afa2"},"effectiveDateTime":"2026-03-09T08:00:00.000+00:00","valueInteger":0},"request":{"method":"PUT","url":"Observation/da7448ca-3297-4379-8e3e-60ac83ced172"}},{"fullUrl":"https://madie.cms.gov/Observation/2d0295e1-f7a1-49fa-9090-642743942a13","resource":{"resourceType":"Observation","id":"2d0295e1-f7a1-49fa-9090-642743942a13","meta":{"profile":["http://hl7.org/fhir/us/qicore/StructureDefinition/qicore-observation"]},"status":"final","category":[{"coding":[{"system":"http://terminology.hl7.org/CodeSystem/observation-category","code":"exam","display":"exam","userSelected":true}]}],"code":{"coding":[{"system":"http://loinc.org","code":"11884-4"}]},"subject":{"reference":"Patient/20bb7712-ab47-4505-bfbf-5bebe074afa2"},"effectiveDateTime":"2026-06-08T21:00:00.000+00:00","valueQuantity":{"value":38,"system":"http://unitsofmeasure.org","code":"wk"}},"request":{"method":"PUT","url":"Observation/2d0295e1-f7a1-49fa-9090-642743942a13"}},{"fullUrl":"https://madie.cms.gov/Observation/b8492324-a187-4224-a5f6-503604ca5434","resource":{"resourceType":"Observation","id":"b8492324-a187-4224-a5f6-503604ca5434","meta":{"profile":["http://hl7.org/fhir/us/qicore/StructureDefinition/qicore-observation"]},"status":"final","category":[{"coding":[{"system":"http://terminology.hl7.org/CodeSystem/observation-category","code":"exam","display":"exam","userSelected":true}]}],"code":{"coding":[{"system":"http://loinc.org","code":"93857-1"}]},"subject":{"reference":"Patient/20bb7712-ab47-4505-bfbf-5bebe074afa2"},"effectiveDateTime":"2026-06-08T21:00:00.000+00:00","valueDateTime":"2026-06-08T21:00:00+00:00"},"request":{"method":"PUT","url":"Observation/b8492324-a187-4224-a5f6-503604ca5434"}},{"fullUrl":"https://madie.cms.gov/Encounter/4473b607-0449-4d76-88ef-ca497bb20104","resource":{"resourceType":"Encounter","id":"4473b607-0449-4d76-88ef-ca497bb20104","meta":{"profile":["http://hl7.org/fhir/us/qicore/StructureDefinition/qicore-encounter"]},"status":"finished","class":{"system":"http://terminology.hl7.org/CodeSystem/v3-ActCode","code":"IMP","display":"inpatient encounter"},"type":[{"coding":[{"system":"http://snomed.info/sct","code":"8715000"}]}],"subject":{"reference":"Patient/20bb7712-ab47-4505-bfbf-5bebe074afa2"},"period":{"start":"2026-06-08T08:00:00.000Z","end":"2026-06-10T08:15:00.000Z"},"length":{"value":2,"unit":"days"},"diagnosis":[{"condition":{"reference":"Condition/delivery-of-singleton-f83c"},"use":{"coding":[{"system":"http://snomed.info/sct","code":"169826009","display":"Single live birth (finding)"}]}},{"condition":{"reference":"Condition/a449b487-8c55-408a-8ce1-97949bdc0f42"}}]},"request":{"method":"PUT","url":"Encounter/4473b607-0449-4d76-88ef-ca497bb20104"}},{"fullUrl":"https://madie.cms.gov/Procedure/60bdb18c-6cfb-4bc1-ba98-50622d544687","resource":{"resourceType":"Procedure","id":"60bdb18c-6cfb-4bc1-ba98-50622d544687","meta":{"profile":["http://hl7.org/fhir/us/qicore/StructureDefinition/qicore-procedure"]},"extension":[{"url":"http://hl7.org/fhir/us/qicore/StructureDefinition/qicore-recorded","valueDateTime":"2014-04-05T09:35:00-04:00"}],"status":"completed","code":{"coding":[{"system":"http://snomed.info/sct","code":"4504004"}]},"subject":{"reference":"Patient/20bb7712-ab47-4505-bfbf-5bebe074afa2"},"performedPeriod":{"start":"2026-06-08T20:00:00.000Z","end":"2026-06-08T21:15:00.000Z"}},"request":{"method":"PUT","url":"Procedure/60bdb18c-6cfb-4bc1-ba98-50622d544687"}},{"fullUrl":"https://madie.cms.gov/Condition/a449b487-8c55-408a-8ce1-97949bdc0f42","resource":{"resourceType":"Condition","id":"a449b487-8c55-408a-8ce1-97949bdc0f42","meta":{"profile":["http://hl7.org/fhir/us/qicore/StructureDefinition/qicore-condition"]},"category":[{"coding":[{"system":"http://terminology.hl7.org/CodeSystem/condition-category","code":"encounter-diagnosis","display":"Encounter Diagnosis"}]}],"code":{"coding":[{"system":"http://snomed.info/sct","version":"2022-09","code":"169826009","display":"Single live birth (finding)","userSelected":true}]},"subject":{"reference":"Patient/20bb7712-ab47-4505-bfbf-5bebe074afa2"},"recordedDate":"2026-10-21T08:00:00.000+00:00"},"request":{"method":"PUT","url":"Condition/a449b487-8c55-408a-8ce1-97949bdc0f42"}},{"fullUrl":"https://madie.cms.gov/Coverage/e894188d-043b-4f2f-ac55-a6e96e4effd9","resource":{"resourceType":"Coverage","id":"e894188d-043b-4f2f-ac55-a6e96e4effd9","meta":{"profile":["http://hl7.org/fhir/us/qicore/StructureDefinition/qicore-coverage"]},"status":"active","beneficiary":{"reference":"Patient/20bb7712-ab47-4505-bfbf-5bebe074afa2"},"payor":[{"reference":"Organization/f7da4368-fb6d-4d73-a75b-f78024cbb18d"}]},"request":{"method":"PUT","url":"Coverage/e894188d-043b-4f2f-ac55-a6e96e4effd9"}},{"fullUrl":"https://madie.cms.gov/Organization/c9f70904-a930-4696-8225-d83a5202e7d4","resource":{"resourceType":"Organization","id":"f7da4368-fb6d-4d73-a75b-f78024cbb18d","meta":{"profile":["http://hl7.org/fhir/us/qicore/StructureDefinition/qicore-organization"]},"identifier":[{"use":"temp","system":"urn:oid:2.16.840.1.113883.4.4","value":"21-3259825"}],"active":true,"type":[{"coding":[{"system":"http://terminology.hl7.org/CodeSystem/organization-type","code":"pay","display":"Payer"}]}],"name":"Blue Cross Blue Shield of Texas","telecom":[{"system":"phone","value":"(+1) 972-766-6900"}],"address":[{"use":"billing","type":"postal","line":["P.O. Box 660044"],"city":"Dallas","state":"TX","postalCode":"75266-0044","country":"USA"}]},"request":{"method":"PUT","url":"Organization/f7da4368-fb6d-4d73-a75b-f78024cbb18d"}},{"fullUrl":"https://madie.cms.gov/Practitioner/cf79544c-39b0-407d-bb56-6de8a0cf2c7d","resource":{"resourceType":"Practitioner","id":"cf79544c-39b0-407d-bb56-6de8a0cf2c7d","identifier":[{"system":"http://hl7.org/fhir/sid/us-npi","value":"123456"}],"name":[{"family":"Evil","prefix":["Dr"]}]},"request":{"method":"PUT","url":"Practitioner/cf79544c-39b0-407d-bb56-6de8a0cf2c7d"}},{"fullUrl":"https://madie.cms.gov/MeasureReport/ac0627bb-659b-4f83-9f53-25621c36457d","resource":{"resourceType":"MeasureReport","id":"ac0627bb-659b-4f83-9f53-25621c36457d","meta":{"profile":["http://hl7.org/fhir/us/cqfmeasures/StructureDefinition/test-case-cqfm"]},"contained":[{"resourceType":"Parameters","id":"7cdbc541-baf2-4958-aef3-a0fab72695fe-parameters","parameter":[{"name":"subject","valueString":"20bb7712-ab47-4505-bfbf-5bebe074afa2"}]}],"extension":[{"url":"http://hl7.org/fhir/us/cqfmeasures/StructureDefinition/cqfm-inputParameters","valueReference":{"reference":"#7cdbc541-baf2-4958-aef3-a0fab72695fe-parameters"}},{"url":"http://hl7.org/fhir/us/cqfmeasures/StructureDefinition/cqfm-testCaseDescription","valueMarkdown":"Pass IP,  Parity 1 (not nulliparous), gravida 2.  This test case shows a potential problem with the concepts present in the Delivery Procedures value set. I believe this value set would be used when the delivery procedure was not a cesarean section.\n"}],"modifierExtension":[{"url":"http://hl7.org/fhir/us/cqfmeasures/StructureDefinition/cqfm-isTestCase","valueBoolean":true}],"status":"complete","type":"individual","measure":"https://madie.cms.gov/Measure/CMS334FHIRPCCesareanBirth","period":{"start":"2026-01-01","end":"2026-12-31"},"group":[{"population":[{"code":{"coding":[{"system":"http://terminology.hl7.org/CodeSystem/measure-population","code":"initial-population","display":"Initial Population"}]},"count":1},{"code":{"coding":[{"system":"http://terminology.hl7.org/CodeSystem/measure-population","code":"denominator","display":"Denominator"}]},"count":0},{"code":{"coding":[{"system":"http://terminology.hl7.org/CodeSystem/measure-population","code":"denominator-exclusion","display":"Denominator Exclusion"}]},"count":0},{"code":{"coding":[{"system":"http://terminology.hl7.org/CodeSystem/measure-population","code":"numerator","display":"Numerator"}]},"count":0}]}]},"request":{"method":"PUT","url":"MeasureReport/ac0627bb-659b-4f83-9f53-25621c36457d"}}]}