{"resourceType":"Bundle","id":"tests-2559be2d-0175-4018-8dfa-958ac2b1696d-bundle","type":"transaction","entry":[{"fullUrl":"https://madie.cms.gov/Patient/2559be2d-0175-4018-8dfa-958ac2b1696d","resource":{"resourceType":"Patient","id":"2559be2d-0175-4018-8dfa-958ac2b1696d","meta":{"profile":["http://hl7.org/fhir/us/qicore/StructureDefinition/qicore-patient"]},"text":{"status":"generated","div":"<div xmlns=\"http://www.w3.org/1999/xhtml\"><div class=\"hapiHeaderText\">AssessTimeOfDelivResultIsNull <b>DENFAIL </b></div><table class=\"hapiPropertyTable\"><tbody><tr><td>Identifier</td><td>2b1f0141ffe85efd85bb0ba18ddf833ac147ccc7ffd86f1de2a9b7f23de6478b</td></tr><tr><td>Date of birth</td><td><span>14 February 1985</span></td></tr></tbody></table></div>"},"extension":[{"url":"http://hl7.org/fhir/us/core/StructureDefinition/us-core-race","extension":[{"url":"ombCategory","valueCoding":{"system":"urn:oid:2.16.840.1.113883.6.238","code":"1002-5","display":"American Indian or Alaska Native","userSelected":true}},{"url":"text","valueString":"American Indian or Alaska Native"}]},{"url":"http://hl7.org/fhir/us/core/StructureDefinition/us-core-ethnicity","extension":[{"url":"ombCategory","valueCoding":{"system":"urn:oid:2.16.840.1.113883.6.238","code":"2135-2","display":"Hispanic or Latino","userSelected":true}},{"url":"text","valueString":"Hispanic or Latino"}]}],"identifier":[{"type":{"coding":[{"system":"http://terminology.hl7.org/CodeSystem/v2-0203","code":"MR"}]},"system":"https://bonnie-fhir.healthit.gov/","value":"63487c2f0968f801225401af"}],"active":true,"name":[{"use":"usual","family":"DENFail","given":["AssessTimeOfDelivResultIsNull"]}],"gender":"female","birthDate":"1998-02-14"},"request":{"method":"PUT","url":"Patient/2559be2d-0175-4018-8dfa-958ac2b1696d"}},{"fullUrl":"https://madie.cms.gov/Observation/127a5c7b-a68b-48ac-aa8e-3cfde5901993","resource":{"resourceType":"Observation","id":"127a5c7b-a68b-48ac-aa8e-3cfde5901993","meta":{"profile":["http://hl7.org/fhir/us/qicore/StructureDefinition/qicore-observation"]},"status":"final","category":[{"coding":[{"system":"http://terminology.hl7.org/CodeSystem/observation-category","code":"exam","display":"exam","userSelected":true}]}],"code":{"coding":[{"system":"http://loinc.org","code":"11884-4"}]},"subject":{"reference":"Patient/2559be2d-0175-4018-8dfa-958ac2b1696d"},"effectiveDateTime":"2026-06-08T07:15:00.000+00:00","valueQuantity":{"value":38,"system":"http://unitsofmeasure.org","code":"wk"}},"request":{"method":"PUT","url":"Observation/127a5c7b-a68b-48ac-aa8e-3cfde5901993"}},{"fullUrl":"https://madie.cms.gov/Observation/0a8275ad-3e3d-41ce-9d65-abc7344fdb45","resource":{"resourceType":"Observation","id":"0a8275ad-3e3d-41ce-9d65-abc7344fdb45","meta":{"profile":["http://hl7.org/fhir/us/qicore/StructureDefinition/qicore-observation"]},"status":"final","category":[{"coding":[{"system":"http://terminology.hl7.org/CodeSystem/observation-category","code":"exam","display":"exam","userSelected":true}]}],"code":{"coding":[{"system":"http://loinc.org","code":"11996-6"}]},"subject":{"reference":"Patient/2559be2d-0175-4018-8dfa-958ac2b1696d"},"effectiveDateTime":"2026-06-08T07:59:00.000+00:00","valueInteger":1},"request":{"method":"PUT","url":"Observation/0a8275ad-3e3d-41ce-9d65-abc7344fdb45"}},{"fullUrl":"https://madie.cms.gov/Observation/93b43d18-4a19-423a-bc83-2feadc55c020","resource":{"resourceType":"Observation","id":"93b43d18-4a19-423a-bc83-2feadc55c020","meta":{"profile":["http://hl7.org/fhir/us/qicore/StructureDefinition/qicore-observation"]},"status":"final","category":[{"coding":[{"system":"http://terminology.hl7.org/CodeSystem/observation-category","code":"exam","display":"exam","userSelected":true}]}],"code":{"coding":[{"system":"http://loinc.org","code":"93857-1"}]},"subject":{"reference":"Patient/2559be2d-0175-4018-8dfa-958ac2b1696d"},"effectiveDateTime":"2026-06-08T08:00:00.000+00:00"},"request":{"method":"PUT","url":"Observation/93b43d18-4a19-423a-bc83-2feadc55c020"}},{"fullUrl":"https://madie.cms.gov/Encounter/c5bb08e7-540f-4729-948b-6f3bdf1f34a2","resource":{"resourceType":"Encounter","id":"c5bb08e7-540f-4729-948b-6f3bdf1f34a2","meta":{"profile":["http://hl7.org/fhir/us/qicore/StructureDefinition/qicore-encounter"]},"status":"finished","class":{"system":"http://terminology.hl7.org/CodeSystem/v3-ActCode","code":"IMP","display":"inpatient encounter"},"type":[{"coding":[{"system":"http://snomed.info/sct","code":"183452005"}]}],"subject":{"reference":"Patient/2559be2d-0175-4018-8dfa-958ac2b1696d"},"period":{"start":"2026-06-08T08:00:00.000Z","end":"2026-06-10T08:15:00.000Z"},"length":{"value":2,"unit":"days"},"diagnosis":[{"condition":{"reference":"Condition/delivery-of-singleton-f83c"},"use":{"coding":[{"system":"http://snomed.info/sct","code":"169826009","display":"Delivery of Singleton"}]}},{"condition":{"reference":"Condition/d83b3e5b-1637-4666-b59d-50ca4b8d1136"}}]},"request":{"method":"PUT","url":"Encounter/c5bb08e7-540f-4729-948b-6f3bdf1f34a2"}},{"fullUrl":"https://madie.cms.gov/Procedure/d35a4e38-aa62-4c8a-99da-f1bbb7b6499a","resource":{"resourceType":"Procedure","id":"d35a4e38-aa62-4c8a-99da-f1bbb7b6499a","meta":{"profile":["http://hl7.org/fhir/us/qicore/StructureDefinition/qicore-procedure"]},"extension":[{"url":"http://hl7.org/fhir/us/qicore/StructureDefinition/qicore-recorded","valueDateTime":"2014-04-05T09:35:00-04:00"}],"status":"completed","code":{"coding":[{"system":"http://www.cms.gov/Medicare/Coding/ICD10","code":"10D00Z0"},{"system":"http://www.icd10data.com/icd10pcs","code":"10D00Z0","userSelected":true}]},"subject":{"reference":"Patient/2559be2d-0175-4018-8dfa-958ac2b1696d"},"performedPeriod":{"start":"2026-06-08T08:00:00.000Z","end":"2026-06-08T09:15:00.000Z"}},"request":{"method":"PUT","url":"Procedure/d35a4e38-aa62-4c8a-99da-f1bbb7b6499a"}},{"fullUrl":"https://madie.cms.gov/Condition/d83b3e5b-1637-4666-b59d-50ca4b8d1136","resource":{"resourceType":"Condition","id":"d83b3e5b-1637-4666-b59d-50ca4b8d1136","meta":{"profile":["http://hl7.org/fhir/us/qicore/StructureDefinition/qicore-condition"]},"category":[{"coding":[{"system":"http://terminology.hl7.org/CodeSystem/condition-category","code":"encounter-diagnosis","display":"Encounter Diagnosis"}]}],"code":{"coding":[{"system":"http://snomed.info/sct","version":"2022-09","code":"169826009","display":"Single live birth (finding)","userSelected":true}]},"subject":{"reference":"Patient/2559be2d-0175-4018-8dfa-958ac2b1696d"},"recordedDate":"2026-10-21T08:00:00.000+00:00"},"request":{"method":"PUT","url":"Condition/d83b3e5b-1637-4666-b59d-50ca4b8d1136"}},{"fullUrl":"https://madie.cms.gov/Coverage/e4f932b6-02f9-4541-9d89-fc85f3a9915a","resource":{"resourceType":"Coverage","id":"e4f932b6-02f9-4541-9d89-fc85f3a9915a","meta":{"profile":["http://hl7.org/fhir/us/qicore/StructureDefinition/qicore-coverage"]},"status":"active","beneficiary":{"reference":"Patient/2559be2d-0175-4018-8dfa-958ac2b1696d"},"payor":[{"reference":"Organization/f4907415-83c5-4eae-ab0b-cb63a840880d"}]},"request":{"method":"PUT","url":"Coverage/e4f932b6-02f9-4541-9d89-fc85f3a9915a"}},{"fullUrl":"https://madie.cms.gov/Organization/87a51d37-ecb1-4fa0-bab2-8eb8f9431da5","resource":{"resourceType":"Organization","id":"f4907415-83c5-4eae-ab0b-cb63a840880d","meta":{"profile":["http://hl7.org/fhir/us/qicore/StructureDefinition/qicore-organization"]},"identifier":[{"use":"temp","system":"urn:oid:2.16.840.1.113883.4.4","value":"21-3259825"}],"active":true,"type":[{"coding":[{"system":"http://terminology.hl7.org/CodeSystem/organization-type","code":"pay","display":"Payer"}]}],"name":"Blue Cross Blue Shield of Texas","telecom":[{"system":"phone","value":"(+1) 972-766-6900"}],"address":[{"use":"billing","type":"postal","line":["P.O. Box 660044"],"city":"Dallas","state":"TX","postalCode":"75266-0044","country":"USA"}]},"request":{"method":"PUT","url":"Organization/f4907415-83c5-4eae-ab0b-cb63a840880d"}},{"fullUrl":"https://madie.cms.gov/Practitioner/42a99648-21a7-4fe6-ad08-2a66bdbba42e","resource":{"resourceType":"Practitioner","id":"42a99648-21a7-4fe6-ad08-2a66bdbba42e","identifier":[{"system":"http://hl7.org/fhir/sid/us-npi","value":"123456"}],"name":[{"family":"Evil","prefix":["Dr"]}]},"request":{"method":"PUT","url":"Practitioner/42a99648-21a7-4fe6-ad08-2a66bdbba42e"}},{"fullUrl":"https://madie.cms.gov/MeasureReport/f74ac925-8090-4465-99a8-1913feba9e3a","resource":{"resourceType":"MeasureReport","id":"f74ac925-8090-4465-99a8-1913feba9e3a","meta":{"profile":["http://hl7.org/fhir/us/cqfmeasures/StructureDefinition/test-case-cqfm"]},"contained":[{"resourceType":"Parameters","id":"f9ebae8f-5f54-4f95-8926-778124bf37e2-parameters","parameter":[{"name":"subject","valueString":"2559be2d-0175-4018-8dfa-958ac2b1696d"}]}],"extension":[{"url":"http://hl7.org/fhir/us/cqfmeasures/StructureDefinition/cqfm-inputParameters","valueReference":{"reference":"#f9ebae8f-5f54-4f95-8926-778124bf37e2-parameters"}},{"url":"http://hl7.org/fhir/us/cqfmeasures/StructureDefinition/cqfm-testCaseDescription","valueMarkdown":"Passes: IP, Fails DENOM   Pt is 27 years of age,  encounter dx of delivery of singleton, gravida, EGA( >37 ) and @ 38 weeks, AsseDelivTm Result Is NULL\n"}],"modifierExtension":[{"url":"http://hl7.org/fhir/us/cqfmeasures/StructureDefinition/cqfm-isTestCase","valueBoolean":true}],"status":"complete","type":"individual","measure":"https://madie.cms.gov/Measure/CMS334FHIRPCCesareanBirth","period":{"start":"2026-01-01","end":"2026-12-31"},"group":[{"population":[{"code":{"coding":[{"system":"http://terminology.hl7.org/CodeSystem/measure-population","code":"initial-population","display":"Initial Population"}]},"count":1},{"code":{"coding":[{"system":"http://terminology.hl7.org/CodeSystem/measure-population","code":"denominator","display":"Denominator"}]},"count":0},{"code":{"coding":[{"system":"http://terminology.hl7.org/CodeSystem/measure-population","code":"denominator-exclusion","display":"Denominator Exclusion"}]},"count":0},{"code":{"coding":[{"system":"http://terminology.hl7.org/CodeSystem/measure-population","code":"numerator","display":"Numerator"}]},"count":0}]}]},"request":{"method":"PUT","url":"MeasureReport/f74ac925-8090-4465-99a8-1913feba9e3a"}}]}