{"resourceType":"Bundle","id":"tests-e45bf79e-2de3-47c1-b3f7-d5c06e9bc8ec-bundle","type":"transaction","entry":[{"fullUrl":"https://madie.cms.gov/Patient/e45bf79e-2de3-47c1-b3f7-d5c06e9bc8ec","resource":{"resourceType":"Patient","id":"e45bf79e-2de3-47c1-b3f7-d5c06e9bc8ec","meta":{"profile":["http://hl7.org/fhir/us/qicore/StructureDefinition/qicore-patient"]},"text":{"status":"generated","div":"<div xmlns=\"http://www.w3.org/1999/xhtml\"><div class=\"hapiHeaderText\">AssessGARelDtTime24Hours1minB4TimeOfDeliv <b>DENFAIL </b></div><table class=\"hapiPropertyTable\"><tbody><tr><td>Identifier</td><td>a645956ac82be668a9abacd6af25539c9cb78de06f5eccbbf48e18ab21ca3396</td></tr><tr><td>Date of birth</td><td><span>14 February 1985</span></td></tr></tbody></table></div>"},"extension":[{"url":"http://hl7.org/fhir/us/core/StructureDefinition/us-core-race","extension":[{"url":"ombCategory","valueCoding":{"system":"urn:oid:2.16.840.1.113883.6.238","code":"1002-5","display":"American Indian or Alaska Native","userSelected":true}},{"url":"text","valueString":"American Indian or Alaska Native"}]},{"url":"http://hl7.org/fhir/us/core/StructureDefinition/us-core-ethnicity","extension":[{"url":"ombCategory","valueCoding":{"system":"urn:oid:2.16.840.1.113883.6.238","code":"2135-2","display":"Hispanic or Latino","userSelected":true}},{"url":"text","valueString":"Hispanic or Latino"}]}],"identifier":[{"type":{"coding":[{"system":"http://terminology.hl7.org/CodeSystem/v2-0203","code":"MR"}]},"system":"https://bonnie-fhir.healthit.gov/","value":"63487c2e0968f80122540183"}],"active":true,"name":[{"use":"usual","family":"DENFail","given":["AssessGARelDtTime24Hours1minB4TimeOfDeliv"]}],"gender":"female","birthDate":"1998-02-14"},"request":{"method":"PUT","url":"Patient/e45bf79e-2de3-47c1-b3f7-d5c06e9bc8ec"}},{"fullUrl":"https://madie.cms.gov/Observation/496c0ba0-6826-4c5c-8f9f-625953bc7117","resource":{"resourceType":"Observation","id":"496c0ba0-6826-4c5c-8f9f-625953bc7117","meta":{"profile":["http://hl7.org/fhir/us/qicore/StructureDefinition/qicore-observation"]},"status":"final","category":[{"coding":[{"system":"http://terminology.hl7.org/CodeSystem/observation-category","code":"exam","display":"exam","userSelected":true}]}],"code":{"coding":[{"system":"http://loinc.org","code":"11884-4"}]},"subject":{"reference":"Patient/e45bf79e-2de3-47c1-b3f7-d5c06e9bc8ec"},"effectiveDateTime":"2026-06-07T12:59:00.000+00:00","valueQuantity":{"value":37,"system":"http://unitsofmeasure.org","code":"wk"}},"request":{"method":"PUT","url":"Observation/496c0ba0-6826-4c5c-8f9f-625953bc7117"}},{"fullUrl":"https://madie.cms.gov/Observation/79b110e5-7615-4f19-8434-97b4ba9341fe","resource":{"resourceType":"Observation","id":"79b110e5-7615-4f19-8434-97b4ba9341fe","meta":{"profile":["http://hl7.org/fhir/us/qicore/StructureDefinition/qicore-observation"]},"status":"final","category":[{"coding":[{"system":"http://terminology.hl7.org/CodeSystem/observation-category","code":"exam","display":"exam","userSelected":true}]}],"code":{"coding":[{"system":"http://loinc.org","code":"11996-6"}]},"subject":{"reference":"Patient/e45bf79e-2de3-47c1-b3f7-d5c06e9bc8ec"},"effectiveDateTime":"2026-06-08T08:00:00.000+00:00","valueInteger":1},"request":{"method":"PUT","url":"Observation/79b110e5-7615-4f19-8434-97b4ba9341fe"}},{"fullUrl":"https://madie.cms.gov/Observation/db02c9ca-adc9-499f-9564-95d0aa0e64ca","resource":{"resourceType":"Observation","id":"db02c9ca-adc9-499f-9564-95d0aa0e64ca","meta":{"profile":["http://hl7.org/fhir/us/qicore/StructureDefinition/qicore-observation"]},"status":"final","category":[{"coding":[{"system":"http://terminology.hl7.org/CodeSystem/observation-category","code":"exam","display":"exam","userSelected":true}]}],"code":{"coding":[{"system":"http://loinc.org","code":"93857-1"}]},"subject":{"reference":"Patient/e45bf79e-2de3-47c1-b3f7-d5c06e9bc8ec"},"effectiveDateTime":"2026-06-08T13:00:00.000+00:00","valueDateTime":"2026-06-08T13:00:00+00:00"},"request":{"method":"PUT","url":"Observation/db02c9ca-adc9-499f-9564-95d0aa0e64ca"}},{"fullUrl":"https://madie.cms.gov/Encounter/184d1e5e-8ed5-42dc-b628-74c1efa06d9d","resource":{"resourceType":"Encounter","id":"184d1e5e-8ed5-42dc-b628-74c1efa06d9d","meta":{"profile":["http://hl7.org/fhir/us/qicore/StructureDefinition/qicore-encounter"]},"status":"finished","class":{"system":"http://terminology.hl7.org/CodeSystem/v3-ActCode","code":"IMP","display":"inpatient encounter"},"type":[{"coding":[{"system":"http://snomed.info/sct","code":"183452005"}]}],"subject":{"reference":"Patient/e45bf79e-2de3-47c1-b3f7-d5c06e9bc8ec"},"period":{"start":"2026-06-08T08:00:00.000Z","end":"2026-06-10T08:15:00.000Z"},"length":{"value":2,"unit":"days"},"diagnosis":[{"condition":{"reference":"Condition/delivery-of-singleton-f83c"},"use":{"coding":[{"system":"http://snomed.info/sct","code":"169826009","display":"Delivery of Singleton"}]}},{"condition":{"reference":"Condition/67fb5dde-7b18-40c0-be4d-0bf5733e6109"}}]},"request":{"method":"PUT","url":"Encounter/184d1e5e-8ed5-42dc-b628-74c1efa06d9d"}},{"fullUrl":"https://madie.cms.gov/Procedure/8dcfc423-d5cc-48c7-91ad-f50f0af0ca59","resource":{"resourceType":"Procedure","id":"8dcfc423-d5cc-48c7-91ad-f50f0af0ca59","meta":{"profile":["http://hl7.org/fhir/us/qicore/StructureDefinition/qicore-procedure"]},"extension":[{"url":"http://hl7.org/fhir/us/qicore/StructureDefinition/qicore-recorded","valueDateTime":"2014-04-05T09:35:00-04:00"}],"status":"completed","code":{"coding":[{"system":"http://www.cms.gov/Medicare/Coding/ICD10","code":"10D00Z0"},{"system":"http://www.icd10data.com/icd10pcs","code":"10D00Z0","userSelected":true}]},"subject":{"reference":"Patient/e45bf79e-2de3-47c1-b3f7-d5c06e9bc8ec"},"performedPeriod":{"start":"2026-06-08T08:00:00.000Z","end":"2026-06-08T09:15:00.000Z"}},"request":{"method":"PUT","url":"Procedure/8dcfc423-d5cc-48c7-91ad-f50f0af0ca59"}},{"fullUrl":"https://madie.cms.gov/Condition/67fb5dde-7b18-40c0-be4d-0bf5733e6109","resource":{"resourceType":"Condition","id":"67fb5dde-7b18-40c0-be4d-0bf5733e6109","meta":{"profile":["http://hl7.org/fhir/us/qicore/StructureDefinition/qicore-condition"]},"category":[{"coding":[{"system":"http://terminology.hl7.org/CodeSystem/condition-category","code":"encounter-diagnosis","display":"Encounter Diagnosis"}]}],"code":{"coding":[{"system":"http://snomed.info/sct","version":"2022-09","code":"169826009","display":"Single live birth (finding)","userSelected":true}]},"subject":{"reference":"Patient/e45bf79e-2de3-47c1-b3f7-d5c06e9bc8ec"},"recordedDate":"2026-10-21T08:00:00.000+00:00"},"request":{"method":"PUT","url":"Condition/67fb5dde-7b18-40c0-be4d-0bf5733e6109"}},{"fullUrl":"https://madie.cms.gov/Coverage/389ece2e-0253-4e6f-830d-7d999e0b2099","resource":{"resourceType":"Coverage","id":"389ece2e-0253-4e6f-830d-7d999e0b2099","meta":{"profile":["http://hl7.org/fhir/us/qicore/StructureDefinition/qicore-coverage"]},"status":"active","beneficiary":{"reference":"Patient/e45bf79e-2de3-47c1-b3f7-d5c06e9bc8ec"},"payor":[{"reference":"Organization/f7da4368-fb6d-4d73-a75b-f78024cbb18d"}]},"request":{"method":"PUT","url":"Coverage/389ece2e-0253-4e6f-830d-7d999e0b2099"}},{"fullUrl":"https://madie.cms.gov/Organization/1f841aad-c793-4bbc-b50b-e200c7247289","resource":{"resourceType":"Organization","id":"f7da4368-fb6d-4d73-a75b-f78024cbb18d","meta":{"profile":["http://hl7.org/fhir/us/qicore/StructureDefinition/qicore-organization"]},"identifier":[{"use":"temp","system":"urn:oid:2.16.840.1.113883.4.4","value":"21-3259825"}],"active":true,"type":[{"coding":[{"system":"http://terminology.hl7.org/CodeSystem/organization-type","code":"pay","display":"Payer"}]}],"name":"Blue Cross Blue Shield of Texas","telecom":[{"system":"phone","value":"(+1) 972-766-6900"}],"address":[{"use":"billing","type":"postal","line":["P.O. Box 660044"],"city":"Dallas","state":"TX","postalCode":"75266-0044","country":"USA"}]},"request":{"method":"PUT","url":"Organization/f7da4368-fb6d-4d73-a75b-f78024cbb18d"}},{"fullUrl":"https://madie.cms.gov/Practitioner/3718049f-155a-4523-b3b9-7ccd829fbc98","resource":{"resourceType":"Practitioner","id":"3718049f-155a-4523-b3b9-7ccd829fbc98","identifier":[{"system":"http://hl7.org/fhir/sid/us-npi","value":"123456"}],"name":[{"family":"Evil","prefix":["Dr"]}]},"request":{"method":"PUT","url":"Practitioner/3718049f-155a-4523-b3b9-7ccd829fbc98"}},{"fullUrl":"https://madie.cms.gov/MeasureReport/69a6f169-2255-4a2a-bedc-6f2602418863","resource":{"resourceType":"MeasureReport","id":"69a6f169-2255-4a2a-bedc-6f2602418863","meta":{"profile":["http://hl7.org/fhir/us/cqfmeasures/StructureDefinition/test-case-cqfm"]},"contained":[{"resourceType":"Parameters","id":"18dcd168-abcd-492d-abc8-3204d05391ee-parameters","parameter":[{"name":"subject","valueString":"e45bf79e-2de3-47c1-b3f7-d5c06e9bc8ec"}]}],"extension":[{"url":"http://hl7.org/fhir/us/cqfmeasures/StructureDefinition/cqfm-inputParameters","valueReference":{"reference":"#18dcd168-abcd-492d-abc8-3204d05391ee-parameters"}},{"url":"http://hl7.org/fhir/us/cqfmeasures/StructureDefinition/cqfm-testCaseDescription","valueMarkdown":"Passes: IP, Pt is 27 years of age,  encounter dx of delivery of singleton, gravida, AsseEGA37 (24 hours and 1 minute before  TmDelivery rel datetime.  Tests \"Gestation37PlusWeeks.RelevantDatetime 1 day or less on or before TimeOfDel\".\n"}],"modifierExtension":[{"url":"http://hl7.org/fhir/us/cqfmeasures/StructureDefinition/cqfm-isTestCase","valueBoolean":true}],"status":"complete","type":"individual","measure":"https://madie.cms.gov/Measure/CMS334FHIRPCCesareanBirth","period":{"start":"2026-01-01","end":"2026-12-31"},"group":[{"population":[{"code":{"coding":[{"system":"http://terminology.hl7.org/CodeSystem/measure-population","code":"initial-population","display":"Initial Population"}]},"count":1},{"code":{"coding":[{"system":"http://terminology.hl7.org/CodeSystem/measure-population","code":"denominator","display":"Denominator"}]},"count":0},{"code":{"coding":[{"system":"http://terminology.hl7.org/CodeSystem/measure-population","code":"denominator-exclusion","display":"Denominator Exclusion"}]},"count":0},{"code":{"coding":[{"system":"http://terminology.hl7.org/CodeSystem/measure-population","code":"numerator","display":"Numerator"}]},"count":0}]}]},"request":{"method":"PUT","url":"MeasureReport/69a6f169-2255-4a2a-bedc-6f2602418863"}}]}