{"resourceType":"Bundle","id":"tests-f78258b8-777e-41b3-888c-0f22f70bbe35-bundle","type":"transaction","entry":[{"fullUrl":"https://madie.cms.gov/Patient/f78258b8-777e-41b3-888c-0f22f70bbe35","resource":{"resourceType":"Patient","id":"f78258b8-777e-41b3-888c-0f22f70bbe35","meta":{"profile":["http://hl7.org/fhir/us/qicore/StructureDefinition/qicore-patient"]},"text":{"status":"generated","div":"<div xmlns=\"http://www.w3.org/1999/xhtml\"><div class=\"hapiHeaderText\">AssessPreTerm0Term0RelDateLT42wkB4TimeOfDeliv <b>DENPASS </b></div><table class=\"hapiPropertyTable\"><tbody><tr><td>Identifier</td><td>31dd119079cfd5a4816f532ca8b3c6d0faf1e7c5fc379938019c4901872a0135</td></tr><tr><td>Date of birth</td><td><span>14 February 1985</span></td></tr></tbody></table></div>"},"extension":[{"url":"http://hl7.org/fhir/us/core/StructureDefinition/us-core-race","extension":[{"url":"ombCategory","valueCoding":{"system":"urn:oid:2.16.840.1.113883.6.238","code":"1002-5","display":"American Indian or Alaska Native","userSelected":true}},{"url":"text","valueString":"American Indian or Alaska Native"}]},{"url":"http://hl7.org/fhir/us/core/StructureDefinition/us-core-ethnicity","extension":[{"url":"ombCategory","valueCoding":{"system":"urn:oid:2.16.840.1.113883.6.238","code":"2135-2","display":"Hispanic or Latino","userSelected":true}},{"url":"text","valueString":"Hispanic or Latino"}]}],"identifier":[{"type":{"coding":[{"system":"http://terminology.hl7.org/CodeSystem/v2-0203","code":"MR"}]},"system":"https://bonnie-fhir.healthit.gov/","value":"63487c2d0968f80122540158"}],"active":true,"name":[{"use":"usual","family":"DENPass","given":["AssessPreTerm0Term0RelDateLT42wkB4TimeOfDeliv"]}],"gender":"female","birthDate":"1998-02-14"},"request":{"method":"PUT","url":"Patient/f78258b8-777e-41b3-888c-0f22f70bbe35"}},{"fullUrl":"https://madie.cms.gov/Observation/b741f576-d80e-46ff-a100-9ae40e27784e","resource":{"resourceType":"Observation","id":"b741f576-d80e-46ff-a100-9ae40e27784e","meta":{"profile":["http://hl7.org/fhir/us/qicore/StructureDefinition/qicore-observation"]},"status":"final","category":[{"coding":[{"system":"http://terminology.hl7.org/CodeSystem/observation-category","code":"exam","display":"exam","userSelected":true}]}],"code":{"coding":[{"system":"http://loinc.org","code":"11637-6"}]},"subject":{"reference":"Patient/f78258b8-777e-41b3-888c-0f22f70bbe35"},"effectiveDateTime":"2025-09-19T09:00:00.000+00:00","valueInteger":0},"request":{"method":"PUT","url":"Observation/b741f576-d80e-46ff-a100-9ae40e27784e"}},{"fullUrl":"https://madie.cms.gov/Observation/a6f5bdd6-ebf2-46cb-80a4-e2e652cc1734","resource":{"resourceType":"Observation","id":"a6f5bdd6-ebf2-46cb-80a4-e2e652cc1734","meta":{"profile":["http://hl7.org/fhir/us/qicore/StructureDefinition/qicore-observation"]},"status":"final","category":[{"coding":[{"system":"http://terminology.hl7.org/CodeSystem/observation-category","code":"exam","display":"exam","userSelected":true}]}],"code":{"coding":[{"system":"http://loinc.org","code":"11639-2"}]},"subject":{"reference":"Patient/f78258b8-777e-41b3-888c-0f22f70bbe35"},"effectiveDateTime":"2025-09-19T09:00:00.000+00:00","valueInteger":0},"request":{"method":"PUT","url":"Observation/a6f5bdd6-ebf2-46cb-80a4-e2e652cc1734"}},{"fullUrl":"https://madie.cms.gov/Observation/f2431a52-a5cb-492e-b50e-b9c694604e76","resource":{"resourceType":"Observation","id":"f2431a52-a5cb-492e-b50e-b9c694604e76","meta":{"profile":["http://hl7.org/fhir/us/qicore/StructureDefinition/qicore-observation"]},"status":"final","category":[{"coding":[{"system":"http://terminology.hl7.org/CodeSystem/observation-category","code":"exam","display":"exam","userSelected":true}]}],"code":{"coding":[{"system":"http://loinc.org","code":"11884-4"}]},"subject":{"reference":"Patient/f78258b8-777e-41b3-888c-0f22f70bbe35"},"effectiveDateTime":"2026-06-08T20:00:00.000+00:00","valueQuantity":{"value":37,"system":"http://unitsofmeasure.org","code":"wk"}},"request":{"method":"PUT","url":"Observation/f2431a52-a5cb-492e-b50e-b9c694604e76"}},{"fullUrl":"https://madie.cms.gov/Observation/9b605dad-1809-4b95-ab18-91294cdea468","resource":{"resourceType":"Observation","id":"9b605dad-1809-4b95-ab18-91294cdea468","meta":{"profile":["http://hl7.org/fhir/us/qicore/StructureDefinition/qicore-observation"]},"status":"final","category":[{"coding":[{"system":"http://terminology.hl7.org/CodeSystem/observation-category","code":"exam","display":"exam","userSelected":true}]}],"code":{"coding":[{"system":"http://loinc.org","code":"93857-1"}]},"subject":{"reference":"Patient/f78258b8-777e-41b3-888c-0f22f70bbe35"},"effectiveDateTime":"2026-06-08T20:00:00.000+00:00","valueDateTime":"2026-06-08T20:00:00+00:00"},"request":{"method":"PUT","url":"Observation/9b605dad-1809-4b95-ab18-91294cdea468"}},{"fullUrl":"https://madie.cms.gov/Encounter/b1cbbbc6-ed18-43bd-895a-5957ae1549d4","resource":{"resourceType":"Encounter","id":"b1cbbbc6-ed18-43bd-895a-5957ae1549d4","meta":{"profile":["http://hl7.org/fhir/us/qicore/StructureDefinition/qicore-encounter"]},"status":"finished","class":{"system":"http://terminology.hl7.org/CodeSystem/v3-ActCode","code":"IMP","display":"inpatient encounter"},"type":[{"coding":[{"system":"http://snomed.info/sct","code":"8715000"}]}],"subject":{"reference":"Patient/f78258b8-777e-41b3-888c-0f22f70bbe35"},"period":{"start":"2026-06-08T08:00:00.000Z","end":"2026-06-10T08:15:00.000Z"},"length":{"value":2,"unit":"days"},"diagnosis":[{"condition":{"reference":"Condition/delivery-of-singleton-f83c"},"use":{"coding":[{"system":"http://snomed.info/sct","code":"169826009","display":"Delivery of Singleton"}]}},{"condition":{"reference":"Condition/45a40b97-0f54-4cba-a0ed-7be0824461df"}}]},"request":{"method":"PUT","url":"Encounter/b1cbbbc6-ed18-43bd-895a-5957ae1549d4"}},{"fullUrl":"https://madie.cms.gov/Procedure/1a8da035-fe1a-4c37-b208-373a632561a2","resource":{"resourceType":"Procedure","id":"1a8da035-fe1a-4c37-b208-373a632561a2","meta":{"profile":["http://hl7.org/fhir/us/qicore/StructureDefinition/qicore-procedure"]},"extension":[{"url":"http://hl7.org/fhir/us/qicore/StructureDefinition/qicore-recorded","valueDateTime":"2014-04-05T09:35:00-04:00"}],"status":"completed","code":{"coding":[{"system":"http://www.cms.gov/Medicare/Coding/ICD10","code":"10D00Z0"},{"system":"http://snomed.info/sct","code":"4504004"},{"system":"http://www.icd10data.com/icd10pcs","code":"10D00Z1","userSelected":true}]},"subject":{"reference":"Patient/f78258b8-777e-41b3-888c-0f22f70bbe35"},"performedPeriod":{"start":"2026-06-08T20:00:00.000Z","end":"2026-06-08T20:15:00.000Z"}},"request":{"method":"PUT","url":"Procedure/1a8da035-fe1a-4c37-b208-373a632561a2"}},{"fullUrl":"https://madie.cms.gov/Condition/45a40b97-0f54-4cba-a0ed-7be0824461df","resource":{"resourceType":"Condition","id":"45a40b97-0f54-4cba-a0ed-7be0824461df","meta":{"profile":["http://hl7.org/fhir/us/qicore/StructureDefinition/qicore-condition"]},"category":[{"coding":[{"system":"http://terminology.hl7.org/CodeSystem/condition-category","code":"encounter-diagnosis","display":"Encounter Diagnosis"}]}],"code":{"coding":[{"system":"http://snomed.info/sct","version":"2022-09","code":"169826009","display":"Single live birth (finding)","userSelected":true}]},"subject":{"reference":"Patient/f78258b8-777e-41b3-888c-0f22f70bbe35"},"recordedDate":"2026-10-20T08:00:00.000+00:00"},"request":{"method":"PUT","url":"Condition/45a40b97-0f54-4cba-a0ed-7be0824461df"}},{"fullUrl":"https://madie.cms.gov/Coverage/e6590198-2cd1-4a27-8ea5-3732f807c7b4","resource":{"resourceType":"Coverage","id":"e6590198-2cd1-4a27-8ea5-3732f807c7b4","meta":{"profile":["http://hl7.org/fhir/us/qicore/StructureDefinition/qicore-coverage"]},"status":"active","beneficiary":{"reference":"Patient/f78258b8-777e-41b3-888c-0f22f70bbe35"},"payor":[{"reference":"Organization/3778262e-e084-4bb5-9a47-1a144735f786"}]},"request":{"method":"PUT","url":"Coverage/e6590198-2cd1-4a27-8ea5-3732f807c7b4"}},{"fullUrl":"https://madie.cms.gov/Organization/64214e78-cb83-45a5-9a34-1b9fc4aec368","resource":{"resourceType":"Organization","id":"3778262e-e084-4bb5-9a47-1a144735f786","meta":{"profile":["http://hl7.org/fhir/us/qicore/StructureDefinition/qicore-organization"]},"identifier":[{"use":"temp","system":"urn:oid:2.16.840.1.113883.4.4","value":"21-3259825"}],"active":true,"type":[{"coding":[{"system":"http://terminology.hl7.org/CodeSystem/organization-type","code":"pay","display":"Payer"}]}],"name":"Blue Cross Blue Shield of Texas","telecom":[{"system":"phone","value":"(+1) 972-766-6900"}],"address":[{"use":"billing","type":"postal","line":["P.O. Box 660044"],"city":"Dallas","state":"TX","postalCode":"75266-0044","country":"USA"}]},"request":{"method":"PUT","url":"Organization/3778262e-e084-4bb5-9a47-1a144735f786"}},{"fullUrl":"https://madie.cms.gov/Practitioner/0631b075-6664-4f20-9601-6db81e905311","resource":{"resourceType":"Practitioner","id":"0631b075-6664-4f20-9601-6db81e905311","identifier":[{"system":"http://hl7.org/fhir/sid/us-npi","value":"123456"}],"name":[{"family":"Evil","prefix":["Dr"]}]},"request":{"method":"PUT","url":"Practitioner/0631b075-6664-4f20-9601-6db81e905311"}},{"fullUrl":"https://madie.cms.gov/MeasureReport/846ab8f9-ca1d-40e2-9d4f-cf02ac641608","resource":{"resourceType":"MeasureReport","id":"846ab8f9-ca1d-40e2-9d4f-cf02ac641608","meta":{"profile":["http://hl7.org/fhir/us/cqfmeasures/StructureDefinition/test-case-cqfm"]},"contained":[{"resourceType":"Parameters","id":"b9c7f2b4-7297-47f9-a512-70c62110188f-parameters","parameter":[{"name":"subject","valueString":"f78258b8-777e-41b3-888c-0f22f70bbe35"}]}],"extension":[{"url":"http://hl7.org/fhir/us/cqfmeasures/StructureDefinition/cqfm-inputParameters","valueReference":{"reference":"#b9c7f2b4-7297-47f9-a512-70c62110188f-parameters"}},{"url":"http://hl7.org/fhir/us/cqfmeasures/StructureDefinition/cqfm-testCaseDescription","valueMarkdown":"\"Preterm Births=0, Rel Dt/Time < 42weeks prior to asse delivery date/time\nTerm Newborn=0, Rel Dt/Time < 42weeks prior to asse delivery date/time\"\n"}],"modifierExtension":[{"url":"http://hl7.org/fhir/us/cqfmeasures/StructureDefinition/cqfm-isTestCase","valueBoolean":true}],"status":"complete","type":"individual","measure":"https://madie.cms.gov/Measure/CMS334FHIRPCCesareanBirth","period":{"start":"2026-01-01","end":"2026-12-31"},"group":[{"population":[{"code":{"coding":[{"system":"http://terminology.hl7.org/CodeSystem/measure-population","code":"initial-population","display":"Initial Population"}]},"count":1},{"code":{"coding":[{"system":"http://terminology.hl7.org/CodeSystem/measure-population","code":"denominator","display":"Denominator"}]},"count":1},{"code":{"coding":[{"system":"http://terminology.hl7.org/CodeSystem/measure-population","code":"denominator-exclusion","display":"Denominator Exclusion"}]},"count":0},{"code":{"coding":[{"system":"http://terminology.hl7.org/CodeSystem/measure-population","code":"numerator","display":"Numerator"}]},"count":1}]}]},"request":{"method":"PUT","url":"MeasureReport/846ab8f9-ca1d-40e2-9d4f-cf02ac641608"}}]}