{"resourceType":"Bundle","id":"tests-e8157340-2867-44fc-8277-4e09507f4546-bundle","type":"transaction","entry":[{"fullUrl":"https://madie.cms.gov/Patient/e8157340-2867-44fc-8277-4e09507f4546","resource":{"resourceType":"Patient","id":"e8157340-2867-44fc-8277-4e09507f4546","meta":{"profile":["http://hl7.org/fhir/us/qicore/StructureDefinition/qicore-patient"]},"text":{"status":"generated","div":"<div xmlns=\"http://www.w3.org/1999/xhtml\"><div class=\"hapiHeaderText\">CalcEGA42Weeks_EDDRelDtTime2WksPriorToDelivery <b>DENPASS </b></div><table class=\"hapiPropertyTable\"><tbody><tr><td>Identifier</td><td>c6b51506d3a7092894a3f06af44f7ab397fd257a35f97f16644057feff48ec70</td></tr><tr><td>Date of birth</td><td><span>14 February 1985</span></td></tr></tbody></table></div>"},"extension":[{"url":"http://hl7.org/fhir/us/core/StructureDefinition/us-core-race","extension":[{"url":"ombCategory","valueCoding":{"system":"urn:oid:2.16.840.1.113883.6.238","code":"1002-5","display":"American Indian or Alaska Native","userSelected":true}},{"url":"text","valueString":"American Indian or Alaska Native"}]},{"url":"http://hl7.org/fhir/us/core/StructureDefinition/us-core-ethnicity","extension":[{"url":"ombCategory","valueCoding":{"system":"urn:oid:2.16.840.1.113883.6.238","code":"2135-2","display":"Hispanic or Latino","userSelected":true}},{"url":"text","valueString":"Hispanic or Latino"}]}],"identifier":[{"type":{"coding":[{"system":"http://terminology.hl7.org/CodeSystem/v2-0203","code":"MR"}]},"system":"https://bonnie-fhir.healthit.gov/","value":"63487c300968f801225401d2"}],"active":true,"name":[{"use":"usual","family":"DENPass","given":["CalcEGA42Weeks_EDDRelDtTime2WksPriorToDelivery"]}],"gender":"female","birthDate":"1998-02-14"},"request":{"method":"PUT","url":"Patient/e8157340-2867-44fc-8277-4e09507f4546"}},{"fullUrl":"https://madie.cms.gov/Observation/0a1c8fad-27f4-4530-831e-8c46c2350db2","resource":{"resourceType":"Observation","id":"0a1c8fad-27f4-4530-831e-8c46c2350db2","meta":{"profile":["http://hl7.org/fhir/us/qicore/StructureDefinition/qicore-observation"]},"status":"final","category":[{"coding":[{"system":"http://terminology.hl7.org/CodeSystem/observation-category","code":"exam","display":"exam","userSelected":true}]}],"code":{"coding":[{"system":"http://loinc.org","code":"11996-6"}]},"subject":{"reference":"Patient/e8157340-2867-44fc-8277-4e09507f4546"},"effectiveDateTime":"2025-08-19T19:00:00.000+00:00","valueInteger":1},"request":{"method":"PUT","url":"Observation/0a1c8fad-27f4-4530-831e-8c46c2350db2"}},{"fullUrl":"https://madie.cms.gov/Observation/654ec186-54cc-43db-9df1-004d55280456","resource":{"resourceType":"Observation","id":"654ec186-54cc-43db-9df1-004d55280456","meta":{"profile":["http://hl7.org/fhir/us/qicore/StructureDefinition/qicore-observation"]},"status":"final","category":[{"coding":[{"system":"http://terminology.hl7.org/CodeSystem/observation-category","code":"exam","display":"exam","userSelected":true}]}],"code":{"coding":[{"system":"http://loinc.org","code":"93857-1"}]},"subject":{"reference":"Patient/e8157340-2867-44fc-8277-4e09507f4546"},"effectiveDateTime":"2026-01-15T19:00:00.000+00:00","valueDateTime":"2026-01-15T19:00:00+00:00"},"request":{"method":"PUT","url":"Observation/654ec186-54cc-43db-9df1-004d55280456"}},{"fullUrl":"https://madie.cms.gov/Observation/cc8e8285-387b-4698-abb3-24beed053fab","resource":{"resourceType":"Observation","id":"cc8e8285-387b-4698-abb3-24beed053fab","meta":{"profile":["http://hl7.org/fhir/us/qicore/StructureDefinition/qicore-observation"]},"status":"final","category":[{"coding":[{"system":"http://terminology.hl7.org/CodeSystem/observation-category","code":"exam","display":"exam","userSelected":true}]}],"code":{"coding":[{"system":"http://loinc.org","code":"11778-8"}]},"subject":{"reference":"Patient/e8157340-2867-44fc-8277-4e09507f4546"},"effectiveDateTime":"2026-01-01T08:00:00.000+00:00","valueDateTime":"2026-01-01T08:00:00+00:00"},"request":{"method":"PUT","url":"Observation/cc8e8285-387b-4698-abb3-24beed053fab"}},{"fullUrl":"https://madie.cms.gov/Encounter/8176d088-d072-45ef-8d84-a5fc69ce6fb1","resource":{"resourceType":"Encounter","id":"8176d088-d072-45ef-8d84-a5fc69ce6fb1","meta":{"profile":["http://hl7.org/fhir/us/qicore/StructureDefinition/qicore-encounter"]},"status":"finished","class":{"system":"http://terminology.hl7.org/CodeSystem/v3-ActCode","code":"IMP","display":"inpatient encounter"},"type":[{"coding":[{"system":"http://snomed.info/sct","code":"183452005"}]}],"subject":{"reference":"Patient/e8157340-2867-44fc-8277-4e09507f4546"},"period":{"start":"2026-01-15T08:00:00.000Z","end":"2026-01-20T08:15:00.000Z"},"length":{"value":2.0,"unit":"days"},"diagnosis":[{"condition":{"reference":"Condition/delivery-of-singleton-f83c"},"use":{"coding":[{"system":"http://snomed.info/sct","code":"169826009","display":"Delivery of Singleton"}]}},{"condition":{"reference":"Condition/8692458e-b820-4a2c-bac3-fb7a857d6c72"}}]},"request":{"method":"PUT","url":"Encounter/8176d088-d072-45ef-8d84-a5fc69ce6fb1"}},{"fullUrl":"https://madie.cms.gov/Coverage/31d417ac-0018-400d-84ff-91f9b7af047e","resource":{"resourceType":"Coverage","id":"31d417ac-0018-400d-84ff-91f9b7af047e","status":"active","beneficiary":{"reference":"Patient/e8157340-2867-44fc-8277-4e09507f4546"},"period":{"start":"1986-02-14T08:00:00.000Z"},"payor":[{"reference":"Organization/5ad6ea38-07e9-4482-9e1b-c09eee595be9"}]},"request":{"method":"PUT","url":"Coverage/31d417ac-0018-400d-84ff-91f9b7af047e"}},{"fullUrl":"https://madie.cms.gov/Procedure/02106546-b2a3-49e4-a11d-474512367a1c","resource":{"resourceType":"Procedure","id":"02106546-b2a3-49e4-a11d-474512367a1c","meta":{"profile":["http://hl7.org/fhir/us/qicore/StructureDefinition/qicore-procedure"]},"extension":[{"url":"http://hl7.org/fhir/us/qicore/StructureDefinition/qicore-recorded","valueDateTime":"2014-04-05T09:35:00-04:00"}],"status":"completed","code":{"coding":[{"system":"http://www.cms.gov/Medicare/Coding/ICD10","code":"10D07Z3"},{"system":"http://www.icd10data.com/icd10pcs","code":"10D07Z3","userSelected":true}]},"subject":{"reference":"Patient/e8157340-2867-44fc-8277-4e09507f4546"},"performedPeriod":{"start":"2026-01-15T08:10:00.000Z","end":"2026-01-15T09:14:00.000Z"}},"request":{"method":"PUT","url":"Procedure/02106546-b2a3-49e4-a11d-474512367a1c"}},{"fullUrl":"https://madie.cms.gov/Condition/8692458e-b820-4a2c-bac3-fb7a857d6c72","resource":{"resourceType":"Condition","id":"8692458e-b820-4a2c-bac3-fb7a857d6c72","meta":{"profile":["http://hl7.org/fhir/us/qicore/StructureDefinition/qicore-condition"]},"category":[{"coding":[{"system":"http://terminology.hl7.org/CodeSystem/condition-category","code":"encounter-diagnosis","display":"Encounter Diagnosis"}]}],"code":{"coding":[{"system":"http://snomed.info/sct","version":"2022-09","code":"169826009","display":"Single live birth (finding)","userSelected":true}]},"subject":{"reference":"Patient/e8157340-2867-44fc-8277-4e09507f4546"},"recordedDate":"2026-10-20T08:00:00.000+00:00"},"request":{"method":"PUT","url":"Condition/8692458e-b820-4a2c-bac3-fb7a857d6c72"}},{"fullUrl":"https://madie.cms.gov/Organization/252b9eb0-7b57-4332-8566-9eb8d9bea9b4","resource":{"resourceType":"Organization","id":"5ad6ea38-07e9-4482-9e1b-c09eee595be9","meta":{"profile":["http://hl7.org/fhir/us/qicore/StructureDefinition/qicore-organization"]},"identifier":[{"use":"temp","system":"urn:oid:2.16.840.1.113883.4.4","value":"21-3259825"}],"active":true,"type":[{"coding":[{"system":"http://terminology.hl7.org/CodeSystem/organization-type","code":"pay","display":"Payer"}]}],"name":"Blue Cross Blue Shield of Texas","telecom":[{"system":"phone","value":"(+1) 972-766-6900"}],"address":[{"use":"billing","type":"postal","line":["P.O. Box 660044"],"city":"Dallas","state":"TX","postalCode":"75266-0044","country":"USA"}]},"request":{"method":"PUT","url":"Organization/5ad6ea38-07e9-4482-9e1b-c09eee595be9"}},{"fullUrl":"https://madie.cms.gov/Practitioner/cb4f9235-4032-40a6-bfdb-7d44c91c1313","resource":{"resourceType":"Practitioner","id":"cb4f9235-4032-40a6-bfdb-7d44c91c1313","identifier":[{"system":"http://hl7.org/fhir/sid/us-npi","value":"123456"}],"name":[{"family":"Evil","prefix":["Dr"]}]},"request":{"method":"PUT","url":"Practitioner/cb4f9235-4032-40a6-bfdb-7d44c91c1313"}},{"fullUrl":"https://madie.cms.gov/MeasureReport/01175b19-a42c-4c14-89c3-a76fff76a96e","resource":{"resourceType":"MeasureReport","id":"01175b19-a42c-4c14-89c3-a76fff76a96e","meta":{"profile":["http://hl7.org/fhir/us/cqfmeasures/StructureDefinition/test-case-cqfm"]},"contained":[{"resourceType":"Parameters","id":"6f044b19-794a-4f2e-8ea2-1a3c3a421dcb-parameters","parameter":[{"name":"subject","valueString":"e8157340-2867-44fc-8277-4e09507f4546"}]}],"extension":[{"url":"http://hl7.org/fhir/us/cqfmeasures/StructureDefinition/cqfm-inputParameters","valueReference":{"reference":"#6f044b19-794a-4f2e-8ea2-1a3c3a421dcb-parameters"}},{"url":"http://hl7.org/fhir/us/cqfmeasures/StructureDefinition/cqfm-testCaseDescription","valueMarkdown":"\"Calculated EGA is 42 weeks with EDD relevant date/time 2 weeks prior to admission.\n\n"}],"modifierExtension":[{"url":"http://hl7.org/fhir/us/cqfmeasures/StructureDefinition/cqfm-isTestCase","valueBoolean":true}],"status":"complete","type":"individual","measure":"https://madie.cms.gov/Measure/CMS334FHIRPCCesareanBirth","period":{"start":"2026-01-01","end":"2026-12-31"},"group":[{"population":[{"code":{"coding":[{"system":"http://terminology.hl7.org/CodeSystem/measure-population","code":"initial-population","display":"Initial Population"}]},"count":1},{"code":{"coding":[{"system":"http://terminology.hl7.org/CodeSystem/measure-population","code":"denominator","display":"Denominator"}]},"count":1},{"code":{"coding":[{"system":"http://terminology.hl7.org/CodeSystem/measure-population","code":"denominator-exclusion","display":"Denominator Exclusion"}]},"count":0},{"code":{"coding":[{"system":"http://terminology.hl7.org/CodeSystem/measure-population","code":"numerator","display":"Numerator"}]},"count":0}]}]},"request":{"method":"PUT","url":"MeasureReport/01175b19-a42c-4c14-89c3-a76fff76a96e"}}]}