{"resourceType":"Bundle","id":"tests-36133ed8-3505-4735-bfb1-f02fb288557f-bundle","type":"transaction","entry":[{"fullUrl":"https://madie.cms.gov/Patient/36133ed8-3505-4735-bfb1-f02fb288557f","resource":{"resourceType":"Patient","id":"36133ed8-3505-4735-bfb1-f02fb288557f","meta":{"profile":["http://hl7.org/fhir/us/qicore/StructureDefinition/qicore-patient"]},"text":{"status":"generated","div":"<div xmlns=\"http://www.w3.org/1999/xhtml\"><div class=\"hapiHeaderText\">2EGAsFirstEQ37LastEQ36 <b>DENFAIL </b></div><table class=\"hapiPropertyTable\"><tbody><tr><td>Identifier</td><td>73d161bbd72a0b8d656073de21758ea0022c984462702bb844daf97a7291f479</td></tr><tr><td>Date of birth</td><td><span>14 February 1985</span></td></tr></tbody></table></div>"},"extension":[{"url":"http://hl7.org/fhir/us/core/StructureDefinition/us-core-race","extension":[{"url":"ombCategory","valueCoding":{"system":"urn:oid:2.16.840.1.113883.6.238","code":"1002-5","display":"American Indian or Alaska Native","userSelected":true}},{"url":"text","valueString":"American Indian or Alaska Native"}]},{"url":"http://hl7.org/fhir/us/core/StructureDefinition/us-core-ethnicity","extension":[{"url":"ombCategory","valueCoding":{"system":"urn:oid:2.16.840.1.113883.6.238","code":"2135-2","display":"Hispanic or Latino","userSelected":true}},{"url":"text","valueString":"Hispanic or Latino"}]}],"identifier":[{"type":{"coding":[{"system":"http://terminology.hl7.org/CodeSystem/v2-0203","code":"MR"}]},"system":"https://bonnie-fhir.healthit.gov/","value":"63487c2f0968f8012254019c"}],"active":true,"name":[{"use":"usual","family":"DENFail","given":["2EGAsFirstEQ37LastEQ36  "]}],"gender":"female","birthDate":"1998-02-14"},"request":{"method":"PUT","url":"Patient/36133ed8-3505-4735-bfb1-f02fb288557f"}},{"fullUrl":"https://madie.cms.gov/Observation/2535939f-c7f8-4f06-811d-433245b7e75b","resource":{"resourceType":"Observation","id":"2535939f-c7f8-4f06-811d-433245b7e75b","meta":{"profile":["http://hl7.org/fhir/us/qicore/StructureDefinition/qicore-observation"]},"status":"final","category":[{"coding":[{"system":"http://terminology.hl7.org/CodeSystem/observation-category","code":"exam","display":"exam","userSelected":true}]}],"code":{"coding":[{"system":"http://loinc.org","code":"11996-6"}]},"subject":{"reference":"Patient/36133ed8-3505-4735-bfb1-f02fb288557f"},"effectiveDateTime":"2026-06-08T08:00:00.000+00:00","valueInteger":1},"request":{"method":"PUT","url":"Observation/2535939f-c7f8-4f06-811d-433245b7e75b"}},{"fullUrl":"https://madie.cms.gov/Observation/d27d2b45-0a06-489f-938f-6e91141eafe8","resource":{"resourceType":"Observation","id":"d27d2b45-0a06-489f-938f-6e91141eafe8","meta":{"profile":["http://hl7.org/fhir/us/qicore/StructureDefinition/qicore-observation"]},"status":"final","category":[{"coding":[{"system":"http://terminology.hl7.org/CodeSystem/observation-category","code":"exam","display":"exam","userSelected":true}]}],"code":{"coding":[{"system":"http://loinc.org","code":"11884-4"}]},"subject":{"reference":"Patient/36133ed8-3505-4735-bfb1-f02fb288557f"},"effectiveDateTime":"2026-06-08T09:15:00.000+00:00","valueQuantity":{"value":36.0,"system":"http://unitsofmeasure.org","code":"wk"}},"request":{"method":"PUT","url":"Observation/d27d2b45-0a06-489f-938f-6e91141eafe8"}},{"fullUrl":"https://madie.cms.gov/Observation/f470c586-943c-4312-9301-764c765a22fb","resource":{"resourceType":"Observation","id":"f470c586-943c-4312-9301-764c765a22fb","meta":{"profile":["http://hl7.org/fhir/us/qicore/StructureDefinition/qicore-observation"]},"status":"final","category":[{"coding":[{"system":"http://terminology.hl7.org/CodeSystem/observation-category","code":"exam","display":"exam","userSelected":true}]}],"code":{"coding":[{"system":"http://loinc.org","code":"93857-1"}]},"subject":{"reference":"Patient/36133ed8-3505-4735-bfb1-f02fb288557f"},"effectiveDateTime":"2026-06-08T09:15:00.000+00:00","valueDateTime":"2026-06-08T09:15:00+00:00"},"request":{"method":"PUT","url":"Observation/f470c586-943c-4312-9301-764c765a22fb"}},{"fullUrl":"https://madie.cms.gov/Observation/07ef9b66-4c3d-4cae-a163-90fbc6be500c","resource":{"resourceType":"Observation","id":"07ef9b66-4c3d-4cae-a163-90fbc6be500c","meta":{"profile":["http://hl7.org/fhir/us/qicore/StructureDefinition/qicore-observation"]},"status":"final","category":[{"coding":[{"system":"http://terminology.hl7.org/CodeSystem/observation-category","code":"exam","display":"exam","userSelected":true}]}],"code":{"coding":[{"system":"http://loinc.org","code":"11884-4"}]},"subject":{"reference":"Patient/36133ed8-3505-4735-bfb1-f02fb288557f"},"effectiveDateTime":"2026-06-08T09:00:00.000+00:00","valueQuantity":{"value":37.0,"system":"http://unitsofmeasure.org","code":"wk"}},"request":{"method":"PUT","url":"Observation/07ef9b66-4c3d-4cae-a163-90fbc6be500c"}},{"fullUrl":"https://madie.cms.gov/Encounter/d76f8a13-52b0-44df-999c-b0497a38c685","resource":{"resourceType":"Encounter","id":"d76f8a13-52b0-44df-999c-b0497a38c685","meta":{"profile":["http://hl7.org/fhir/us/qicore/StructureDefinition/qicore-encounter"]},"status":"finished","class":{"system":"http://terminology.hl7.org/CodeSystem/v3-ActCode","code":"IMP","display":"inpatient encounter"},"type":[{"coding":[{"system":"http://snomed.info/sct","code":"183452005"}]}],"subject":{"reference":"Patient/36133ed8-3505-4735-bfb1-f02fb288557f"},"period":{"start":"2026-06-08T08:00:00.000Z","end":"2026-06-10T08:15:00.000Z"},"length":{"value":2.0,"unit":"days"},"diagnosis":[{"condition":{"reference":"Condition/delivery-of-singleton-f83c"},"use":{"coding":[{"system":"http://snomed.info/sct","code":"169826009","display":"Delivery of Singleton"}]}},{"condition":{"reference":"Condition/exam-9a82"}}]},"request":{"method":"PUT","url":"Encounter/d76f8a13-52b0-44df-999c-b0497a38c685"}},{"fullUrl":"https://madie.cms.gov/Procedure/a95b8e46-c0ac-4661-8f8a-5e38d505e6fb","resource":{"resourceType":"Procedure","id":"a95b8e46-c0ac-4661-8f8a-5e38d505e6fb","meta":{"profile":["http://hl7.org/fhir/us/qicore/StructureDefinition/qicore-procedure"]},"extension":[{"url":"http://hl7.org/fhir/us/qicore/StructureDefinition/qicore-recorded","valueDateTime":"2014-04-05T09:35:00-04:00"}],"status":"completed","code":{"coding":[{"system":"http://www.cms.gov/Medicare/Coding/ICD10","code":"10D00Z0"},{"system":"http://www.icd10data.com/icd10pcs","code":"10D00Z0","userSelected":true}]},"subject":{"reference":"Patient/36133ed8-3505-4735-bfb1-f02fb288557f"},"performedPeriod":{"start":"2026-06-08T08:00:00.000Z","end":"2026-06-08T09:15:00.000Z"}},"request":{"method":"PUT","url":"Procedure/a95b8e46-c0ac-4661-8f8a-5e38d505e6fb"}},{"fullUrl":"https://madie.cms.gov/Condition/0f4a44a5-46fe-4b0a-8bc3-82f88ba2d1b0","resource":{"resourceType":"Condition","id":"0f4a44a5-46fe-4b0a-8bc3-82f88ba2d1b0","meta":{"profile":["http://hl7.org/fhir/us/qicore/StructureDefinition/qicore-condition"]},"category":[{"coding":[{"system":"http://terminology.hl7.org/CodeSystem/condition-category","code":"encounter-diagnosis","display":"Encounter Diagnosis"}]}],"code":{"coding":[{"system":"http://snomed.info/sct","code":"169826009","display":"Single live birth (finding)"}]},"subject":{"reference":"Patient/36133ed8-3505-4735-bfb1-f02fb288557f"}},"request":{"method":"PUT","url":"Condition/0f4a44a5-46fe-4b0a-8bc3-82f88ba2d1b0"}},{"fullUrl":"https://madie.cms.gov/Coverage/dc5a416f-f4c9-4bdf-aad3-2f2f389cdde4","resource":{"resourceType":"Coverage","id":"dc5a416f-f4c9-4bdf-aad3-2f2f389cdde4","meta":{"profile":["http://hl7.org/fhir/us/qicore/StructureDefinition/qicore-coverage"]},"status":"active","beneficiary":{"reference":"Patient/36133ed8-3505-4735-bfb1-f02fb288557f"},"payor":[{"reference":"Organization/607fdef9-3983-4cef-ab1a-95434d29b463"}]},"request":{"method":"PUT","url":"Coverage/dc5a416f-f4c9-4bdf-aad3-2f2f389cdde4"}},{"fullUrl":"https://madie.cms.gov/Organization/107988cc-5dba-44b0-b1c6-53ee8fa65f10","resource":{"resourceType":"Organization","id":"607fdef9-3983-4cef-ab1a-95434d29b463","meta":{"profile":["http://hl7.org/fhir/us/qicore/StructureDefinition/qicore-organization"]},"identifier":[{"use":"temp","system":"urn:oid:2.16.840.1.113883.4.4","value":"21-3259825"}],"active":true,"type":[{"coding":[{"system":"http://terminology.hl7.org/CodeSystem/organization-type","code":"pay","display":"Payer"}]}],"name":"Blue Cross Blue Shield of Texas","telecom":[{"system":"phone","value":"(+1) 972-766-6900"}],"address":[{"use":"billing","type":"postal","line":["P.O. Box 660044"],"city":"Dallas","state":"TX","postalCode":"75266-0044","country":"USA"}]},"request":{"method":"PUT","url":"Organization/607fdef9-3983-4cef-ab1a-95434d29b463"}},{"fullUrl":"https://madie.cms.gov/Practitioner/0fc2a64e-7049-431e-95ac-3cebeccc884b","resource":{"resourceType":"Practitioner","id":"0fc2a64e-7049-431e-95ac-3cebeccc884b","identifier":[{"system":"http://hl7.org/fhir/sid/us-npi","value":"123456"}],"name":[{"family":"Evil","prefix":["Dr"]}]},"request":{"method":"PUT","url":"Practitioner/0fc2a64e-7049-431e-95ac-3cebeccc884b"}},{"fullUrl":"https://madie.cms.gov/MeasureReport/547ec7eb-2fa6-428e-a5c4-45361d5bb4b9","resource":{"resourceType":"MeasureReport","id":"547ec7eb-2fa6-428e-a5c4-45361d5bb4b9","meta":{"profile":["http://hl7.org/fhir/us/cqfmeasures/StructureDefinition/test-case-cqfm"]},"contained":[{"resourceType":"Parameters","id":"9ea41d3e-828d-4319-ad5a-63c4c37aca59-parameters","parameter":[{"name":"subject","valueString":"36133ed8-3505-4735-bfb1-f02fb288557f"}]}],"extension":[{"url":"http://hl7.org/fhir/us/cqfmeasures/StructureDefinition/cqfm-inputParameters","valueReference":{"reference":"#9ea41d3e-828d-4319-ad5a-63c4c37aca59-parameters"}},{"url":"http://hl7.org/fhir/us/cqfmeasures/StructureDefinition/cqfm-testCaseDescription","valueMarkdown":"Passes: IP, Pt is 27 years of age,  encounter dx of delivery of singleton, gravida, EGA 36 weeks\n"}],"modifierExtension":[{"url":"http://hl7.org/fhir/us/cqfmeasures/StructureDefinition/cqfm-isTestCase","valueBoolean":true}],"status":"complete","type":"individual","measure":"https://madie.cms.gov/Measure/CMS334FHIRPCCesareanBirth","period":{"start":"2026-01-01","end":"2026-12-31"},"group":[{"population":[{"code":{"coding":[{"system":"http://terminology.hl7.org/CodeSystem/measure-population","code":"initial-population","display":"Initial Population"}]},"count":1},{"code":{"coding":[{"system":"http://terminology.hl7.org/CodeSystem/measure-population","code":"denominator","display":"Denominator"}]},"count":0},{"code":{"coding":[{"system":"http://terminology.hl7.org/CodeSystem/measure-population","code":"denominator-exclusion","display":"Denominator Exclusion"}]},"count":0},{"code":{"coding":[{"system":"http://terminology.hl7.org/CodeSystem/measure-population","code":"numerator","display":"Numerator"}]},"count":0}]}]},"request":{"method":"PUT","url":"MeasureReport/547ec7eb-2fa6-428e-a5c4-45361d5bb4b9"}}]}