{"resourceType":"Bundle","id":"tests-6d9334c8-ff66-4358-9502-8e8a38a69205-bundle","type":"transaction","entry":[{"fullUrl":"https://madie.cms.gov/Patient/6d9334c8-ff66-4358-9502-8e8a38a69205","resource":{"resourceType":"Patient","id":"6d9334c8-ff66-4358-9502-8e8a38a69205","meta":{"profile":["http://hl7.org/fhir/us/qicore/StructureDefinition/qicore-patient"]},"text":{"status":"generated","div":"<div xmlns=\"http://www.w3.org/1999/xhtml\"><div class=\"hapiHeaderText\">ProcDelivStartB4EncInpStart <b>IPFAIL </b></div><table class=\"hapiPropertyTable\"><tbody><tr><td>Identifier</td><td>8ebfa8812ad70a141daae232885be39a56b9d3448a9add93e211911275da5f6a</td></tr><tr><td>Date of birth</td><td><span>14 February 1985</span></td></tr></tbody></table></div>"},"extension":[{"url":"http://hl7.org/fhir/us/core/StructureDefinition/us-core-race","extension":[{"url":"ombCategory","valueCoding":{"system":"urn:oid:2.16.840.1.113883.6.238","code":"1002-5","display":"American Indian or Alaska Native","userSelected":true}},{"url":"text","valueString":"American Indian or Alaska Native"}]},{"url":"http://hl7.org/fhir/us/core/StructureDefinition/us-core-ethnicity","extension":[{"url":"ombCategory","valueCoding":{"system":"urn:oid:2.16.840.1.113883.6.238","code":"2135-2","display":"Hispanic or Latino","userSelected":true}},{"url":"text","valueString":"Hispanic or Latino"}]}],"identifier":[{"type":{"coding":[{"system":"http://terminology.hl7.org/CodeSystem/v2-0203","code":"MR"}]},"system":"https://bonnie-fhir.healthit.gov/","value":"63487c2e0968f80122540181"}],"active":true,"name":[{"use":"usual","family":"IPFail","given":["ProcDelivStartDayB4EncInpStart"]}],"gender":"female","birthDate":"1986-02-14"},"request":{"method":"PUT","url":"Patient/6d9334c8-ff66-4358-9502-8e8a38a69205"}},{"fullUrl":"https://madie.cms.gov/Encounter/41e205e6-0136-49df-b69c-7bbbe97d472b","resource":{"resourceType":"Encounter","id":"41e205e6-0136-49df-b69c-7bbbe97d472b","meta":{"profile":["http://hl7.org/fhir/us/qicore/StructureDefinition/qicore-encounter"]},"status":"finished","class":{"system":"http://terminology.hl7.org/CodeSystem/v3-ActCode","code":"IMP","display":"inpatient encounter"},"type":[{"coding":[{"system":"http://snomed.info/sct","code":"8715000"}]}],"subject":{"reference":"Patient/6d9334c8-ff66-4358-9502-8e8a38a69205"},"period":{"start":"2026-11-28T08:00:00.000Z","end":"2026-11-30T08:15:00.000Z"},"length":{"value":2.0,"unit":"days"},"diagnosis":[{"condition":{"reference":"Condition/Condition-2"},"use":{"coding":[{"system":"http://snomed.info/sct","code":"169826009","display":"Delivery of Singleton"}]}}]},"request":{"method":"PUT","url":"Encounter/41e205e6-0136-49df-b69c-7bbbe97d472b"}},{"fullUrl":"https://madie.cms.gov/Procedure/15e27ea9-1293-4272-a75a-64e0d2a65c5f","resource":{"resourceType":"Procedure","id":"15e27ea9-1293-4272-a75a-64e0d2a65c5f","meta":{"profile":["http://hl7.org/fhir/us/qicore/StructureDefinition/qicore-procedure"]},"extension":[{"url":"http://hl7.org/fhir/us/qicore/StructureDefinition/qicore-recorded","valueDateTime":"2014-04-05T09:35:00-04:00"}],"status":"completed","code":{"coding":[{"system":"http://www.cms.gov/Medicare/Coding/ICD10","code":"10D00Z0"},{"system":"http://www.icd10data.com/icd10pcs","code":"10D00Z0","userSelected":true}]},"subject":{"reference":"Patient/6d9334c8-ff66-4358-9502-8e8a38a69205"},"performedDateTime":"2026-11-27T23:59:00.000+00:00"},"request":{"method":"PUT","url":"Procedure/15e27ea9-1293-4272-a75a-64e0d2a65c5f"}},{"fullUrl":"https://madie.cms.gov/Coverage/90fcb852-28e9-445d-abdb-203e3b2e2196","resource":{"resourceType":"Coverage","id":"90fcb852-28e9-445d-abdb-203e3b2e2196","meta":{"profile":["http://hl7.org/fhir/us/qicore/StructureDefinition/qicore-coverage"]},"status":"active","beneficiary":{"reference":"Patient/6d9334c8-ff66-4358-9502-8e8a38a69205"},"payor":[{"reference":"Organization/e75793c9-fdf6-463a-8c1d-4ee44320dc25"}]},"request":{"method":"PUT","url":"Coverage/90fcb852-28e9-445d-abdb-203e3b2e2196"}},{"fullUrl":"https://madie.cms.gov/Organization/a06289d8-0c65-441a-af7b-568eab647382","resource":{"resourceType":"Organization","id":"e75793c9-fdf6-463a-8c1d-4ee44320dc25","meta":{"profile":["http://hl7.org/fhir/us/qicore/StructureDefinition/qicore-organization"]},"identifier":[{"use":"temp","system":"urn:oid:2.16.840.1.113883.4.4","value":"21-3259825"}],"active":true,"type":[{"coding":[{"system":"http://terminology.hl7.org/CodeSystem/organization-type","code":"pay","display":"Payer"}]}],"name":"Blue Cross Blue Shield of Texas","telecom":[{"system":"phone","value":"(+1) 972-766-6900"}],"address":[{"use":"billing","type":"postal","line":["P.O. Box 660044"],"city":"Dallas","state":"TX","postalCode":"75266-0044","country":"USA"}]},"request":{"method":"PUT","url":"Organization/e75793c9-fdf6-463a-8c1d-4ee44320dc25"}},{"fullUrl":"https://madie.cms.gov/Practitioner/17727a8c-a4d4-48b6-b4db-26611ad939d5","resource":{"resourceType":"Practitioner","id":"17727a8c-a4d4-48b6-b4db-26611ad939d5","identifier":[{"system":"http://hl7.org/fhir/sid/us-npi","value":"123456"}],"name":[{"family":"Evil","prefix":["Dr"]}]},"request":{"method":"PUT","url":"Practitioner/17727a8c-a4d4-48b6-b4db-26611ad939d5"}},{"fullUrl":"https://madie.cms.gov/MeasureReport/eb14cbd7-1459-4b2f-99a9-0019c18d7ae9","resource":{"resourceType":"MeasureReport","id":"eb14cbd7-1459-4b2f-99a9-0019c18d7ae9","meta":{"profile":["http://hl7.org/fhir/us/cqfmeasures/StructureDefinition/test-case-cqfm"]},"contained":[{"resourceType":"Parameters","id":"e29e8d9b-b87d-4abd-bc59-051ed8116c97-parameters","parameter":[{"name":"subject","valueString":"6d9334c8-ff66-4358-9502-8e8a38a69205"}]}],"extension":[{"url":"http://hl7.org/fhir/us/cqfmeasures/StructureDefinition/cqfm-inputParameters","valueReference":{"reference":"#e29e8d9b-b87d-4abd-bc59-051ed8116c97-parameters"}},{"url":"http://hl7.org/fhir/us/cqfmeasures/StructureDefinition/cqfm-testCaseDescription","valueMarkdown":"Fails IPP because Proc Delivery starts before Inpatient Encounter. Parity result 0 (auth at 42 weeks) EGA 40 weeks;   Tests \"DeliveryProcedures.relevantPeriod starts during QualifyingEncounters.relevantPeriod\".\n"}],"modifierExtension":[{"url":"http://hl7.org/fhir/us/cqfmeasures/StructureDefinition/cqfm-isTestCase","valueBoolean":true}],"status":"complete","type":"individual","measure":"https://madie.cms.gov/Measure/CMS334FHIRPCCesareanBirth","period":{"start":"2026-01-01","end":"2026-12-31"},"group":[{"population":[{"code":{"coding":[{"system":"http://terminology.hl7.org/CodeSystem/measure-population","code":"initial-population","display":"Initial Population"}]},"count":0},{"code":{"coding":[{"system":"http://terminology.hl7.org/CodeSystem/measure-population","code":"denominator","display":"Denominator"}]},"count":0},{"code":{"coding":[{"system":"http://terminology.hl7.org/CodeSystem/measure-population","code":"denominator-exclusion","display":"Denominator Exclusion"}]},"count":0},{"code":{"coding":[{"system":"http://terminology.hl7.org/CodeSystem/measure-population","code":"numerator","display":"Numerator"}]},"count":0}]}]},"request":{"method":"PUT","url":"MeasureReport/eb14cbd7-1459-4b2f-99a9-0019c18d7ae9"}}]}