{"resourceType":"Bundle","id":"tests-87fc86a7-5863-474f-98e2-618189d8da9b-bundle","type":"transaction","entry":[{"fullUrl":"https://madie.cms.gov/Patient/87fc86a7-5863-474f-98e2-618189d8da9b","resource":{"resourceType":"Patient","id":"87fc86a7-5863-474f-98e2-618189d8da9b","meta":{"profile":["http://hl7.org/fhir/us/qicore/StructureDefinition/qicore-patient"]},"text":{"status":"generated","div":"<div xmlns=\"http://www.w3.org/1999/xhtml\"><div class=\"hapiHeaderText\">AssessPResultIsNull <b>DENFAIL </b></div><table class=\"hapiPropertyTable\"><tbody><tr><td>Identifier</td><td>cb4a87fae0aeb4667064306e289209af09ca2376f26fb181f5d5ea03cba5dc53</td></tr><tr><td>Date of birth</td><td><span>14 February 1985</span></td></tr></tbody></table></div>"},"extension":[{"url":"http://hl7.org/fhir/us/core/StructureDefinition/us-core-race","extension":[{"url":"ombCategory","valueCoding":{"system":"urn:oid:2.16.840.1.113883.6.238","code":"1002-5","display":"American Indian or Alaska Native","userSelected":true}},{"url":"text","valueString":"American Indian or Alaska Native"}]},{"url":"http://hl7.org/fhir/us/core/StructureDefinition/us-core-ethnicity","extension":[{"url":"ombCategory","valueCoding":{"system":"urn:oid:2.16.840.1.113883.6.238","code":"2135-2","display":"Hispanic or Latino","userSelected":true}},{"url":"text","valueString":"Hispanic or Latino"}]}],"identifier":[{"type":{"coding":[{"system":"http://terminology.hl7.org/CodeSystem/v2-0203","code":"MR"}]},"system":"https://bonnie-fhir.healthit.gov/","value":"63487c300968f801225401cd"}],"active":true,"name":[{"use":"usual","family":"DENFail","given":["AssessPResultIsNull"]}],"gender":"female","birthDate":"1998-02-14"},"request":{"method":"PUT","url":"Patient/87fc86a7-5863-474f-98e2-618189d8da9b"}},{"fullUrl":"https://madie.cms.gov/Observation/2b347e7e-138e-4b1f-91d8-e92b5e10a7c7","resource":{"resourceType":"Observation","id":"2b347e7e-138e-4b1f-91d8-e92b5e10a7c7","meta":{"profile":["http://hl7.org/fhir/us/qicore/StructureDefinition/qicore-observation"]},"status":"final","category":[{"coding":[{"system":"http://terminology.hl7.org/CodeSystem/observation-category","code":"exam","display":"exam","userSelected":true}]}],"code":{"coding":[{"system":"http://loinc.org","code":"11977-6"}]},"subject":{"reference":"Patient/87fc86a7-5863-474f-98e2-618189d8da9b"},"effectiveDateTime":"2026-06-08T19:59:00.000+00:00"},"request":{"method":"PUT","url":"Observation/2b347e7e-138e-4b1f-91d8-e92b5e10a7c7"}},{"fullUrl":"https://madie.cms.gov/Observation/acc4e729-e8b1-4b8a-bc99-7e1369cb2a7a","resource":{"resourceType":"Observation","id":"acc4e729-e8b1-4b8a-bc99-7e1369cb2a7a","meta":{"profile":["http://hl7.org/fhir/us/qicore/StructureDefinition/qicore-observation"]},"status":"final","category":[{"coding":[{"system":"http://terminology.hl7.org/CodeSystem/observation-category","code":"exam","display":"exam","userSelected":true}]}],"code":{"coding":[{"system":"http://loinc.org","code":"11884-4"}]},"subject":{"reference":"Patient/87fc86a7-5863-474f-98e2-618189d8da9b"},"effectiveDateTime":"2026-06-08T20:00:00.000+00:00","valueQuantity":{"value":37,"system":"http://unitsofmeasure.org","code":"wk"}},"request":{"method":"PUT","url":"Observation/acc4e729-e8b1-4b8a-bc99-7e1369cb2a7a"}},{"fullUrl":"https://madie.cms.gov/Observation/d70f329d-1602-4524-8388-9c5cf34a81f6","resource":{"resourceType":"Observation","id":"d70f329d-1602-4524-8388-9c5cf34a81f6","meta":{"profile":["http://hl7.org/fhir/us/qicore/StructureDefinition/qicore-observation"]},"status":"final","category":[{"coding":[{"system":"http://terminology.hl7.org/CodeSystem/observation-category","code":"exam","display":"exam","userSelected":true}]}],"code":{"coding":[{"system":"http://loinc.org","code":"93857-1"}]},"subject":{"reference":"Patient/87fc86a7-5863-474f-98e2-618189d8da9b"},"effectiveDateTime":"2026-06-08T20:00:00.000+00:00","valueDateTime":"2026-06-08T20:00:00+00:00"},"request":{"method":"PUT","url":"Observation/d70f329d-1602-4524-8388-9c5cf34a81f6"}},{"fullUrl":"https://madie.cms.gov/Encounter/4628eaf9-1311-4f85-b573-ef6bb02b8120","resource":{"resourceType":"Encounter","id":"4628eaf9-1311-4f85-b573-ef6bb02b8120","meta":{"profile":["http://hl7.org/fhir/us/qicore/StructureDefinition/qicore-encounter"]},"status":"finished","class":{"system":"http://terminology.hl7.org/CodeSystem/v3-ActCode","code":"IMP","display":"inpatient encounter"},"type":[{"coding":[{"system":"http://snomed.info/sct","code":"8715000"}]}],"subject":{"reference":"Patient/87fc86a7-5863-474f-98e2-618189d8da9b"},"period":{"start":"2026-06-08T08:00:00.000Z","end":"2026-06-10T08:15:00.000Z"},"length":{"value":2,"unit":"days"},"diagnosis":[{"condition":{"reference":"Condition/delivery-of-singleton-f83c"},"use":{"coding":[{"system":"http://snomed.info/sct","code":"169826009","display":"Delivery of Singleton"}]}},{"condition":{"reference":"Condition/13bf4e56-0a8d-48dc-b58e-33c7498c4ed3"}}]},"request":{"method":"PUT","url":"Encounter/4628eaf9-1311-4f85-b573-ef6bb02b8120"}},{"fullUrl":"https://madie.cms.gov/Procedure/55922b92-fc26-42cf-a250-aa36c72fb0f0","resource":{"resourceType":"Procedure","id":"55922b92-fc26-42cf-a250-aa36c72fb0f0","meta":{"profile":["http://hl7.org/fhir/us/qicore/StructureDefinition/qicore-procedure"]},"extension":[{"url":"http://hl7.org/fhir/us/qicore/StructureDefinition/qicore-recorded","valueDateTime":"2014-04-05T09:35:00-04:00"}],"status":"completed","code":{"coding":[{"system":"http://www.cms.gov/Medicare/Coding/ICD10","code":"10D00Z0"},{"system":"http://snomed.info/sct","code":"4504004"},{"system":"http://www.icd10data.com/icd10pcs","code":"10D00Z0","userSelected":true}]},"subject":{"reference":"Patient/87fc86a7-5863-474f-98e2-618189d8da9b"},"performedPeriod":{"start":"2026-06-08T20:00:00.000Z","end":"2026-06-08T20:15:00.000Z"}},"request":{"method":"PUT","url":"Procedure/55922b92-fc26-42cf-a250-aa36c72fb0f0"}},{"fullUrl":"https://madie.cms.gov/Condition/13bf4e56-0a8d-48dc-b58e-33c7498c4ed3","resource":{"resourceType":"Condition","id":"13bf4e56-0a8d-48dc-b58e-33c7498c4ed3","meta":{"profile":["http://hl7.org/fhir/us/qicore/StructureDefinition/qicore-condition"]},"category":[{"coding":[{"system":"http://terminology.hl7.org/CodeSystem/condition-category","code":"encounter-diagnosis","display":"Encounter Diagnosis"}]}],"code":{"coding":[{"system":"http://snomed.info/sct","version":"2022-09","code":"169826009","display":"Single live birth (finding)","userSelected":true}]},"subject":{"reference":"Patient/87fc86a7-5863-474f-98e2-618189d8da9b"},"recordedDate":"2026-10-21T08:00:00.000+00:00"},"request":{"method":"PUT","url":"Condition/13bf4e56-0a8d-48dc-b58e-33c7498c4ed3"}},{"fullUrl":"https://madie.cms.gov/Coverage/7098d994-5437-4b4f-b7b4-f0edc5ffefcd","resource":{"resourceType":"Coverage","id":"7098d994-5437-4b4f-b7b4-f0edc5ffefcd","meta":{"profile":["http://hl7.org/fhir/us/qicore/StructureDefinition/qicore-coverage"]},"status":"active","beneficiary":{"reference":"Patient/87fc86a7-5863-474f-98e2-618189d8da9b"},"payor":[{"reference":"Organization/f4907415-83c5-4eae-ab0b-cb63a840880d"}]},"request":{"method":"PUT","url":"Coverage/7098d994-5437-4b4f-b7b4-f0edc5ffefcd"}},{"fullUrl":"https://madie.cms.gov/Organization/19627d19-b4e9-44ef-a3a8-28cbcedd64b7","resource":{"resourceType":"Organization","id":"f4907415-83c5-4eae-ab0b-cb63a840880d","meta":{"profile":["http://hl7.org/fhir/us/qicore/StructureDefinition/qicore-organization"]},"identifier":[{"use":"temp","system":"urn:oid:2.16.840.1.113883.4.4","value":"21-3259825"}],"active":true,"type":[{"coding":[{"system":"http://terminology.hl7.org/CodeSystem/organization-type","code":"pay","display":"Payer"}]}],"name":"Blue Cross Blue Shield of Texas","telecom":[{"system":"phone","value":"(+1) 972-766-6900"}],"address":[{"use":"billing","type":"postal","line":["P.O. Box 660044"],"city":"Dallas","state":"TX","postalCode":"75266-0044","country":"USA"}]},"request":{"method":"PUT","url":"Organization/f4907415-83c5-4eae-ab0b-cb63a840880d"}},{"fullUrl":"https://madie.cms.gov/Practitioner/16a36d2a-ec57-45f9-9269-337a57ce672f","resource":{"resourceType":"Practitioner","id":"16a36d2a-ec57-45f9-9269-337a57ce672f","identifier":[{"system":"http://hl7.org/fhir/sid/us-npi","value":"123456"}],"name":[{"family":"Evil","prefix":["Dr"]}]},"request":{"method":"PUT","url":"Practitioner/16a36d2a-ec57-45f9-9269-337a57ce672f"}},{"fullUrl":"https://madie.cms.gov/MeasureReport/a8dd56f7-647a-4aa9-8660-49036f9d017e","resource":{"resourceType":"MeasureReport","id":"a8dd56f7-647a-4aa9-8660-49036f9d017e","meta":{"profile":["http://hl7.org/fhir/us/cqfmeasures/StructureDefinition/test-case-cqfm"]},"contained":[{"resourceType":"Parameters","id":"f36a937e-9323-427f-bce2-4ad3d1fbfe82-parameters","parameter":[{"name":"subject","valueString":"87fc86a7-5863-474f-98e2-618189d8da9b"}]}],"extension":[{"url":"http://hl7.org/fhir/us/cqfmeasures/StructureDefinition/cqfm-inputParameters","valueReference":{"reference":"#f36a937e-9323-427f-bce2-4ad3d1fbfe82-parameters"}},{"url":"http://hl7.org/fhir/us/cqfmeasures/StructureDefinition/cqfm-testCaseDescription","valueMarkdown":"Parity Result is Null, relevant date/time same date but time less than delivery date/time\n"}],"modifierExtension":[{"url":"http://hl7.org/fhir/us/cqfmeasures/StructureDefinition/cqfm-isTestCase","valueBoolean":true}],"status":"complete","type":"individual","measure":"https://madie.cms.gov/Measure/CMS334FHIRPCCesareanBirth","period":{"start":"2026-01-01","end":"2026-12-31"},"group":[{"population":[{"code":{"coding":[{"system":"http://terminology.hl7.org/CodeSystem/measure-population","code":"initial-population","display":"Initial Population"}]},"count":1},{"code":{"coding":[{"system":"http://terminology.hl7.org/CodeSystem/measure-population","code":"denominator","display":"Denominator"}]},"count":0},{"code":{"coding":[{"system":"http://terminology.hl7.org/CodeSystem/measure-population","code":"denominator-exclusion","display":"Denominator Exclusion"}]},"count":0},{"code":{"coding":[{"system":"http://terminology.hl7.org/CodeSystem/measure-population","code":"numerator","display":"Numerator"}]},"count":0}]}]},"request":{"method":"PUT","url":"MeasureReport/a8dd56f7-647a-4aa9-8660-49036f9d017e"}}]}