{"resourceType":"Bundle","id":"tests-3842ef3b-ebeb-42d6-9035-aa5280bcdcfd-bundle","type":"transaction","entry":[{"fullUrl":"https://madie.cms.gov/Patient/3842ef3b-ebeb-42d6-9035-aa5280bcdcfd","resource":{"resourceType":"Patient","id":"3842ef3b-ebeb-42d6-9035-aa5280bcdcfd","meta":{"profile":["http://hl7.org/fhir/us/qicore/StructureDefinition/qicore-patient"]},"text":{"status":"generated","div":"<div xmlns=\"http://www.w3.org/1999/xhtml\"><div class=\"hapiHeaderText\">AssessPerfAbnPresRelDtTime1MinB4EncStart <b>DENEXFAIL </b></div><table class=\"hapiPropertyTable\"><tbody><tr><td>Identifier</td><td>2c1eda4938b84801bc7bcf3f0fe1fce9fac094751543d9dbfa2319ccac3ef724</td></tr><tr><td>Date of birth</td><td><span>14 February 1985</span></td></tr></tbody></table></div>"},"extension":[{"url":"http://hl7.org/fhir/us/core/StructureDefinition/us-core-race","extension":[{"url":"ombCategory","valueCoding":{"system":"urn:oid:2.16.840.1.113883.6.238","code":"1002-5","display":"American Indian or Alaska Native","userSelected":true}},{"url":"text","valueString":"American Indian or Alaska Native"}]},{"url":"http://hl7.org/fhir/us/core/StructureDefinition/us-core-ethnicity","extension":[{"url":"ombCategory","valueCoding":{"system":"urn:oid:2.16.840.1.113883.6.238","code":"2135-2","display":"Hispanic or Latino","userSelected":true}},{"url":"text","valueString":"Hispanic or Latino"}]}],"identifier":[{"type":{"coding":[{"system":"http://terminology.hl7.org/CodeSystem/v2-0203","code":"MR"}]},"system":"https://bonnie-fhir.healthit.gov/","value":"63487c2e0968f80122540189"}],"active":true,"name":[{"use":"usual","family":"DENEXFail","given":["AssessPerfAbnPresRelDtTime1MinB4EncStart "]}],"gender":"female","birthDate":"1998-02-14"},"request":{"method":"PUT","url":"Patient/3842ef3b-ebeb-42d6-9035-aa5280bcdcfd"}},{"fullUrl":"https://madie.cms.gov/Observation/e79257c7-2f0a-4d09-80d0-9f277258834b","resource":{"resourceType":"Observation","id":"e79257c7-2f0a-4d09-80d0-9f277258834b","meta":{"profile":["http://hl7.org/fhir/us/qicore/StructureDefinition/qicore-observation"]},"status":"final","category":[{"coding":[{"system":"http://terminology.hl7.org/CodeSystem/observation-category","code":"exam","display":"exam","userSelected":true}]}],"code":{"coding":[{"system":"http://loinc.org","code":"11996-6"}]},"subject":{"reference":"Patient/3842ef3b-ebeb-42d6-9035-aa5280bcdcfd"},"effectiveDateTime":"2026-06-08T08:00:00.000+00:00","valueInteger":1},"request":{"method":"PUT","url":"Observation/e79257c7-2f0a-4d09-80d0-9f277258834b"}},{"fullUrl":"https://madie.cms.gov/Observation/14700374-b5fc-4b77-9a03-1975a03f4c01","resource":{"resourceType":"Observation","id":"14700374-b5fc-4b77-9a03-1975a03f4c01","meta":{"profile":["http://hl7.org/fhir/us/qicore/StructureDefinition/qicore-observation"]},"status":"final","category":[{"coding":[{"system":"http://terminology.hl7.org/CodeSystem/observation-category","code":"exam","display":"exam","userSelected":true}]}],"code":{"coding":[{"system":"http://loinc.org","code":"11884-4"}]},"subject":{"reference":"Patient/3842ef3b-ebeb-42d6-9035-aa5280bcdcfd"},"effectiveDateTime":"2026-06-08T08:00:00.000+00:00","valueQuantity":{"value":43,"system":"http://unitsofmeasure.org","code":"wk"}},"request":{"method":"PUT","url":"Observation/14700374-b5fc-4b77-9a03-1975a03f4c01"}},{"fullUrl":"https://madie.cms.gov/Observation/1ae01b4b-f0a9-4109-afc0-12396f277795","resource":{"resourceType":"Observation","id":"1ae01b4b-f0a9-4109-afc0-12396f277795","meta":{"profile":["http://hl7.org/fhir/us/qicore/StructureDefinition/qicore-observation"]},"status":"final","category":[{"coding":[{"system":"http://terminology.hl7.org/CodeSystem/observation-category","code":"exam","display":"exam","userSelected":true}]}],"code":{"coding":[{"system":"http://loinc.org","code":"93857-1"}]},"subject":{"reference":"Patient/3842ef3b-ebeb-42d6-9035-aa5280bcdcfd"},"effectiveDateTime":"2026-06-08T20:00:00.000+00:00","valueDateTime":"2026-06-08T20:00:00+00:00"},"request":{"method":"PUT","url":"Observation/1ae01b4b-f0a9-4109-afc0-12396f277795"}},{"fullUrl":"https://madie.cms.gov/Observation/c63bc04c-b91e-44d1-8854-ca87778c947f","resource":{"resourceType":"Observation","id":"c63bc04c-b91e-44d1-8854-ca87778c947f","meta":{"profile":["http://hl7.org/fhir/us/qicore/StructureDefinition/qicore-observation"]},"status":"final","category":[{"coding":[{"system":"http://terminology.hl7.org/CodeSystem/observation-category","code":"exam","display":"exam","userSelected":true}]}],"code":{"coding":[{"system":"http://snomed.info/sct","code":"163514003"}]},"subject":{"reference":"Patient/3842ef3b-ebeb-42d6-9035-aa5280bcdcfd"},"effectiveDateTime":"2026-06-08T07:59:00.000+00:00"},"request":{"method":"PUT","url":"Observation/c63bc04c-b91e-44d1-8854-ca87778c947f"}},{"fullUrl":"https://madie.cms.gov/Encounter/4af83a77-60dc-4480-9ec9-c1d38f5af565","resource":{"resourceType":"Encounter","id":"4af83a77-60dc-4480-9ec9-c1d38f5af565","meta":{"profile":["http://hl7.org/fhir/us/qicore/StructureDefinition/qicore-encounter"]},"status":"finished","class":{"system":"http://terminology.hl7.org/CodeSystem/v3-ActCode","code":"IMP","display":"inpatient encounter"},"type":[{"coding":[{"system":"http://snomed.info/sct","code":"183452005"}]}],"subject":{"reference":"Patient/3842ef3b-ebeb-42d6-9035-aa5280bcdcfd"},"period":{"start":"2026-06-08T08:00:00.000Z","end":"2026-06-10T08:15:00.000Z"},"diagnosis":[{"condition":{"reference":"Condition/32f3162d-31a3-4714-a99b-5f7fae7fb517"}}]},"request":{"method":"PUT","url":"Encounter/4af83a77-60dc-4480-9ec9-c1d38f5af565"}},{"fullUrl":"https://madie.cms.gov/Procedure/ea8971c7-9d90-4f24-870e-4bce33373c99","resource":{"resourceType":"Procedure","id":"ea8971c7-9d90-4f24-870e-4bce33373c99","meta":{"profile":["http://hl7.org/fhir/us/qicore/StructureDefinition/qicore-procedure"]},"extension":[{"url":"http://hl7.org/fhir/us/qicore/StructureDefinition/qicore-recorded","valueDateTime":"2014-04-05T09:35:00-04:00"}],"status":"completed","code":{"coding":[{"system":"http://snomed.info/sct","code":"84195007"}]},"subject":{"reference":"Patient/3842ef3b-ebeb-42d6-9035-aa5280bcdcfd"},"performedPeriod":{"start":"2026-06-08T20:00:00.000Z","end":"2026-06-18T20:00:00.000Z"}},"request":{"method":"PUT","url":"Procedure/ea8971c7-9d90-4f24-870e-4bce33373c99"}},{"fullUrl":"https://madie.cms.gov/Condition/32f3162d-31a3-4714-a99b-5f7fae7fb517","resource":{"resourceType":"Condition","id":"32f3162d-31a3-4714-a99b-5f7fae7fb517","meta":{"profile":["http://hl7.org/fhir/us/qicore/StructureDefinition/qicore-condition"]},"category":[{"coding":[{"system":"http://terminology.hl7.org/CodeSystem/condition-category","code":"encounter-diagnosis","display":"Encounter Diagnosis"}]}],"code":{"coding":[{"system":"http://snomed.info/sct","version":"2022-09","code":"169826009","display":"Single live birth (finding)","userSelected":true}]},"subject":{"reference":"Patient/3842ef3b-ebeb-42d6-9035-aa5280bcdcfd"},"recordedDate":"2026-10-17T08:00:00.000+00:00"},"request":{"method":"PUT","url":"Condition/32f3162d-31a3-4714-a99b-5f7fae7fb517"}},{"fullUrl":"https://madie.cms.gov/Coverage/c853a73d-11f1-4358-9c4d-24d243ac40ed","resource":{"resourceType":"Coverage","id":"c853a73d-11f1-4358-9c4d-24d243ac40ed","meta":{"profile":["http://hl7.org/fhir/us/qicore/StructureDefinition/qicore-coverage"]},"status":"active","beneficiary":{"reference":"Patient/3842ef3b-ebeb-42d6-9035-aa5280bcdcfd"},"payor":[{"reference":"Organization/e75793c9-fdf6-463a-8c1d-4ee44320dc25"}]},"request":{"method":"PUT","url":"Coverage/c853a73d-11f1-4358-9c4d-24d243ac40ed"}},{"fullUrl":"https://madie.cms.gov/Organization/f6c13dee-93ae-42e6-8e55-6a31e5fb73da","resource":{"resourceType":"Organization","id":"e75793c9-fdf6-463a-8c1d-4ee44320dc25","meta":{"profile":["http://hl7.org/fhir/us/qicore/StructureDefinition/qicore-organization"]},"identifier":[{"use":"temp","system":"urn:oid:2.16.840.1.113883.4.4","value":"21-3259825"}],"active":true,"type":[{"coding":[{"system":"http://terminology.hl7.org/CodeSystem/organization-type","code":"pay","display":"Payer"}]}],"name":"Blue Cross Blue Shield of Texas","telecom":[{"system":"phone","value":"(+1) 972-766-6900"}],"address":[{"use":"billing","type":"postal","line":["P.O. Box 660044"],"city":"Dallas","state":"TX","postalCode":"75266-0044","country":"USA"}]},"request":{"method":"PUT","url":"Organization/e75793c9-fdf6-463a-8c1d-4ee44320dc25"}},{"fullUrl":"https://madie.cms.gov/Practitioner/f6130265-458c-4322-ad41-e57de8c60638","resource":{"resourceType":"Practitioner","id":"f6130265-458c-4322-ad41-e57de8c60638","identifier":[{"system":"http://hl7.org/fhir/sid/us-npi","value":"123456"}],"name":[{"family":"Evil","prefix":["Dr"]}]},"request":{"method":"PUT","url":"Practitioner/f6130265-458c-4322-ad41-e57de8c60638"}},{"fullUrl":"https://madie.cms.gov/MeasureReport/d5861386-1d65-46c5-8cea-405a4a889d2d","resource":{"resourceType":"MeasureReport","id":"d5861386-1d65-46c5-8cea-405a4a889d2d","meta":{"profile":["http://hl7.org/fhir/us/cqfmeasures/StructureDefinition/test-case-cqfm"]},"contained":[{"resourceType":"Parameters","id":"45fab020-3299-414b-a5f9-0b1745bc7922-parameters","parameter":[{"name":"subject","valueString":"3842ef3b-ebeb-42d6-9035-aa5280bcdcfd"}]}],"extension":[{"url":"http://hl7.org/fhir/us/cqfmeasures/StructureDefinition/cqfm-inputParameters","valueReference":{"reference":"#45fab020-3299-414b-a5f9-0b1745bc7922-parameters"}},{"url":"http://hl7.org/fhir/us/cqfmeasures/StructureDefinition/cqfm-testCaseDescription","valueMarkdown":"EGA 43 weeks; Assessment performed Abnormal presentation Relevant Dt/time 1 min before encounter start , gravida 1, \n"}],"modifierExtension":[{"url":"http://hl7.org/fhir/us/cqfmeasures/StructureDefinition/cqfm-isTestCase","valueBoolean":true}],"status":"complete","type":"individual","measure":"https://madie.cms.gov/Measure/CMS334FHIRPCCesareanBirth","period":{"start":"2026-01-01","end":"2026-12-31"},"group":[{"population":[{"code":{"coding":[{"system":"http://terminology.hl7.org/CodeSystem/measure-population","code":"initial-population","display":"Initial Population"}]},"count":1},{"code":{"coding":[{"system":"http://terminology.hl7.org/CodeSystem/measure-population","code":"denominator","display":"Denominator"}]},"count":1},{"code":{"coding":[{"system":"http://terminology.hl7.org/CodeSystem/measure-population","code":"denominator-exclusion","display":"Denominator Exclusion"}]},"count":0},{"code":{"coding":[{"system":"http://terminology.hl7.org/CodeSystem/measure-population","code":"numerator","display":"Numerator"}]},"count":0}]}]},"request":{"method":"PUT","url":"MeasureReport/d5861386-1d65-46c5-8cea-405a4a889d2d"}}]}