{"resourceType":"Bundle","id":"tests-4355cfd9-9700-4bd3-b828-e7726e73f857-bundle","type":"transaction","entry":[{"fullUrl":"https://madie.cms.gov/Patient/4355cfd9-9700-4bd3-b828-e7726e73f857","resource":{"resourceType":"Patient","id":"4355cfd9-9700-4bd3-b828-e7726e73f857","meta":{"profile":["http://hl7.org/fhir/us/qicore/StructureDefinition/qicore-patient"]},"text":{"status":"generated","div":"<div xmlns=\"http://www.w3.org/1999/xhtml\"><div class=\"hapiHeaderText\">AssessParityLastMissingResult <b>DENPASS </b></div><table class=\"hapiPropertyTable\"><tbody><tr><td>Identifier</td><td>c06cc2d514ccfaffa49c54295f23978df6f00fe92fbd59d826ce4eb31140ad8c</td></tr><tr><td>Date of birth</td><td><span>14 February 1985</span></td></tr></tbody></table></div>"},"extension":[{"url":"http://hl7.org/fhir/us/core/StructureDefinition/us-core-race","extension":[{"url":"ombCategory","valueCoding":{"system":"urn:oid:2.16.840.1.113883.6.238","code":"1002-5","display":"American Indian or Alaska Native","userSelected":true}},{"url":"text","valueString":"American Indian or Alaska Native"}]},{"url":"http://hl7.org/fhir/us/core/StructureDefinition/us-core-ethnicity","extension":[{"url":"ombCategory","valueCoding":{"system":"urn:oid:2.16.840.1.113883.6.238","code":"2135-2","display":"Hispanic or Latino","userSelected":true}},{"url":"text","valueString":"Hispanic or Latino"}]}],"identifier":[{"type":{"coding":[{"system":"http://terminology.hl7.org/CodeSystem/v2-0203","code":"MR"}]},"system":"https://bonnie-fhir.healthit.gov/","value":"63487c300968f801225401bb"}],"active":true,"name":[{"use":"usual","family":"DENPass","given":["AssessParityLastMissingResult"]}],"gender":"female","birthDate":"1998-02-14"},"request":{"method":"PUT","url":"Patient/4355cfd9-9700-4bd3-b828-e7726e73f857"}},{"fullUrl":"https://madie.cms.gov/Observation/e41aafa7-9029-42dc-8128-82b2881bcdb4","resource":{"resourceType":"Observation","id":"e41aafa7-9029-42dc-8128-82b2881bcdb4","meta":{"profile":["http://hl7.org/fhir/us/qicore/StructureDefinition/qicore-observation"]},"status":"final","category":[{"coding":[{"system":"http://terminology.hl7.org/CodeSystem/observation-category","code":"exam","display":"exam","userSelected":true}]}],"code":{"coding":[{"system":"http://loinc.org","code":"11977-6"}]},"subject":{"reference":"Patient/4355cfd9-9700-4bd3-b828-e7726e73f857"},"effectiveDateTime":"2025-10-20T09:00:00.000+00:00","valueInteger":0},"request":{"method":"PUT","url":"Observation/e41aafa7-9029-42dc-8128-82b2881bcdb4"}},{"fullUrl":"https://madie.cms.gov/Observation/313aa9c9-fae8-41f6-a46f-f2636bbb3533","resource":{"resourceType":"Observation","id":"313aa9c9-fae8-41f6-a46f-f2636bbb3533","meta":{"profile":["http://hl7.org/fhir/us/qicore/StructureDefinition/qicore-observation"]},"status":"final","category":[{"coding":[{"system":"http://terminology.hl7.org/CodeSystem/observation-category","code":"exam","display":"exam","userSelected":true}]}],"code":{"coding":[{"system":"http://loinc.org","code":"11884-4"}]},"subject":{"reference":"Patient/4355cfd9-9700-4bd3-b828-e7726e73f857"},"effectiveDateTime":"2026-06-08T20:00:00.000+00:00","valueQuantity":{"value":37,"system":"http://unitsofmeasure.org","code":"wk"}},"request":{"method":"PUT","url":"Observation/313aa9c9-fae8-41f6-a46f-f2636bbb3533"}},{"fullUrl":"https://madie.cms.gov/Observation/a1f9db79-c8f9-42c6-bdc2-05c6e2fe27b8","resource":{"resourceType":"Observation","id":"a1f9db79-c8f9-42c6-bdc2-05c6e2fe27b8","meta":{"profile":["http://hl7.org/fhir/us/qicore/StructureDefinition/qicore-observation"]},"status":"final","category":[{"coding":[{"system":"http://terminology.hl7.org/CodeSystem/observation-category","code":"exam","display":"exam","userSelected":true}]}],"code":{"coding":[{"system":"http://loinc.org","code":"93857-1"}]},"subject":{"reference":"Patient/4355cfd9-9700-4bd3-b828-e7726e73f857"},"effectiveDateTime":"2026-06-08T20:00:00.000+00:00","valueDateTime":"2026-06-08T20:00:00+00:00"},"request":{"method":"PUT","url":"Observation/a1f9db79-c8f9-42c6-bdc2-05c6e2fe27b8"}},{"fullUrl":"https://madie.cms.gov/Observation/aac99cf1-365b-4e1b-aecc-c0d62169bc89","resource":{"resourceType":"Observation","id":"aac99cf1-365b-4e1b-aecc-c0d62169bc89","meta":{"profile":["http://hl7.org/fhir/us/qicore/StructureDefinition/qicore-observation"]},"status":"final","category":[{"coding":[{"system":"http://terminology.hl7.org/CodeSystem/observation-category","code":"exam","display":"exam","userSelected":true}]}],"code":{"coding":[{"system":"http://loinc.org","code":"11977-6"}]},"subject":{"reference":"Patient/4355cfd9-9700-4bd3-b828-e7726e73f857"}},"request":{"method":"PUT","url":"Observation/aac99cf1-365b-4e1b-aecc-c0d62169bc89"}},{"fullUrl":"https://madie.cms.gov/Encounter/821e4a49-5daf-4980-be58-8898ff74f0e3","resource":{"resourceType":"Encounter","id":"821e4a49-5daf-4980-be58-8898ff74f0e3","meta":{"profile":["http://hl7.org/fhir/us/qicore/StructureDefinition/qicore-encounter"]},"status":"finished","class":{"system":"http://terminology.hl7.org/CodeSystem/v3-ActCode","code":"IMP","display":"inpatient encounter"},"type":[{"coding":[{"system":"http://snomed.info/sct","code":"8715000"}]}],"subject":{"reference":"Patient/4355cfd9-9700-4bd3-b828-e7726e73f857"},"period":{"start":"2026-06-08T08:00:00.000Z","end":"2026-06-10T08:15:00.000Z"},"length":{"value":2,"unit":"days"},"diagnosis":[{"condition":{"reference":"Condition/delivery-of-singleton-f83c"},"use":{"coding":[{"system":"http://snomed.info/sct","code":"169826009","display":"Delivery of Singleton"}]}},{"condition":{"reference":"Condition/3a591247-f85e-427b-9c52-7e1c3ffb4244"}}]},"request":{"method":"PUT","url":"Encounter/821e4a49-5daf-4980-be58-8898ff74f0e3"}},{"fullUrl":"https://madie.cms.gov/Coverage/8d283520-22c3-409d-a1ab-3c019c26fe45","resource":{"resourceType":"Coverage","id":"8d283520-22c3-409d-a1ab-3c019c26fe45","status":"active","beneficiary":{"reference":"Patient/4355cfd9-9700-4bd3-b828-e7726e73f857"},"period":{"start":"1986-02-14T08:00:00.000Z"},"payor":[{"reference":"Organization/5ad6ea38-07e9-4482-9e1b-c09eee595be9"}]},"request":{"method":"PUT","url":"Coverage/8d283520-22c3-409d-a1ab-3c019c26fe45"}},{"fullUrl":"https://madie.cms.gov/Procedure/a93c40f6-33fa-4e16-8663-240cbe248aaa","resource":{"resourceType":"Procedure","id":"a93c40f6-33fa-4e16-8663-240cbe248aaa","meta":{"profile":["http://hl7.org/fhir/us/qicore/StructureDefinition/qicore-procedure"]},"extension":[{"url":"http://hl7.org/fhir/us/qicore/StructureDefinition/qicore-recorded","valueDateTime":"2014-04-05T09:35:00-04:00"}],"status":"completed","code":{"coding":[{"system":"http://www.cms.gov/Medicare/Coding/ICD10","code":"10D00Z0"},{"system":"http://www.icd10data.com/icd10pcs","code":"10D00Z1","userSelected":true}]},"subject":{"reference":"Patient/4355cfd9-9700-4bd3-b828-e7726e73f857"},"performedPeriod":{"start":"2026-06-08T20:00:00.000Z","end":"2026-06-08T20:15:00.000Z"}},"request":{"method":"PUT","url":"Procedure/a93c40f6-33fa-4e16-8663-240cbe248aaa"}},{"fullUrl":"https://madie.cms.gov/Condition/3a591247-f85e-427b-9c52-7e1c3ffb4244","resource":{"resourceType":"Condition","id":"3a591247-f85e-427b-9c52-7e1c3ffb4244","meta":{"profile":["http://hl7.org/fhir/us/qicore/StructureDefinition/qicore-condition"]},"category":[{"coding":[{"system":"http://terminology.hl7.org/CodeSystem/condition-category","code":"encounter-diagnosis","display":"Encounter Diagnosis"}]}],"code":{"coding":[{"system":"http://snomed.info/sct","version":"2022-09","code":"169826009","display":"Single live birth (finding)","userSelected":true}]},"subject":{"reference":"Patient/4355cfd9-9700-4bd3-b828-e7726e73f857"},"recordedDate":"2026-10-18T08:00:00.000+00:00"},"request":{"method":"PUT","url":"Condition/3a591247-f85e-427b-9c52-7e1c3ffb4244"}},{"fullUrl":"https://madie.cms.gov/Organization/9ea1078c-d6ab-4bce-9762-e8e1a06021d4","resource":{"resourceType":"Organization","id":"5ad6ea38-07e9-4482-9e1b-c09eee595be9","meta":{"profile":["http://hl7.org/fhir/us/qicore/StructureDefinition/qicore-organization"]},"identifier":[{"use":"temp","system":"urn:oid:2.16.840.1.113883.4.4","value":"21-3259825"}],"active":true,"type":[{"coding":[{"system":"http://terminology.hl7.org/CodeSystem/organization-type","code":"pay","display":"Payer"}]}],"name":"Blue Cross Blue Shield of Texas","telecom":[{"system":"phone","value":"(+1) 972-766-6900"}],"address":[{"use":"billing","type":"postal","line":["P.O. Box 660044"],"city":"Dallas","state":"TX","postalCode":"75266-0044","country":"USA"}]},"request":{"method":"PUT","url":"Organization/5ad6ea38-07e9-4482-9e1b-c09eee595be9"}},{"fullUrl":"https://madie.cms.gov/Practitioner/c191b14e-cc39-4c10-8340-78ddfd5bb1fc","resource":{"resourceType":"Practitioner","id":"c191b14e-cc39-4c10-8340-78ddfd5bb1fc","identifier":[{"system":"http://hl7.org/fhir/sid/us-npi","value":"123456"}],"name":[{"family":"Evil","prefix":["Dr"]}]},"request":{"method":"PUT","url":"Practitioner/c191b14e-cc39-4c10-8340-78ddfd5bb1fc"}},{"fullUrl":"https://madie.cms.gov/MeasureReport/56266b22-f69a-48cf-abc9-fa01f324c637","resource":{"resourceType":"MeasureReport","id":"56266b22-f69a-48cf-abc9-fa01f324c637","meta":{"profile":["http://hl7.org/fhir/us/cqfmeasures/StructureDefinition/test-case-cqfm"]},"contained":[{"resourceType":"Parameters","id":"6c40cffe-971f-45c8-8736-c96e9fe30811-parameters","parameter":[{"name":"subject","valueString":"4355cfd9-9700-4bd3-b828-e7726e73f857"}]}],"extension":[{"url":"http://hl7.org/fhir/us/cqfmeasures/StructureDefinition/cqfm-inputParameters","valueReference":{"reference":"#6c40cffe-971f-45c8-8736-c96e9fe30811-parameters"}},{"url":"http://hl7.org/fhir/us/cqfmeasures/StructureDefinition/cqfm-testCaseDescription","valueMarkdown":"Two Parities, first Parity=0 but last Parity is missing result, relevant date/time less than 42 weeks prior to delivery date/time\n"}],"modifierExtension":[{"url":"http://hl7.org/fhir/us/cqfmeasures/StructureDefinition/cqfm-isTestCase","valueBoolean":true}],"status":"complete","type":"individual","measure":"https://madie.cms.gov/Measure/CMS334FHIRPCCesareanBirth","period":{"start":"2026-01-01","end":"2026-12-31"},"group":[{"population":[{"code":{"coding":[{"system":"http://terminology.hl7.org/CodeSystem/measure-population","code":"initial-population","display":"Initial Population"}]},"count":1},{"code":{"coding":[{"system":"http://terminology.hl7.org/CodeSystem/measure-population","code":"denominator","display":"Denominator"}]},"count":1},{"code":{"coding":[{"system":"http://terminology.hl7.org/CodeSystem/measure-population","code":"denominator-exclusion","display":"Denominator Exclusion"}]},"count":0},{"code":{"coding":[{"system":"http://terminology.hl7.org/CodeSystem/measure-population","code":"numerator","display":"Numerator"}]},"count":1}]}]},"request":{"method":"PUT","url":"MeasureReport/56266b22-f69a-48cf-abc9-fa01f324c637"}}]}