{"resourceType":"Bundle","id":"tests-3cb741e0-5abb-4d16-a374-bc15fdf55021-bundle","type":"transaction","entry":[{"fullUrl":"https://madie.cms.gov/Patient/3cb741e0-5abb-4d16-a374-bc15fdf55021","resource":{"resourceType":"Patient","id":"3cb741e0-5abb-4d16-a374-bc15fdf55021","meta":{"profile":["http://hl7.org/fhir/us/qicore/StructureDefinition/qicore-patient"]},"text":{"status":"generated","div":"<div xmlns=\"http://www.w3.org/1999/xhtml\"><div class=\"hapiHeaderText\">AssessTermMissing <b>DENFAIL </b></div><table class=\"hapiPropertyTable\"><tbody><tr><td>Identifier</td><td>2af8c4ebd3c3c11851c56f276a2bfe6708ad830bb3560e2b577c5a97ffc5d44d</td></tr><tr><td>Date of birth</td><td><span>14 February 1985</span></td></tr></tbody></table></div>"},"extension":[{"url":"http://hl7.org/fhir/us/core/StructureDefinition/us-core-race","extension":[{"url":"ombCategory","valueCoding":{"system":"urn:oid:2.16.840.1.113883.6.238","code":"1002-5","display":"American Indian or Alaska Native","userSelected":true}},{"url":"text","valueString":"American Indian or Alaska Native"}]},{"url":"http://hl7.org/fhir/us/core/StructureDefinition/us-core-ethnicity","extension":[{"url":"ombCategory","valueCoding":{"system":"urn:oid:2.16.840.1.113883.6.238","code":"2135-2","display":"Hispanic or Latino","userSelected":true}},{"url":"text","valueString":"Hispanic or Latino"}]}],"identifier":[{"type":{"coding":[{"system":"http://terminology.hl7.org/CodeSystem/v2-0203","code":"MR"}]},"system":"https://bonnie-fhir.healthit.gov/","value":"63487c2d0968f8012254015d"}],"active":true,"name":[{"use":"usual","family":"DENFail","given":["AssessTermMissing"]}],"gender":"female","birthDate":"1998-02-14"},"request":{"method":"PUT","url":"Patient/3cb741e0-5abb-4d16-a374-bc15fdf55021"}},{"fullUrl":"https://madie.cms.gov/Observation/e8476749-0636-4472-b7e8-f390cfb5f809","resource":{"resourceType":"Observation","id":"e8476749-0636-4472-b7e8-f390cfb5f809","meta":{"profile":["http://hl7.org/fhir/us/qicore/StructureDefinition/qicore-observation"]},"status":"final","category":[{"coding":[{"system":"http://terminology.hl7.org/CodeSystem/observation-category","code":"exam","display":"exam","userSelected":true}]}],"code":{"coding":[{"system":"http://loinc.org","code":"11637-6"}]},"subject":{"reference":"Patient/3cb741e0-5abb-4d16-a374-bc15fdf55021"},"effectiveDateTime":"2025-09-19T09:00:00.000+00:00","valueInteger":0},"request":{"method":"PUT","url":"Observation/e8476749-0636-4472-b7e8-f390cfb5f809"}},{"fullUrl":"https://madie.cms.gov/Observation/617a5487-1209-4780-89f7-6e469b2ffe68","resource":{"resourceType":"Observation","id":"617a5487-1209-4780-89f7-6e469b2ffe68","meta":{"profile":["http://hl7.org/fhir/us/qicore/StructureDefinition/qicore-observation"]},"status":"final","category":[{"coding":[{"system":"http://terminology.hl7.org/CodeSystem/observation-category","code":"exam","display":"exam","userSelected":true}]}],"code":{"coding":[{"system":"http://loinc.org","code":"11884-4"}]},"subject":{"reference":"Patient/3cb741e0-5abb-4d16-a374-bc15fdf55021"},"effectiveDateTime":"2026-06-08T20:00:00.000+00:00","valueQuantity":{"value":37,"system":"http://unitsofmeasure.org","code":"wk"}},"request":{"method":"PUT","url":"Observation/617a5487-1209-4780-89f7-6e469b2ffe68"}},{"fullUrl":"https://madie.cms.gov/Observation/63a086b5-448c-489e-b040-9c98a23f0825","resource":{"resourceType":"Observation","id":"63a086b5-448c-489e-b040-9c98a23f0825","meta":{"profile":["http://hl7.org/fhir/us/qicore/StructureDefinition/qicore-observation"]},"status":"final","category":[{"coding":[{"system":"http://terminology.hl7.org/CodeSystem/observation-category","code":"exam","display":"exam","userSelected":true}]}],"code":{"coding":[{"system":"http://loinc.org","code":"93857-1"}]},"subject":{"reference":"Patient/3cb741e0-5abb-4d16-a374-bc15fdf55021"},"effectiveDateTime":"2026-06-08T20:00:00.000+00:00","valueDateTime":"2026-06-08T20:00:00+00:00"},"request":{"method":"PUT","url":"Observation/63a086b5-448c-489e-b040-9c98a23f0825"}},{"fullUrl":"https://madie.cms.gov/Encounter/af81729d-b232-4647-ae3f-c074b7cc3471","resource":{"resourceType":"Encounter","id":"af81729d-b232-4647-ae3f-c074b7cc3471","meta":{"profile":["http://hl7.org/fhir/us/qicore/StructureDefinition/qicore-encounter"]},"status":"finished","class":{"system":"http://terminology.hl7.org/CodeSystem/v3-ActCode","code":"IMP","display":"inpatient encounter"},"type":[{"coding":[{"system":"http://snomed.info/sct","code":"8715000"}]}],"subject":{"reference":"Patient/3cb741e0-5abb-4d16-a374-bc15fdf55021"},"period":{"start":"2026-06-08T08:00:00.000Z","end":"2026-06-10T08:15:00.000Z"},"length":{"value":2,"unit":"days"},"diagnosis":[{"condition":{"reference":"Condition/delivery-of-singleton-f83c"},"use":{"coding":[{"system":"http://snomed.info/sct","code":"169826009","display":"Delivery of Singleton"}]}},{"condition":{"reference":"Condition/c441a3ce-9f07-4a11-9025-9b769c99739b"}}]},"request":{"method":"PUT","url":"Encounter/af81729d-b232-4647-ae3f-c074b7cc3471"}},{"fullUrl":"https://madie.cms.gov/Procedure/ca2c0fe0-1186-45e7-aa4a-bad84b5a49b6","resource":{"resourceType":"Procedure","id":"ca2c0fe0-1186-45e7-aa4a-bad84b5a49b6","meta":{"profile":["http://hl7.org/fhir/us/qicore/StructureDefinition/qicore-procedure"]},"extension":[{"url":"http://hl7.org/fhir/us/qicore/StructureDefinition/qicore-recorded","valueDateTime":"2014-04-05T09:35:00-04:00"}],"status":"completed","code":{"coding":[{"system":"http://www.cms.gov/Medicare/Coding/ICD10","code":"10D00Z0"},{"system":"http://snomed.info/sct","code":"4504004"},{"system":"http://www.icd10data.com/icd10pcs","code":"10D00Z0","userSelected":true}]},"subject":{"reference":"Patient/3cb741e0-5abb-4d16-a374-bc15fdf55021"},"performedPeriod":{"start":"2026-06-08T20:00:00.000Z","end":"2026-06-08T20:15:00.000Z"}},"request":{"method":"PUT","url":"Procedure/ca2c0fe0-1186-45e7-aa4a-bad84b5a49b6"}},{"fullUrl":"https://madie.cms.gov/Condition/c441a3ce-9f07-4a11-9025-9b769c99739b","resource":{"resourceType":"Condition","id":"c441a3ce-9f07-4a11-9025-9b769c99739b","meta":{"profile":["http://hl7.org/fhir/us/qicore/StructureDefinition/qicore-condition"]},"category":[{"coding":[{"system":"http://terminology.hl7.org/CodeSystem/condition-category","code":"encounter-diagnosis","display":"Encounter Diagnosis"}]}],"code":{"coding":[{"system":"http://snomed.info/sct","version":"2022-09","code":"169826009","display":"Single live birth (finding)","userSelected":true}]},"subject":{"reference":"Patient/3cb741e0-5abb-4d16-a374-bc15fdf55021"},"recordedDate":"2026-10-21T08:00:00.000+00:00"},"request":{"method":"PUT","url":"Condition/c441a3ce-9f07-4a11-9025-9b769c99739b"}},{"fullUrl":"https://madie.cms.gov/Coverage/416e7b32-86d9-4ea5-b89d-89bc884ca280","resource":{"resourceType":"Coverage","id":"416e7b32-86d9-4ea5-b89d-89bc884ca280","meta":{"profile":["http://hl7.org/fhir/us/qicore/StructureDefinition/qicore-coverage"]},"status":"active","beneficiary":{"reference":"Patient/3cb741e0-5abb-4d16-a374-bc15fdf55021"},"payor":[{"reference":"Organization/f7da4368-fb6d-4d73-a75b-f78024cbb18d"}]},"request":{"method":"PUT","url":"Coverage/416e7b32-86d9-4ea5-b89d-89bc884ca280"}},{"fullUrl":"https://madie.cms.gov/Organization/1606e8bc-c9b9-4937-af34-31a656dfa89b","resource":{"resourceType":"Organization","id":"f7da4368-fb6d-4d73-a75b-f78024cbb18d","meta":{"profile":["http://hl7.org/fhir/us/qicore/StructureDefinition/qicore-organization"]},"identifier":[{"use":"temp","system":"urn:oid:2.16.840.1.113883.4.4","value":"21-3259825"}],"active":true,"type":[{"coding":[{"system":"http://terminology.hl7.org/CodeSystem/organization-type","code":"pay","display":"Payer"}]}],"name":"Blue Cross Blue Shield of Texas","telecom":[{"system":"phone","value":"(+1) 972-766-6900"}],"address":[{"use":"billing","type":"postal","line":["P.O. Box 660044"],"city":"Dallas","state":"TX","postalCode":"75266-0044","country":"USA"}]},"request":{"method":"PUT","url":"Organization/f7da4368-fb6d-4d73-a75b-f78024cbb18d"}},{"fullUrl":"https://madie.cms.gov/Practitioner/a48ebc1f-97fe-4139-8cd6-ad5b4123d409","resource":{"resourceType":"Practitioner","id":"a48ebc1f-97fe-4139-8cd6-ad5b4123d409","identifier":[{"system":"http://hl7.org/fhir/sid/us-npi","value":"123456"}],"name":[{"family":"Evil","prefix":["Dr"]}]},"request":{"method":"PUT","url":"Practitioner/a48ebc1f-97fe-4139-8cd6-ad5b4123d409"}},{"fullUrl":"https://madie.cms.gov/MeasureReport/63c16980-dfaa-4619-8aa7-0d246b3821f8","resource":{"resourceType":"MeasureReport","id":"63c16980-dfaa-4619-8aa7-0d246b3821f8","meta":{"profile":["http://hl7.org/fhir/us/cqfmeasures/StructureDefinition/test-case-cqfm"]},"contained":[{"resourceType":"Parameters","id":"194fc3e4-42f0-4cd5-aada-b493577d764e-parameters","parameter":[{"name":"subject","valueString":"3cb741e0-5abb-4d16-a374-bc15fdf55021"}]}],"extension":[{"url":"http://hl7.org/fhir/us/cqfmeasures/StructureDefinition/cqfm-inputParameters","valueReference":{"reference":"#194fc3e4-42f0-4cd5-aada-b493577d764e-parameters"}},{"url":"http://hl7.org/fhir/us/cqfmeasures/StructureDefinition/cqfm-testCaseDescription","valueMarkdown":"\"Preterm Births=0, authored < 42weeks prior to delivery\nTerm Newborn missing\"\n"}],"modifierExtension":[{"url":"http://hl7.org/fhir/us/cqfmeasures/StructureDefinition/cqfm-isTestCase","valueBoolean":true}],"status":"complete","type":"individual","measure":"https://madie.cms.gov/Measure/CMS334FHIRPCCesareanBirth","period":{"start":"2026-01-01","end":"2026-12-31"},"group":[{"population":[{"code":{"coding":[{"system":"http://terminology.hl7.org/CodeSystem/measure-population","code":"initial-population","display":"Initial Population"}]},"count":1},{"code":{"coding":[{"system":"http://terminology.hl7.org/CodeSystem/measure-population","code":"denominator","display":"Denominator"}]},"count":0},{"code":{"coding":[{"system":"http://terminology.hl7.org/CodeSystem/measure-population","code":"denominator-exclusion","display":"Denominator Exclusion"}]},"count":0},{"code":{"coding":[{"system":"http://terminology.hl7.org/CodeSystem/measure-population","code":"numerator","display":"Numerator"}]},"count":0}]}]},"request":{"method":"PUT","url":"MeasureReport/63c16980-dfaa-4619-8aa7-0d246b3821f8"}}]}