{"resourceType":"Bundle","id":"tests-9f006931-e0fe-43f3-9c93-373908837912-bundle","type":"transaction","entry":[{"fullUrl":"https://madie.cms.gov/Patient/9f006931-e0fe-43f3-9c93-373908837912","resource":{"resourceType":"Patient","id":"9f006931-e0fe-43f3-9c93-373908837912","meta":{"profile":["http://hl7.org/fhir/us/qicore/StructureDefinition/qicore-patient"]},"text":{"status":"generated","div":"<div xmlns=\"http://www.w3.org/1999/xhtml\"><div class=\"hapiHeaderText\">AssessG1 <b>DENPASS </b></div><table class=\"hapiPropertyTable\"><tbody><tr><td>Identifier</td><td>b00b06f67015bda652373741cca10f65466d828e3a674df9528f73ec417ce0bb</td></tr><tr><td>Date of birth</td><td><span>14 February 1985</span></td></tr></tbody></table></div>"},"extension":[{"url":"http://hl7.org/fhir/us/core/StructureDefinition/us-core-race","extension":[{"url":"ombCategory","valueCoding":{"system":"urn:oid:2.16.840.1.113883.6.238","code":"1002-5","display":"American Indian or Alaska Native","userSelected":true}},{"url":"text","valueString":"American Indian or Alaska Native"}]},{"url":"http://hl7.org/fhir/us/core/StructureDefinition/us-core-ethnicity","extension":[{"url":"ombCategory","valueCoding":{"system":"urn:oid:2.16.840.1.113883.6.238","code":"2135-2","display":"Hispanic or Latino","userSelected":true}},{"url":"text","valueString":"Hispanic or Latino"}]}],"identifier":[{"type":{"coding":[{"system":"http://terminology.hl7.org/CodeSystem/v2-0203","code":"MR"}]},"system":"https://bonnie-fhir.healthit.gov/","value":"63487c2e0968f8012254016a"}],"active":true,"name":[{"use":"usual","family":"DENPass","given":["AssessG1"]}],"gender":"female","birthDate":"1998-02-14"},"request":{"method":"PUT","url":"Patient/9f006931-e0fe-43f3-9c93-373908837912"}},{"fullUrl":"https://madie.cms.gov/Observation/7782a755-1f7b-4f5c-93f4-31a84ddb409e","resource":{"resourceType":"Observation","id":"7782a755-1f7b-4f5c-93f4-31a84ddb409e","meta":{"profile":["http://hl7.org/fhir/us/qicore/StructureDefinition/qicore-observation"]},"status":"final","category":[{"coding":[{"system":"http://terminology.hl7.org/CodeSystem/observation-category","code":"exam","display":"exam","userSelected":true}]}],"code":{"coding":[{"system":"http://loinc.org","code":"11996-6"}]},"subject":{"reference":"Patient/9f006931-e0fe-43f3-9c93-373908837912"},"effectiveDateTime":"2025-10-19T08:10:00.000+00:00","valueInteger":1},"request":{"method":"PUT","url":"Observation/7782a755-1f7b-4f5c-93f4-31a84ddb409e"}},{"fullUrl":"https://madie.cms.gov/Observation/6b4a37ed-fec1-4a58-b2de-fbccbd91b723","resource":{"resourceType":"Observation","id":"6b4a37ed-fec1-4a58-b2de-fbccbd91b723","meta":{"profile":["http://hl7.org/fhir/us/qicore/StructureDefinition/qicore-observation"]},"status":"final","category":[{"coding":[{"system":"http://terminology.hl7.org/CodeSystem/observation-category","code":"exam","display":"exam","userSelected":true}]}],"code":{"coding":[{"system":"http://loinc.org","code":"11884-4"}]},"subject":{"reference":"Patient/9f006931-e0fe-43f3-9c93-373908837912"},"effectiveDateTime":"2026-06-08T09:15:00.000+00:00","valueQuantity":{"value":38.0,"unit":"weeks"}},"request":{"method":"PUT","url":"Observation/6b4a37ed-fec1-4a58-b2de-fbccbd91b723"}},{"fullUrl":"https://madie.cms.gov/Observation/7e403306-8dc7-452e-8704-b46b54b16fbe","resource":{"resourceType":"Observation","id":"7e403306-8dc7-452e-8704-b46b54b16fbe","meta":{"profile":["http://hl7.org/fhir/us/qicore/StructureDefinition/qicore-observation"]},"status":"final","category":[{"coding":[{"system":"http://terminology.hl7.org/CodeSystem/observation-category","code":"exam","display":"exam","userSelected":true}]}],"code":{"coding":[{"system":"http://loinc.org","code":"93857-1"}]},"subject":{"reference":"Patient/9f006931-e0fe-43f3-9c93-373908837912"},"effectiveDateTime":"2026-06-08T20:00:00.000+00:00","valueDateTime":"2026-06-08T20:00:00+00:00"},"request":{"method":"PUT","url":"Observation/7e403306-8dc7-452e-8704-b46b54b16fbe"}},{"fullUrl":"https://madie.cms.gov/Encounter/660ab400-0f4a-45e0-a96c-d30da9ad7b3b","resource":{"resourceType":"Encounter","id":"660ab400-0f4a-45e0-a96c-d30da9ad7b3b","meta":{"profile":["http://hl7.org/fhir/us/qicore/StructureDefinition/qicore-encounter"]},"status":"finished","class":{"system":"http://terminology.hl7.org/CodeSystem/v3-ActCode","code":"IMP","display":"inpatient encounter"},"type":[{"coding":[{"system":"http://snomed.info/sct","code":"183452005"}]}],"subject":{"reference":"Patient/9f006931-e0fe-43f3-9c93-373908837912"},"period":{"start":"2026-06-08T08:00:00.000Z","end":"2026-06-10T08:15:00.000Z"},"diagnosis":[{"condition":{"reference":"Condition/73f02da8-ee87-4e99-8682-863d3761225c"},"use":{"coding":[{"system":"http://snomed.info/sct","code":"169826009","display":"Delivery of Singleton"}]}}]},"request":{"method":"PUT","url":"Encounter/660ab400-0f4a-45e0-a96c-d30da9ad7b3b"}},{"fullUrl":"https://madie.cms.gov/Procedure/de8f3990-a65f-4f6a-af00-70c51bf57d47","resource":{"resourceType":"Procedure","id":"de8f3990-a65f-4f6a-af00-70c51bf57d47","meta":{"profile":["http://hl7.org/fhir/us/qicore/StructureDefinition/qicore-procedure"]},"extension":[{"url":"http://hl7.org/fhir/us/qicore/StructureDefinition/qicore-recorded","valueDateTime":"2014-04-05T09:35:00-04:00"}],"status":"completed","code":{"coding":[{"system":"http://www.cms.gov/Medicare/Coding/ICD10","code":"10D07Z3"},{"system":"http://www.icd10data.com/icd10pcs","code":"10D07Z3","userSelected":true}]},"subject":{"reference":"Patient/9f006931-e0fe-43f3-9c93-373908837912"},"performedPeriod":{"start":"2026-06-08T08:10:00.000Z","end":"2026-06-08T09:14:00.000Z"}},"request":{"method":"PUT","url":"Procedure/de8f3990-a65f-4f6a-af00-70c51bf57d47"}},{"fullUrl":"https://madie.cms.gov/Condition/73f02da8-ee87-4e99-8682-863d3761225c","resource":{"resourceType":"Condition","id":"73f02da8-ee87-4e99-8682-863d3761225c","meta":{"profile":["http://hl7.org/fhir/us/qicore/StructureDefinition/qicore-condition"]},"category":[{"coding":[{"system":"http://terminology.hl7.org/CodeSystem/condition-category","code":"encounter-diagnosis","display":"Encounter Diagnosis"}]}],"code":{"coding":[{"system":"http://snomed.info/sct","version":"2022-09","code":"169826009","display":"Single live birth (finding)","userSelected":true}]},"subject":{"reference":"Patient/9f006931-e0fe-43f3-9c93-373908837912"},"recordedDate":"2026-10-14T08:00:00.000+00:00"},"request":{"method":"PUT","url":"Condition/73f02da8-ee87-4e99-8682-863d3761225c"}},{"fullUrl":"https://madie.cms.gov/Coverage/72b85a17-04bd-4888-9d86-f6d3964e8365","resource":{"resourceType":"Coverage","id":"72b85a17-04bd-4888-9d86-f6d3964e8365","meta":{"profile":["http://hl7.org/fhir/us/qicore/StructureDefinition/qicore-coverage"]},"status":"active","beneficiary":{"reference":"Patient/9f006931-e0fe-43f3-9c93-373908837912"},"payor":[{"reference":"Organization/f4907415-83c5-4eae-ab0b-cb63a840880d"}]},"request":{"method":"PUT","url":"Coverage/72b85a17-04bd-4888-9d86-f6d3964e8365"}},{"fullUrl":"https://madie.cms.gov/Organization/8c2d26d1-f41c-427b-8d05-7d021e6bee0b","resource":{"resourceType":"Organization","id":"f4907415-83c5-4eae-ab0b-cb63a840880d","meta":{"profile":["http://hl7.org/fhir/us/qicore/StructureDefinition/qicore-organization"]},"identifier":[{"use":"temp","system":"urn:oid:2.16.840.1.113883.4.4","value":"21-3259825"}],"active":true,"type":[{"coding":[{"system":"http://terminology.hl7.org/CodeSystem/organization-type","code":"pay","display":"Payer"}]}],"name":"Blue Cross Blue Shield of Texas","telecom":[{"system":"phone","value":"(+1) 972-766-6900"}],"address":[{"use":"billing","type":"postal","line":["P.O. Box 660044"],"city":"Dallas","state":"TX","postalCode":"75266-0044","country":"USA"}]},"request":{"method":"PUT","url":"Organization/f4907415-83c5-4eae-ab0b-cb63a840880d"}},{"fullUrl":"https://madie.cms.gov/Practitioner/d3237bb0-f4bd-45ec-bbb2-34a1332728f1","resource":{"resourceType":"Practitioner","id":"d3237bb0-f4bd-45ec-bbb2-34a1332728f1","identifier":[{"system":"http://hl7.org/fhir/sid/us-npi","value":"123456"}],"name":[{"family":"Evil","prefix":["Dr"]}]},"request":{"method":"PUT","url":"Practitioner/d3237bb0-f4bd-45ec-bbb2-34a1332728f1"}},{"fullUrl":"https://madie.cms.gov/Condition/50d7e0d9-9651-48ad-8c90-c8694de3bb86","resource":{"resourceType":"Condition","id":"50d7e0d9-9651-48ad-8c90-c8694de3bb86","meta":{"profile":["http://hl7.org/fhir/us/qicore/StructureDefinition/qicore-condition"]},"category":[{"coding":[{"system":"http://terminology.hl7.org/CodeSystem/condition-category","code":"encounter-diagnosis","display":"Encounter Diagnosis"}]}],"code":{"coding":[{"system":"http://snomed.info/sct","code":"169826009","display":"Single live birth (finding)"}]},"subject":{"reference":"Patient/9f006931-e0fe-43f3-9c93-373908837912"}},"request":{"method":"PUT","url":"Condition/50d7e0d9-9651-48ad-8c90-c8694de3bb86"}},{"fullUrl":"https://madie.cms.gov/MeasureReport/e0aa05c6-c083-48d6-aaea-511330970a16","resource":{"resourceType":"MeasureReport","id":"e0aa05c6-c083-48d6-aaea-511330970a16","meta":{"profile":["http://hl7.org/fhir/us/cqfmeasures/StructureDefinition/test-case-cqfm"]},"contained":[{"resourceType":"Parameters","id":"91a8bb4c-d95c-4ff1-aba6-85ad6972f102-parameters","parameter":[{"name":"subject","valueString":"9f006931-e0fe-43f3-9c93-373908837912"}]}],"extension":[{"url":"http://hl7.org/fhir/us/cqfmeasures/StructureDefinition/cqfm-inputParameters","valueReference":{"reference":"#91a8bb4c-d95c-4ff1-aba6-85ad6972f102-parameters"}},{"url":"http://hl7.org/fhir/us/cqfmeasures/StructureDefinition/cqfm-testCaseDescription","valueMarkdown":"Passes: IP, Pt is 27 years of age,  encounter dx delivery of singleton, gravida=1 rel date/time less than 42 weeks prior to delivery, EGA @ 38 weeks\n"}],"modifierExtension":[{"url":"http://hl7.org/fhir/us/cqfmeasures/StructureDefinition/cqfm-isTestCase","valueBoolean":true}],"status":"complete","type":"individual","measure":"https://madie.cms.gov/Measure/CMS334FHIRPCCesareanBirth","period":{"start":"2026-01-01","end":"2026-12-31"},"group":[{"population":[{"code":{"coding":[{"system":"http://terminology.hl7.org/CodeSystem/measure-population","code":"initial-population","display":"Initial Population"}]},"count":1},{"code":{"coding":[{"system":"http://terminology.hl7.org/CodeSystem/measure-population","code":"denominator","display":"Denominator"}]},"count":1},{"code":{"coding":[{"system":"http://terminology.hl7.org/CodeSystem/measure-population","code":"denominator-exclusion","display":"Denominator Exclusion"}]},"count":0},{"code":{"coding":[{"system":"http://terminology.hl7.org/CodeSystem/measure-population","code":"numerator","display":"Numerator"}]},"count":0}]}]},"request":{"method":"PUT","url":"MeasureReport/e0aa05c6-c083-48d6-aaea-511330970a16"}}]}