{"resourceType":"Bundle","id":"tests-97e8802a-f6a7-4359-a0ff-ce597741ca0f-bundle","type":"transaction","entry":[{"fullUrl":"https://madie.cms.gov/Patient/97e8802a-f6a7-4359-a0ff-ce597741ca0f","resource":{"resourceType":"Patient","id":"97e8802a-f6a7-4359-a0ff-ce597741ca0f","meta":{"profile":["http://hl7.org/fhir/us/qicore/StructureDefinition/qicore-patient"]},"text":{"status":"generated","div":"<div xmlns=\"http://www.w3.org/1999/xhtml\"><div class=\"hapiHeaderText\">AssessPreTermLastMissingResult <b>DENPASS </b></div><table class=\"hapiPropertyTable\"><tbody><tr><td>Identifier</td><td>68ae6e24f0fface97c058e998841dc5fd1e621f11f5d5bc2aeef1a3a248ebc14</td></tr><tr><td>Date of birth</td><td><span>14 February 1985</span></td></tr></tbody></table></div>"},"extension":[{"url":"http://hl7.org/fhir/us/core/StructureDefinition/us-core-race","extension":[{"url":"ombCategory","valueCoding":{"system":"urn:oid:2.16.840.1.113883.6.238","code":"1002-5","display":"American Indian or Alaska Native","userSelected":true}},{"url":"text","valueString":"American Indian or Alaska Native"}]},{"url":"http://hl7.org/fhir/us/core/StructureDefinition/us-core-ethnicity","extension":[{"url":"ombCategory","valueCoding":{"system":"urn:oid:2.16.840.1.113883.6.238","code":"2135-2","display":"Hispanic or Latino","userSelected":true}},{"url":"text","valueString":"Hispanic or Latino"}]}],"identifier":[{"type":{"coding":[{"system":"http://terminology.hl7.org/CodeSystem/v2-0203","code":"MR"}]},"system":"https://bonnie-fhir.healthit.gov/","value":"63487c300968f801225401bc"}],"active":true,"name":[{"use":"usual","family":"DENPass","given":["AssessPreTermLastMissingResult"]}],"gender":"female","birthDate":"1998-02-14"},"request":{"method":"PUT","url":"Patient/97e8802a-f6a7-4359-a0ff-ce597741ca0f"}},{"fullUrl":"https://madie.cms.gov/Observation/bc2df7b4-3930-4ccf-9862-deca689deaf1","resource":{"resourceType":"Observation","id":"bc2df7b4-3930-4ccf-9862-deca689deaf1","meta":{"profile":["http://hl7.org/fhir/us/qicore/StructureDefinition/qicore-observation"]},"status":"final","category":[{"coding":[{"system":"http://terminology.hl7.org/CodeSystem/observation-category","code":"exam","display":"exam","userSelected":true}]}],"code":{"coding":[{"system":"http://loinc.org","code":"11639-2"}]},"subject":{"reference":"Patient/97e8802a-f6a7-4359-a0ff-ce597741ca0f"},"effectiveDateTime":"2025-09-19T09:00:00.000+00:00","valueInteger":0},"request":{"method":"PUT","url":"Observation/bc2df7b4-3930-4ccf-9862-deca689deaf1"}},{"fullUrl":"https://madie.cms.gov/Observation/a47f32c2-763e-4dc9-9a4d-aa7970672ce3","resource":{"resourceType":"Observation","id":"a47f32c2-763e-4dc9-9a4d-aa7970672ce3","meta":{"profile":["http://hl7.org/fhir/us/qicore/StructureDefinition/qicore-observation"]},"status":"final","category":[{"coding":[{"system":"http://terminology.hl7.org/CodeSystem/observation-category","code":"exam","display":"exam","userSelected":true}]}],"code":{"coding":[{"system":"http://loinc.org","code":"11637-6"}]},"subject":{"reference":"Patient/97e8802a-f6a7-4359-a0ff-ce597741ca0f"},"effectiveDateTime":"2026-06-08T08:00:00.000+00:00","valueInteger":0},"request":{"method":"PUT","url":"Observation/a47f32c2-763e-4dc9-9a4d-aa7970672ce3"}},{"fullUrl":"https://madie.cms.gov/Observation/2590a3a1-3ba2-420f-86bb-7538f2b68f02","resource":{"resourceType":"Observation","id":"2590a3a1-3ba2-420f-86bb-7538f2b68f02","meta":{"profile":["http://hl7.org/fhir/us/qicore/StructureDefinition/qicore-observation"]},"status":"final","category":[{"coding":[{"system":"http://terminology.hl7.org/CodeSystem/observation-category","code":"exam","display":"exam","userSelected":true}]}],"code":{"coding":[{"system":"http://loinc.org","code":"11884-4"}]},"subject":{"reference":"Patient/97e8802a-f6a7-4359-a0ff-ce597741ca0f"},"effectiveDateTime":"2026-06-08T20:00:00.000+00:00","valueQuantity":{"value":37,"system":"http://unitsofmeasure.org","code":"wk"}},"request":{"method":"PUT","url":"Observation/2590a3a1-3ba2-420f-86bb-7538f2b68f02"}},{"fullUrl":"https://madie.cms.gov/Observation/a6410814-9285-4540-a41d-ceb8d514c26e","resource":{"resourceType":"Observation","id":"a6410814-9285-4540-a41d-ceb8d514c26e","meta":{"profile":["http://hl7.org/fhir/us/qicore/StructureDefinition/qicore-observation"]},"status":"final","category":[{"coding":[{"system":"http://terminology.hl7.org/CodeSystem/observation-category","code":"exam","display":"exam","userSelected":true}]}],"code":{"coding":[{"system":"http://loinc.org","code":"93857-1"}]},"subject":{"reference":"Patient/97e8802a-f6a7-4359-a0ff-ce597741ca0f"},"effectiveDateTime":"2026-06-08T20:00:00.000+00:00","valueDateTime":"2026-06-08T20:00:00+00:00"},"request":{"method":"PUT","url":"Observation/a6410814-9285-4540-a41d-ceb8d514c26e"}},{"fullUrl":"https://madie.cms.gov/Observation/0e95e944-3305-4477-8561-1ed76d2dfcc7","resource":{"resourceType":"Observation","id":"0e95e944-3305-4477-8561-1ed76d2dfcc7","meta":{"profile":["http://hl7.org/fhir/us/qicore/StructureDefinition/qicore-observation"]},"status":"final","category":[{"coding":[{"system":"http://terminology.hl7.org/CodeSystem/observation-category","code":"exam","display":"exam","userSelected":true}]}],"code":{"coding":[{"system":"http://loinc.org","code":"11637-6"}]},"subject":{"reference":"Patient/97e8802a-f6a7-4359-a0ff-ce597741ca0f"}},"request":{"method":"PUT","url":"Observation/0e95e944-3305-4477-8561-1ed76d2dfcc7"}},{"fullUrl":"https://madie.cms.gov/Encounter/8b57d960-d13a-45f1-ad22-00855a2228fe","resource":{"resourceType":"Encounter","id":"8b57d960-d13a-45f1-ad22-00855a2228fe","meta":{"profile":["http://hl7.org/fhir/us/qicore/StructureDefinition/qicore-encounter"]},"status":"finished","class":{"system":"http://terminology.hl7.org/CodeSystem/v3-ActCode","code":"IMP","display":"inpatient encounter"},"type":[{"coding":[{"system":"http://snomed.info/sct","code":"8715000"}]}],"subject":{"reference":"Patient/97e8802a-f6a7-4359-a0ff-ce597741ca0f"},"period":{"start":"2026-06-08T08:00:00.000Z","end":"2026-06-10T08:15:00.000Z"},"length":{"value":2,"unit":"days"},"diagnosis":[{"condition":{"reference":"Condition/delivery-of-singleton-f83c"},"use":{"coding":[{"system":"http://snomed.info/sct","code":"169826009","display":"Delivery of Singleton"}]}},{"condition":{"reference":"Condition/1023eac0-64a1-4337-b0a7-bc21adaf53d0"}}]},"request":{"method":"PUT","url":"Encounter/8b57d960-d13a-45f1-ad22-00855a2228fe"}},{"fullUrl":"https://madie.cms.gov/Coverage/130e8b99-412c-4ff7-b12b-88286199d606","resource":{"resourceType":"Coverage","id":"130e8b99-412c-4ff7-b12b-88286199d606","status":"active","beneficiary":{"reference":"Patient/97e8802a-f6a7-4359-a0ff-ce597741ca0f"},"period":{"start":"1986-02-14T08:00:00.000Z"},"payor":[{"reference":"Organization/e75793c9-fdf6-463a-8c1d-4ee44320dc25"}]},"request":{"method":"PUT","url":"Coverage/130e8b99-412c-4ff7-b12b-88286199d606"}},{"fullUrl":"https://madie.cms.gov/Procedure/118af711-d2ea-4f9e-89a6-f5b57b8f1a75","resource":{"resourceType":"Procedure","id":"118af711-d2ea-4f9e-89a6-f5b57b8f1a75","meta":{"profile":["http://hl7.org/fhir/us/qicore/StructureDefinition/qicore-procedure"]},"extension":[{"url":"http://hl7.org/fhir/us/qicore/StructureDefinition/qicore-recorded","valueDateTime":"2014-04-05T09:35:00-04:00"}],"status":"completed","code":{"coding":[{"system":"http://www.cms.gov/Medicare/Coding/ICD10","code":"10D00Z0"},{"system":"http://snomed.info/sct","code":"4504004"},{"system":"http://www.icd10data.com/icd10pcs","code":"10D00Z1","userSelected":true}]},"subject":{"reference":"Patient/97e8802a-f6a7-4359-a0ff-ce597741ca0f"},"performedPeriod":{"start":"2026-06-08T20:00:00.000Z","end":"2026-06-08T20:15:00.000Z"}},"request":{"method":"PUT","url":"Procedure/118af711-d2ea-4f9e-89a6-f5b57b8f1a75"}},{"fullUrl":"https://madie.cms.gov/Condition/1023eac0-64a1-4337-b0a7-bc21adaf53d0","resource":{"resourceType":"Condition","id":"1023eac0-64a1-4337-b0a7-bc21adaf53d0","meta":{"profile":["http://hl7.org/fhir/us/qicore/StructureDefinition/qicore-condition"]},"category":[{"coding":[{"system":"http://terminology.hl7.org/CodeSystem/condition-category","code":"encounter-diagnosis","display":"Encounter Diagnosis"}]}],"code":{"coding":[{"system":"http://snomed.info/sct","version":"2022-09","code":"169826009","display":"Single live birth (finding)","userSelected":true}]},"subject":{"reference":"Patient/97e8802a-f6a7-4359-a0ff-ce597741ca0f"},"recordedDate":"2026-10-20T08:00:00.000+00:00"},"request":{"method":"PUT","url":"Condition/1023eac0-64a1-4337-b0a7-bc21adaf53d0"}},{"fullUrl":"https://madie.cms.gov/Organization/0a943d2c-5d8d-4c33-9479-db71db460fcb","resource":{"resourceType":"Organization","id":"e75793c9-fdf6-463a-8c1d-4ee44320dc25","meta":{"profile":["http://hl7.org/fhir/us/qicore/StructureDefinition/qicore-organization"]},"identifier":[{"use":"temp","system":"urn:oid:2.16.840.1.113883.4.4","value":"21-3259825"}],"active":true,"type":[{"coding":[{"system":"http://terminology.hl7.org/CodeSystem/organization-type","code":"pay","display":"Payer"}]}],"name":"Blue Cross Blue Shield of Texas","telecom":[{"system":"phone","value":"(+1) 972-766-6900"}],"address":[{"use":"billing","type":"postal","line":["P.O. Box 660044"],"city":"Dallas","state":"TX","postalCode":"75266-0044","country":"USA"}]},"request":{"method":"PUT","url":"Organization/e75793c9-fdf6-463a-8c1d-4ee44320dc25"}},{"fullUrl":"https://madie.cms.gov/Practitioner/ec26fdec-e488-4362-bc07-322eceff076b","resource":{"resourceType":"Practitioner","id":"ec26fdec-e488-4362-bc07-322eceff076b","identifier":[{"system":"http://hl7.org/fhir/sid/us-npi","value":"123456"}],"name":[{"family":"Evil","prefix":["Dr"]}]},"request":{"method":"PUT","url":"Practitioner/ec26fdec-e488-4362-bc07-322eceff076b"}},{"fullUrl":"https://madie.cms.gov/MeasureReport/ac57eea1-c4ed-44f1-ae8b-ec972d28505d","resource":{"resourceType":"MeasureReport","id":"ac57eea1-c4ed-44f1-ae8b-ec972d28505d","meta":{"profile":["http://hl7.org/fhir/us/cqfmeasures/StructureDefinition/test-case-cqfm"]},"contained":[{"resourceType":"Parameters","id":"386bea34-2c50-4c49-ac64-80ef7fe71c2b-parameters","parameter":[{"name":"subject","valueString":"97e8802a-f6a7-4359-a0ff-ce597741ca0f"}]}],"extension":[{"url":"http://hl7.org/fhir/us/cqfmeasures/StructureDefinition/cqfm-inputParameters","valueReference":{"reference":"#386bea34-2c50-4c49-ac64-80ef7fe71c2b-parameters"}},{"url":"http://hl7.org/fhir/us/cqfmeasures/StructureDefinition/cqfm-testCaseDescription","valueMarkdown":"\"Two Preterm Births, first=0 but last is missing result, relevant date/time before Asse delivery datetime\nTerm Newborn=0, authored < 42weeks prior to Asse delivery\"\n"}],"modifierExtension":[{"url":"http://hl7.org/fhir/us/cqfmeasures/StructureDefinition/cqfm-isTestCase","valueBoolean":true}],"status":"complete","type":"individual","measure":"https://madie.cms.gov/Measure/CMS334FHIRPCCesareanBirth","period":{"start":"2026-01-01","end":"2026-12-31"},"group":[{"population":[{"code":{"coding":[{"system":"http://terminology.hl7.org/CodeSystem/measure-population","code":"initial-population","display":"Initial Population"}]},"count":1},{"code":{"coding":[{"system":"http://terminology.hl7.org/CodeSystem/measure-population","code":"denominator","display":"Denominator"}]},"count":1},{"code":{"coding":[{"system":"http://terminology.hl7.org/CodeSystem/measure-population","code":"denominator-exclusion","display":"Denominator Exclusion"}]},"count":0},{"code":{"coding":[{"system":"http://terminology.hl7.org/CodeSystem/measure-population","code":"numerator","display":"Numerator"}]},"count":1}]}]},"request":{"method":"PUT","url":"MeasureReport/ac57eea1-c4ed-44f1-ae8b-ec972d28505d"}}]}