{"resourceType":"Bundle","id":"tests-f2b2fe3f-ad3c-42ae-b262-73345ec66e07-bundle","type":"transaction","entry":[{"fullUrl":"https://madie.cms.gov/Patient/f2b2fe3f-ad3c-42ae-b262-73345ec66e07","resource":{"resourceType":"Patient","id":"f2b2fe3f-ad3c-42ae-b262-73345ec66e07","meta":{"profile":["http://hl7.org/fhir/us/qicore/StructureDefinition/qicore-patient"]},"text":{"status":"generated","div":"<div xmlns=\"http://www.w3.org/1999/xhtml\"><div class=\"hapiHeaderText\">ParityIsNull <b>DENFAIL </b></div><table class=\"hapiPropertyTable\"><tbody><tr><td>Identifier</td><td>6ececc78b054b42e74f2c884abc3eae32b6222330de6218ca3ca8a067bf56447</td></tr><tr><td>Date of birth</td><td><span>14 February 1985</span></td></tr></tbody></table></div>"},"extension":[{"url":"http://hl7.org/fhir/us/core/StructureDefinition/us-core-race","extension":[{"url":"ombCategory","valueCoding":{"system":"urn:oid:2.16.840.1.113883.6.238","code":"1002-5","display":"American Indian or Alaska Native","userSelected":true}},{"url":"text","valueString":"American Indian or Alaska Native"}]},{"url":"http://hl7.org/fhir/us/core/StructureDefinition/us-core-ethnicity","extension":[{"url":"ombCategory","valueCoding":{"system":"urn:oid:2.16.840.1.113883.6.238","code":"2135-2","display":"Hispanic or Latino","userSelected":true}},{"url":"text","valueString":"Hispanic or Latino"}]}],"identifier":[{"type":{"coding":[{"system":"http://terminology.hl7.org/CodeSystem/v2-0203","code":"MR"}]},"system":"https://bonnie-fhir.healthit.gov/","value":"63487c2e0968f80122540177"}],"active":true,"name":[{"use":"usual","family":"DENFail","given":["ParityIsNull"]}],"gender":"female","birthDate":"1998-02-14"},"request":{"method":"PUT","url":"Patient/f2b2fe3f-ad3c-42ae-b262-73345ec66e07"}},{"fullUrl":"https://madie.cms.gov/Observation/0f71e38b-b4da-4ee0-8113-053c95d1db12","resource":{"resourceType":"Observation","id":"0f71e38b-b4da-4ee0-8113-053c95d1db12","meta":{"profile":["http://hl7.org/fhir/us/qicore/StructureDefinition/qicore-observation"]},"status":"final","category":[{"coding":[{"system":"http://terminology.hl7.org/CodeSystem/observation-category","code":"exam","display":"exam","userSelected":true}]}],"code":{"coding":[{"system":"http://loinc.org","code":"11977-6"}]},"subject":{"reference":"Patient/f2b2fe3f-ad3c-42ae-b262-73345ec66e07"},"effectiveDateTime":"2026-03-08T09:00:00.000+00:00"},"request":{"method":"PUT","url":"Observation/0f71e38b-b4da-4ee0-8113-053c95d1db12"}},{"fullUrl":"https://madie.cms.gov/Observation/daf181fa-88a9-40c2-bd45-f292e5ec6e44","resource":{"resourceType":"Observation","id":"daf181fa-88a9-40c2-bd45-f292e5ec6e44","meta":{"profile":["http://hl7.org/fhir/us/qicore/StructureDefinition/qicore-observation"]},"status":"final","category":[{"coding":[{"system":"http://terminology.hl7.org/CodeSystem/observation-category","code":"exam","display":"exam","userSelected":true}]}],"code":{"coding":[{"system":"http://loinc.org","code":"11884-4"}]},"subject":{"reference":"Patient/f2b2fe3f-ad3c-42ae-b262-73345ec66e07"},"effectiveDateTime":"2026-06-08T08:00:00.000+00:00","valueQuantity":{"value":37,"system":"http://unitsofmeasure.org","code":"wk"}},"request":{"method":"PUT","url":"Observation/daf181fa-88a9-40c2-bd45-f292e5ec6e44"}},{"fullUrl":"https://madie.cms.gov/Observation/ad9508f6-f3d6-4388-8873-b7c621886fdc","resource":{"resourceType":"Observation","id":"ad9508f6-f3d6-4388-8873-b7c621886fdc","meta":{"profile":["http://hl7.org/fhir/us/qicore/StructureDefinition/qicore-observation"]},"status":"final","category":[{"coding":[{"system":"http://terminology.hl7.org/CodeSystem/observation-category","code":"exam","display":"exam","userSelected":true}]}],"code":{"coding":[{"system":"http://loinc.org","code":"93857-1"}]},"subject":{"reference":"Patient/f2b2fe3f-ad3c-42ae-b262-73345ec66e07"},"effectiveDateTime":"2026-06-08T20:00:00.000+00:00","valueDateTime":"2026-06-08T20:00:00+00:00"},"request":{"method":"PUT","url":"Observation/ad9508f6-f3d6-4388-8873-b7c621886fdc"}},{"fullUrl":"https://madie.cms.gov/Encounter/9d556bc1-9484-4df7-8ee9-bd6ef562d30a","resource":{"resourceType":"Encounter","id":"9d556bc1-9484-4df7-8ee9-bd6ef562d30a","meta":{"profile":["http://hl7.org/fhir/us/qicore/StructureDefinition/qicore-encounter"]},"status":"finished","class":{"system":"http://terminology.hl7.org/CodeSystem/v3-ActCode","code":"IMP","display":"inpatient encounter"},"type":[{"coding":[{"system":"http://snomed.info/sct","code":"8715000"}]}],"subject":{"reference":"Patient/f2b2fe3f-ad3c-42ae-b262-73345ec66e07"},"period":{"start":"2026-06-08T08:00:00.000Z","end":"2026-06-10T08:15:00.000Z"},"length":{"value":2,"unit":"days"},"diagnosis":[{"condition":{"reference":"Condition/delivery-of-singleton-f83c"},"use":{"coding":[{"system":"http://snomed.info/sct","code":"169826009","display":"Delivery of Singleton"}]}},{"condition":{"reference":"Condition/22fff5dc-407a-4365-a84a-576d1f631834"}}]},"request":{"method":"PUT","url":"Encounter/9d556bc1-9484-4df7-8ee9-bd6ef562d30a"}},{"fullUrl":"https://madie.cms.gov/Procedure/3c4f1021-4bb5-488f-abf4-d125d6fb5174","resource":{"resourceType":"Procedure","id":"3c4f1021-4bb5-488f-abf4-d125d6fb5174","meta":{"profile":["http://hl7.org/fhir/us/qicore/StructureDefinition/qicore-procedure"]},"extension":[{"url":"http://hl7.org/fhir/us/qicore/StructureDefinition/qicore-recorded","valueDateTime":"2014-04-05T09:35:00-04:00"}],"status":"completed","code":{"coding":[{"system":"http://www.cms.gov/Medicare/Coding/ICD10","code":"10D00Z0"},{"system":"http://snomed.info/sct","code":"4504004"},{"system":"http://www.icd10data.com/icd10pcs","code":"10D00Z0","userSelected":true}]},"subject":{"reference":"Patient/f2b2fe3f-ad3c-42ae-b262-73345ec66e07"},"performedPeriod":{"start":"2026-06-08T20:00:00.000Z","end":"2026-06-08T20:15:00.000Z"}},"request":{"method":"PUT","url":"Procedure/3c4f1021-4bb5-488f-abf4-d125d6fb5174"}},{"fullUrl":"https://madie.cms.gov/Condition/22fff5dc-407a-4365-a84a-576d1f631834","resource":{"resourceType":"Condition","id":"22fff5dc-407a-4365-a84a-576d1f631834","meta":{"profile":["http://hl7.org/fhir/us/qicore/StructureDefinition/qicore-condition"]},"category":[{"coding":[{"system":"http://terminology.hl7.org/CodeSystem/condition-category","code":"encounter-diagnosis","display":"Encounter Diagnosis"}]}],"code":{"coding":[{"system":"http://snomed.info/sct","version":"2022-09","code":"169826009","display":"Single live birth (finding)","userSelected":true}]},"subject":{"reference":"Patient/f2b2fe3f-ad3c-42ae-b262-73345ec66e07"},"recordedDate":"2026-10-21T08:00:00.000+00:00"},"request":{"method":"PUT","url":"Condition/22fff5dc-407a-4365-a84a-576d1f631834"}},{"fullUrl":"https://madie.cms.gov/Coverage/c2b7814b-d1d6-4cbd-b7e4-d70edec94154","resource":{"resourceType":"Coverage","id":"c2b7814b-d1d6-4cbd-b7e4-d70edec94154","meta":{"profile":["http://hl7.org/fhir/us/qicore/StructureDefinition/qicore-coverage"]},"status":"active","beneficiary":{"reference":"Patient/f2b2fe3f-ad3c-42ae-b262-73345ec66e07"},"payor":[{"reference":"Organization/f7da4368-fb6d-4d73-a75b-f78024cbb18d"}]},"request":{"method":"PUT","url":"Coverage/c2b7814b-d1d6-4cbd-b7e4-d70edec94154"}},{"fullUrl":"https://madie.cms.gov/Organization/d5a32961-82d0-44b0-91ca-35e8e26429e3","resource":{"resourceType":"Organization","id":"f7da4368-fb6d-4d73-a75b-f78024cbb18d","meta":{"profile":["http://hl7.org/fhir/us/qicore/StructureDefinition/qicore-organization"]},"identifier":[{"use":"temp","system":"urn:oid:2.16.840.1.113883.4.4","value":"21-3259825"}],"active":true,"type":[{"coding":[{"system":"http://terminology.hl7.org/CodeSystem/organization-type","code":"pay","display":"Payer"}]}],"name":"Blue Cross Blue Shield of Texas","telecom":[{"system":"phone","value":"(+1) 972-766-6900"}],"address":[{"use":"billing","type":"postal","line":["P.O. Box 660044"],"city":"Dallas","state":"TX","postalCode":"75266-0044","country":"USA"}]},"request":{"method":"PUT","url":"Organization/f7da4368-fb6d-4d73-a75b-f78024cbb18d"}},{"fullUrl":"https://madie.cms.gov/Practitioner/40d37205-484e-402b-8ef0-c17e1515728e","resource":{"resourceType":"Practitioner","id":"40d37205-484e-402b-8ef0-c17e1515728e","identifier":[{"system":"http://hl7.org/fhir/sid/us-npi","value":"123456"}],"name":[{"family":"Evil","prefix":["Dr"]}]},"request":{"method":"PUT","url":"Practitioner/40d37205-484e-402b-8ef0-c17e1515728e"}},{"fullUrl":"https://madie.cms.gov/MeasureReport/b760f217-0527-4a52-9721-13a041c4ba47","resource":{"resourceType":"MeasureReport","id":"b760f217-0527-4a52-9721-13a041c4ba47","meta":{"profile":["http://hl7.org/fhir/us/cqfmeasures/StructureDefinition/test-case-cqfm"]},"contained":[{"resourceType":"Parameters","id":"0843da1b-5740-479d-a23e-69fd18a82706-parameters","parameter":[{"name":"subject","valueString":"f2b2fe3f-ad3c-42ae-b262-73345ec66e07"}]}],"extension":[{"url":"http://hl7.org/fhir/us/cqfmeasures/StructureDefinition/cqfm-inputParameters","valueReference":{"reference":"#0843da1b-5740-479d-a23e-69fd18a82706-parameters"}},{"url":"http://hl7.org/fhir/us/cqfmeasures/StructureDefinition/cqfm-testCaseDescription","valueMarkdown":"Passes IP,   Parity is Null, Gravida, Preterm/Term Births are not populated\n"}],"modifierExtension":[{"url":"http://hl7.org/fhir/us/cqfmeasures/StructureDefinition/cqfm-isTestCase","valueBoolean":true}],"status":"complete","type":"individual","measure":"https://madie.cms.gov/Measure/CMS334FHIRPCCesareanBirth","period":{"start":"2026-01-01","end":"2026-12-31"},"group":[{"population":[{"code":{"coding":[{"system":"http://terminology.hl7.org/CodeSystem/measure-population","code":"initial-population","display":"Initial Population"}]},"count":1},{"code":{"coding":[{"system":"http://terminology.hl7.org/CodeSystem/measure-population","code":"denominator","display":"Denominator"}]},"count":0},{"code":{"coding":[{"system":"http://terminology.hl7.org/CodeSystem/measure-population","code":"denominator-exclusion","display":"Denominator Exclusion"}]},"count":0},{"code":{"coding":[{"system":"http://terminology.hl7.org/CodeSystem/measure-population","code":"numerator","display":"Numerator"}]},"count":0}]}]},"request":{"method":"PUT","url":"MeasureReport/b760f217-0527-4a52-9721-13a041c4ba47"}}]}