{"resourceType":"Bundle","id":"tests-9379f076-ee69-460f-9c02-d763c4891e0d-bundle","type":"transaction","entry":[{"fullUrl":"https://madie.cms.gov/Patient/9379f076-ee69-460f-9c02-d763c4891e0d","resource":{"resourceType":"Patient","id":"9379f076-ee69-460f-9c02-d763c4891e0d","meta":{"profile":["http://hl7.org/fhir/us/qicore/StructureDefinition/qicore-patient"]},"text":{"status":"generated","div":"<div xmlns=\"http://www.w3.org/1999/xhtml\"><div class=\"hapiHeaderText\">ProcDelivStartAtEncInpStart <b>IPPASS </b></div><table class=\"hapiPropertyTable\"><tbody><tr><td>Identifier</td><td>5c05b56286ceef6b3739c6d66e73a6f8be510476054eff3a61df4a6cad50439d</td></tr><tr><td>Date of birth</td><td><span>14 February 1985</span></td></tr></tbody></table></div>"},"extension":[{"url":"http://hl7.org/fhir/us/core/StructureDefinition/us-core-race","extension":[{"url":"ombCategory","valueCoding":{"system":"urn:oid:2.16.840.1.113883.6.238","code":"1002-5","display":"American Indian or Alaska Native","userSelected":true}},{"url":"text","valueString":"American Indian or Alaska Native"}]},{"url":"http://hl7.org/fhir/us/core/StructureDefinition/us-core-ethnicity","extension":[{"url":"ombCategory","valueCoding":{"system":"urn:oid:2.16.840.1.113883.6.238","code":"2135-2","display":"Hispanic or Latino","userSelected":true}},{"url":"text","valueString":"Hispanic or Latino"}]}],"identifier":[{"type":{"coding":[{"system":"http://terminology.hl7.org/CodeSystem/v2-0203","code":"MR"}]},"system":"https://bonnie-fhir.healthit.gov/","value":"63487c2d0968f8012254014e"}],"active":true,"name":[{"use":"usual","family":"IPPass","given":["ProcDelivStartAtEncInpStart"]}],"gender":"other","birthDate":"1998-02-14"},"request":{"method":"PUT","url":"Patient/9379f076-ee69-460f-9c02-d763c4891e0d"}},{"fullUrl":"https://madie.cms.gov/Encounter/e92a501a-8462-49c0-a021-893b01b63732","resource":{"resourceType":"Encounter","id":"e92a501a-8462-49c0-a021-893b01b63732","meta":{"profile":["http://hl7.org/fhir/us/qicore/StructureDefinition/qicore-encounter"]},"status":"finished","class":{"system":"http://terminology.hl7.org/CodeSystem/v3-ActCode","code":"IMP","display":"inpatient encounter"},"type":[{"coding":[{"system":"http://snomed.info/sct","code":"8715000"}]}],"subject":{"reference":"Patient/9379f076-ee69-460f-9c02-d763c4891e0d"},"period":{"start":"2026-11-28T08:00:00.000Z","end":"2026-11-30T08:15:00.000Z"},"diagnosis":[{"condition":{"reference":"Condition/Condition-2"},"use":{"coding":[{"system":"http://snomed.info/sct","code":"169826009","display":"Delivery of Singleton"}]}}]},"request":{"method":"PUT","url":"Encounter/e92a501a-8462-49c0-a021-893b01b63732"}},{"fullUrl":"https://madie.cms.gov/Coverage/dbdf3484-0e91-45bf-b7b9-d5e58a77373d","resource":{"resourceType":"Coverage","id":"dbdf3484-0e91-45bf-b7b9-d5e58a77373d","status":"active","beneficiary":{"reference":"Patient/9379f076-ee69-460f-9c02-d763c4891e0d"},"period":{"start":"1986-02-14T08:00:00.000Z"},"payor":[{"reference":"Organization/f4907415-83c5-4eae-ab0b-cb63a840880d"}]},"request":{"method":"PUT","url":"Coverage/dbdf3484-0e91-45bf-b7b9-d5e58a77373d"}},{"fullUrl":"https://madie.cms.gov/Procedure/5e9f978f-555e-4be2-baa1-9724932e1b1e","resource":{"resourceType":"Procedure","id":"5e9f978f-555e-4be2-baa1-9724932e1b1e","meta":{"profile":["http://hl7.org/fhir/us/qicore/StructureDefinition/qicore-procedure"]},"extension":[{"url":"http://hl7.org/fhir/us/qicore/StructureDefinition/qicore-recorded","valueDateTime":"2014-04-05T09:35:00-04:00"}],"status":"completed","code":{"coding":[{"system":"http://www.cms.gov/Medicare/Coding/ICD10","code":"10D00Z0"},{"system":"http://www.icd10data.com/icd10pcs","code":"10D00Z0","userSelected":true}]},"subject":{"reference":"Patient/9379f076-ee69-460f-9c02-d763c4891e0d"},"performedPeriod":{"start":"2026-11-28T08:00:00.000Z","end":"2026-11-28T20:15:00.000Z"}},"request":{"method":"PUT","url":"Procedure/5e9f978f-555e-4be2-baa1-9724932e1b1e"}},{"fullUrl":"https://madie.cms.gov/Organization/e71cf2a4-8a8c-40d3-bd44-3d3382a64fa0","resource":{"resourceType":"Organization","id":"f4907415-83c5-4eae-ab0b-cb63a840880d","meta":{"profile":["http://hl7.org/fhir/us/qicore/StructureDefinition/qicore-organization"]},"identifier":[{"use":"temp","system":"urn:oid:2.16.840.1.113883.4.4","value":"21-3259825"}],"active":true,"type":[{"coding":[{"system":"http://terminology.hl7.org/CodeSystem/organization-type","code":"pay","display":"Payer"}]}],"name":"Blue Cross Blue Shield of Texas","telecom":[{"system":"phone","value":"(+1) 972-766-6900"}],"address":[{"use":"billing","type":"postal","line":["P.O. Box 660044"],"city":"Dallas","state":"TX","postalCode":"75266-0044","country":"USA"}]},"request":{"method":"PUT","url":"Organization/f4907415-83c5-4eae-ab0b-cb63a840880d"}},{"fullUrl":"https://madie.cms.gov/Practitioner/98f2d2f1-5338-40ef-945d-2bcf2c320c2b","resource":{"resourceType":"Practitioner","id":"98f2d2f1-5338-40ef-945d-2bcf2c320c2b","identifier":[{"system":"http://hl7.org/fhir/sid/us-npi","value":"123456"}],"name":[{"family":"Evil","prefix":["Dr"]}]},"request":{"method":"PUT","url":"Practitioner/98f2d2f1-5338-40ef-945d-2bcf2c320c2b"}},{"fullUrl":"https://madie.cms.gov/MeasureReport/3e8aa527-57c8-445b-8b6c-3a3784da30c5","resource":{"resourceType":"MeasureReport","id":"3e8aa527-57c8-445b-8b6c-3a3784da30c5","meta":{"profile":["http://hl7.org/fhir/us/cqfmeasures/StructureDefinition/test-case-cqfm"]},"contained":[{"resourceType":"Parameters","id":"320aac9c-c6ac-423e-ba49-807f14d18196-parameters","parameter":[{"name":"subject","valueString":"9379f076-ee69-460f-9c02-d763c4891e0d"}]}],"extension":[{"url":"http://hl7.org/fhir/us/cqfmeasures/StructureDefinition/cqfm-inputParameters","valueReference":{"reference":"#320aac9c-c6ac-423e-ba49-807f14d18196-parameters"}},{"url":"http://hl7.org/fhir/us/cqfmeasures/StructureDefinition/cqfm-testCaseDescription","valueMarkdown":"Passes IP.  Proc Deliv Start Equal To Enc Inp Start.\n"}],"modifierExtension":[{"url":"http://hl7.org/fhir/us/cqfmeasures/StructureDefinition/cqfm-isTestCase","valueBoolean":true}],"status":"complete","type":"individual","measure":"https://madie.cms.gov/Measure/CMS334FHIRPCCesareanBirth","period":{"start":"2026-01-01","end":"2026-12-31"},"group":[{"population":[{"code":{"coding":[{"system":"http://terminology.hl7.org/CodeSystem/measure-population","code":"initial-population","display":"Initial Population"}]},"count":1},{"code":{"coding":[{"system":"http://terminology.hl7.org/CodeSystem/measure-population","code":"denominator","display":"Denominator"}]},"count":0},{"code":{"coding":[{"system":"http://terminology.hl7.org/CodeSystem/measure-population","code":"denominator-exclusion","display":"Denominator Exclusion"}]},"count":0},{"code":{"coding":[{"system":"http://terminology.hl7.org/CodeSystem/measure-population","code":"numerator","display":"Numerator"}]},"count":0}]}]},"request":{"method":"PUT","url":"MeasureReport/3e8aa527-57c8-445b-8b6c-3a3784da30c5"}}]}