{"resourceType":"Bundle","id":"tests-a3cccc2f-32e4-4f57-8a87-de26273ae162-bundle","type":"transaction","entry":[{"fullUrl":"https://madie.cms.gov/Patient/a3cccc2f-32e4-4f57-8a87-de26273ae162","resource":{"resourceType":"Patient","id":"a3cccc2f-32e4-4f57-8a87-de26273ae162","meta":{"profile":["http://hl7.org/fhir/us/qicore/StructureDefinition/qicore-patient"]},"text":{"status":"generated","div":"<div xmlns=\"http://www.w3.org/1999/xhtml\"><div class=\"hapiHeaderText\">AssessTimeOfDelivResultEQDelivEncStart <b>DENPASS </b></div><table class=\"hapiPropertyTable\"><tbody><tr><td>Identifier</td><td>71189d70ba3427612f2a418107466ed1652ec9a0e76c1b9c30a1691a1d91b34c</td></tr><tr><td>Date of birth</td><td><span>14 February 1985</span></td></tr></tbody></table></div>"},"extension":[{"url":"http://hl7.org/fhir/us/core/StructureDefinition/us-core-race","extension":[{"url":"ombCategory","valueCoding":{"system":"urn:oid:2.16.840.1.113883.6.238","code":"1002-5","display":"American Indian or Alaska Native","userSelected":true}},{"url":"text","valueString":"American Indian or Alaska Native"}]},{"url":"http://hl7.org/fhir/us/core/StructureDefinition/us-core-ethnicity","extension":[{"url":"ombCategory","valueCoding":{"system":"urn:oid:2.16.840.1.113883.6.238","code":"2135-2","display":"Hispanic or Latino","userSelected":true}},{"url":"text","valueString":"Hispanic or Latino"}]}],"identifier":[{"type":{"coding":[{"system":"http://terminology.hl7.org/CodeSystem/v2-0203","code":"MR"}]},"system":"https://bonnie-fhir.healthit.gov/","value":"63487c300968f801225401c4"}],"active":true,"name":[{"use":"usual","family":"DENPass","given":["AssessTimeOfDelivResultEQDelivEncStart "]}],"gender":"female","birthDate":"1998-02-14"},"request":{"method":"PUT","url":"Patient/a3cccc2f-32e4-4f57-8a87-de26273ae162"}},{"fullUrl":"https://madie.cms.gov/Observation/efbe8047-7a18-431b-93d5-aa4ff2c0bb2e","resource":{"resourceType":"Observation","id":"efbe8047-7a18-431b-93d5-aa4ff2c0bb2e","meta":{"profile":["http://hl7.org/fhir/us/qicore/StructureDefinition/qicore-observation"]},"status":"final","category":[{"coding":[{"system":"http://terminology.hl7.org/CodeSystem/observation-category","code":"exam","display":"exam","userSelected":true}]}],"code":{"coding":[{"system":"http://loinc.org","code":"11996-6"}]},"subject":{"reference":"Patient/a3cccc2f-32e4-4f57-8a87-de26273ae162"},"effectiveDateTime":"2026-02-09T08:00:00.000+00:00","valueInteger":1},"request":{"method":"PUT","url":"Observation/efbe8047-7a18-431b-93d5-aa4ff2c0bb2e"}},{"fullUrl":"https://madie.cms.gov/Observation/2b4a009b-2e39-457e-bdc0-88c90858f9bc","resource":{"resourceType":"Observation","id":"2b4a009b-2e39-457e-bdc0-88c90858f9bc","meta":{"profile":["http://hl7.org/fhir/us/qicore/StructureDefinition/qicore-observation"]},"status":"final","category":[{"coding":[{"system":"http://terminology.hl7.org/CodeSystem/observation-category","code":"exam","display":"exam","userSelected":true}]}],"code":{"coding":[{"system":"http://loinc.org","code":"11884-4"}]},"subject":{"reference":"Patient/a3cccc2f-32e4-4f57-8a87-de26273ae162"},"effectiveDateTime":"2026-11-28T08:00:00.000+00:00","valueQuantity":{"value":40,"system":"http://unitsofmeasure.org","code":"wk"}},"request":{"method":"PUT","url":"Observation/2b4a009b-2e39-457e-bdc0-88c90858f9bc"}},{"fullUrl":"https://madie.cms.gov/Observation/ad4c82f5-6002-4a6e-a628-7e6a44ee28a0","resource":{"resourceType":"Observation","id":"ad4c82f5-6002-4a6e-a628-7e6a44ee28a0","meta":{"profile":["http://hl7.org/fhir/us/qicore/StructureDefinition/qicore-observation"]},"status":"final","category":[{"coding":[{"system":"http://terminology.hl7.org/CodeSystem/observation-category","code":"exam","display":"exam","userSelected":true}]}],"code":{"coding":[{"system":"http://loinc.org","code":"93857-1"}]},"subject":{"reference":"Patient/a3cccc2f-32e4-4f57-8a87-de26273ae162"},"effectiveDateTime":"2026-11-28T21:30:00.000+00:00","valueDateTime":"2026-11-28T08:00:00+00:00"},"request":{"method":"PUT","url":"Observation/ad4c82f5-6002-4a6e-a628-7e6a44ee28a0"}},{"fullUrl":"https://madie.cms.gov/Encounter/f9a144d6-a61f-47c0-b5b2-d00c8d844931","resource":{"resourceType":"Encounter","id":"f9a144d6-a61f-47c0-b5b2-d00c8d844931","meta":{"profile":["http://hl7.org/fhir/us/qicore/StructureDefinition/qicore-encounter"]},"status":"finished","class":{"system":"http://terminology.hl7.org/CodeSystem/v3-ActCode","code":"IMP","display":"inpatient encounter"},"type":[{"coding":[{"system":"http://snomed.info/sct","code":"8715000"}]}],"subject":{"reference":"Patient/a3cccc2f-32e4-4f57-8a87-de26273ae162"},"period":{"start":"2026-11-28T08:00:00.000Z","end":"2026-11-30T08:15:00.000Z"},"length":{"value":2,"unit":"days"},"diagnosis":[{"condition":{"reference":"Condition/delivery-of-singleton-f83c"},"use":{"coding":[{"system":"http://snomed.info/sct","code":"169826009","display":"Delivery of Singleton"}]}},{"condition":{"reference":"Condition/1d2aa772-e375-4dc8-8e56-aa66c8b55112"}}]},"request":{"method":"PUT","url":"Encounter/f9a144d6-a61f-47c0-b5b2-d00c8d844931"}},{"fullUrl":"https://madie.cms.gov/Coverage/98cc7bf7-c202-401f-b33b-39f7fb1283f2","resource":{"resourceType":"Coverage","id":"98cc7bf7-c202-401f-b33b-39f7fb1283f2","status":"active","beneficiary":{"reference":"Patient/a3cccc2f-32e4-4f57-8a87-de26273ae162"},"period":{"start":"1986-02-14T08:00:00.000Z"},"payor":[{"reference":"Organization/aeb2c6be-6577-4bba-a6b6-6eab95111f1b"}]},"request":{"method":"PUT","url":"Coverage/98cc7bf7-c202-401f-b33b-39f7fb1283f2"}},{"fullUrl":"https://madie.cms.gov/Procedure/c7e8a663-d741-49f8-a6d0-8f9b5d89cba8","resource":{"resourceType":"Procedure","id":"c7e8a663-d741-49f8-a6d0-8f9b5d89cba8","meta":{"profile":["http://hl7.org/fhir/us/qicore/StructureDefinition/qicore-procedure"]},"extension":[{"url":"http://hl7.org/fhir/us/qicore/StructureDefinition/qicore-recorded","valueDateTime":"2014-04-05T09:35:00-04:00"}],"status":"completed","code":{"coding":[{"system":"http://snomed.info/sct","code":"22633006"}]},"subject":{"reference":"Patient/a3cccc2f-32e4-4f57-8a87-de26273ae162"},"performedPeriod":{"start":"2026-11-28T20:00:00.000Z","end":"2026-11-28T20:15:00.000Z"}},"request":{"method":"PUT","url":"Procedure/c7e8a663-d741-49f8-a6d0-8f9b5d89cba8"}},{"fullUrl":"https://madie.cms.gov/Condition/1d2aa772-e375-4dc8-8e56-aa66c8b55112","resource":{"resourceType":"Condition","id":"1d2aa772-e375-4dc8-8e56-aa66c8b55112","meta":{"profile":["http://hl7.org/fhir/us/qicore/StructureDefinition/qicore-condition"]},"category":[{"coding":[{"system":"http://terminology.hl7.org/CodeSystem/condition-category","code":"encounter-diagnosis","display":"Encounter Diagnosis"}]}],"code":{"coding":[{"system":"http://snomed.info/sct","version":"2022-09","code":"169826009","display":"Single live birth (finding)","userSelected":true}]},"subject":{"reference":"Patient/a3cccc2f-32e4-4f57-8a87-de26273ae162"},"recordedDate":"2026-10-20T08:00:00.000+00:00"},"request":{"method":"PUT","url":"Condition/1d2aa772-e375-4dc8-8e56-aa66c8b55112"}},{"fullUrl":"https://madie.cms.gov/Organization/86a2108f-333e-4559-9a46-e8be81bcc886","resource":{"resourceType":"Organization","id":"aeb2c6be-6577-4bba-a6b6-6eab95111f1b","meta":{"profile":["http://hl7.org/fhir/us/qicore/StructureDefinition/qicore-organization"]},"identifier":[{"use":"temp","system":"urn:oid:2.16.840.1.113883.4.4","value":"21-3259825"}],"active":true,"type":[{"coding":[{"system":"http://terminology.hl7.org/CodeSystem/organization-type","code":"pay","display":"Payer"}]}],"name":"Blue Cross Blue Shield of Texas","telecom":[{"system":"phone","value":"(+1) 972-766-6900"}],"address":[{"use":"billing","type":"postal","line":["P.O. Box 660044"],"city":"Dallas","state":"TX","postalCode":"75266-0044","country":"USA"}]},"request":{"method":"PUT","url":"Organization/aeb2c6be-6577-4bba-a6b6-6eab95111f1b"}},{"fullUrl":"https://madie.cms.gov/Practitioner/0d3d19a6-3ad7-4684-abb0-0d2c87e7461d","resource":{"resourceType":"Practitioner","id":"0d3d19a6-3ad7-4684-abb0-0d2c87e7461d","identifier":[{"system":"http://hl7.org/fhir/sid/us-npi","value":"123456"}],"name":[{"family":"Evil","prefix":["Dr"]}]},"request":{"method":"PUT","url":"Practitioner/0d3d19a6-3ad7-4684-abb0-0d2c87e7461d"}},{"fullUrl":"https://madie.cms.gov/MeasureReport/d076e599-a4ba-4a9c-b765-9293e41e6ed1","resource":{"resourceType":"MeasureReport","id":"d076e599-a4ba-4a9c-b765-9293e41e6ed1","meta":{"profile":["http://hl7.org/fhir/us/cqfmeasures/StructureDefinition/test-case-cqfm"]},"contained":[{"resourceType":"Parameters","id":"62495f85-8b16-418c-858a-1d698a151cc7-parameters","parameter":[{"name":"subject","valueString":"a3cccc2f-32e4-4f57-8a87-de26273ae162"}]}],"extension":[{"url":"http://hl7.org/fhir/us/cqfmeasures/StructureDefinition/cqfm-inputParameters","valueReference":{"reference":"#62495f85-8b16-418c-858a-1d698a151cc7-parameters"}},{"url":"http://hl7.org/fhir/us/cqfmeasures/StructureDefinition/cqfm-testCaseDescription","valueMarkdown":"Passes IP, Passes DENOM but fails NUM; Gravida 1(auth 42 weeks)  and EGA 40 weeks;  Proc is not Cesarean Birth. LastTimeOfDelivery result equals Delivery Encounter Start Time.   \n"}],"modifierExtension":[{"url":"http://hl7.org/fhir/us/cqfmeasures/StructureDefinition/cqfm-isTestCase","valueBoolean":true}],"status":"complete","type":"individual","measure":"https://madie.cms.gov/Measure/CMS334FHIRPCCesareanBirth","period":{"start":"2026-01-01","end":"2026-12-31"},"group":[{"population":[{"code":{"coding":[{"system":"http://terminology.hl7.org/CodeSystem/measure-population","code":"initial-population","display":"Initial Population"}]},"count":1},{"code":{"coding":[{"system":"http://terminology.hl7.org/CodeSystem/measure-population","code":"denominator","display":"Denominator"}]},"count":1},{"code":{"coding":[{"system":"http://terminology.hl7.org/CodeSystem/measure-population","code":"denominator-exclusion","display":"Denominator Exclusion"}]},"count":0},{"code":{"coding":[{"system":"http://terminology.hl7.org/CodeSystem/measure-population","code":"numerator","display":"Numerator"}]},"count":0}]}]},"request":{"method":"PUT","url":"MeasureReport/d076e599-a4ba-4a9c-b765-9293e41e6ed1"}}]}