{"resourceType":"Bundle","id":"tests-9453e96c-c06a-469b-ab8f-e2cc32dc684c-bundle","type":"transaction","entry":[{"fullUrl":"https://madie.cms.gov/Patient/9453e96c-c06a-469b-ab8f-e2cc32dc684c","resource":{"resourceType":"Patient","id":"9453e96c-c06a-469b-ab8f-e2cc32dc684c","meta":{"profile":["http://hl7.org/fhir/us/qicore/StructureDefinition/qicore-patient"]},"text":{"status":"generated","div":"<div xmlns=\"http://www.w3.org/1999/xhtml\"><div class=\"hapiHeaderText\">AssessPreTerm0RelDtTime1HourAfterDeliv <b>DENFAIL </b></div><table class=\"hapiPropertyTable\"><tbody><tr><td>Identifier</td><td>84b8753708c54db876aad59c3b5dceaad455214447efdaf1a626473420ae0ee9</td></tr><tr><td>Date of birth</td><td><span>14 February 1985</span></td></tr></tbody></table></div>"},"extension":[{"url":"http://hl7.org/fhir/us/core/StructureDefinition/us-core-race","extension":[{"url":"ombCategory","valueCoding":{"system":"urn:oid:2.16.840.1.113883.6.238","code":"1002-5","display":"American Indian or Alaska Native","userSelected":true}},{"url":"text","valueString":"American Indian or Alaska Native"}]},{"url":"http://hl7.org/fhir/us/core/StructureDefinition/us-core-ethnicity","extension":[{"url":"ombCategory","valueCoding":{"system":"urn:oid:2.16.840.1.113883.6.238","code":"2135-2","display":"Hispanic or Latino","userSelected":true}},{"url":"text","valueString":"Hispanic or Latino"}]}],"identifier":[{"type":{"coding":[{"system":"http://terminology.hl7.org/CodeSystem/v2-0203","code":"MR"}]},"system":"https://bonnie-fhir.healthit.gov/","value":"63487c2e0968f80122540185"}],"active":true,"name":[{"use":"usual","family":"DENFail","given":["AssessPreTerm0RelDtTime1HourAfterDeliv"]}],"gender":"female","birthDate":"1998-02-14"},"request":{"method":"PUT","url":"Patient/9453e96c-c06a-469b-ab8f-e2cc32dc684c"}},{"fullUrl":"https://madie.cms.gov/Observation/f8d845a8-4774-4832-a43a-272162e2f60f","resource":{"resourceType":"Observation","id":"f8d845a8-4774-4832-a43a-272162e2f60f","meta":{"profile":["http://hl7.org/fhir/us/qicore/StructureDefinition/qicore-observation"]},"status":"final","category":[{"coding":[{"system":"http://terminology.hl7.org/CodeSystem/observation-category","code":"exam","display":"exam","userSelected":true}]}],"code":{"coding":[{"system":"http://loinc.org","code":"11639-2"}]},"subject":{"reference":"Patient/9453e96c-c06a-469b-ab8f-e2cc32dc684c"},"effectiveDateTime":"2025-09-19T09:00:00.000+00:00","valueInteger":0},"request":{"method":"PUT","url":"Observation/f8d845a8-4774-4832-a43a-272162e2f60f"}},{"fullUrl":"https://madie.cms.gov/Observation/7ddfeb05-2948-45d0-937b-b2862ecd4e2d","resource":{"resourceType":"Observation","id":"7ddfeb05-2948-45d0-937b-b2862ecd4e2d","meta":{"profile":["http://hl7.org/fhir/us/qicore/StructureDefinition/qicore-observation"]},"status":"final","category":[{"coding":[{"system":"http://terminology.hl7.org/CodeSystem/observation-category","code":"exam","display":"exam","userSelected":true}]}],"code":{"coding":[{"system":"http://loinc.org","code":"11884-4"}]},"subject":{"reference":"Patient/9453e96c-c06a-469b-ab8f-e2cc32dc684c"},"effectiveDateTime":"2026-06-08T20:00:00.000+00:00","valueQuantity":{"value":37,"system":"http://unitsofmeasure.org","code":"wk"}},"request":{"method":"PUT","url":"Observation/7ddfeb05-2948-45d0-937b-b2862ecd4e2d"}},{"fullUrl":"https://madie.cms.gov/Observation/d0d9f81a-de5b-4b65-99a8-195de8bf8ffd","resource":{"resourceType":"Observation","id":"d0d9f81a-de5b-4b65-99a8-195de8bf8ffd","meta":{"profile":["http://hl7.org/fhir/us/qicore/StructureDefinition/qicore-observation"]},"status":"final","category":[{"coding":[{"system":"http://terminology.hl7.org/CodeSystem/observation-category","code":"exam","display":"exam","userSelected":true}]}],"code":{"coding":[{"system":"http://loinc.org","code":"11637-6"}]},"subject":{"reference":"Patient/9453e96c-c06a-469b-ab8f-e2cc32dc684c"},"effectiveDateTime":"2026-06-08T21:00:00.000+00:00","valueInteger":0},"request":{"method":"PUT","url":"Observation/d0d9f81a-de5b-4b65-99a8-195de8bf8ffd"}},{"fullUrl":"https://madie.cms.gov/Observation/9b39914f-78a2-4dc3-a022-e3af2e20457d","resource":{"resourceType":"Observation","id":"9b39914f-78a2-4dc3-a022-e3af2e20457d","meta":{"profile":["http://hl7.org/fhir/us/qicore/StructureDefinition/qicore-observation"]},"status":"final","category":[{"coding":[{"system":"http://terminology.hl7.org/CodeSystem/observation-category","code":"exam","display":"exam","userSelected":true}]}],"code":{"coding":[{"system":"http://loinc.org","code":"93857-1"}]},"subject":{"reference":"Patient/9453e96c-c06a-469b-ab8f-e2cc32dc684c"},"effectiveDateTime":"2026-06-08T20:00:00.000+00:00","valueDateTime":"2026-06-08T20:00:00+00:00"},"request":{"method":"PUT","url":"Observation/9b39914f-78a2-4dc3-a022-e3af2e20457d"}},{"fullUrl":"https://madie.cms.gov/Encounter/2177ab77-2375-4743-8869-33e68e246f50","resource":{"resourceType":"Encounter","id":"2177ab77-2375-4743-8869-33e68e246f50","meta":{"profile":["http://hl7.org/fhir/us/qicore/StructureDefinition/qicore-encounter"]},"status":"finished","class":{"system":"http://terminology.hl7.org/CodeSystem/v3-ActCode","code":"IMP","display":"inpatient encounter"},"type":[{"coding":[{"system":"http://snomed.info/sct","code":"8715000"}]}],"subject":{"reference":"Patient/9453e96c-c06a-469b-ab8f-e2cc32dc684c"},"period":{"start":"2026-06-08T08:00:00.000Z","end":"2026-06-10T08:15:00.000Z"},"length":{"value":2,"unit":"days"},"diagnosis":[{"condition":{"reference":"Condition/delivery-of-singleton-f83c"},"use":{"coding":[{"system":"http://snomed.info/sct","code":"169826009","display":"Delivery of Singleton"}]}},{"condition":{"reference":"Condition/22c113bb-06b8-4a1c-a8a8-2b688a345feb"}}]},"request":{"method":"PUT","url":"Encounter/2177ab77-2375-4743-8869-33e68e246f50"}},{"fullUrl":"https://madie.cms.gov/Procedure/424335e5-4b55-44b5-87c7-8299d32aa256","resource":{"resourceType":"Procedure","id":"424335e5-4b55-44b5-87c7-8299d32aa256","meta":{"profile":["http://hl7.org/fhir/us/qicore/StructureDefinition/qicore-procedure"]},"extension":[{"url":"http://hl7.org/fhir/us/qicore/StructureDefinition/qicore-recorded","valueDateTime":"2014-04-05T09:35:00-04:00"}],"status":"completed","code":{"coding":[{"system":"http://www.cms.gov/Medicare/Coding/ICD10","code":"10D00Z0"},{"system":"http://snomed.info/sct","code":"4504004"},{"system":"http://www.icd10data.com/icd10pcs","code":"10D00Z0","userSelected":true}]},"subject":{"reference":"Patient/9453e96c-c06a-469b-ab8f-e2cc32dc684c"},"performedPeriod":{"start":"2026-06-08T20:00:00.000Z","end":"2026-06-08T20:15:00.000Z"}},"request":{"method":"PUT","url":"Procedure/424335e5-4b55-44b5-87c7-8299d32aa256"}},{"fullUrl":"https://madie.cms.gov/Condition/22c113bb-06b8-4a1c-a8a8-2b688a345feb","resource":{"resourceType":"Condition","id":"22c113bb-06b8-4a1c-a8a8-2b688a345feb","meta":{"profile":["http://hl7.org/fhir/us/qicore/StructureDefinition/qicore-condition"]},"category":[{"coding":[{"system":"http://terminology.hl7.org/CodeSystem/condition-category","code":"encounter-diagnosis","display":"Encounter Diagnosis"}]}],"code":{"coding":[{"system":"http://snomed.info/sct","version":"2022-09","code":"169826009","display":"Single live birth (finding)","userSelected":true}]},"subject":{"reference":"Patient/9453e96c-c06a-469b-ab8f-e2cc32dc684c"},"recordedDate":"2026-10-21T08:00:00.000+00:00"},"request":{"method":"PUT","url":"Condition/22c113bb-06b8-4a1c-a8a8-2b688a345feb"}},{"fullUrl":"https://madie.cms.gov/Coverage/5337105a-5129-4c4f-984f-998ae5e87171","resource":{"resourceType":"Coverage","id":"5337105a-5129-4c4f-984f-998ae5e87171","meta":{"profile":["http://hl7.org/fhir/us/qicore/StructureDefinition/qicore-coverage"]},"status":"active","beneficiary":{"reference":"Patient/9453e96c-c06a-469b-ab8f-e2cc32dc684c"},"payor":[{"reference":"Organization/890316dc-a4ad-43b4-ba6f-9fb9e6eca282"}]},"request":{"method":"PUT","url":"Coverage/5337105a-5129-4c4f-984f-998ae5e87171"}},{"fullUrl":"https://madie.cms.gov/Organization/fad9b5b0-fc24-497d-8ea0-dc5a3e0a15f1","resource":{"resourceType":"Organization","id":"890316dc-a4ad-43b4-ba6f-9fb9e6eca282","meta":{"profile":["http://hl7.org/fhir/us/qicore/StructureDefinition/qicore-organization"]},"identifier":[{"use":"temp","system":"urn:oid:2.16.840.1.113883.4.4","value":"21-3259825"}],"active":true,"type":[{"coding":[{"system":"http://terminology.hl7.org/CodeSystem/organization-type","code":"pay","display":"Payer"}]}],"name":"Blue Cross Blue Shield of Texas","telecom":[{"system":"phone","value":"(+1) 972-766-6900"}],"address":[{"use":"billing","type":"postal","line":["P.O. Box 660044"],"city":"Dallas","state":"TX","postalCode":"75266-0044","country":"USA"}]},"request":{"method":"PUT","url":"Organization/890316dc-a4ad-43b4-ba6f-9fb9e6eca282"}},{"fullUrl":"https://madie.cms.gov/Practitioner/f52b88d9-ac1d-406e-bf22-f98282c4a2fa","resource":{"resourceType":"Practitioner","id":"f52b88d9-ac1d-406e-bf22-f98282c4a2fa","identifier":[{"system":"http://hl7.org/fhir/sid/us-npi","value":"123456"}],"name":[{"family":"Evil","prefix":["Dr"]}]},"request":{"method":"PUT","url":"Practitioner/f52b88d9-ac1d-406e-bf22-f98282c4a2fa"}},{"fullUrl":"https://madie.cms.gov/MeasureReport/f5a3ca36-723b-4f17-b6ce-1bdfc9f55d55","resource":{"resourceType":"MeasureReport","id":"f5a3ca36-723b-4f17-b6ce-1bdfc9f55d55","meta":{"profile":["http://hl7.org/fhir/us/cqfmeasures/StructureDefinition/test-case-cqfm"]},"contained":[{"resourceType":"Parameters","id":"429c3d31-6a2b-4808-8abd-7c760703e8ef-parameters","parameter":[{"name":"subject","valueString":"9453e96c-c06a-469b-ab8f-e2cc32dc684c"}]}],"extension":[{"url":"http://hl7.org/fhir/us/cqfmeasures/StructureDefinition/cqfm-inputParameters","valueReference":{"reference":"#429c3d31-6a2b-4808-8abd-7c760703e8ef-parameters"}},{"url":"http://hl7.org/fhir/us/cqfmeasures/StructureDefinition/cqfm-testCaseDescription","valueMarkdown":"\"Term Newborn=0,  <42wks B4 Asse delivery.\nPreterm=0, rel date/time 1 hour after delivery Datetime.\nwith note of timing logic needed to constrain the rel date/time time to no later than the time of Asse delivery time, DENOM will Fail\n\"\n"}],"modifierExtension":[{"url":"http://hl7.org/fhir/us/cqfmeasures/StructureDefinition/cqfm-isTestCase","valueBoolean":true}],"status":"complete","type":"individual","measure":"https://madie.cms.gov/Measure/CMS334FHIRPCCesareanBirth","period":{"start":"2026-01-01","end":"2026-12-31"},"group":[{"population":[{"code":{"coding":[{"system":"http://terminology.hl7.org/CodeSystem/measure-population","code":"initial-population","display":"Initial Population"}]},"count":1},{"code":{"coding":[{"system":"http://terminology.hl7.org/CodeSystem/measure-population","code":"denominator","display":"Denominator"}]},"count":0},{"code":{"coding":[{"system":"http://terminology.hl7.org/CodeSystem/measure-population","code":"denominator-exclusion","display":"Denominator Exclusion"}]},"count":0},{"code":{"coding":[{"system":"http://terminology.hl7.org/CodeSystem/measure-population","code":"numerator","display":"Numerator"}]},"count":0}]}]},"request":{"method":"PUT","url":"MeasureReport/f5a3ca36-723b-4f17-b6ce-1bdfc9f55d55"}}]}