{"resourceType":"Bundle","id":"tests-4146c512-8262-4eed-83fc-8612480d8c66-bundle","type":"transaction","entry":[{"fullUrl":"https://madie.cms.gov/Patient/4146c512-8262-4eed-83fc-8612480d8c66","resource":{"resourceType":"Patient","id":"4146c512-8262-4eed-83fc-8612480d8c66","meta":{"profile":["http://hl7.org/fhir/us/qicore/StructureDefinition/qicore-patient"]},"text":{"status":"generated","div":"<div xmlns=\"http://www.w3.org/1999/xhtml\"><div class=\"hapiHeaderText\">CalcEGAEQ37Weeks1Day <b>DENPASS </b></div><table class=\"hapiPropertyTable\"><tbody><tr><td>Identifier</td><td>b00b06f67015bda652373741cca10f65466d828e3a674df9528f73ec417ce0bb</td></tr><tr><td>Date of birth</td><td><span>14 February 1985</span></td></tr></tbody></table></div>"},"extension":[{"url":"http://hl7.org/fhir/us/core/StructureDefinition/us-core-race","extension":[{"url":"ombCategory","valueCoding":{"system":"urn:oid:2.16.840.1.113883.6.238","code":"1002-5","display":"American Indian or Alaska Native","userSelected":true}},{"url":"text","valueString":"American Indian or Alaska Native"}]},{"url":"http://hl7.org/fhir/us/core/StructureDefinition/us-core-ethnicity","extension":[{"url":"ombCategory","valueCoding":{"system":"urn:oid:2.16.840.1.113883.6.238","code":"2135-2","display":"Hispanic or Latino","userSelected":true}},{"url":"text","valueString":"Hispanic or Latino"}]}],"identifier":[{"type":{"coding":[{"system":"http://terminology.hl7.org/CodeSystem/v2-0203","code":"MR"}]},"system":"https://bonnie-fhir.healthit.gov/","value":"63487c2f0968f8012254019d"}],"active":true,"name":[{"use":"usual","family":"DENPass","given":["CalcEGAEQ37Weeks1Day"]}],"gender":"female","birthDate":"1998-02-14"},"request":{"method":"PUT","url":"Patient/4146c512-8262-4eed-83fc-8612480d8c66"}},{"fullUrl":"https://madie.cms.gov/Observation/c5382666-b702-49bf-a808-fcb7bd310088","resource":{"resourceType":"Observation","id":"c5382666-b702-49bf-a808-fcb7bd310088","meta":{"profile":["http://hl7.org/fhir/us/qicore/StructureDefinition/qicore-observation"]},"status":"final","category":[{"coding":[{"system":"http://terminology.hl7.org/CodeSystem/observation-category","code":"exam","display":"exam","userSelected":true}]}],"code":{"coding":[{"system":"http://loinc.org","code":"93857-1"}]},"subject":{"reference":"Patient/4146c512-8262-4eed-83fc-8612480d8c66"},"effectiveDateTime":"2026-01-15T08:00:00.000+00:00","valueDateTime":"2026-01-15T08:00:00+00:00"},"request":{"method":"PUT","url":"Observation/c5382666-b702-49bf-a808-fcb7bd310088"}},{"fullUrl":"https://madie.cms.gov/Observation/9b3e900b-b0ea-4679-bd1b-86de7c889e64","resource":{"resourceType":"Observation","id":"9b3e900b-b0ea-4679-bd1b-86de7c889e64","meta":{"profile":["http://hl7.org/fhir/us/qicore/StructureDefinition/qicore-observation"]},"status":"final","category":[{"coding":[{"system":"http://terminology.hl7.org/CodeSystem/observation-category","code":"exam","display":"exam","userSelected":true}]}],"code":{"coding":[{"system":"http://loinc.org","code":"11778-8"}]},"subject":{"reference":"Patient/4146c512-8262-4eed-83fc-8612480d8c66"},"effectiveDateTime":"2026-01-15T07:00:00.000+00:00","valueDateTime":"2026-02-04T08:00:00+00:00"},"request":{"method":"PUT","url":"Observation/9b3e900b-b0ea-4679-bd1b-86de7c889e64"}},{"fullUrl":"https://madie.cms.gov/Observation/32034849-e1e2-446d-9e99-f08383e51f12","resource":{"resourceType":"Observation","id":"32034849-e1e2-446d-9e99-f08383e51f12","meta":{"profile":["http://hl7.org/fhir/us/qicore/StructureDefinition/qicore-observation"]},"status":"final","category":[{"coding":[{"system":"http://terminology.hl7.org/CodeSystem/observation-category","code":"exam","display":"exam","userSelected":true}]}],"code":{"coding":[{"system":"http://loinc.org","code":"11996-6"}]},"subject":{"reference":"Patient/4146c512-8262-4eed-83fc-8612480d8c66"},"effectiveDateTime":"2026-01-15T07:59:00.000+00:00","valueInteger":1},"request":{"method":"PUT","url":"Observation/32034849-e1e2-446d-9e99-f08383e51f12"}},{"fullUrl":"https://madie.cms.gov/Encounter/fbcf1d6e-f4d0-4e3d-9afb-0ebc9607a5f1","resource":{"resourceType":"Encounter","id":"fbcf1d6e-f4d0-4e3d-9afb-0ebc9607a5f1","meta":{"profile":["http://hl7.org/fhir/us/qicore/StructureDefinition/qicore-encounter"]},"status":"finished","class":{"system":"http://terminology.hl7.org/CodeSystem/v3-ActCode","code":"IMP","display":"inpatient encounter"},"type":[{"coding":[{"system":"http://snomed.info/sct","code":"183452005"}]}],"subject":{"reference":"Patient/4146c512-8262-4eed-83fc-8612480d8c66"},"period":{"start":"2026-01-15T08:00:00.000Z","end":"2026-01-20T08:15:00.000Z"},"diagnosis":[{"condition":{"reference":"Condition/delivery-of-singleton-f83c"},"use":{"coding":[{"system":"http://snomed.info/sct","code":"169826009","display":"Delivery of Singleton"}]}},{"condition":{"reference":"Condition/394fdf41-96dc-4071-baf4-b56925842f82"}}]},"request":{"method":"PUT","url":"Encounter/fbcf1d6e-f4d0-4e3d-9afb-0ebc9607a5f1"}},{"fullUrl":"https://madie.cms.gov/Procedure/caeddb4a-6d9e-4be6-9443-d3e7fd12836d","resource":{"resourceType":"Procedure","id":"caeddb4a-6d9e-4be6-9443-d3e7fd12836d","meta":{"profile":["http://hl7.org/fhir/us/qicore/StructureDefinition/qicore-procedure"]},"extension":[{"url":"http://hl7.org/fhir/us/qicore/StructureDefinition/qicore-recorded","valueDateTime":"2014-04-05T09:35:00-04:00"}],"status":"completed","code":{"coding":[{"system":"http://www.cms.gov/Medicare/Coding/ICD10","code":"10D07Z3"},{"system":"http://www.icd10data.com/icd10pcs","code":"10D07Z3","userSelected":true}]},"subject":{"reference":"Patient/4146c512-8262-4eed-83fc-8612480d8c66"},"performedPeriod":{"start":"2026-01-15T08:10:00.000Z","end":"2026-01-15T09:14:00.000Z"}},"request":{"method":"PUT","url":"Procedure/caeddb4a-6d9e-4be6-9443-d3e7fd12836d"}},{"fullUrl":"https://madie.cms.gov/Condition/394fdf41-96dc-4071-baf4-b56925842f82","resource":{"resourceType":"Condition","id":"394fdf41-96dc-4071-baf4-b56925842f82","meta":{"profile":["http://hl7.org/fhir/us/qicore/StructureDefinition/qicore-condition"]},"category":[{"coding":[{"system":"http://terminology.hl7.org/CodeSystem/condition-category","code":"encounter-diagnosis","display":"Encounter Diagnosis"}]}],"code":{"coding":[{"system":"http://snomed.info/sct","version":"2022-09","code":"169826009","display":"Single live birth (finding)","userSelected":true}]},"subject":{"reference":"Patient/4146c512-8262-4eed-83fc-8612480d8c66"},"recordedDate":"2026-10-20T08:00:00.000+00:00"},"request":{"method":"PUT","url":"Condition/394fdf41-96dc-4071-baf4-b56925842f82"}},{"fullUrl":"https://madie.cms.gov/Coverage/ae6c9305-f558-4b69-aefa-6a681e904ed6","resource":{"resourceType":"Coverage","id":"ae6c9305-f558-4b69-aefa-6a681e904ed6","meta":{"profile":["http://hl7.org/fhir/us/qicore/StructureDefinition/qicore-coverage"]},"status":"active","beneficiary":{"reference":"Patient/4146c512-8262-4eed-83fc-8612480d8c66"},"payor":[{"reference":"Organization/e75793c9-fdf6-463a-8c1d-4ee44320dc25"}]},"request":{"method":"PUT","url":"Coverage/ae6c9305-f558-4b69-aefa-6a681e904ed6"}},{"fullUrl":"https://madie.cms.gov/Organization/d49edb65-666a-4ea0-b7ca-03788030f3fe","resource":{"resourceType":"Organization","id":"e75793c9-fdf6-463a-8c1d-4ee44320dc25","meta":{"profile":["http://hl7.org/fhir/us/qicore/StructureDefinition/qicore-organization"]},"identifier":[{"use":"temp","system":"urn:oid:2.16.840.1.113883.4.4","value":"21-3259825"}],"active":true,"type":[{"coding":[{"system":"http://terminology.hl7.org/CodeSystem/organization-type","code":"pay","display":"Payer"}]}],"name":"Blue Cross Blue Shield of Texas","telecom":[{"system":"phone","value":"(+1) 972-766-6900"}],"address":[{"use":"billing","type":"postal","line":["P.O. Box 660044"],"city":"Dallas","state":"TX","postalCode":"75266-0044","country":"USA"}]},"request":{"method":"PUT","url":"Organization/e75793c9-fdf6-463a-8c1d-4ee44320dc25"}},{"fullUrl":"https://madie.cms.gov/Practitioner/37665675-f467-4d18-bb19-9a6d584f02a0","resource":{"resourceType":"Practitioner","id":"37665675-f467-4d18-bb19-9a6d584f02a0","identifier":[{"system":"http://hl7.org/fhir/sid/us-npi","value":"123456"}],"name":[{"family":"Evil","prefix":["Dr"]}]},"request":{"method":"PUT","url":"Practitioner/37665675-f467-4d18-bb19-9a6d584f02a0"}},{"fullUrl":"https://madie.cms.gov/MeasureReport/09aa3a16-d1ed-427a-bec0-1ae7c41b8735","resource":{"resourceType":"MeasureReport","id":"09aa3a16-d1ed-427a-bec0-1ae7c41b8735","meta":{"profile":["http://hl7.org/fhir/us/cqfmeasures/StructureDefinition/test-case-cqfm"]},"contained":[{"resourceType":"Parameters","id":"7760e45d-ed7b-4e19-9243-1b1e71f226fb-parameters","parameter":[{"name":"subject","valueString":"4146c512-8262-4eed-83fc-8612480d8c66"}]}],"extension":[{"url":"http://hl7.org/fhir/us/cqfmeasures/StructureDefinition/cqfm-inputParameters","valueReference":{"reference":"#7760e45d-ed7b-4e19-9243-1b1e71f226fb-parameters"}},{"url":"http://hl7.org/fhir/us/cqfmeasures/StructureDefinition/cqfm-testCaseDescription","valueMarkdown":"Passes: IP, Pt is 27 years of age,  encounter dx delivery of singleton, gravida=1authored less than 42 weeks prior to delivery, calculated EGA=37 weeks, 1 day\n"}],"modifierExtension":[{"url":"http://hl7.org/fhir/us/cqfmeasures/StructureDefinition/cqfm-isTestCase","valueBoolean":true}],"status":"complete","type":"individual","measure":"https://madie.cms.gov/Measure/CMS334FHIRPCCesareanBirth","period":{"start":"2026-01-01","end":"2026-12-31"},"group":[{"population":[{"code":{"coding":[{"system":"http://terminology.hl7.org/CodeSystem/measure-population","code":"initial-population","display":"Initial Population"}]},"count":1},{"code":{"coding":[{"system":"http://terminology.hl7.org/CodeSystem/measure-population","code":"denominator","display":"Denominator"}]},"count":1},{"code":{"coding":[{"system":"http://terminology.hl7.org/CodeSystem/measure-population","code":"denominator-exclusion","display":"Denominator Exclusion"}]},"count":0},{"code":{"coding":[{"system":"http://terminology.hl7.org/CodeSystem/measure-population","code":"numerator","display":"Numerator"}]},"count":0}]}]},"request":{"method":"PUT","url":"MeasureReport/09aa3a16-d1ed-427a-bec0-1ae7c41b8735"}}]}