{"resourceType":"Bundle","id":"tests-ebbb9064-6bf2-4ad1-ad56-5ee93afde52d-bundle","type":"transaction","entry":[{"fullUrl":"https://madie.cms.gov/Patient/ebbb9064-6bf2-4ad1-ad56-5ee93afde52d","resource":{"resourceType":"Patient","id":"ebbb9064-6bf2-4ad1-ad56-5ee93afde52d","meta":{"profile":["http://hl7.org/fhir/us/qicore/StructureDefinition/qicore-patient"]},"text":{"status":"generated","div":"<div xmlns=\"http://www.w3.org/1999/xhtml\"><div class=\"hapiHeaderText\">AssessP0RelDtTimeLTTimeOfDeliv <b>DENPASS </b></div><table class=\"hapiPropertyTable\"><tbody><tr><td>Identifier</td><td>cb4a87fae0aeb4667064306e289209af09ca2376f26fb181f5d5ea03cba5dc53</td></tr><tr><td>Date of birth</td><td><span>14 February 1985</span></td></tr></tbody></table></div>"},"extension":[{"url":"http://hl7.org/fhir/us/core/StructureDefinition/us-core-race","extension":[{"url":"ombCategory","valueCoding":{"system":"urn:oid:2.16.840.1.113883.6.238","code":"1002-5","display":"American Indian or Alaska Native","userSelected":true}},{"url":"text","valueString":"American Indian or Alaska Native"}]},{"url":"http://hl7.org/fhir/us/core/StructureDefinition/us-core-ethnicity","extension":[{"url":"ombCategory","valueCoding":{"system":"urn:oid:2.16.840.1.113883.6.238","code":"2135-2","display":"Hispanic or Latino","userSelected":true}},{"url":"text","valueString":"Hispanic or Latino"}]}],"identifier":[{"type":{"coding":[{"system":"http://terminology.hl7.org/CodeSystem/v2-0203","code":"MR"}]},"system":"https://bonnie-fhir.healthit.gov/","value":"63487c2e0968f8012254017a"}],"active":true,"name":[{"use":"usual","family":"DENPass","given":["AssessP0RelDtTimeLTTimeOfDeliv"]}],"gender":"female","birthDate":"1998-02-14"},"request":{"method":"PUT","url":"Patient/ebbb9064-6bf2-4ad1-ad56-5ee93afde52d"}},{"fullUrl":"https://madie.cms.gov/Observation/50212313-bb9b-4b7a-a1d3-7a49b1ce8a67","resource":{"resourceType":"Observation","id":"50212313-bb9b-4b7a-a1d3-7a49b1ce8a67","meta":{"profile":["http://hl7.org/fhir/us/qicore/StructureDefinition/qicore-observation"]},"status":"final","category":[{"coding":[{"system":"http://terminology.hl7.org/CodeSystem/observation-category","code":"exam","display":"exam","userSelected":true}]}],"code":{"coding":[{"system":"http://loinc.org","code":"11977-6"}]},"subject":{"reference":"Patient/ebbb9064-6bf2-4ad1-ad56-5ee93afde52d"},"effectiveDateTime":"2026-06-08T19:59:00.000+00:00","valueInteger":0},"request":{"method":"PUT","url":"Observation/50212313-bb9b-4b7a-a1d3-7a49b1ce8a67"}},{"fullUrl":"https://madie.cms.gov/Observation/c17771bf-25e4-4d31-aacd-ab7f82453811","resource":{"resourceType":"Observation","id":"c17771bf-25e4-4d31-aacd-ab7f82453811","meta":{"profile":["http://hl7.org/fhir/us/qicore/StructureDefinition/qicore-observation"]},"status":"final","category":[{"coding":[{"system":"http://terminology.hl7.org/CodeSystem/observation-category","code":"exam","display":"exam","userSelected":true}]}],"code":{"coding":[{"system":"http://loinc.org","code":"11884-4"}]},"subject":{"reference":"Patient/ebbb9064-6bf2-4ad1-ad56-5ee93afde52d"},"effectiveDateTime":"2026-06-08T20:00:00.000+00:00","valueQuantity":{"value":37,"system":"http://unitsofmeasure.org","code":"wk"}},"request":{"method":"PUT","url":"Observation/c17771bf-25e4-4d31-aacd-ab7f82453811"}},{"fullUrl":"https://madie.cms.gov/Observation/932231d3-fa63-44f8-ab6d-d01a08f1ca0d","resource":{"resourceType":"Observation","id":"932231d3-fa63-44f8-ab6d-d01a08f1ca0d","meta":{"profile":["http://hl7.org/fhir/us/qicore/StructureDefinition/qicore-observation"]},"status":"final","category":[{"coding":[{"system":"http://terminology.hl7.org/CodeSystem/observation-category","code":"exam","display":"exam","userSelected":true}]}],"code":{"coding":[{"system":"http://loinc.org","code":"93857-1"}]},"subject":{"reference":"Patient/ebbb9064-6bf2-4ad1-ad56-5ee93afde52d"},"effectiveDateTime":"2026-06-08T20:00:00.000+00:00","valueDateTime":"2026-06-08T20:00:00+00:00"},"request":{"method":"PUT","url":"Observation/932231d3-fa63-44f8-ab6d-d01a08f1ca0d"}},{"fullUrl":"https://madie.cms.gov/Encounter/7297226d-8e4f-449a-820d-6e98a535f808","resource":{"resourceType":"Encounter","id":"7297226d-8e4f-449a-820d-6e98a535f808","meta":{"profile":["http://hl7.org/fhir/us/qicore/StructureDefinition/qicore-encounter"]},"status":"finished","class":{"system":"http://terminology.hl7.org/CodeSystem/v3-ActCode","code":"IMP","display":"inpatient encounter"},"type":[{"coding":[{"system":"http://snomed.info/sct","code":"8715000"}]}],"subject":{"reference":"Patient/ebbb9064-6bf2-4ad1-ad56-5ee93afde52d"},"period":{"start":"2026-06-08T08:00:00.000Z","end":"2026-06-10T08:15:00.000Z"},"length":{"value":2,"unit":"days"},"diagnosis":[{"condition":{"reference":"Condition/delivery-of-singleton-f83c"},"use":{"coding":[{"system":"http://snomed.info/sct","code":"169826009","display":"Delivery of Singleton"}]}},{"condition":{"reference":"Condition/0973ba8f-891c-4bf8-9be5-b3f6ec868bbe"}}]},"request":{"method":"PUT","url":"Encounter/7297226d-8e4f-449a-820d-6e98a535f808"}},{"fullUrl":"https://madie.cms.gov/Procedure/6171992b-81b2-46a0-bc67-715ad7657d9a","resource":{"resourceType":"Procedure","id":"6171992b-81b2-46a0-bc67-715ad7657d9a","meta":{"profile":["http://hl7.org/fhir/us/qicore/StructureDefinition/qicore-procedure"]},"extension":[{"url":"http://hl7.org/fhir/us/qicore/StructureDefinition/qicore-recorded","valueDateTime":"2014-04-05T09:35:00-04:00"}],"status":"completed","code":{"coding":[{"system":"http://www.cms.gov/Medicare/Coding/ICD10","code":"10D00Z0"},{"system":"http://www.icd10data.com/icd10pcs","code":"10D00Z1","userSelected":true}]},"subject":{"reference":"Patient/ebbb9064-6bf2-4ad1-ad56-5ee93afde52d"},"performedPeriod":{"start":"2026-06-08T20:00:00.000Z","end":"2026-06-08T20:15:00.000Z"}},"request":{"method":"PUT","url":"Procedure/6171992b-81b2-46a0-bc67-715ad7657d9a"}},{"fullUrl":"https://madie.cms.gov/Condition/0973ba8f-891c-4bf8-9be5-b3f6ec868bbe","resource":{"resourceType":"Condition","id":"0973ba8f-891c-4bf8-9be5-b3f6ec868bbe","meta":{"profile":["http://hl7.org/fhir/us/qicore/StructureDefinition/qicore-condition"]},"category":[{"coding":[{"system":"http://terminology.hl7.org/CodeSystem/condition-category","code":"encounter-diagnosis","display":"Encounter Diagnosis"}]}],"code":{"coding":[{"system":"http://snomed.info/sct","version":"2022-09","code":"169826009","display":"Single live birth (finding)","userSelected":true}]},"subject":{"reference":"Patient/ebbb9064-6bf2-4ad1-ad56-5ee93afde52d"},"recordedDate":"2026-10-18T08:00:00.000+00:00"},"request":{"method":"PUT","url":"Condition/0973ba8f-891c-4bf8-9be5-b3f6ec868bbe"}},{"fullUrl":"https://madie.cms.gov/Coverage/68be222d-ea96-411a-b4cc-de5a2e3134ba","resource":{"resourceType":"Coverage","id":"68be222d-ea96-411a-b4cc-de5a2e3134ba","meta":{"profile":["http://hl7.org/fhir/us/qicore/StructureDefinition/qicore-coverage"]},"status":"active","beneficiary":{"reference":"Patient/ebbb9064-6bf2-4ad1-ad56-5ee93afde52d"},"payor":[{"reference":"Organization/aeb2c6be-6577-4bba-a6b6-6eab95111f1b"}]},"request":{"method":"PUT","url":"Coverage/68be222d-ea96-411a-b4cc-de5a2e3134ba"}},{"fullUrl":"https://madie.cms.gov/Organization/7c18cb90-318e-4011-853d-9c07e2ecf43f","resource":{"resourceType":"Organization","id":"aeb2c6be-6577-4bba-a6b6-6eab95111f1b","meta":{"profile":["http://hl7.org/fhir/us/qicore/StructureDefinition/qicore-organization"]},"identifier":[{"use":"temp","system":"urn:oid:2.16.840.1.113883.4.4","value":"21-3259825"}],"active":true,"type":[{"coding":[{"system":"http://terminology.hl7.org/CodeSystem/organization-type","code":"pay","display":"Payer"}]}],"name":"Blue Cross Blue Shield of Texas","telecom":[{"system":"phone","value":"(+1) 972-766-6900"}],"address":[{"use":"billing","type":"postal","line":["P.O. Box 660044"],"city":"Dallas","state":"TX","postalCode":"75266-0044","country":"USA"}]},"request":{"method":"PUT","url":"Organization/aeb2c6be-6577-4bba-a6b6-6eab95111f1b"}},{"fullUrl":"https://madie.cms.gov/Practitioner/fd5aed2c-af25-4882-a6c7-a13e736fe1de","resource":{"resourceType":"Practitioner","id":"fd5aed2c-af25-4882-a6c7-a13e736fe1de","identifier":[{"system":"http://hl7.org/fhir/sid/us-npi","value":"123456"}],"name":[{"family":"Evil","prefix":["Dr"]}]},"request":{"method":"PUT","url":"Practitioner/fd5aed2c-af25-4882-a6c7-a13e736fe1de"}},{"fullUrl":"https://madie.cms.gov/MeasureReport/290eec01-9852-4354-927b-ad6e43749e37","resource":{"resourceType":"MeasureReport","id":"290eec01-9852-4354-927b-ad6e43749e37","meta":{"profile":["http://hl7.org/fhir/us/cqfmeasures/StructureDefinition/test-case-cqfm"]},"contained":[{"resourceType":"Parameters","id":"68aa31e9-c09d-4c8e-ab65-6f70c6a31b74-parameters","parameter":[{"name":"subject","valueString":"ebbb9064-6bf2-4ad1-ad56-5ee93afde52d"}]}],"extension":[{"url":"http://hl7.org/fhir/us/cqfmeasures/StructureDefinition/cqfm-inputParameters","valueReference":{"reference":"#68aa31e9-c09d-4c8e-ab65-6f70c6a31b74-parameters"}},{"url":"http://hl7.org/fhir/us/cqfmeasures/StructureDefinition/cqfm-testCaseDescription","valueMarkdown":"Parity=0, relevant date/time same date but time less than delivery date/time\n"}],"modifierExtension":[{"url":"http://hl7.org/fhir/us/cqfmeasures/StructureDefinition/cqfm-isTestCase","valueBoolean":true}],"status":"complete","type":"individual","measure":"https://madie.cms.gov/Measure/CMS334FHIRPCCesareanBirth","period":{"start":"2026-01-01","end":"2026-12-31"},"group":[{"population":[{"code":{"coding":[{"system":"http://terminology.hl7.org/CodeSystem/measure-population","code":"initial-population","display":"Initial Population"}]},"count":1},{"code":{"coding":[{"system":"http://terminology.hl7.org/CodeSystem/measure-population","code":"denominator","display":"Denominator"}]},"count":1},{"code":{"coding":[{"system":"http://terminology.hl7.org/CodeSystem/measure-population","code":"denominator-exclusion","display":"Denominator Exclusion"}]},"count":0},{"code":{"coding":[{"system":"http://terminology.hl7.org/CodeSystem/measure-population","code":"numerator","display":"Numerator"}]},"count":1}]}]},"request":{"method":"PUT","url":"MeasureReport/290eec01-9852-4354-927b-ad6e43749e37"}}]}