{"resourceType":"Bundle","id":"tests-26e9dc17-8899-4ac1-b6d9-98606d331302-bundle","type":"transaction","entry":[{"fullUrl":"https://madie.cms.gov/Patient/26e9dc17-8899-4ac1-b6d9-98606d331302","resource":{"resourceType":"Patient","id":"26e9dc17-8899-4ac1-b6d9-98606d331302","meta":{"profile":["http://hl7.org/fhir/us/qicore/StructureDefinition/qicore-patient"]},"text":{"status":"generated","div":"<div xmlns=\"http://www.w3.org/1999/xhtml\"><div class=\"hapiHeaderText\">AssessTimeOfDelivResultAfterDelivEncEnd <b>DENFAIL </b></div><table class=\"hapiPropertyTable\"><tbody><tr><td>Identifier</td><td>71189d70ba3427612f2a418107466ed1652ec9a0e76c1b9c30a1691a1d91b34c</td></tr><tr><td>Date of birth</td><td><span>14 February 1985</span></td></tr></tbody></table></div>"},"extension":[{"url":"http://hl7.org/fhir/us/core/StructureDefinition/us-core-race","extension":[{"url":"ombCategory","valueCoding":{"system":"urn:oid:2.16.840.1.113883.6.238","code":"1002-5","display":"American Indian or Alaska Native","userSelected":true}},{"url":"text","valueString":"American Indian or Alaska Native"}]},{"url":"http://hl7.org/fhir/us/core/StructureDefinition/us-core-ethnicity","extension":[{"url":"ombCategory","valueCoding":{"system":"urn:oid:2.16.840.1.113883.6.238","code":"2135-2","display":"Hispanic or Latino","userSelected":true}},{"url":"text","valueString":"Hispanic or Latino"}]}],"identifier":[{"type":{"coding":[{"system":"http://terminology.hl7.org/CodeSystem/v2-0203","code":"MR"}]},"system":"https://bonnie-fhir.healthit.gov/","value":"63487c300968f801225401c9"}],"active":true,"name":[{"use":"usual","family":"DENFail","given":["AssessTimeOfDelivResultAfterDelivEncEnd"]}],"gender":"female","birthDate":"1998-02-14"},"request":{"method":"PUT","url":"Patient/26e9dc17-8899-4ac1-b6d9-98606d331302"}},{"fullUrl":"https://madie.cms.gov/Observation/c03ab6b2-74ee-47f2-bd1a-dd120be9b5f6","resource":{"resourceType":"Observation","id":"c03ab6b2-74ee-47f2-bd1a-dd120be9b5f6","meta":{"profile":["http://hl7.org/fhir/us/qicore/StructureDefinition/qicore-observation"]},"status":"final","category":[{"coding":[{"system":"http://terminology.hl7.org/CodeSystem/observation-category","code":"exam","display":"exam","userSelected":true}]}],"code":{"coding":[{"system":"http://loinc.org","code":"11996-6"}]},"subject":{"reference":"Patient/26e9dc17-8899-4ac1-b6d9-98606d331302"},"effectiveDateTime":"2026-03-09T08:00:00.000+00:00","valueInteger":1},"request":{"method":"PUT","url":"Observation/c03ab6b2-74ee-47f2-bd1a-dd120be9b5f6"}},{"fullUrl":"https://madie.cms.gov/Observation/2c7c0a0a-4961-4b0f-97f5-06f49e7dd1b4","resource":{"resourceType":"Observation","id":"2c7c0a0a-4961-4b0f-97f5-06f49e7dd1b4","meta":{"profile":["http://hl7.org/fhir/us/qicore/StructureDefinition/qicore-observation"]},"status":"final","category":[{"coding":[{"system":"http://terminology.hl7.org/CodeSystem/observation-category","code":"exam","display":"exam","userSelected":true}]}],"code":{"coding":[{"system":"http://loinc.org","code":"93857-1"}]},"subject":{"reference":"Patient/26e9dc17-8899-4ac1-b6d9-98606d331302"},"effectiveDateTime":"2026-11-28T21:30:00.000+00:00","valueDateTime":"2026-11-30T08:16:00+00:00"},"request":{"method":"PUT","url":"Observation/2c7c0a0a-4961-4b0f-97f5-06f49e7dd1b4"}},{"fullUrl":"https://madie.cms.gov/Encounter/0dc0f8e1-cf21-4147-8578-8fa348f13dda","resource":{"resourceType":"Encounter","id":"0dc0f8e1-cf21-4147-8578-8fa348f13dda","meta":{"profile":["http://hl7.org/fhir/us/qicore/StructureDefinition/qicore-encounter"]},"status":"finished","class":{"system":"http://terminology.hl7.org/CodeSystem/v3-ActCode","code":"IMP","display":"inpatient encounter"},"type":[{"coding":[{"system":"http://snomed.info/sct","code":"8715000"}]}],"subject":{"reference":"Patient/26e9dc17-8899-4ac1-b6d9-98606d331302"},"period":{"start":"2026-11-28T08:00:00.000Z","end":"2026-11-30T08:15:00.000Z"},"length":{"value":2.0,"unit":"days"},"diagnosis":[{"condition":{"reference":"Condition/delivery-of-singleton-f83c"},"use":{"coding":[{"system":"http://snomed.info/sct","code":"169826009","display":"Delivery of Singleton"}]}},{"condition":{"reference":"Condition/c858f914-fad1-4078-9f6e-e7cadbc698ce"}}]},"request":{"method":"PUT","url":"Encounter/0dc0f8e1-cf21-4147-8578-8fa348f13dda"}},{"fullUrl":"https://madie.cms.gov/Procedure/093e31bb-b1c5-469a-b33a-fcc998b24643","resource":{"resourceType":"Procedure","id":"093e31bb-b1c5-469a-b33a-fcc998b24643","meta":{"profile":["http://hl7.org/fhir/us/qicore/StructureDefinition/qicore-procedure"]},"extension":[{"url":"http://hl7.org/fhir/us/qicore/StructureDefinition/qicore-recorded","valueDateTime":"2014-04-05T09:35:00-04:00"}],"status":"completed","code":{"coding":[{"system":"http://snomed.info/sct","code":"22633006"}]},"subject":{"reference":"Patient/26e9dc17-8899-4ac1-b6d9-98606d331302"},"performedPeriod":{"start":"2026-11-28T20:00:00.000Z","end":"2026-11-28T20:15:00.000Z"}},"request":{"method":"PUT","url":"Procedure/093e31bb-b1c5-469a-b33a-fcc998b24643"}},{"fullUrl":"https://madie.cms.gov/Condition/c858f914-fad1-4078-9f6e-e7cadbc698ce","resource":{"resourceType":"Condition","id":"c858f914-fad1-4078-9f6e-e7cadbc698ce","meta":{"profile":["http://hl7.org/fhir/us/qicore/StructureDefinition/qicore-condition"]},"category":[{"coding":[{"system":"http://terminology.hl7.org/CodeSystem/condition-category","code":"encounter-diagnosis","display":"Encounter Diagnosis"}]}],"code":{"coding":[{"system":"http://snomed.info/sct","version":"2022-09","code":"169826009","display":"Single live birth (finding)","userSelected":true}]},"subject":{"reference":"Patient/26e9dc17-8899-4ac1-b6d9-98606d331302"},"recordedDate":"2026-10-21T08:00:00.000+00:00"},"request":{"method":"PUT","url":"Condition/c858f914-fad1-4078-9f6e-e7cadbc698ce"}},{"fullUrl":"https://madie.cms.gov/Coverage/8ff1a9f4-bcd0-48f2-b752-4657e33f265a","resource":{"resourceType":"Coverage","id":"8ff1a9f4-bcd0-48f2-b752-4657e33f265a","meta":{"profile":["http://hl7.org/fhir/us/qicore/StructureDefinition/qicore-coverage"]},"status":"active","beneficiary":{"reference":"Patient/26e9dc17-8899-4ac1-b6d9-98606d331302"},"payor":[{"reference":"Organization/f4907415-83c5-4eae-ab0b-cb63a840880d"}]},"request":{"method":"PUT","url":"Coverage/8ff1a9f4-bcd0-48f2-b752-4657e33f265a"}},{"fullUrl":"https://madie.cms.gov/Organization/c2e66bc8-51e2-4b7e-8e96-15f544af3e35","resource":{"resourceType":"Organization","id":"f4907415-83c5-4eae-ab0b-cb63a840880d","meta":{"profile":["http://hl7.org/fhir/us/qicore/StructureDefinition/qicore-organization"]},"identifier":[{"use":"temp","system":"urn:oid:2.16.840.1.113883.4.4","value":"21-3259825"}],"active":true,"type":[{"coding":[{"system":"http://terminology.hl7.org/CodeSystem/organization-type","code":"pay","display":"Payer"}]}],"name":"Blue Cross Blue Shield of Texas","telecom":[{"system":"phone","value":"(+1) 972-766-6900"}],"address":[{"use":"billing","type":"postal","line":["P.O. Box 660044"],"city":"Dallas","state":"TX","postalCode":"75266-0044","country":"USA"}]},"request":{"method":"PUT","url":"Organization/f4907415-83c5-4eae-ab0b-cb63a840880d"}},{"fullUrl":"https://madie.cms.gov/Practitioner/03998ee0-6119-41f5-8bac-04b3c44e359c","resource":{"resourceType":"Practitioner","id":"03998ee0-6119-41f5-8bac-04b3c44e359c","identifier":[{"system":"http://hl7.org/fhir/sid/us-npi","value":"123456"}],"name":[{"family":"Evil","prefix":["Dr"]}]},"request":{"method":"PUT","url":"Practitioner/03998ee0-6119-41f5-8bac-04b3c44e359c"}},{"fullUrl":"https://madie.cms.gov/MeasureReport/edc284c7-950e-4ee1-934a-f5e7ac049195","resource":{"resourceType":"MeasureReport","id":"edc284c7-950e-4ee1-934a-f5e7ac049195","meta":{"profile":["http://hl7.org/fhir/us/cqfmeasures/StructureDefinition/test-case-cqfm"]},"contained":[{"resourceType":"Parameters","id":"d355a106-f62e-4e68-886d-0c72c81fefa6-parameters","parameter":[{"name":"subject","valueString":"26e9dc17-8899-4ac1-b6d9-98606d331302"}]}],"extension":[{"url":"http://hl7.org/fhir/us/cqfmeasures/StructureDefinition/cqfm-inputParameters","valueReference":{"reference":"#d355a106-f62e-4e68-886d-0c72c81fefa6-parameters"}},{"url":"http://hl7.org/fhir/us/cqfmeasures/StructureDefinition/cqfm-testCaseDescription","valueMarkdown":"Passes IP, Gravida 1(auth 42 weeks)  and EGA 40 weeks;  Proc is not Cesarean Birth. LastTimeOfDelivery result afterDelivery Encounter EndTime.   \n"}],"modifierExtension":[{"url":"http://hl7.org/fhir/us/cqfmeasures/StructureDefinition/cqfm-isTestCase","valueBoolean":true}],"status":"complete","type":"individual","measure":"https://madie.cms.gov/Measure/CMS334FHIRPCCesareanBirth","period":{"start":"2026-01-01","end":"2026-12-31"},"group":[{"population":[{"code":{"coding":[{"system":"http://terminology.hl7.org/CodeSystem/measure-population","code":"initial-population","display":"Initial Population"}]},"count":1},{"code":{"coding":[{"system":"http://terminology.hl7.org/CodeSystem/measure-population","code":"denominator","display":"Denominator"}]},"count":0},{"code":{"coding":[{"system":"http://terminology.hl7.org/CodeSystem/measure-population","code":"denominator-exclusion","display":"Denominator Exclusion"}]},"count":0},{"code":{"coding":[{"system":"http://terminology.hl7.org/CodeSystem/measure-population","code":"numerator","display":"Numerator"}]},"count":0}]}]},"request":{"method":"PUT","url":"MeasureReport/edc284c7-950e-4ee1-934a-f5e7ac049195"}}]}