{"resourceType":"Bundle","id":"tests-3e948892-1ae0-4aa5-8a64-55248d3864f8-bundle","type":"transaction","entry":[{"fullUrl":"https://madie.cms.gov/Patient/3e948892-1ae0-4aa5-8a64-55248d3864f8","resource":{"resourceType":"Patient","id":"3e948892-1ae0-4aa5-8a64-55248d3864f8","meta":{"profile":["http://hl7.org/fhir/us/qicore/StructureDefinition/qicore-patient"]},"text":{"status":"generated","div":"<div xmlns=\"http://www.w3.org/1999/xhtml\"><div class=\"hapiHeaderText\">AssessTimeOfDelivRelvDateTimeEQDelivEncStart <b>DENPASS </b></div><table class=\"hapiPropertyTable\"><tbody><tr><td>Identifier</td><td>2b1f0141ffe85efd85bb0ba18ddf833ac147ccc7ffd86f1de2a9b7f23de6478b</td></tr><tr><td>Date of birth</td><td><span>14 February 1985</span></td></tr></tbody></table></div>"},"extension":[{"url":"http://hl7.org/fhir/us/core/StructureDefinition/us-core-race","extension":[{"url":"ombCategory","valueCoding":{"system":"urn:oid:2.16.840.1.113883.6.238","code":"1002-5","display":"American Indian or Alaska Native","userSelected":true}},{"url":"text","valueString":"American Indian or Alaska Native"}]},{"url":"http://hl7.org/fhir/us/core/StructureDefinition/us-core-ethnicity","extension":[{"url":"ombCategory","valueCoding":{"system":"urn:oid:2.16.840.1.113883.6.238","code":"2135-2","display":"Hispanic or Latino","userSelected":true}},{"url":"text","valueString":"Hispanic or Latino"}]}],"identifier":[{"type":{"coding":[{"system":"http://terminology.hl7.org/CodeSystem/v2-0203","code":"MR"}]},"system":"https://bonnie-fhir.healthit.gov/","value":"63487c2e0968f80122540172"}],"active":true,"name":[{"use":"usual","family":"DENPass","given":["AssessTimeOfDelivRelvDateTimeEQDelivEncStart"]}],"gender":"female","birthDate":"1998-02-14"},"request":{"method":"PUT","url":"Patient/3e948892-1ae0-4aa5-8a64-55248d3864f8"}},{"fullUrl":"https://madie.cms.gov/Observation/adb3c246-2c5b-40ed-8815-e1733e0a3800","resource":{"resourceType":"Observation","id":"adb3c246-2c5b-40ed-8815-e1733e0a3800","meta":{"profile":["http://hl7.org/fhir/us/qicore/StructureDefinition/qicore-observation"]},"status":"final","category":[{"coding":[{"system":"http://terminology.hl7.org/CodeSystem/observation-category","code":"exam","display":"exam","userSelected":true}]}],"code":{"coding":[{"system":"http://loinc.org","code":"11884-4"}]},"subject":{"reference":"Patient/3e948892-1ae0-4aa5-8a64-55248d3864f8"},"effectiveDateTime":"2026-06-08T07:15:00.000+00:00","valueQuantity":{"value":38,"system":"http://unitsofmeasure.org","code":"wk"}},"request":{"method":"PUT","url":"Observation/adb3c246-2c5b-40ed-8815-e1733e0a3800"}},{"fullUrl":"https://madie.cms.gov/Observation/943556d3-26f1-49b7-9acc-7497bcc5972f","resource":{"resourceType":"Observation","id":"943556d3-26f1-49b7-9acc-7497bcc5972f","meta":{"profile":["http://hl7.org/fhir/us/qicore/StructureDefinition/qicore-observation"]},"status":"final","category":[{"coding":[{"system":"http://terminology.hl7.org/CodeSystem/observation-category","code":"exam","display":"exam","userSelected":true}]}],"code":{"coding":[{"system":"http://loinc.org","code":"11996-6"}]},"subject":{"reference":"Patient/3e948892-1ae0-4aa5-8a64-55248d3864f8"},"effectiveDateTime":"2026-06-08T07:59:00.000+00:00","valueInteger":1},"request":{"method":"PUT","url":"Observation/943556d3-26f1-49b7-9acc-7497bcc5972f"}},{"fullUrl":"https://madie.cms.gov/Observation/90d8d2a5-2ca6-49af-83a2-036f2c071124","resource":{"resourceType":"Observation","id":"90d8d2a5-2ca6-49af-83a2-036f2c071124","meta":{"profile":["http://hl7.org/fhir/us/qicore/StructureDefinition/qicore-observation"]},"status":"final","category":[{"coding":[{"system":"http://terminology.hl7.org/CodeSystem/observation-category","code":"exam","display":"exam","userSelected":true}]}],"code":{"coding":[{"system":"http://loinc.org","code":"93857-1"}]},"subject":{"reference":"Patient/3e948892-1ae0-4aa5-8a64-55248d3864f8"},"effectiveDateTime":"2026-06-08T08:00:00.000+00:00","issued":"2026-06-08T08:00:00.000+00:00","valueDateTime":"2026-06-08T08:00:00+00:00"},"request":{"method":"PUT","url":"Observation/90d8d2a5-2ca6-49af-83a2-036f2c071124"}},{"fullUrl":"https://madie.cms.gov/Encounter/74548ba3-bdaf-4b4d-a84d-f6099421183e","resource":{"resourceType":"Encounter","id":"74548ba3-bdaf-4b4d-a84d-f6099421183e","meta":{"profile":["http://hl7.org/fhir/us/qicore/StructureDefinition/qicore-encounter"]},"status":"finished","class":{"system":"http://terminology.hl7.org/CodeSystem/v3-ActCode","code":"IMP","display":"inpatient encounter"},"type":[{"coding":[{"system":"http://snomed.info/sct","code":"183452005"}]}],"subject":{"reference":"Patient/3e948892-1ae0-4aa5-8a64-55248d3864f8"},"period":{"start":"2026-06-08T08:00:00.000Z","end":"2026-06-10T08:15:00.000Z"},"length":{"value":2,"unit":"days"},"diagnosis":[{"condition":{"reference":"Condition/2e6c6890-f1e5-45eb-bfaf-4d6e9023863e"},"use":{"coding":[{"system":"http://snomed.info/sct","code":"169826009","display":"Delivery of Singleton"}]}}]},"request":{"method":"PUT","url":"Encounter/74548ba3-bdaf-4b4d-a84d-f6099421183e"}},{"fullUrl":"https://madie.cms.gov/Coverage/a4d88b5c-606b-4523-a1f9-976fe07f596f","resource":{"resourceType":"Coverage","id":"a4d88b5c-606b-4523-a1f9-976fe07f596f","status":"active","beneficiary":{"reference":"Patient/3e948892-1ae0-4aa5-8a64-55248d3864f8"},"period":{"start":"1986-02-14T08:00:00.000Z"},"payor":[{"reference":"Organization/4da248b0-6e59-49b7-b80e-338aa21d299f"}]},"request":{"method":"PUT","url":"Coverage/a4d88b5c-606b-4523-a1f9-976fe07f596f"}},{"fullUrl":"https://madie.cms.gov/Procedure/a0d5f96f-6ce8-41b7-9a0c-4f8628c8f359","resource":{"resourceType":"Procedure","id":"a0d5f96f-6ce8-41b7-9a0c-4f8628c8f359","meta":{"profile":["http://hl7.org/fhir/us/qicore/StructureDefinition/qicore-procedure"]},"extension":[{"url":"http://hl7.org/fhir/us/qicore/StructureDefinition/qicore-recorded","valueDateTime":"2014-04-05T09:35:00-04:00"}],"status":"completed","code":{"coding":[{"system":"http://www.cms.gov/Medicare/Coding/ICD10","code":"10D00Z0"},{"system":"http://www.icd10data.com/icd10pcs","code":"10D07Z3","userSelected":true}]},"subject":{"reference":"Patient/3e948892-1ae0-4aa5-8a64-55248d3864f8"},"performedPeriod":{"start":"2026-06-08T08:00:00.000Z","end":"2026-06-08T09:15:00.000Z"}},"request":{"method":"PUT","url":"Procedure/a0d5f96f-6ce8-41b7-9a0c-4f8628c8f359"}},{"fullUrl":"https://madie.cms.gov/Condition/2e6c6890-f1e5-45eb-bfaf-4d6e9023863e","resource":{"resourceType":"Condition","id":"2e6c6890-f1e5-45eb-bfaf-4d6e9023863e","meta":{"profile":["http://hl7.org/fhir/us/qicore/StructureDefinition/qicore-condition"]},"category":[{"coding":[{"system":"http://terminology.hl7.org/CodeSystem/condition-category","code":"encounter-diagnosis","display":"Encounter Diagnosis"}]}],"code":{"coding":[{"system":"http://snomed.info/sct","version":"2022-09","code":"169826009","display":"Single live birth (finding)","userSelected":true}]},"subject":{"reference":"Patient/3e948892-1ae0-4aa5-8a64-55248d3864f8"},"recordedDate":"2026-10-20T08:00:00.000+00:00"},"request":{"method":"PUT","url":"Condition/2e6c6890-f1e5-45eb-bfaf-4d6e9023863e"}},{"fullUrl":"https://madie.cms.gov/Organization/a9982093-7f06-4e95-b9c3-4c414a1fb190","resource":{"resourceType":"Organization","id":"4da248b0-6e59-49b7-b80e-338aa21d299f","meta":{"profile":["http://hl7.org/fhir/us/qicore/StructureDefinition/qicore-organization"]},"identifier":[{"use":"temp","system":"urn:oid:2.16.840.1.113883.4.4","value":"21-3259825"}],"active":true,"type":[{"coding":[{"system":"http://terminology.hl7.org/CodeSystem/organization-type","code":"pay","display":"Payer"}]}],"name":"Blue Cross Blue Shield of Texas","telecom":[{"system":"phone","value":"(+1) 972-766-6900"}],"address":[{"use":"billing","type":"postal","line":["P.O. Box 660044"],"city":"Dallas","state":"TX","postalCode":"75266-0044","country":"USA"}]},"request":{"method":"PUT","url":"Organization/4da248b0-6e59-49b7-b80e-338aa21d299f"}},{"fullUrl":"https://madie.cms.gov/Practitioner/04dc836b-5432-4949-aef0-d48c857fd62b","resource":{"resourceType":"Practitioner","id":"04dc836b-5432-4949-aef0-d48c857fd62b","identifier":[{"system":"http://hl7.org/fhir/sid/us-npi","value":"123456"}],"name":[{"family":"Evil","prefix":["Dr"]}]},"request":{"method":"PUT","url":"Practitioner/04dc836b-5432-4949-aef0-d48c857fd62b"}},{"fullUrl":"https://madie.cms.gov/MeasureReport/221138d6-b030-4381-a2ab-262bb257d4b7","resource":{"resourceType":"MeasureReport","id":"221138d6-b030-4381-a2ab-262bb257d4b7","meta":{"profile":["http://hl7.org/fhir/us/cqfmeasures/StructureDefinition/test-case-cqfm"]},"contained":[{"resourceType":"Parameters","id":"4331fd76-acad-47b4-a933-2888d6aedfa3-parameters","parameter":[{"name":"subject","valueString":"3e948892-1ae0-4aa5-8a64-55248d3864f8"}]}],"extension":[{"url":"http://hl7.org/fhir/us/cqfmeasures/StructureDefinition/cqfm-inputParameters","valueReference":{"reference":"#4331fd76-acad-47b4-a933-2888d6aedfa3-parameters"}},{"url":"http://hl7.org/fhir/us/cqfmeasures/StructureDefinition/cqfm-testCaseDescription","valueMarkdown":"Passes: IP, Pt is 27 years of age,  encounter dx of delivery of singleton, gravida, EGA( >37 ) and @ 38 weeks, AsseDelivTm Is DelivEncStart.  Tests \"TimeOfDelivery.relevantDatetime during DeliveryEncounters.relevantPeriod\".\n"}],"modifierExtension":[{"url":"http://hl7.org/fhir/us/cqfmeasures/StructureDefinition/cqfm-isTestCase","valueBoolean":true}],"status":"complete","type":"individual","measure":"https://madie.cms.gov/Measure/CMS334FHIRPCCesareanBirth","period":{"start":"2026-01-01","end":"2026-12-31"},"group":[{"population":[{"code":{"coding":[{"system":"http://terminology.hl7.org/CodeSystem/measure-population","code":"initial-population","display":"Initial Population"}]},"count":1},{"code":{"coding":[{"system":"http://terminology.hl7.org/CodeSystem/measure-population","code":"denominator","display":"Denominator"}]},"count":1},{"code":{"coding":[{"system":"http://terminology.hl7.org/CodeSystem/measure-population","code":"denominator-exclusion","display":"Denominator Exclusion"}]},"count":0},{"code":{"coding":[{"system":"http://terminology.hl7.org/CodeSystem/measure-population","code":"numerator","display":"Numerator"}]},"count":1}]}]},"request":{"method":"PUT","url":"MeasureReport/221138d6-b030-4381-a2ab-262bb257d4b7"}}]}