{"resourceType":"Bundle","id":"tests-dac80bea-c605-43b0-bbf6-49cf74b6001e-bundle","type":"transaction","entry":[{"fullUrl":"https://madie.cms.gov/Patient/dac80bea-c605-43b0-bbf6-49cf74b6001e","resource":{"resourceType":"Patient","id":"dac80bea-c605-43b0-bbf6-49cf74b6001e","meta":{"profile":["http://hl7.org/fhir/us/qicore/StructureDefinition/qicore-patient"]},"text":{"status":"generated","div":"<div xmlns=\"http://www.w3.org/1999/xhtml\"><div class=\"hapiHeaderText\">AssessG2P0PreTerm1Term1 <b>DENPASS </b></div><table class=\"hapiPropertyTable\"><tbody><tr><td>Identifier</td><td>b00b06f67015bda652373741cca10f65466d828e3a674df9528f73ec417ce0bb</td></tr><tr><td>Date of birth</td><td><span>14 February 1985</span></td></tr></tbody></table></div>"},"extension":[{"url":"http://hl7.org/fhir/us/core/StructureDefinition/us-core-race","extension":[{"url":"ombCategory","valueCoding":{"system":"urn:oid:2.16.840.1.113883.6.238","code":"1002-5","display":"American Indian or Alaska Native","userSelected":true}},{"url":"text","valueString":"American Indian or Alaska Native"}]},{"url":"http://hl7.org/fhir/us/core/StructureDefinition/us-core-ethnicity","extension":[{"url":"ombCategory","valueCoding":{"system":"urn:oid:2.16.840.1.113883.6.238","code":"2135-2","display":"Hispanic or Latino","userSelected":true}},{"url":"text","valueString":"Hispanic or Latino"}]}],"identifier":[{"type":{"coding":[{"system":"http://terminology.hl7.org/CodeSystem/v2-0203","code":"MR"}]},"system":"https://bonnie-fhir.healthit.gov/","value":"63487c300968f801225401b5"}],"active":true,"name":[{"use":"usual","family":"DENPass","given":["AssessG2P0PreTerm1Term1"]}],"gender":"female","birthDate":"1998-02-14"},"request":{"method":"PUT","url":"Patient/dac80bea-c605-43b0-bbf6-49cf74b6001e"}},{"fullUrl":"https://madie.cms.gov/Observation/242584db-6509-45f3-a84f-e69a397b0b54","resource":{"resourceType":"Observation","id":"242584db-6509-45f3-a84f-e69a397b0b54","meta":{"profile":["http://hl7.org/fhir/us/qicore/StructureDefinition/qicore-observation"]},"status":"final","category":[{"coding":[{"system":"http://terminology.hl7.org/CodeSystem/observation-category","code":"exam","display":"exam","userSelected":true}]}],"code":{"coding":[{"system":"http://loinc.org","code":"11996-6"}]},"subject":{"reference":"Patient/dac80bea-c605-43b0-bbf6-49cf74b6001e"},"effectiveDateTime":"2025-10-19T08:10:00.000+00:00","valueInteger":2},"request":{"method":"PUT","url":"Observation/242584db-6509-45f3-a84f-e69a397b0b54"}},{"fullUrl":"https://madie.cms.gov/Observation/7c0ba757-5a8d-4e64-8041-dce9bbe06298","resource":{"resourceType":"Observation","id":"7c0ba757-5a8d-4e64-8041-dce9bbe06298","meta":{"profile":["http://hl7.org/fhir/us/qicore/StructureDefinition/qicore-observation"]},"status":"final","category":[{"coding":[{"system":"http://terminology.hl7.org/CodeSystem/observation-category","code":"exam","display":"exam","userSelected":true}]}],"code":{"coding":[{"system":"http://loinc.org","code":"11884-4"}]},"subject":{"reference":"Patient/dac80bea-c605-43b0-bbf6-49cf74b6001e"},"effectiveDateTime":"2026-06-08T09:15:00.000+00:00","valueQuantity":{"value":38,"system":"http://unitsofmeasure.org","code":"wk"}},"request":{"method":"PUT","url":"Observation/7c0ba757-5a8d-4e64-8041-dce9bbe06298"}},{"fullUrl":"https://madie.cms.gov/Observation/84fa792a-5cde-4d24-b438-64d2b02c295a","resource":{"resourceType":"Observation","id":"84fa792a-5cde-4d24-b438-64d2b02c295a","meta":{"profile":["http://hl7.org/fhir/us/qicore/StructureDefinition/qicore-observation"]},"status":"final","category":[{"coding":[{"system":"http://terminology.hl7.org/CodeSystem/observation-category","code":"exam","display":"exam","userSelected":true}]}],"code":{"coding":[{"system":"http://loinc.org","code":"93857-1"}]},"subject":{"reference":"Patient/dac80bea-c605-43b0-bbf6-49cf74b6001e"},"effectiveDateTime":"2026-06-08T20:00:00.000+00:00","valueDateTime":"2026-06-08T20:00:00+00:00"},"request":{"method":"PUT","url":"Observation/84fa792a-5cde-4d24-b438-64d2b02c295a"}},{"fullUrl":"https://madie.cms.gov/Observation/b5774967-e1b5-48a7-adaa-fcc04d4514d0","resource":{"resourceType":"Observation","id":"b5774967-e1b5-48a7-adaa-fcc04d4514d0","meta":{"profile":["http://hl7.org/fhir/us/qicore/StructureDefinition/qicore-observation"]},"status":"final","category":[{"coding":[{"system":"http://terminology.hl7.org/CodeSystem/observation-category","code":"exam","display":"exam","userSelected":true}]}],"code":{"coding":[{"system":"http://loinc.org","code":"11977-6"}]},"subject":{"reference":"Patient/dac80bea-c605-43b0-bbf6-49cf74b6001e"},"effectiveDateTime":"2026-06-08T08:00:00.000+00:00","valueInteger":0},"request":{"method":"PUT","url":"Observation/b5774967-e1b5-48a7-adaa-fcc04d4514d0"}},{"fullUrl":"https://madie.cms.gov/Observation/383ecfc2-c9f6-4751-81b4-c40127a78996","resource":{"resourceType":"Observation","id":"383ecfc2-c9f6-4751-81b4-c40127a78996","meta":{"profile":["http://hl7.org/fhir/us/qicore/StructureDefinition/qicore-observation"]},"status":"final","category":[{"coding":[{"system":"http://terminology.hl7.org/CodeSystem/observation-category","code":"exam","display":"exam","userSelected":true}]}],"code":{"coding":[{"system":"http://loinc.org","code":"11637-6"}]},"subject":{"reference":"Patient/dac80bea-c605-43b0-bbf6-49cf74b6001e"},"effectiveDateTime":"2026-06-08T08:00:00.000+00:00","valueInteger":1},"request":{"method":"PUT","url":"Observation/383ecfc2-c9f6-4751-81b4-c40127a78996"}},{"fullUrl":"https://madie.cms.gov/Observation/db319022-0238-4589-b5ad-868525988cee","resource":{"resourceType":"Observation","id":"db319022-0238-4589-b5ad-868525988cee","meta":{"profile":["http://hl7.org/fhir/us/qicore/StructureDefinition/qicore-observation"]},"status":"final","category":[{"coding":[{"system":"http://terminology.hl7.org/CodeSystem/observation-category","code":"exam","display":"exam","userSelected":true}]}],"code":{"coding":[{"system":"http://loinc.org","code":"11639-2"}]},"subject":{"reference":"Patient/dac80bea-c605-43b0-bbf6-49cf74b6001e"},"effectiveDateTime":"2026-06-08T08:00:00.000+00:00","valueInteger":1},"request":{"method":"PUT","url":"Observation/db319022-0238-4589-b5ad-868525988cee"}},{"fullUrl":"https://madie.cms.gov/Encounter/9d83bacf-6c5c-4bb7-ae42-54a331063a22","resource":{"resourceType":"Encounter","id":"9d83bacf-6c5c-4bb7-ae42-54a331063a22","meta":{"profile":["http://hl7.org/fhir/us/qicore/StructureDefinition/qicore-encounter"]},"status":"finished","class":{"system":"http://terminology.hl7.org/CodeSystem/v3-ActCode","code":"IMP","display":"inpatient encounter"},"type":[{"coding":[{"system":"http://snomed.info/sct","code":"183452005"}]}],"subject":{"reference":"Patient/dac80bea-c605-43b0-bbf6-49cf74b6001e"},"period":{"start":"2026-06-08T08:00:00.000Z","end":"2026-06-10T08:15:00.000Z"},"length":{"value":2,"unit":"days"},"diagnosis":[{"condition":{"reference":"Condition/delivery-of-singleton-f83c"},"use":{"coding":[{"system":"http://snomed.info/sct","code":"169826009","display":"Delivery of Singleton"}]}},{"condition":{"reference":"Condition/467ec197-786e-44f4-91a6-542e3bba8672"}}]},"request":{"method":"PUT","url":"Encounter/9d83bacf-6c5c-4bb7-ae42-54a331063a22"}},{"fullUrl":"https://madie.cms.gov/Procedure/8b0f99d4-baee-4ed0-b6e3-db9c9ba9a952","resource":{"resourceType":"Procedure","id":"8b0f99d4-baee-4ed0-b6e3-db9c9ba9a952","meta":{"profile":["http://hl7.org/fhir/us/qicore/StructureDefinition/qicore-procedure"]},"extension":[{"url":"http://hl7.org/fhir/us/qicore/StructureDefinition/qicore-recorded","valueDateTime":"2014-04-05T09:35:00-04:00"}],"status":"completed","code":{"coding":[{"system":"http://www.cms.gov/Medicare/Coding/ICD10","code":"10D07Z3"},{"system":"http://www.icd10data.com/icd10pcs","code":"10D07Z3","userSelected":true}]},"subject":{"reference":"Patient/dac80bea-c605-43b0-bbf6-49cf74b6001e"},"performedPeriod":{"start":"2026-06-08T08:10:00.000Z","end":"2026-06-08T09:14:00.000Z"}},"request":{"method":"PUT","url":"Procedure/8b0f99d4-baee-4ed0-b6e3-db9c9ba9a952"}},{"fullUrl":"https://madie.cms.gov/Condition/467ec197-786e-44f4-91a6-542e3bba8672","resource":{"resourceType":"Condition","id":"467ec197-786e-44f4-91a6-542e3bba8672","meta":{"profile":["http://hl7.org/fhir/us/qicore/StructureDefinition/qicore-condition"]},"category":[{"coding":[{"system":"http://terminology.hl7.org/CodeSystem/condition-category","code":"encounter-diagnosis","display":"Encounter Diagnosis"}]}],"code":{"coding":[{"system":"http://snomed.info/sct","version":"2022-09","code":"169826009","display":"Single live birth (finding)","userSelected":true}]},"subject":{"reference":"Patient/dac80bea-c605-43b0-bbf6-49cf74b6001e"},"recordedDate":"2026-10-18T08:00:00.000+00:00"},"request":{"method":"PUT","url":"Condition/467ec197-786e-44f4-91a6-542e3bba8672"}},{"fullUrl":"https://madie.cms.gov/Coverage/3d674d36-3587-4d7a-bb5d-d43db2b72e99","resource":{"resourceType":"Coverage","id":"3d674d36-3587-4d7a-bb5d-d43db2b72e99","meta":{"profile":["http://hl7.org/fhir/us/qicore/StructureDefinition/qicore-coverage"]},"status":"active","beneficiary":{"reference":"Patient/dac80bea-c605-43b0-bbf6-49cf74b6001e"},"payor":[{"reference":"Organization/4da248b0-6e59-49b7-b80e-338aa21d299f"}]},"request":{"method":"PUT","url":"Coverage/3d674d36-3587-4d7a-bb5d-d43db2b72e99"}},{"fullUrl":"https://madie.cms.gov/Organization/f976afd5-ca0b-4961-aeac-b75cc4f37e80","resource":{"resourceType":"Organization","id":"4da248b0-6e59-49b7-b80e-338aa21d299f","meta":{"profile":["http://hl7.org/fhir/us/qicore/StructureDefinition/qicore-organization"]},"identifier":[{"use":"temp","system":"urn:oid:2.16.840.1.113883.4.4","value":"21-3259825"}],"active":true,"type":[{"coding":[{"system":"http://terminology.hl7.org/CodeSystem/organization-type","code":"pay","display":"Payer"}]}],"name":"Blue Cross Blue Shield of Texas","telecom":[{"system":"phone","value":"(+1) 972-766-6900"}],"address":[{"use":"billing","type":"postal","line":["P.O. Box 660044"],"city":"Dallas","state":"TX","postalCode":"75266-0044","country":"USA"}]},"request":{"method":"PUT","url":"Organization/4da248b0-6e59-49b7-b80e-338aa21d299f"}},{"fullUrl":"https://madie.cms.gov/Practitioner/87d5beaf-178a-4cb2-9945-fd652b852317","resource":{"resourceType":"Practitioner","id":"87d5beaf-178a-4cb2-9945-fd652b852317","identifier":[{"system":"http://hl7.org/fhir/sid/us-npi","value":"123456"}],"name":[{"family":"Evil","prefix":["Dr"]}]},"request":{"method":"PUT","url":"Practitioner/87d5beaf-178a-4cb2-9945-fd652b852317"}},{"fullUrl":"https://madie.cms.gov/MeasureReport/f0e0bdb5-5dc4-4f40-aafa-928913713eff","resource":{"resourceType":"MeasureReport","id":"f0e0bdb5-5dc4-4f40-aafa-928913713eff","meta":{"profile":["http://hl7.org/fhir/us/cqfmeasures/StructureDefinition/test-case-cqfm"]},"contained":[{"resourceType":"Parameters","id":"8eb4d710-259c-4c0c-86b1-06a00ca1698b-parameters","parameter":[{"name":"subject","valueString":"dac80bea-c605-43b0-bbf6-49cf74b6001e"}]}],"extension":[{"url":"http://hl7.org/fhir/us/cqfmeasures/StructureDefinition/cqfm-inputParameters","valueReference":{"reference":"#8eb4d710-259c-4c0c-86b1-06a00ca1698b-parameters"}},{"url":"http://hl7.org/fhir/us/cqfmeasures/StructureDefinition/cqfm-testCaseDescription","valueMarkdown":"Passes: IP, PassesDENOM,  Pt is 27 years of age,  encounter dx delivery of singleton, G2, P0, PreTerm 1 Term 1 rel date/time less than 42 weeks prior to delivery, EGA @ 38 weeks\n"}],"modifierExtension":[{"url":"http://hl7.org/fhir/us/cqfmeasures/StructureDefinition/cqfm-isTestCase","valueBoolean":true}],"status":"complete","type":"individual","measure":"https://madie.cms.gov/Measure/CMS334FHIRPCCesareanBirth","period":{"start":"2026-01-01","end":"2026-12-31"},"group":[{"population":[{"code":{"coding":[{"system":"http://terminology.hl7.org/CodeSystem/measure-population","code":"initial-population","display":"Initial Population"}]},"count":1},{"code":{"coding":[{"system":"http://terminology.hl7.org/CodeSystem/measure-population","code":"denominator","display":"Denominator"}]},"count":1},{"code":{"coding":[{"system":"http://terminology.hl7.org/CodeSystem/measure-population","code":"denominator-exclusion","display":"Denominator Exclusion"}]},"count":0},{"code":{"coding":[{"system":"http://terminology.hl7.org/CodeSystem/measure-population","code":"numerator","display":"Numerator"}]},"count":0}]}]},"request":{"method":"PUT","url":"MeasureReport/f0e0bdb5-5dc4-4f40-aafa-928913713eff"}}]}