{"resourceType":"Bundle","id":"tests-2b5476ea-52e5-467f-966c-81aea3d82ff0-bundle","type":"transaction","entry":[{"fullUrl":"https://madie.cms.gov/Patient/2b5476ea-52e5-467f-966c-81aea3d82ff0","resource":{"resourceType":"Patient","id":"2b5476ea-52e5-467f-966c-81aea3d82ff0","meta":{"profile":["http://hl7.org/fhir/us/qicore/StructureDefinition/qicore-patient"]},"text":{"status":"generated","div":"<div xmlns=\"http://www.w3.org/1999/xhtml\"><div class=\"hapiHeaderText\">AssessTermLastMissingResult <b>DENFAIL </b></div><table class=\"hapiPropertyTable\"><tbody><tr><td>Identifier</td><td>e6e21c3fa4edfea41e3da1195d4a7d3d8dc72d010572e04bff4dafb21a72c78e</td></tr><tr><td>Date of birth</td><td><span>14 February 1985</span></td></tr></tbody></table></div>"},"extension":[{"url":"http://hl7.org/fhir/us/core/StructureDefinition/us-core-race","extension":[{"url":"ombCategory","valueCoding":{"system":"urn:oid:2.16.840.1.113883.6.238","code":"1002-5","display":"American Indian or Alaska Native","userSelected":true}},{"url":"text","valueString":"American Indian or Alaska Native"}]},{"url":"http://hl7.org/fhir/us/core/StructureDefinition/us-core-ethnicity","extension":[{"url":"ombCategory","valueCoding":{"system":"urn:oid:2.16.840.1.113883.6.238","code":"2135-2","display":"Hispanic or Latino","userSelected":true}},{"url":"text","valueString":"Hispanic or Latino"}]}],"identifier":[{"type":{"coding":[{"system":"http://terminology.hl7.org/CodeSystem/v2-0203","code":"MR"}]},"system":"https://bonnie-fhir.healthit.gov/","value":"63487c300968f801225401be"}],"active":true,"name":[{"use":"usual","family":"DENFail","given":["AssessTermLastMissingResult"]}],"gender":"female","birthDate":"1998-02-14"},"request":{"method":"PUT","url":"Patient/2b5476ea-52e5-467f-966c-81aea3d82ff0"}},{"fullUrl":"https://madie.cms.gov/Observation/1d1628a3-24cc-419e-85e2-cce2c0307fe5","resource":{"resourceType":"Observation","id":"1d1628a3-24cc-419e-85e2-cce2c0307fe5","meta":{"profile":["http://hl7.org/fhir/us/qicore/StructureDefinition/qicore-observation"]},"status":"final","category":[{"coding":[{"system":"http://terminology.hl7.org/CodeSystem/observation-category","code":"exam","display":"exam","userSelected":true}]}],"code":{"coding":[{"system":"http://loinc.org","code":"11637-6"}]},"subject":{"reference":"Patient/2b5476ea-52e5-467f-966c-81aea3d82ff0"},"effectiveDateTime":"2025-09-19T09:00:00.000+00:00","valueInteger":0},"request":{"method":"PUT","url":"Observation/1d1628a3-24cc-419e-85e2-cce2c0307fe5"}},{"fullUrl":"https://madie.cms.gov/Observation/9fd8df8f-1173-4f8c-8ea6-91430ceaa74f","resource":{"resourceType":"Observation","id":"9fd8df8f-1173-4f8c-8ea6-91430ceaa74f","meta":{"profile":["http://hl7.org/fhir/us/qicore/StructureDefinition/qicore-observation"]},"status":"final","category":[{"coding":[{"system":"http://terminology.hl7.org/CodeSystem/observation-category","code":"exam","display":"exam","userSelected":true}]}],"code":{"coding":[{"system":"http://loinc.org","code":"11639-2"}]},"subject":{"reference":"Patient/2b5476ea-52e5-467f-966c-81aea3d82ff0"},"effectiveDateTime":"2025-09-19T09:00:00.000+00:00"},"request":{"method":"PUT","url":"Observation/9fd8df8f-1173-4f8c-8ea6-91430ceaa74f"}},{"fullUrl":"https://madie.cms.gov/Observation/8fb60cb9-e35a-41ef-85a8-8dab61632c97","resource":{"resourceType":"Observation","id":"8fb60cb9-e35a-41ef-85a8-8dab61632c97","meta":{"profile":["http://hl7.org/fhir/us/qicore/StructureDefinition/qicore-observation"]},"status":"final","category":[{"coding":[{"system":"http://terminology.hl7.org/CodeSystem/observation-category","code":"exam","display":"exam","userSelected":true}]}],"code":{"coding":[{"system":"http://loinc.org","code":"11884-4"}]},"subject":{"reference":"Patient/2b5476ea-52e5-467f-966c-81aea3d82ff0"},"effectiveDateTime":"2026-06-08T20:00:00.000+00:00","valueQuantity":{"value":37,"system":"http://unitsofmeasure.org","code":"wk"}},"request":{"method":"PUT","url":"Observation/8fb60cb9-e35a-41ef-85a8-8dab61632c97"}},{"fullUrl":"https://madie.cms.gov/Observation/f203a774-eefa-477e-bf20-32ea1d454b21","resource":{"resourceType":"Observation","id":"f203a774-eefa-477e-bf20-32ea1d454b21","meta":{"profile":["http://hl7.org/fhir/us/qicore/StructureDefinition/qicore-observation"]},"status":"final","category":[{"coding":[{"system":"http://terminology.hl7.org/CodeSystem/observation-category","code":"exam","display":"exam","userSelected":true}]}],"code":{"coding":[{"system":"http://loinc.org","code":"93857-1"}]},"subject":{"reference":"Patient/2b5476ea-52e5-467f-966c-81aea3d82ff0"},"effectiveDateTime":"2026-06-08T20:00:00.000+00:00","valueDateTime":"2026-06-08T20:00:00+00:00"},"request":{"method":"PUT","url":"Observation/f203a774-eefa-477e-bf20-32ea1d454b21"}},{"fullUrl":"https://madie.cms.gov/Encounter/6d9af5e9-e2b7-4889-ac9a-92b19d1142cd","resource":{"resourceType":"Encounter","id":"6d9af5e9-e2b7-4889-ac9a-92b19d1142cd","meta":{"profile":["http://hl7.org/fhir/us/qicore/StructureDefinition/qicore-encounter"]},"status":"finished","class":{"system":"http://terminology.hl7.org/CodeSystem/v3-ActCode","code":"IMP","display":"inpatient encounter"},"type":[{"coding":[{"system":"http://snomed.info/sct","code":"8715000"}]}],"subject":{"reference":"Patient/2b5476ea-52e5-467f-966c-81aea3d82ff0"},"period":{"start":"2026-06-08T08:00:00.000Z","end":"2026-06-10T08:15:00.000Z"},"length":{"value":2,"unit":"days"},"diagnosis":[{"condition":{"reference":"Condition/delivery-of-singleton-f83c"},"use":{"coding":[{"system":"http://snomed.info/sct","code":"169826009","display":"Delivery of Singleton"}]}},{"condition":{"reference":"Condition/a6bb17cd-9afb-422e-8874-9d9059ee2830"}}]},"request":{"method":"PUT","url":"Encounter/6d9af5e9-e2b7-4889-ac9a-92b19d1142cd"}},{"fullUrl":"https://madie.cms.gov/Procedure/700b4e6b-e2d1-4b47-853b-a47ecc90cfd7","resource":{"resourceType":"Procedure","id":"700b4e6b-e2d1-4b47-853b-a47ecc90cfd7","meta":{"profile":["http://hl7.org/fhir/us/qicore/StructureDefinition/qicore-procedure"]},"extension":[{"url":"http://hl7.org/fhir/us/qicore/StructureDefinition/qicore-recorded","valueDateTime":"2014-04-05T09:35:00-04:00"}],"status":"completed","code":{"coding":[{"system":"http://www.cms.gov/Medicare/Coding/ICD10","code":"10D00Z0"},{"system":"http://snomed.info/sct","code":"4504004"},{"system":"http://www.icd10data.com/icd10pcs","code":"10D00Z0","userSelected":true}]},"subject":{"reference":"Patient/2b5476ea-52e5-467f-966c-81aea3d82ff0"},"performedPeriod":{"start":"2026-06-08T20:00:00.000Z","end":"2026-06-08T20:15:00.000Z"}},"request":{"method":"PUT","url":"Procedure/700b4e6b-e2d1-4b47-853b-a47ecc90cfd7"}},{"fullUrl":"https://madie.cms.gov/Condition/a6bb17cd-9afb-422e-8874-9d9059ee2830","resource":{"resourceType":"Condition","id":"a6bb17cd-9afb-422e-8874-9d9059ee2830","meta":{"profile":["http://hl7.org/fhir/us/qicore/StructureDefinition/qicore-condition"]},"category":[{"coding":[{"system":"http://terminology.hl7.org/CodeSystem/condition-category","code":"encounter-diagnosis","display":"Encounter Diagnosis"}]}],"code":{"coding":[{"system":"http://snomed.info/sct","version":"2022-09","code":"169826009","display":"Single live birth (finding)","userSelected":true}]},"subject":{"reference":"Patient/2b5476ea-52e5-467f-966c-81aea3d82ff0"},"recordedDate":"2026-10-21T08:00:00.000+00:00"},"request":{"method":"PUT","url":"Condition/a6bb17cd-9afb-422e-8874-9d9059ee2830"}},{"fullUrl":"https://madie.cms.gov/Coverage/9281feec-c0ee-478d-a93a-5866633a0678","resource":{"resourceType":"Coverage","id":"9281feec-c0ee-478d-a93a-5866633a0678","meta":{"profile":["http://hl7.org/fhir/us/qicore/StructureDefinition/qicore-coverage"]},"status":"active","beneficiary":{"reference":"Patient/2b5476ea-52e5-467f-966c-81aea3d82ff0"},"payor":[{"reference":"Organization/f7da4368-fb6d-4d73-a75b-f78024cbb18d"}]},"request":{"method":"PUT","url":"Coverage/9281feec-c0ee-478d-a93a-5866633a0678"}},{"fullUrl":"https://madie.cms.gov/Organization/8f3f90fd-15ad-4ccf-ad30-634235f2b84b","resource":{"resourceType":"Organization","id":"f7da4368-fb6d-4d73-a75b-f78024cbb18d","meta":{"profile":["http://hl7.org/fhir/us/qicore/StructureDefinition/qicore-organization"]},"identifier":[{"use":"temp","system":"urn:oid:2.16.840.1.113883.4.4","value":"21-3259825"}],"active":true,"type":[{"coding":[{"system":"http://terminology.hl7.org/CodeSystem/organization-type","code":"pay","display":"Payer"}]}],"name":"Blue Cross Blue Shield of Texas","telecom":[{"system":"phone","value":"(+1) 972-766-6900"}],"address":[{"use":"billing","type":"postal","line":["P.O. Box 660044"],"city":"Dallas","state":"TX","postalCode":"75266-0044","country":"USA"}]},"request":{"method":"PUT","url":"Organization/f7da4368-fb6d-4d73-a75b-f78024cbb18d"}},{"fullUrl":"https://madie.cms.gov/Practitioner/4f25f9f3-8e39-48f7-89a0-1d2a397ffc54","resource":{"resourceType":"Practitioner","id":"4f25f9f3-8e39-48f7-89a0-1d2a397ffc54","identifier":[{"system":"http://hl7.org/fhir/sid/us-npi","value":"123456"}],"name":[{"family":"Evil","prefix":["Dr"]}]},"request":{"method":"PUT","url":"Practitioner/4f25f9f3-8e39-48f7-89a0-1d2a397ffc54"}},{"fullUrl":"https://madie.cms.gov/MeasureReport/57fcbaac-0e7e-4def-9eae-239e59bf57fc","resource":{"resourceType":"MeasureReport","id":"57fcbaac-0e7e-4def-9eae-239e59bf57fc","meta":{"profile":["http://hl7.org/fhir/us/cqfmeasures/StructureDefinition/test-case-cqfm"]},"contained":[{"resourceType":"Parameters","id":"809b0741-b7ab-415f-a9fe-32cc53fc08db-parameters","parameter":[{"name":"subject","valueString":"2b5476ea-52e5-467f-966c-81aea3d82ff0"}]}],"extension":[{"url":"http://hl7.org/fhir/us/cqfmeasures/StructureDefinition/cqfm-inputParameters","valueReference":{"reference":"#809b0741-b7ab-415f-a9fe-32cc53fc08db-parameters"}},{"url":"http://hl7.org/fhir/us/cqfmeasures/StructureDefinition/cqfm-testCaseDescription","valueMarkdown":"\"Preterm Births=0, Rel Date/time < 42weeks prior to delivery\nTerm Newborn missing result, Rel Date/time < 42weeks prior to delivery\"\n"}],"modifierExtension":[{"url":"http://hl7.org/fhir/us/cqfmeasures/StructureDefinition/cqfm-isTestCase","valueBoolean":true}],"status":"complete","type":"individual","measure":"https://madie.cms.gov/Measure/CMS334FHIRPCCesareanBirth","period":{"start":"2026-01-01","end":"2026-12-31"},"group":[{"population":[{"code":{"coding":[{"system":"http://terminology.hl7.org/CodeSystem/measure-population","code":"initial-population","display":"Initial Population"}]},"count":1},{"code":{"coding":[{"system":"http://terminology.hl7.org/CodeSystem/measure-population","code":"denominator","display":"Denominator"}]},"count":0},{"code":{"coding":[{"system":"http://terminology.hl7.org/CodeSystem/measure-population","code":"denominator-exclusion","display":"Denominator Exclusion"}]},"count":0},{"code":{"coding":[{"system":"http://terminology.hl7.org/CodeSystem/measure-population","code":"numerator","display":"Numerator"}]},"count":0}]}]},"request":{"method":"PUT","url":"MeasureReport/57fcbaac-0e7e-4def-9eae-239e59bf57fc"}}]}