{"resourceType":"Bundle","id":"tests-43236e7d-b851-462c-bed1-fca6b16aa61d-bundle","type":"transaction","entry":[{"fullUrl":"https://madie.cms.gov/Patient/43236e7d-b851-462c-bed1-fca6b16aa61d","resource":{"resourceType":"Patient","id":"43236e7d-b851-462c-bed1-fca6b16aa61d","meta":{"profile":["http://hl7.org/fhir/us/qicore/StructureDefinition/qicore-patient"]},"text":{"status":"generated","div":"<div xmlns=\"http://www.w3.org/1999/xhtml\"><div class=\"hapiHeaderText\">NoPrcPrf <b>IPFAIL </b></div><table class=\"hapiPropertyTable\"><tbody><tr><td>Identifier</td><td>4768d440320cf3298333847203f295a8587c79c95db866f204cf3a2168f50a97</td></tr><tr><td>Date of birth</td><td><span>14 February 1985</span></td></tr></tbody></table></div>"},"extension":[{"url":"http://hl7.org/fhir/us/core/StructureDefinition/us-core-race","extension":[{"url":"ombCategory","valueCoding":{"system":"urn:oid:2.16.840.1.113883.6.238","code":"1002-5","display":"American Indian or Alaska Native","userSelected":true}},{"url":"text","valueString":"American Indian or Alaska Native"}]},{"url":"http://hl7.org/fhir/us/core/StructureDefinition/us-core-ethnicity","extension":[{"url":"ombCategory","valueCoding":{"system":"urn:oid:2.16.840.1.113883.6.238","code":"2135-2","display":"Hispanic or Latino","userSelected":true}},{"url":"text","valueString":"Hispanic or Latino"}]}],"identifier":[{"type":{"coding":[{"system":"http://terminology.hl7.org/CodeSystem/v2-0203","code":"MR"}]},"system":"https://bonnie-fhir.healthit.gov/","value":"63487c2d0968f8012254014b"}],"active":true,"name":[{"use":"usual","family":"IPFail","given":["NoPrcPrf"]}],"gender":"female","birthDate":"1986-02-14"},"request":{"method":"PUT","url":"Patient/43236e7d-b851-462c-bed1-fca6b16aa61d"}},{"fullUrl":"https://madie.cms.gov/Encounter/b6316d76-3d1c-4bd2-9013-89321879def0","resource":{"resourceType":"Encounter","id":"b6316d76-3d1c-4bd2-9013-89321879def0","meta":{"profile":["http://hl7.org/fhir/us/qicore/StructureDefinition/qicore-encounter"]},"status":"finished","class":{"system":"http://terminology.hl7.org/CodeSystem/v3-ActCode","code":"IMP","display":"inpatient encounter"},"type":[{"coding":[{"system":"http://snomed.info/sct","code":"8715000"}]}],"subject":{"reference":"Patient/43236e7d-b851-462c-bed1-fca6b16aa61d"},"period":{"start":"2026-11-28T08:00:00.000Z","end":"2026-11-30T08:15:00.000Z"},"length":{"value":2.0,"unit":"days"},"diagnosis":[{"condition":{"reference":"Condition/Condition-2"},"use":{"coding":[{"system":"http://snomed.info/sct","code":"169826009","display":"Delivery of Singleton"}]}}]},"request":{"method":"PUT","url":"Encounter/b6316d76-3d1c-4bd2-9013-89321879def0"}},{"fullUrl":"https://madie.cms.gov/Coverage/29196971-d975-40de-a325-a094a26e2262","resource":{"resourceType":"Coverage","id":"29196971-d975-40de-a325-a094a26e2262","meta":{"profile":["http://hl7.org/fhir/us/qicore/StructureDefinition/qicore-coverage"]},"status":"active","beneficiary":{"reference":"Patient/43236e7d-b851-462c-bed1-fca6b16aa61d"},"payor":[{"reference":"Organization/18ca435c-cae6-4c34-8033-af717477f9fc"}]},"request":{"method":"PUT","url":"Coverage/29196971-d975-40de-a325-a094a26e2262"}},{"fullUrl":"https://madie.cms.gov/Organization/cda080c9-2589-40a3-bfb5-ad7dd507561b","resource":{"resourceType":"Organization","id":"18ca435c-cae6-4c34-8033-af717477f9fc","meta":{"profile":["http://hl7.org/fhir/us/qicore/StructureDefinition/qicore-organization"]},"identifier":[{"use":"temp","system":"urn:oid:2.16.840.1.113883.4.4","value":"21-3259825"}],"active":true,"type":[{"coding":[{"system":"http://terminology.hl7.org/CodeSystem/organization-type","code":"pay","display":"Payer"}]}],"name":"Blue Cross Blue Shield of Texas","telecom":[{"system":"phone","value":"(+1) 972-766-6900"}],"address":[{"use":"billing","type":"postal","line":["P.O. Box 660044"],"city":"Dallas","state":"TX","postalCode":"75266-0044","country":"USA"}]},"request":{"method":"PUT","url":"Organization/18ca435c-cae6-4c34-8033-af717477f9fc"}},{"fullUrl":"https://madie.cms.gov/Practitioner/b32a9974-c62d-41b6-9cb8-5bd269e5eafc","resource":{"resourceType":"Practitioner","id":"b32a9974-c62d-41b6-9cb8-5bd269e5eafc","identifier":[{"system":"http://hl7.org/fhir/sid/us-npi","value":"123456"}],"name":[{"family":"Evil","prefix":["Dr"]}]},"request":{"method":"PUT","url":"Practitioner/b32a9974-c62d-41b6-9cb8-5bd269e5eafc"}},{"fullUrl":"https://madie.cms.gov/MeasureReport/e751b0da-b8f6-433c-83da-9220a83d084e","resource":{"resourceType":"MeasureReport","id":"e751b0da-b8f6-433c-83da-9220a83d084e","meta":{"profile":["http://hl7.org/fhir/us/cqfmeasures/StructureDefinition/test-case-cqfm"]},"contained":[{"resourceType":"Parameters","id":"afa9bd9c-a369-4c20-b790-113857fa5f39-parameters","parameter":[{"name":"subject","valueString":"43236e7d-b851-462c-bed1-fca6b16aa61d"}]}],"extension":[{"url":"http://hl7.org/fhir/us/cqfmeasures/StructureDefinition/cqfm-inputParameters","valueReference":{"reference":"#afa9bd9c-a369-4c20-b790-113857fa5f39-parameters"}},{"url":"http://hl7.org/fhir/us/cqfmeasures/StructureDefinition/cqfm-testCaseDescription","valueMarkdown":"\"Fail IPP, Proc Deliv missing\n DEN, NUM. Parity result 0 (auth at 42 weeks) EGA 40 weeks; \"\n"}],"modifierExtension":[{"url":"http://hl7.org/fhir/us/cqfmeasures/StructureDefinition/cqfm-isTestCase","valueBoolean":true}],"status":"complete","type":"individual","measure":"https://madie.cms.gov/Measure/CMS334FHIRPCCesareanBirth","period":{"start":"2026-01-01","end":"2026-12-31"},"group":[{"population":[{"code":{"coding":[{"system":"http://terminology.hl7.org/CodeSystem/measure-population","code":"initial-population","display":"Initial Population"}]},"count":0},{"code":{"coding":[{"system":"http://terminology.hl7.org/CodeSystem/measure-population","code":"denominator","display":"Denominator"}]},"count":0},{"code":{"coding":[{"system":"http://terminology.hl7.org/CodeSystem/measure-population","code":"denominator-exclusion","display":"Denominator Exclusion"}]},"count":0},{"code":{"coding":[{"system":"http://terminology.hl7.org/CodeSystem/measure-population","code":"numerator","display":"Numerator"}]},"count":0}]}]},"request":{"method":"PUT","url":"MeasureReport/e751b0da-b8f6-433c-83da-9220a83d084e"}}]}