{"resourceType":"Bundle","id":"tests-a1e91653-1ffc-418b-b711-3d941af24c77-bundle","type":"transaction","entry":[{"fullUrl":"https://madie.cms.gov/Patient/a1e91653-1ffc-418b-b711-3d941af24c77","resource":{"resourceType":"Patient","id":"a1e91653-1ffc-418b-b711-3d941af24c77","meta":{"profile":["http://hl7.org/fhir/us/qicore/StructureDefinition/qicore-patient"]},"text":{"status":"generated","div":"<div xmlns=\"http://www.w3.org/1999/xhtml\"><div class=\"hapiHeaderText\">AssessG1RelDateTime42wksB4TimeOfDelivRelTime <b>DENPASS </b></div><table class=\"hapiPropertyTable\"><tbody><tr><td>Identifier</td><td>c6b51506d3a7092894a3f06af44f7ab397fd257a35f97f16644057feff48ec70</td></tr><tr><td>Date of birth</td><td><span>14 February 1985</span></td></tr></tbody></table></div>"},"extension":[{"url":"http://hl7.org/fhir/us/core/StructureDefinition/us-core-race","extension":[{"url":"ombCategory","valueCoding":{"system":"urn:oid:2.16.840.1.113883.6.238","code":"1002-5","display":"American Indian or Alaska Native","userSelected":true}},{"url":"text","valueString":"American Indian or Alaska Native"}]},{"url":"http://hl7.org/fhir/us/core/StructureDefinition/us-core-ethnicity","extension":[{"url":"ombCategory","valueCoding":{"system":"urn:oid:2.16.840.1.113883.6.238","code":"2135-2","display":"Hispanic or Latino","userSelected":true}},{"url":"text","valueString":"Hispanic or Latino"}]}],"identifier":[{"type":{"coding":[{"system":"http://terminology.hl7.org/CodeSystem/v2-0203","code":"MR"}]},"system":"https://bonnie-fhir.healthit.gov/","value":"63487c2f0968f80122540190"}],"active":true,"name":[{"use":"usual","family":"DENPass","given":["AssessG1RelDateTime42wksB4TimeOfDelivRelTime"]}],"gender":"female","birthDate":"1998-02-14"},"request":{"method":"PUT","url":"Patient/a1e91653-1ffc-418b-b711-3d941af24c77"}},{"fullUrl":"https://madie.cms.gov/Observation/74f95688-ded9-44e5-bf3e-7401cf8945b9","resource":{"resourceType":"Observation","id":"74f95688-ded9-44e5-bf3e-7401cf8945b9","meta":{"profile":["http://hl7.org/fhir/us/qicore/StructureDefinition/qicore-observation"]},"status":"final","category":[{"coding":[{"system":"http://terminology.hl7.org/CodeSystem/observation-category","code":"exam","display":"exam","userSelected":true}]}],"code":{"coding":[{"system":"http://loinc.org","code":"11996-6"}]},"subject":{"reference":"Patient/a1e91653-1ffc-418b-b711-3d941af24c77"},"effectiveDateTime":"2025-08-19T19:00:00.000+00:00","valueInteger":1},"request":{"method":"PUT","url":"Observation/74f95688-ded9-44e5-bf3e-7401cf8945b9"}},{"fullUrl":"https://madie.cms.gov/Observation/faeb0ed7-acb2-417b-aa04-d8c04881c5c4","resource":{"resourceType":"Observation","id":"faeb0ed7-acb2-417b-aa04-d8c04881c5c4","meta":{"profile":["http://hl7.org/fhir/us/qicore/StructureDefinition/qicore-observation"]},"status":"final","category":[{"coding":[{"system":"http://terminology.hl7.org/CodeSystem/observation-category","code":"exam","display":"exam","userSelected":true}]}],"code":{"coding":[{"system":"http://loinc.org","code":"11884-4"}]},"subject":{"reference":"Patient/a1e91653-1ffc-418b-b711-3d941af24c77"},"effectiveDateTime":"2026-06-08T09:15:00.000+00:00","valueQuantity":{"value":37.0,"system":"http://unitsofmeasure.org","code":"wk"}},"request":{"method":"PUT","url":"Observation/faeb0ed7-acb2-417b-aa04-d8c04881c5c4"}},{"fullUrl":"https://madie.cms.gov/Observation/c4c2aa31-83c9-4fb2-a2cb-5c120425ba73","resource":{"resourceType":"Observation","id":"c4c2aa31-83c9-4fb2-a2cb-5c120425ba73","meta":{"profile":["http://hl7.org/fhir/us/qicore/StructureDefinition/qicore-observation"]},"status":"final","category":[{"coding":[{"system":"http://terminology.hl7.org/CodeSystem/observation-category","code":"exam","display":"exam","userSelected":true}]}],"code":{"coding":[{"system":"http://loinc.org","code":"93857-1"}]},"subject":{"reference":"Patient/a1e91653-1ffc-418b-b711-3d941af24c77"},"effectiveDateTime":"2026-06-08T19:00:00.000+00:00","valueDateTime":"2026-06-08T19:00:00+00:00"},"request":{"method":"PUT","url":"Observation/c4c2aa31-83c9-4fb2-a2cb-5c120425ba73"}},{"fullUrl":"https://madie.cms.gov/Encounter/64605d66-b400-458d-be8d-bce5a64e20cd","resource":{"resourceType":"Encounter","id":"64605d66-b400-458d-be8d-bce5a64e20cd","meta":{"profile":["http://hl7.org/fhir/us/qicore/StructureDefinition/qicore-encounter"]},"status":"finished","class":{"system":"http://terminology.hl7.org/CodeSystem/v3-ActCode","code":"IMP","display":"inpatient encounter"},"type":[{"coding":[{"system":"http://snomed.info/sct","code":"183452005"}]}],"subject":{"reference":"Patient/a1e91653-1ffc-418b-b711-3d941af24c77"},"period":{"start":"2026-06-08T08:00:00.000Z","end":"2026-06-10T08:15:00.000Z"},"length":{"value":2.0,"unit":"days"},"diagnosis":[{"condition":{"reference":"Condition/delivery-of-singleton-f83c"},"use":{"coding":[{"system":"http://snomed.info/sct","code":"169826009","display":"Delivery of Singleton"}]}},{"condition":{"reference":"Condition/2ef8d70c-afd6-41a9-9310-1433b1906da4"}}]},"request":{"method":"PUT","url":"Encounter/64605d66-b400-458d-be8d-bce5a64e20cd"}},{"fullUrl":"https://madie.cms.gov/Procedure/0fa00639-5642-459c-8175-c048580e767b","resource":{"resourceType":"Procedure","id":"0fa00639-5642-459c-8175-c048580e767b","meta":{"profile":["http://hl7.org/fhir/us/qicore/StructureDefinition/qicore-procedure"]},"extension":[{"url":"http://hl7.org/fhir/us/qicore/StructureDefinition/qicore-recorded","valueDateTime":"2014-04-05T09:35:00-04:00"}],"status":"completed","code":{"coding":[{"system":"http://www.cms.gov/Medicare/Coding/ICD10","code":"10D07Z3"},{"system":"http://www.icd10data.com/icd10pcs","code":"10D07Z3","userSelected":true}]},"subject":{"reference":"Patient/a1e91653-1ffc-418b-b711-3d941af24c77"},"performedPeriod":{"start":"2026-06-08T08:10:00.000Z","end":"2026-06-08T09:14:00.000Z"}},"request":{"method":"PUT","url":"Procedure/0fa00639-5642-459c-8175-c048580e767b"}},{"fullUrl":"https://madie.cms.gov/Condition/2ef8d70c-afd6-41a9-9310-1433b1906da4","resource":{"resourceType":"Condition","id":"2ef8d70c-afd6-41a9-9310-1433b1906da4","meta":{"profile":["http://hl7.org/fhir/us/qicore/StructureDefinition/qicore-condition"]},"category":[{"coding":[{"system":"http://terminology.hl7.org/CodeSystem/condition-category","code":"encounter-diagnosis","display":"Encounter Diagnosis"}]}],"code":{"coding":[{"system":"http://snomed.info/sct","version":"2022-09","code":"169826009","display":"Single live birth (finding)","userSelected":true}]},"subject":{"reference":"Patient/a1e91653-1ffc-418b-b711-3d941af24c77"},"recordedDate":"2026-10-18T08:00:00.000+00:00"},"request":{"method":"PUT","url":"Condition/2ef8d70c-afd6-41a9-9310-1433b1906da4"}},{"fullUrl":"https://madie.cms.gov/Coverage/c54f7904-3401-4071-bdb6-4ce44571929f","resource":{"resourceType":"Coverage","id":"c54f7904-3401-4071-bdb6-4ce44571929f","meta":{"profile":["http://hl7.org/fhir/us/qicore/StructureDefinition/qicore-coverage"]},"status":"active","beneficiary":{"reference":"Patient/a1e91653-1ffc-418b-b711-3d941af24c77"},"payor":[{"reference":"Organization/f7da4368-fb6d-4d73-a75b-f78024cbb18d"}]},"request":{"method":"PUT","url":"Coverage/c54f7904-3401-4071-bdb6-4ce44571929f"}},{"fullUrl":"https://madie.cms.gov/Organization/0f9924a8-7284-4baf-b080-3d6798926976","resource":{"resourceType":"Organization","id":"f7da4368-fb6d-4d73-a75b-f78024cbb18d","meta":{"profile":["http://hl7.org/fhir/us/qicore/StructureDefinition/qicore-organization"]},"identifier":[{"use":"temp","system":"urn:oid:2.16.840.1.113883.4.4","value":"21-3259825"}],"active":true,"type":[{"coding":[{"system":"http://terminology.hl7.org/CodeSystem/organization-type","code":"pay","display":"Payer"}]}],"name":"Blue Cross Blue Shield of Texas","telecom":[{"system":"phone","value":"(+1) 972-766-6900"}],"address":[{"use":"billing","type":"postal","line":["P.O. Box 660044"],"city":"Dallas","state":"TX","postalCode":"75266-0044","country":"USA"}]},"request":{"method":"PUT","url":"Organization/f7da4368-fb6d-4d73-a75b-f78024cbb18d"}},{"fullUrl":"https://madie.cms.gov/Practitioner/57cd509f-55ae-4397-ab6c-8770710c3ffe","resource":{"resourceType":"Practitioner","id":"57cd509f-55ae-4397-ab6c-8770710c3ffe","identifier":[{"system":"http://hl7.org/fhir/sid/us-npi","value":"123456"}],"name":[{"family":"Evil","prefix":["Dr"]}]},"request":{"method":"PUT","url":"Practitioner/57cd509f-55ae-4397-ab6c-8770710c3ffe"}},{"fullUrl":"https://madie.cms.gov/MeasureReport/85dbe756-6cee-419e-b5f6-745b953a0754","resource":{"resourceType":"MeasureReport","id":"85dbe756-6cee-419e-b5f6-745b953a0754","meta":{"profile":["http://hl7.org/fhir/us/cqfmeasures/StructureDefinition/test-case-cqfm"]},"contained":[{"resourceType":"Parameters","id":"17c87786-0300-4cff-b062-ac17e4146e9e-parameters","parameter":[{"name":"subject","valueString":"a1e91653-1ffc-418b-b711-3d941af24c77"}]}],"extension":[{"url":"http://hl7.org/fhir/us/cqfmeasures/StructureDefinition/cqfm-inputParameters","valueReference":{"reference":"#17c87786-0300-4cff-b062-ac17e4146e9e-parameters"}},{"url":"http://hl7.org/fhir/us/cqfmeasures/StructureDefinition/cqfm-testCaseDescription","valueMarkdown":"Tests that Assess Gravida Rel Date is no more than 42 weeks before the Time of Delivery Rel Date.  This case is exactly 42 weeks before.\n"}],"modifierExtension":[{"url":"http://hl7.org/fhir/us/cqfmeasures/StructureDefinition/cqfm-isTestCase","valueBoolean":true}],"status":"complete","type":"individual","measure":"https://madie.cms.gov/Measure/CMS334FHIRPCCesareanBirth","period":{"start":"2026-01-01","end":"2026-12-31"},"group":[{"population":[{"code":{"coding":[{"system":"http://terminology.hl7.org/CodeSystem/measure-population","code":"initial-population","display":"Initial Population"}]},"count":1},{"code":{"coding":[{"system":"http://terminology.hl7.org/CodeSystem/measure-population","code":"denominator","display":"Denominator"}]},"count":1},{"code":{"coding":[{"system":"http://terminology.hl7.org/CodeSystem/measure-population","code":"denominator-exclusion","display":"Denominator Exclusion"}]},"count":0},{"code":{"coding":[{"system":"http://terminology.hl7.org/CodeSystem/measure-population","code":"numerator","display":"Numerator"}]},"count":0}]}]},"request":{"method":"PUT","url":"MeasureReport/85dbe756-6cee-419e-b5f6-745b953a0754"}}]}