{"resourceType":"Bundle","id":"tests-73da474b-7013-4d51-8ef8-25c42c3fc686-bundle","type":"transaction","entry":[{"fullUrl":"https://madie.cms.gov/Patient/73da474b-7013-4d51-8ef8-25c42c3fc686","resource":{"resourceType":"Patient","id":"73da474b-7013-4d51-8ef8-25c42c3fc686","meta":{"profile":["http://hl7.org/fhir/us/qicore/StructureDefinition/qicore-patient"]},"text":{"status":"generated","div":"<div xmlns=\"http://www.w3.org/1999/xhtml\"><div class=\"hapiHeaderText\">AssessG0Pnull <b>DENFAIL </b></div><table class=\"hapiPropertyTable\"><tbody><tr><td>Identifier</td><td>b8dbe157da4a58e4e68c2785ca3a1f558369f025fbb700c089d37aa7791ee57b</td></tr><tr><td>Date of birth</td><td><span>14 February 1985</span></td></tr></tbody></table></div>"},"extension":[{"url":"http://hl7.org/fhir/us/core/StructureDefinition/us-core-race","extension":[{"url":"ombCategory","valueCoding":{"system":"urn:oid:2.16.840.1.113883.6.238","code":"1002-5","display":"American Indian or Alaska Native","userSelected":true}},{"url":"text","valueString":"American Indian or Alaska Native"}]},{"url":"http://hl7.org/fhir/us/core/StructureDefinition/us-core-ethnicity","extension":[{"url":"ombCategory","valueCoding":{"system":"urn:oid:2.16.840.1.113883.6.238","code":"2135-2","display":"Hispanic or Latino","userSelected":true}},{"url":"text","valueString":"Hispanic or Latino"}]}],"identifier":[{"type":{"coding":[{"system":"http://terminology.hl7.org/CodeSystem/v2-0203","code":"MR"}]},"system":"https://bonnie-fhir.healthit.gov/","value":"63487c2e0968f80122540176"}],"active":true,"name":[{"use":"usual","family":"DENFail","given":["2EncW_in42weeks"]}],"gender":"female","birthDate":"1998-02-14"},"request":{"method":"PUT","url":"Patient/73da474b-7013-4d51-8ef8-25c42c3fc686"}},{"fullUrl":"https://madie.cms.gov/Observation/4e5c7154-3e13-47b6-8178-4004b3d17f1c","resource":{"resourceType":"Observation","id":"4e5c7154-3e13-47b6-8178-4004b3d17f1c","meta":{"profile":["http://hl7.org/fhir/us/qicore/StructureDefinition/qicore-observation"]},"status":"final","category":[{"coding":[{"system":"http://terminology.hl7.org/CodeSystem/observation-category","code":"exam","display":"exam","userSelected":true}]}],"code":{"coding":[{"system":"http://loinc.org","code":"11996-6"}]},"subject":{"reference":"Patient/73da474b-7013-4d51-8ef8-25c42c3fc686"},"effectiveDateTime":"2026-01-31T08:00:00.000+00:00","valueInteger":1},"request":{"method":"PUT","url":"Observation/4e5c7154-3e13-47b6-8178-4004b3d17f1c"}},{"fullUrl":"https://madie.cms.gov/Observation/30adb7b8-82e2-4383-bb06-89769d532a3a","resource":{"resourceType":"Observation","id":"30adb7b8-82e2-4383-bb06-89769d532a3a","meta":{"profile":["http://hl7.org/fhir/us/qicore/StructureDefinition/qicore-observation"]},"status":"final","category":[{"coding":[{"system":"http://terminology.hl7.org/CodeSystem/observation-category","code":"exam","display":"exam","userSelected":true}]}],"code":{"coding":[{"system":"http://loinc.org","code":"11996-6"}]},"subject":{"reference":"Patient/73da474b-7013-4d51-8ef8-25c42c3fc686"},"effectiveDateTime":"2026-11-09T08:00:00.000+00:00","valueInteger":1},"request":{"method":"PUT","url":"Observation/30adb7b8-82e2-4383-bb06-89769d532a3a"}},{"fullUrl":"https://madie.cms.gov/Observation/b7508eb5-3fc6-4bc2-82d3-a98d8941c42e","resource":{"resourceType":"Observation","id":"b7508eb5-3fc6-4bc2-82d3-a98d8941c42e","meta":{"profile":["http://hl7.org/fhir/us/qicore/StructureDefinition/qicore-observation"]},"status":"final","category":[{"coding":[{"system":"http://terminology.hl7.org/CodeSystem/observation-category","code":"exam","display":"exam","userSelected":true}]}],"code":{"coding":[{"system":"http://loinc.org","code":"11884-4"}]},"subject":{"reference":"Patient/73da474b-7013-4d51-8ef8-25c42c3fc686"},"effectiveDateTime":"2026-02-01T09:15:00.000+00:00","valueQuantity":{"value":38,"system":"http://unitsofmeasure.org","code":"wk"}},"request":{"method":"PUT","url":"Observation/b7508eb5-3fc6-4bc2-82d3-a98d8941c42e"}},{"fullUrl":"https://madie.cms.gov/Observation/37512c2a-d1ca-429c-8b69-a9630cf32389","resource":{"resourceType":"Observation","id":"37512c2a-d1ca-429c-8b69-a9630cf32389","meta":{"profile":["http://hl7.org/fhir/us/qicore/StructureDefinition/qicore-observation"]},"status":"final","category":[{"coding":[{"system":"http://terminology.hl7.org/CodeSystem/observation-category","code":"exam","display":"exam","userSelected":true}]}],"code":{"coding":[{"system":"http://loinc.org","code":"11884-4"}]},"subject":{"reference":"Patient/73da474b-7013-4d51-8ef8-25c42c3fc686"},"effectiveDateTime":"2026-11-10T08:00:00.000+00:00","valueQuantity":{"value":38,"system":"http://unitsofmeasure.org","code":"wk"}},"request":{"method":"PUT","url":"Observation/37512c2a-d1ca-429c-8b69-a9630cf32389"}},{"fullUrl":"https://madie.cms.gov/Observation/f2b100f1-3825-4b95-b7e0-41e446eecaad","resource":{"resourceType":"Observation","id":"f2b100f1-3825-4b95-b7e0-41e446eecaad","meta":{"profile":["http://hl7.org/fhir/us/qicore/StructureDefinition/qicore-observation"]},"status":"final","category":[{"coding":[{"system":"http://terminology.hl7.org/CodeSystem/observation-category","code":"exam","display":"exam","userSelected":true}]}],"code":{"coding":[{"system":"http://loinc.org","code":"93857-1"}]},"subject":{"reference":"Patient/73da474b-7013-4d51-8ef8-25c42c3fc686"},"effectiveDateTime":"2026-02-01T19:00:00.000+00:00","valueDateTime":"2026-02-01T19:00:00+00:00"},"request":{"method":"PUT","url":"Observation/f2b100f1-3825-4b95-b7e0-41e446eecaad"}},{"fullUrl":"https://madie.cms.gov/Observation/dbbe5157-1ffa-4387-8d64-007d5e0d518d","resource":{"resourceType":"Observation","id":"dbbe5157-1ffa-4387-8d64-007d5e0d518d","meta":{"profile":["http://hl7.org/fhir/us/qicore/StructureDefinition/qicore-observation"]},"status":"final","category":[{"coding":[{"system":"http://terminology.hl7.org/CodeSystem/observation-category","code":"exam","display":"exam","userSelected":true}]}],"code":{"coding":[{"system":"http://loinc.org","code":"93857-1"}]},"subject":{"reference":"Patient/73da474b-7013-4d51-8ef8-25c42c3fc686"},"effectiveDateTime":"2026-11-10T08:00:00.000+00:00","valueDateTime":"2026-11-10T08:00:00+00:00"},"request":{"method":"PUT","url":"Observation/dbbe5157-1ffa-4387-8d64-007d5e0d518d"}},{"fullUrl":"https://madie.cms.gov/Encounter/24eb7009-643d-4188-9726-93f271abdec0","resource":{"resourceType":"Encounter","id":"24eb7009-643d-4188-9726-93f271abdec0","meta":{"profile":["http://hl7.org/fhir/us/qicore/StructureDefinition/qicore-encounter"]},"status":"finished","class":{"system":"http://terminology.hl7.org/CodeSystem/v3-ActCode","code":"IMP","display":"inpatient encounter"},"type":[{"coding":[{"system":"http://snomed.info/sct","code":"8715000"}]}],"subject":{"reference":"Patient/73da474b-7013-4d51-8ef8-25c42c3fc686"},"period":{"start":"2026-02-01T08:00:00.000Z","end":"2026-02-05T08:15:00.000Z"},"length":{"value":4,"unit":"days"},"diagnosis":[{"condition":{"reference":"Condition/70a90845-dd39-4e93-8573-98362a571550"},"use":{"coding":[{"system":"http://snomed.info/sct","code":"169826009","display":"Delivery of Singleton"}]}}]},"request":{"method":"PUT","url":"Encounter/24eb7009-643d-4188-9726-93f271abdec0"}},{"fullUrl":"https://madie.cms.gov/Encounter/95a36818-9097-4093-9c02-1c30e1c7ee8d","resource":{"resourceType":"Encounter","id":"95a36818-9097-4093-9c02-1c30e1c7ee8d","meta":{"profile":["http://hl7.org/fhir/us/qicore/StructureDefinition/qicore-encounter"]},"status":"finished","class":{"system":"http://terminology.hl7.org/CodeSystem/v3-ActCode","code":"IMP","display":"inpatient encounter"},"type":[{"coding":[{"system":"http://snomed.info/sct","code":"8715000"}]}],"subject":{"reference":"Patient/73da474b-7013-4d51-8ef8-25c42c3fc686"},"period":{"start":"2026-11-10T08:00:00.000Z","end":"2026-11-15T08:15:00.000Z"},"length":{"value":4,"unit":"days"},"diagnosis":[{"condition":{"reference":"Condition/e559799e-f8cc-4bc6-80c4-9457eba6294d"},"use":{"coding":[{"system":"http://snomed.info/sct","code":"169826009","display":"Delivery of Singleton"}]}}]},"request":{"method":"PUT","url":"Encounter/95a36818-9097-4093-9c02-1c30e1c7ee8d"}},{"fullUrl":"https://madie.cms.gov/Procedure/d8f07d55-2d91-4d86-b064-e52f625fc8dd","resource":{"resourceType":"Procedure","id":"d8f07d55-2d91-4d86-b064-e52f625fc8dd","meta":{"profile":["http://hl7.org/fhir/us/qicore/StructureDefinition/qicore-procedure"]},"extension":[{"url":"http://hl7.org/fhir/us/qicore/StructureDefinition/qicore-recorded","valueDateTime":"2014-04-05T09:35:00-04:00"}],"status":"completed","code":{"coding":[{"system":"http://www.cms.gov/Medicare/Coding/ICD10","code":"10D00Z0"},{"system":"http://snomed.info/sct","code":"4504004"}]},"subject":{"reference":"Patient/73da474b-7013-4d51-8ef8-25c42c3fc686"},"performedPeriod":{"start":"2026-02-01T08:00:00.000Z","end":"2026-02-01T08:00:00.000Z"}},"request":{"method":"PUT","url":"Procedure/d8f07d55-2d91-4d86-b064-e52f625fc8dd"}},{"fullUrl":"https://madie.cms.gov/Procedure/fcdcb836-5945-4ace-b0a6-1783650162a8","resource":{"resourceType":"Procedure","id":"fcdcb836-5945-4ace-b0a6-1783650162a8","meta":{"profile":["http://hl7.org/fhir/us/qicore/StructureDefinition/qicore-procedure"]},"extension":[{"url":"http://hl7.org/fhir/us/qicore/StructureDefinition/qicore-recorded","valueDateTime":"2014-04-05T09:35:00-04:00"}],"status":"completed","code":{"coding":[{"system":"http://www.cms.gov/Medicare/Coding/ICD10","code":"10D00Z0"},{"system":"http://snomed.info/sct","code":"4504004"}]},"subject":{"reference":"Patient/73da474b-7013-4d51-8ef8-25c42c3fc686"},"performedPeriod":{"start":"2026-11-10T08:00:00.000Z","end":"2026-11-15T08:15:00.000Z"}},"request":{"method":"PUT","url":"Procedure/fcdcb836-5945-4ace-b0a6-1783650162a8"}},{"fullUrl":"https://madie.cms.gov/Condition/70a90845-dd39-4e93-8573-98362a571550","resource":{"resourceType":"Condition","id":"70a90845-dd39-4e93-8573-98362a571550","meta":{"profile":["http://hl7.org/fhir/us/qicore/StructureDefinition/qicore-condition"]},"category":[{"coding":[{"system":"http://terminology.hl7.org/CodeSystem/condition-category","code":"encounter-diagnosis","display":"Encounter Diagnosis"}]}],"code":{"coding":[{"system":"http://snomed.info/sct","version":"2022-09","code":"169826009","display":"Single live birth (finding)","userSelected":true}]},"subject":{"reference":"Patient/73da474b-7013-4d51-8ef8-25c42c3fc686"},"recordedDate":"2026-10-21T08:00:00.000+00:00"},"request":{"method":"PUT","url":"Condition/70a90845-dd39-4e93-8573-98362a571550"}},{"fullUrl":"https://madie.cms.gov/Condition/e559799e-f8cc-4bc6-80c4-9457eba6294d","resource":{"resourceType":"Condition","id":"e559799e-f8cc-4bc6-80c4-9457eba6294d","meta":{"profile":["http://hl7.org/fhir/us/qicore/StructureDefinition/qicore-condition"]},"category":[{"coding":[{"system":"http://terminology.hl7.org/CodeSystem/condition-category","code":"encounter-diagnosis","display":"Encounter Diagnosis"}]}],"code":{"coding":[{"system":"http://snomed.info/sct","version":"2022-09","code":"169826009","display":"Single live birth (finding)","userSelected":true}]},"subject":{"reference":"Patient/73da474b-7013-4d51-8ef8-25c42c3fc686"},"recordedDate":"2026-10-21T08:00:00.000+00:00"},"request":{"method":"PUT","url":"Condition/e559799e-f8cc-4bc6-80c4-9457eba6294d"}},{"fullUrl":"https://madie.cms.gov/Coverage/f818994d-c6d9-4a07-a91c-c6b431942b6e","resource":{"resourceType":"Coverage","id":"f818994d-c6d9-4a07-a91c-c6b431942b6e","meta":{"profile":["http://hl7.org/fhir/us/qicore/StructureDefinition/qicore-coverage"]},"status":"active","beneficiary":{"reference":"Patient/73da474b-7013-4d51-8ef8-25c42c3fc686"},"payor":[{"reference":"Organization/e75793c9-fdf6-463a-8c1d-4ee44320dc25"}]},"request":{"method":"PUT","url":"Coverage/f818994d-c6d9-4a07-a91c-c6b431942b6e"}},{"fullUrl":"https://madie.cms.gov/Organization/a748da8f-6a4f-4a9e-88be-581e5ea9c34c","resource":{"resourceType":"Organization","id":"e75793c9-fdf6-463a-8c1d-4ee44320dc25","meta":{"profile":["http://hl7.org/fhir/us/qicore/StructureDefinition/qicore-organization"]},"identifier":[{"use":"temp","system":"urn:oid:2.16.840.1.113883.4.4","value":"21-3259825"}],"active":true,"type":[{"coding":[{"system":"http://terminology.hl7.org/CodeSystem/organization-type","code":"pay","display":"Payer"}]}],"name":"Blue Cross Blue Shield of Texas","telecom":[{"system":"phone","value":"(+1) 972-766-6900"}],"address":[{"use":"billing","type":"postal","line":["P.O. Box 660044"],"city":"Dallas","state":"TX","postalCode":"75266-0044","country":"USA"}]},"request":{"method":"PUT","url":"Organization/e75793c9-fdf6-463a-8c1d-4ee44320dc25"}},{"fullUrl":"https://madie.cms.gov/Condition/a5a09d7a-63db-4b60-9746-ee8b952b4e6e","resource":{"resourceType":"Condition","id":"a5a09d7a-63db-4b60-9746-ee8b952b4e6e","meta":{"profile":["http://hl7.org/fhir/us/qicore/StructureDefinition/qicore-condition"]},"category":[{"coding":[{"system":"http://terminology.hl7.org/CodeSystem/condition-category","code":"encounter-diagnosis","display":"Encounter Diagnosis"}]}],"code":{"coding":[{"system":"http://snomed.info/sct","code":"169826009","display":"Single live birth (finding)"}]},"subject":{"reference":"Patient/73da474b-7013-4d51-8ef8-25c42c3fc686"}},"request":{"method":"PUT","url":"Condition/a5a09d7a-63db-4b60-9746-ee8b952b4e6e"}},{"fullUrl":"https://madie.cms.gov/Condition/f877453c-cc4c-44e8-88d1-822e50f59505","resource":{"resourceType":"Condition","id":"f877453c-cc4c-44e8-88d1-822e50f59505","meta":{"profile":["http://hl7.org/fhir/us/qicore/StructureDefinition/qicore-condition"]},"category":[{"coding":[{"system":"http://terminology.hl7.org/CodeSystem/condition-category","code":"encounter-diagnosis","display":"Encounter Diagnosis"}]}],"code":{"coding":[{"system":"http://snomed.info/sct","code":"169826009","display":"Single live birth (finding)"}]},"subject":{"reference":"Patient/73da474b-7013-4d51-8ef8-25c42c3fc686"}},"request":{"method":"PUT","url":"Condition/f877453c-cc4c-44e8-88d1-822e50f59505"}},{"fullUrl":"https://madie.cms.gov/Practitioner/00720bc2-537a-4abe-a250-1ce1eb1dcab0","resource":{"resourceType":"Practitioner","id":"00720bc2-537a-4abe-a250-1ce1eb1dcab0","identifier":[{"system":"http://hl7.org/fhir/sid/us-npi","value":"123456"}],"name":[{"family":"Evil","prefix":["Dr"]}]},"request":{"method":"PUT","url":"Practitioner/00720bc2-537a-4abe-a250-1ce1eb1dcab0"}},{"fullUrl":"https://madie.cms.gov/MeasureReport/9945d545-fe3e-4f69-b376-1d7d2e6dedde","resource":{"resourceType":"MeasureReport","id":"9945d545-fe3e-4f69-b376-1d7d2e6dedde","meta":{"profile":["http://hl7.org/fhir/us/cqfmeasures/StructureDefinition/test-case-cqfm"]},"contained":[{"resourceType":"Parameters","id":"66153248-3df3-43ee-a93e-19f7f22de07d-parameters","parameter":[{"name":"subject","valueString":"73da474b-7013-4d51-8ef8-25c42c3fc686"}]}],"extension":[{"url":"http://hl7.org/fhir/us/cqfmeasures/StructureDefinition/cqfm-inputParameters","valueReference":{"reference":"#66153248-3df3-43ee-a93e-19f7f22de07d-parameters"}},{"url":"http://hl7.org/fhir/us/cqfmeasures/StructureDefinition/cqfm-testCaseDescription","valueMarkdown":"Pregnancy 1 delivery documented 2/1/2012, Gravida 1\nPregnancy 2  delivery documented 11/10/2012, Gravida 1 (note, unrealistic for pregnancy 2 to be Gravida 1 (again) but goal was to test if denominator would pass twice)"}],"modifierExtension":[{"url":"http://hl7.org/fhir/us/cqfmeasures/StructureDefinition/cqfm-isTestCase","valueBoolean":true}],"status":"complete","type":"individual","measure":"https://madie.cms.gov/Measure/CMS334FHIRPCCesareanBirth","period":{"start":"2026-01-01","end":"2026-12-31"},"group":[{"population":[{"code":{"coding":[{"system":"http://terminology.hl7.org/CodeSystem/measure-population","code":"initial-population","display":"Initial Population"}]},"count":2},{"code":{"coding":[{"system":"http://terminology.hl7.org/CodeSystem/measure-population","code":"denominator","display":"Denominator"}]},"count":2},{"code":{"coding":[{"system":"http://terminology.hl7.org/CodeSystem/measure-population","code":"denominator-exclusion","display":"Denominator Exclusion"}]},"count":0},{"code":{"coding":[{"system":"http://terminology.hl7.org/CodeSystem/measure-population","code":"numerator","display":"Numerator"}]},"count":2}]}]},"request":{"method":"PUT","url":"MeasureReport/9945d545-fe3e-4f69-b376-1d7d2e6dedde"}}]}