{"resourceType":"Bundle","id":"tests-b2cb7909-8a02-46ad-8bc9-4154902fee43-bundle","type":"transaction","entry":[{"fullUrl":"https://madie.cms.gov/Patient/b2cb7909-8a02-46ad-8bc9-4154902fee43","resource":{"resourceType":"Patient","id":"b2cb7909-8a02-46ad-8bc9-4154902fee43","meta":{"profile":["http://hl7.org/fhir/us/qicore/StructureDefinition/qicore-patient"]},"text":{"status":"generated","div":"<div xmlns=\"http://www.w3.org/1999/xhtml\"><div class=\"hapiHeaderText\">AssessPLastResultIsNull <b>DENPASS </b></div><table class=\"hapiPropertyTable\"><tbody><tr><td>Identifier</td><td>cb4a87fae0aeb4667064306e289209af09ca2376f26fb181f5d5ea03cba5dc53</td></tr><tr><td>Date of birth</td><td><span>14 February 1985</span></td></tr></tbody></table></div>"},"extension":[{"url":"http://hl7.org/fhir/us/core/StructureDefinition/us-core-race","extension":[{"url":"ombCategory","valueCoding":{"system":"urn:oid:2.16.840.1.113883.6.238","code":"1002-5","display":"American Indian or Alaska Native","userSelected":true}},{"url":"text","valueString":"American Indian or Alaska Native"}]},{"url":"http://hl7.org/fhir/us/core/StructureDefinition/us-core-ethnicity","extension":[{"url":"ombCategory","valueCoding":{"system":"urn:oid:2.16.840.1.113883.6.238","code":"2135-2","display":"Hispanic or Latino","userSelected":true}},{"url":"text","valueString":"Hispanic or Latino"}]}],"identifier":[{"type":{"coding":[{"system":"http://terminology.hl7.org/CodeSystem/v2-0203","code":"MR"}]},"system":"https://bonnie-fhir.healthit.gov/","value":"63487c300968f801225401c6"}],"active":true,"name":[{"use":"usual","family":"DENPass","given":["AssessPLastResultIsNull"]}],"gender":"female","birthDate":"1998-02-14"},"request":{"method":"PUT","url":"Patient/b2cb7909-8a02-46ad-8bc9-4154902fee43"}},{"fullUrl":"https://madie.cms.gov/Observation/2ec1cdd0-22da-48af-8c20-0000b51e78a3","resource":{"resourceType":"Observation","id":"2ec1cdd0-22da-48af-8c20-0000b51e78a3","meta":{"profile":["http://hl7.org/fhir/us/qicore/StructureDefinition/qicore-observation"]},"status":"final","category":[{"coding":[{"system":"http://terminology.hl7.org/CodeSystem/observation-category","code":"exam","display":"exam","userSelected":true}]}],"code":{"coding":[{"system":"http://loinc.org","code":"11977-6"}]},"subject":{"reference":"Patient/b2cb7909-8a02-46ad-8bc9-4154902fee43"},"effectiveDateTime":"2026-06-08T18:00:00.000+00:00","valueInteger":0},"request":{"method":"PUT","url":"Observation/2ec1cdd0-22da-48af-8c20-0000b51e78a3"}},{"fullUrl":"https://madie.cms.gov/Observation/d73bd7df-9997-40a1-9f1a-c2b9b3e99d70","resource":{"resourceType":"Observation","id":"d73bd7df-9997-40a1-9f1a-c2b9b3e99d70","meta":{"profile":["http://hl7.org/fhir/us/qicore/StructureDefinition/qicore-observation"]},"status":"final","category":[{"coding":[{"system":"http://terminology.hl7.org/CodeSystem/observation-category","code":"exam","display":"exam","userSelected":true}]}],"code":{"coding":[{"system":"http://loinc.org","code":"11884-4"}]},"subject":{"reference":"Patient/b2cb7909-8a02-46ad-8bc9-4154902fee43"},"effectiveDateTime":"2026-06-08T20:00:00.000+00:00","valueQuantity":{"value":37,"system":"http://unitsofmeasure.org","code":"wk"}},"request":{"method":"PUT","url":"Observation/d73bd7df-9997-40a1-9f1a-c2b9b3e99d70"}},{"fullUrl":"https://madie.cms.gov/Observation/d8ce33d8-6209-43e4-a519-06c5c0000e51","resource":{"resourceType":"Observation","id":"d8ce33d8-6209-43e4-a519-06c5c0000e51","meta":{"profile":["http://hl7.org/fhir/us/qicore/StructureDefinition/qicore-observation"]},"status":"final","category":[{"coding":[{"system":"http://terminology.hl7.org/CodeSystem/observation-category","code":"exam","display":"exam","userSelected":true}]}],"code":{"coding":[{"system":"http://loinc.org","code":"93857-1"}]},"subject":{"reference":"Patient/b2cb7909-8a02-46ad-8bc9-4154902fee43"},"effectiveDateTime":"2026-06-08T20:00:00.000+00:00","valueDateTime":"2026-06-08T20:00:00+00:00"},"request":{"method":"PUT","url":"Observation/d8ce33d8-6209-43e4-a519-06c5c0000e51"}},{"fullUrl":"https://madie.cms.gov/Observation/08834236-116f-4b6f-98af-828d5744ea9c","resource":{"resourceType":"Observation","id":"08834236-116f-4b6f-98af-828d5744ea9c","meta":{"profile":["http://hl7.org/fhir/us/qicore/StructureDefinition/qicore-observation"]},"status":"final","category":[{"coding":[{"system":"http://terminology.hl7.org/CodeSystem/observation-category","code":"exam","display":"exam","userSelected":true}]}],"code":{"coding":[{"system":"http://loinc.org","code":"11977-6"}]},"subject":{"reference":"Patient/b2cb7909-8a02-46ad-8bc9-4154902fee43"},"effectiveDateTime":"2026-06-08T19:59:00.000+00:00"},"request":{"method":"PUT","url":"Observation/08834236-116f-4b6f-98af-828d5744ea9c"}},{"fullUrl":"https://madie.cms.gov/Observation/d1c57a6d-1c47-4981-b0f7-8aa0528a820f","resource":{"resourceType":"Observation","id":"d1c57a6d-1c47-4981-b0f7-8aa0528a820f","meta":{"profile":["http://hl7.org/fhir/us/qicore/StructureDefinition/qicore-observation"]},"status":"final","category":[{"coding":[{"system":"http://terminology.hl7.org/CodeSystem/observation-category","code":"exam","display":"exam","userSelected":true}]}],"code":{"coding":[{"system":"http://loinc.org","code":"11977-6"}]},"subject":{"reference":"Patient/b2cb7909-8a02-46ad-8bc9-4154902fee43"},"effectivePeriod":{"start":"2026-05-11T08:00:00.000Z","end":"2026-05-11T08:15:00.000Z"},"issued":"2026-05-11T08:00:00.000+00:00"},"request":{"method":"PUT","url":"Observation/d1c57a6d-1c47-4981-b0f7-8aa0528a820f"}},{"fullUrl":"https://madie.cms.gov/Encounter/027ab86e-47c8-4878-836e-5d53e19cf1a7","resource":{"resourceType":"Encounter","id":"027ab86e-47c8-4878-836e-5d53e19cf1a7","meta":{"profile":["http://hl7.org/fhir/us/qicore/StructureDefinition/qicore-encounter"]},"status":"finished","class":{"system":"http://terminology.hl7.org/CodeSystem/v3-ActCode","code":"IMP","display":"inpatient encounter"},"type":[{"coding":[{"system":"http://snomed.info/sct","code":"8715000"}]}],"subject":{"reference":"Patient/b2cb7909-8a02-46ad-8bc9-4154902fee43"},"period":{"start":"2026-06-08T08:00:00.000Z","end":"2026-06-10T08:15:00.000Z"},"length":{"value":2,"unit":"days"},"diagnosis":[{"condition":{"reference":"Condition/delivery-of-singleton-f83c"},"use":{"coding":[{"system":"http://snomed.info/sct","code":"169826009","display":"Delivery of Singleton"}]}},{"condition":{"reference":"Condition/339540c3-5b9f-487d-ba1d-f9217d86a579"}}]},"request":{"method":"PUT","url":"Encounter/027ab86e-47c8-4878-836e-5d53e19cf1a7"}},{"fullUrl":"https://madie.cms.gov/Coverage/d3dd2697-1891-4e20-9e84-a99c93b0343c","resource":{"resourceType":"Coverage","id":"d3dd2697-1891-4e20-9e84-a99c93b0343c","status":"active","beneficiary":{"reference":"Patient/b2cb7909-8a02-46ad-8bc9-4154902fee43"},"period":{"start":"1986-02-14T08:00:00.000Z"},"payor":[{"reference":"Organization/3e899f33-84eb-4634-a770-a5a0bd7a80e7"}]},"request":{"method":"PUT","url":"Coverage/d3dd2697-1891-4e20-9e84-a99c93b0343c"}},{"fullUrl":"https://madie.cms.gov/Procedure/758380f2-2f37-46b5-b225-e39b10ae43e3","resource":{"resourceType":"Procedure","id":"758380f2-2f37-46b5-b225-e39b10ae43e3","meta":{"profile":["http://hl7.org/fhir/us/qicore/StructureDefinition/qicore-procedure"]},"extension":[{"url":"http://hl7.org/fhir/us/qicore/StructureDefinition/qicore-recorded","valueDateTime":"2014-04-05T09:35:00-04:00"}],"status":"completed","code":{"coding":[{"system":"http://www.cms.gov/Medicare/Coding/ICD10","code":"10D00Z0"},{"system":"http://snomed.info/sct","code":"4504004"},{"system":"http://www.icd10data.com/icd10pcs","code":"10D00Z1","userSelected":true}]},"subject":{"reference":"Patient/b2cb7909-8a02-46ad-8bc9-4154902fee43"},"performedPeriod":{"start":"2026-06-08T20:00:00.000Z","end":"2026-06-08T20:15:00.000Z"}},"request":{"method":"PUT","url":"Procedure/758380f2-2f37-46b5-b225-e39b10ae43e3"}},{"fullUrl":"https://madie.cms.gov/Condition/339540c3-5b9f-487d-ba1d-f9217d86a579","resource":{"resourceType":"Condition","id":"339540c3-5b9f-487d-ba1d-f9217d86a579","meta":{"profile":["http://hl7.org/fhir/us/qicore/StructureDefinition/qicore-condition"]},"category":[{"coding":[{"system":"http://terminology.hl7.org/CodeSystem/condition-category","code":"encounter-diagnosis","display":"Encounter Diagnosis"}]}],"code":{"coding":[{"system":"http://snomed.info/sct","version":"2022-09","code":"169826009","display":"Single live birth (finding)","userSelected":true}]},"subject":{"reference":"Patient/b2cb7909-8a02-46ad-8bc9-4154902fee43"},"recordedDate":"2026-10-19T08:00:00.000+00:00"},"request":{"method":"PUT","url":"Condition/339540c3-5b9f-487d-ba1d-f9217d86a579"}},{"fullUrl":"https://madie.cms.gov/Organization/98dca744-b4bb-441a-9961-82e98c71b4fa","resource":{"resourceType":"Organization","id":"3e899f33-84eb-4634-a770-a5a0bd7a80e7","meta":{"profile":["http://hl7.org/fhir/us/qicore/StructureDefinition/qicore-organization"]},"identifier":[{"use":"temp","system":"urn:oid:2.16.840.1.113883.4.4","value":"21-3259825"}],"active":true,"type":[{"coding":[{"system":"http://terminology.hl7.org/CodeSystem/organization-type","code":"pay","display":"Payer"}]}],"name":"Blue Cross Blue Shield of Texas","telecom":[{"system":"phone","value":"(+1) 972-766-6900"}],"address":[{"use":"billing","type":"postal","line":["P.O. Box 660044"],"city":"Dallas","state":"TX","postalCode":"75266-0044","country":"USA"}]},"request":{"method":"PUT","url":"Organization/3e899f33-84eb-4634-a770-a5a0bd7a80e7"}},{"fullUrl":"https://madie.cms.gov/Practitioner/e5abf403-c1f3-4aaf-9e8f-543626a778c7","resource":{"resourceType":"Practitioner","id":"e5abf403-c1f3-4aaf-9e8f-543626a778c7","identifier":[{"system":"http://hl7.org/fhir/sid/us-npi","value":"123456"}],"name":[{"family":"Evil","prefix":["Dr"]}]},"request":{"method":"PUT","url":"Practitioner/e5abf403-c1f3-4aaf-9e8f-543626a778c7"}},{"fullUrl":"https://madie.cms.gov/MeasureReport/76674fae-2e63-4689-971a-44d2319d3c77","resource":{"resourceType":"MeasureReport","id":"76674fae-2e63-4689-971a-44d2319d3c77","meta":{"profile":["http://hl7.org/fhir/us/cqfmeasures/StructureDefinition/test-case-cqfm"]},"contained":[{"resourceType":"Parameters","id":"66dcedb4-0ff7-4ed0-9a5f-f77239aaaece-parameters","parameter":[{"name":"subject","valueString":"b2cb7909-8a02-46ad-8bc9-4154902fee43"}]}],"extension":[{"url":"http://hl7.org/fhir/us/cqfmeasures/StructureDefinition/cqfm-inputParameters","valueReference":{"reference":"#66dcedb4-0ff7-4ed0-9a5f-f77239aaaece-parameters"}},{"url":"http://hl7.org/fhir/us/cqfmeasures/StructureDefinition/cqfm-testCaseDescription","valueMarkdown":"Parity Last Result is Null but first is zero, relevant date/time same date but time less than delivery date/time\n"}],"modifierExtension":[{"url":"http://hl7.org/fhir/us/cqfmeasures/StructureDefinition/cqfm-isTestCase","valueBoolean":true}],"status":"complete","type":"individual","measure":"https://madie.cms.gov/Measure/CMS334FHIRPCCesareanBirth","period":{"start":"2026-01-01","end":"2026-12-31"},"group":[{"population":[{"code":{"coding":[{"system":"http://terminology.hl7.org/CodeSystem/measure-population","code":"initial-population","display":"Initial Population"}]},"count":1},{"code":{"coding":[{"system":"http://terminology.hl7.org/CodeSystem/measure-population","code":"denominator","display":"Denominator"}]},"count":1},{"code":{"coding":[{"system":"http://terminology.hl7.org/CodeSystem/measure-population","code":"denominator-exclusion","display":"Denominator Exclusion"}]},"count":0},{"code":{"coding":[{"system":"http://terminology.hl7.org/CodeSystem/measure-population","code":"numerator","display":"Numerator"}]},"count":1}]}]},"request":{"method":"PUT","url":"MeasureReport/76674fae-2e63-4689-971a-44d2319d3c77"}}]}