{"resourceType":"Bundle","id":"tests-67037280-6411-4f2c-a9d9-6d89da600887-bundle","type":"transaction","entry":[{"fullUrl":"https://madie.cms.gov/Patient/67037280-6411-4f2c-a9d9-6d89da600887","resource":{"resourceType":"Patient","id":"67037280-6411-4f2c-a9d9-6d89da600887","meta":{"profile":["http://hl7.org/fhir/us/qicore/StructureDefinition/qicore-patient"]},"text":{"status":"generated","div":"<div xmlns=\"http://www.w3.org/1999/xhtml\"><div class=\"hapiHeaderText\">AssessG0Pnull <b>DENFAIL </b></div><table class=\"hapiPropertyTable\"><tbody><tr><td>Identifier</td><td>b8dbe157da4a58e4e68c2785ca3a1f558369f025fbb700c089d37aa7791ee57b</td></tr><tr><td>Date of birth</td><td><span>14 February 1985</span></td></tr></tbody></table></div>"},"extension":[{"url":"http://hl7.org/fhir/us/core/StructureDefinition/us-core-race","extension":[{"url":"ombCategory","valueCoding":{"system":"urn:oid:2.16.840.1.113883.6.238","code":"1002-5","display":"American Indian or Alaska Native","userSelected":true}},{"url":"text","valueString":"American Indian or Alaska Native"}]},{"url":"http://hl7.org/fhir/us/core/StructureDefinition/us-core-ethnicity","extension":[{"url":"ombCategory","valueCoding":{"system":"urn:oid:2.16.840.1.113883.6.238","code":"2135-2","display":"Hispanic or Latino","userSelected":true}},{"url":"text","valueString":"Hispanic or Latino"}]}],"identifier":[{"type":{"coding":[{"system":"http://terminology.hl7.org/CodeSystem/v2-0203","code":"MR"}]},"system":"https://bonnie-fhir.healthit.gov/","value":"63487c2e0968f80122540176"}],"active":true,"name":[{"use":"usual","family":"DENFail","given":["AssessG0Pnull"]}],"gender":"female","birthDate":"1986-02-14"},"request":{"method":"PUT","url":"Patient/67037280-6411-4f2c-a9d9-6d89da600887"}},{"fullUrl":"https://madie.cms.gov/Observation/bb3b0bd9-2415-4075-ab58-e394152d02ee","resource":{"resourceType":"Observation","id":"bb3b0bd9-2415-4075-ab58-e394152d02ee","meta":{"profile":["http://hl7.org/fhir/us/qicore/StructureDefinition/qicore-observation"]},"status":"final","category":[{"coding":[{"system":"http://terminology.hl7.org/CodeSystem/observation-category","code":"exam","display":"exam","userSelected":true}]}],"code":{"coding":[{"system":"http://loinc.org","code":"11977-6"}]},"subject":{"reference":"Patient/67037280-6411-4f2c-a9d9-6d89da600887"},"effectiveDateTime":"2026-03-08T09:00:00.000+00:00"},"request":{"method":"PUT","url":"Observation/bb3b0bd9-2415-4075-ab58-e394152d02ee"}},{"fullUrl":"https://madie.cms.gov/Observation/07c92d31-0e98-47fd-845c-b309f1ab3bfe","resource":{"resourceType":"Observation","id":"07c92d31-0e98-47fd-845c-b309f1ab3bfe","meta":{"profile":["http://hl7.org/fhir/us/qicore/StructureDefinition/qicore-observation"]},"status":"final","category":[{"coding":[{"system":"http://terminology.hl7.org/CodeSystem/observation-category","code":"exam","display":"exam","userSelected":true}]}],"code":{"coding":[{"system":"http://loinc.org","code":"11996-6"}]},"subject":{"reference":"Patient/67037280-6411-4f2c-a9d9-6d89da600887"},"effectiveDateTime":"2026-03-09T08:00:00.000+00:00","valueInteger":0},"request":{"method":"PUT","url":"Observation/07c92d31-0e98-47fd-845c-b309f1ab3bfe"}},{"fullUrl":"https://madie.cms.gov/Observation/549d0223-f362-44b9-bb85-a60df6697724","resource":{"resourceType":"Observation","id":"549d0223-f362-44b9-bb85-a60df6697724","meta":{"profile":["http://hl7.org/fhir/us/qicore/StructureDefinition/qicore-observation"]},"status":"final","category":[{"coding":[{"system":"http://terminology.hl7.org/CodeSystem/observation-category","code":"exam","display":"exam","userSelected":true}]}],"code":{"coding":[{"system":"http://loinc.org","code":"11884-4"}]},"subject":{"reference":"Patient/67037280-6411-4f2c-a9d9-6d89da600887"},"effectiveDateTime":"2026-06-08T20:00:00.000+00:00","valueQuantity":{"value":37,"system":"http://unitsofmeasure.org","code":"wk"}},"request":{"method":"PUT","url":"Observation/549d0223-f362-44b9-bb85-a60df6697724"}},{"fullUrl":"https://madie.cms.gov/Observation/540578dc-bc7d-4b79-a787-78f634c1f93c","resource":{"resourceType":"Observation","id":"540578dc-bc7d-4b79-a787-78f634c1f93c","meta":{"profile":["http://hl7.org/fhir/us/qicore/StructureDefinition/qicore-observation"]},"status":"final","category":[{"coding":[{"system":"http://terminology.hl7.org/CodeSystem/observation-category","code":"exam","display":"exam","userSelected":true}]}],"code":{"coding":[{"system":"http://loinc.org","code":"93857-1"}]},"subject":{"reference":"Patient/67037280-6411-4f2c-a9d9-6d89da600887"},"effectiveDateTime":"2026-06-08T20:00:00.000+00:00","valueDateTime":"2026-06-08T20:00:00+00:00"},"request":{"method":"PUT","url":"Observation/540578dc-bc7d-4b79-a787-78f634c1f93c"}},{"fullUrl":"https://madie.cms.gov/Encounter/d89cc7ae-d8e2-494f-afee-41ad054b6a4f","resource":{"resourceType":"Encounter","id":"d89cc7ae-d8e2-494f-afee-41ad054b6a4f","meta":{"profile":["http://hl7.org/fhir/us/qicore/StructureDefinition/qicore-encounter"]},"status":"finished","class":{"system":"http://terminology.hl7.org/CodeSystem/v3-ActCode","code":"IMP","display":"inpatient encounter"},"type":[{"coding":[{"system":"http://snomed.info/sct","code":"8715000"}]}],"subject":{"reference":"Patient/67037280-6411-4f2c-a9d9-6d89da600887"},"period":{"start":"2026-06-08T08:00:00.000Z","end":"2026-06-10T08:15:00.000Z"},"length":{"value":2,"unit":"days"},"diagnosis":[{"condition":{"reference":"Condition/delivery-of-singleton-f83c"},"use":{"coding":[{"system":"http://snomed.info/sct","code":"169826009","display":"Delivery of Singleton"}]}}]},"request":{"method":"PUT","url":"Encounter/d89cc7ae-d8e2-494f-afee-41ad054b6a4f"}},{"fullUrl":"https://madie.cms.gov/Procedure/021ec659-2dc1-4c53-9131-96d56d43509d","resource":{"resourceType":"Procedure","id":"021ec659-2dc1-4c53-9131-96d56d43509d","meta":{"profile":["http://hl7.org/fhir/us/qicore/StructureDefinition/qicore-procedure"]},"extension":[{"url":"http://hl7.org/fhir/us/qicore/StructureDefinition/qicore-recorded","valueDateTime":"2014-04-05T09:35:00-04:00"}],"status":"completed","code":{"coding":[{"system":"http://www.cms.gov/Medicare/Coding/ICD10","code":"10D00Z0"},{"system":"http://snomed.info/sct","code":"4504004"}]},"subject":{"reference":"Patient/67037280-6411-4f2c-a9d9-6d89da600887"},"performedPeriod":{"start":"2026-06-08T20:00:00.000Z","end":"2026-06-08T20:15:00.000Z"}},"request":{"method":"PUT","url":"Procedure/021ec659-2dc1-4c53-9131-96d56d43509d"}},{"fullUrl":"https://madie.cms.gov/Condition/8dc59162-9147-4dda-9d60-92c802315974","resource":{"resourceType":"Condition","id":"8dc59162-9147-4dda-9d60-92c802315974","meta":{"profile":["http://hl7.org/fhir/us/qicore/StructureDefinition/qicore-condition"]},"category":[{"coding":[{"system":"http://terminology.hl7.org/CodeSystem/condition-category","code":"encounter-diagnosis","display":"Encounter Diagnosis"}]}],"code":{"coding":[{"system":"http://snomed.info/sct","version":"2022-09","code":"169826009","display":"Single live birth (finding)","userSelected":true}]},"subject":{"reference":"Patient/67037280-6411-4f2c-a9d9-6d89da600887"},"recordedDate":"2026-10-21T08:00:00.000+00:00"},"request":{"method":"PUT","url":"Condition/8dc59162-9147-4dda-9d60-92c802315974"}},{"fullUrl":"https://madie.cms.gov/Coverage/e290f04e-e497-4605-a1f8-8881ff735bae","resource":{"resourceType":"Coverage","id":"e290f04e-e497-4605-a1f8-8881ff735bae","meta":{"profile":["http://hl7.org/fhir/us/qicore/StructureDefinition/qicore-coverage"]},"status":"active","beneficiary":{"reference":"Patient/67037280-6411-4f2c-a9d9-6d89da600887"},"payor":[{"reference":"Organization/890316dc-a4ad-43b4-ba6f-9fb9e6eca282"}]},"request":{"method":"PUT","url":"Coverage/e290f04e-e497-4605-a1f8-8881ff735bae"}},{"fullUrl":"https://madie.cms.gov/Organization/6670e303-4af7-41ac-8731-035f0fca7ba3","resource":{"resourceType":"Organization","id":"890316dc-a4ad-43b4-ba6f-9fb9e6eca282","meta":{"profile":["http://hl7.org/fhir/us/qicore/StructureDefinition/qicore-organization"]},"identifier":[{"use":"temp","system":"urn:oid:2.16.840.1.113883.4.4","value":"21-3259825"}],"active":true,"type":[{"coding":[{"system":"http://terminology.hl7.org/CodeSystem/organization-type","code":"pay","display":"Payer"}]}],"name":"Blue Cross Blue Shield of Texas","telecom":[{"system":"phone","value":"(+1) 972-766-6900"}],"address":[{"use":"billing","type":"postal","line":["P.O. Box 660044"],"city":"Dallas","state":"TX","postalCode":"75266-0044","country":"USA"}]},"request":{"method":"PUT","url":"Organization/890316dc-a4ad-43b4-ba6f-9fb9e6eca282"}},{"fullUrl":"https://madie.cms.gov/Condition/b83c7813-43ad-48c9-b6ec-caa0540b6c43","resource":{"resourceType":"Condition","id":"b83c7813-43ad-48c9-b6ec-caa0540b6c43","meta":{"profile":["http://hl7.org/fhir/us/qicore/StructureDefinition/qicore-condition"]},"category":[{"coding":[{"system":"http://terminology.hl7.org/CodeSystem/condition-category","code":"encounter-diagnosis","display":"Encounter Diagnosis"}]}],"code":{"coding":[{"system":"http://snomed.info/sct","code":"169826009","display":"Single live birth (finding)"}]},"subject":{"reference":"Patient/67037280-6411-4f2c-a9d9-6d89da600887"}},"request":{"method":"PUT","url":"Condition/b83c7813-43ad-48c9-b6ec-caa0540b6c43"}},{"fullUrl":"https://madie.cms.gov/Practitioner/606f3d62-b727-4e1c-9886-d2d2984da261","resource":{"resourceType":"Practitioner","id":"606f3d62-b727-4e1c-9886-d2d2984da261","identifier":[{"system":"http://hl7.org/fhir/sid/us-npi","value":"123456"}],"name":[{"family":"Evil","prefix":["Dr"]}]},"request":{"method":"PUT","url":"Practitioner/606f3d62-b727-4e1c-9886-d2d2984da261"}},{"fullUrl":"https://madie.cms.gov/MeasureReport/5c8d1535-24b6-4b2e-b475-175be464a6bc","resource":{"resourceType":"MeasureReport","id":"5c8d1535-24b6-4b2e-b475-175be464a6bc","meta":{"profile":["http://hl7.org/fhir/us/cqfmeasures/StructureDefinition/test-case-cqfm"]},"contained":[{"resourceType":"Parameters","id":"3c08263e-5d9b-4ef4-8a03-e0295e54be17-parameters","parameter":[{"name":"subject","valueString":"67037280-6411-4f2c-a9d9-6d89da600887"}]}],"extension":[{"url":"http://hl7.org/fhir/us/cqfmeasures/StructureDefinition/cqfm-inputParameters","valueReference":{"reference":"#3c08263e-5d9b-4ef4-8a03-e0295e54be17-parameters"}},{"url":"http://hl7.org/fhir/us/cqfmeasures/StructureDefinition/cqfm-testCaseDescription","valueMarkdown":"Passes IP,   Gravida 0 and Parity has no result \n"}],"modifierExtension":[{"url":"http://hl7.org/fhir/us/cqfmeasures/StructureDefinition/cqfm-isTestCase","valueBoolean":true}],"status":"complete","type":"individual","measure":"https://madie.cms.gov/Measure/CMS334FHIRPCCesareanBirth","period":{"start":"2026-01-01","end":"2026-12-31"},"group":[{"population":[{"code":{"coding":[{"system":"http://terminology.hl7.org/CodeSystem/measure-population","code":"initial-population","display":"Initial Population"}]},"count":1},{"code":{"coding":[{"system":"http://terminology.hl7.org/CodeSystem/measure-population","code":"denominator","display":"Denominator"}]},"count":0},{"code":{"coding":[{"system":"http://terminology.hl7.org/CodeSystem/measure-population","code":"denominator-exclusion","display":"Denominator Exclusion"}]},"count":0},{"code":{"coding":[{"system":"http://terminology.hl7.org/CodeSystem/measure-population","code":"numerator","display":"Numerator"}]},"count":0}]}]},"request":{"method":"PUT","url":"MeasureReport/5c8d1535-24b6-4b2e-b475-175be464a6bc"}}]}