{"resourceType":"Bundle","id":"tests-64bbffd3-e7b5-4cfb-8e7d-6705b46ce964-bundle","type":"transaction","entry":[{"fullUrl":"https://madie.cms.gov/Patient/64bbffd3-e7b5-4cfb-8e7d-6705b46ce964","resource":{"resourceType":"Patient","id":"64bbffd3-e7b5-4cfb-8e7d-6705b46ce964","meta":{"profile":["http://hl7.org/fhir/us/qicore/StructureDefinition/qicore-patient"]},"text":{"status":"generated","div":"<div xmlns=\"http://www.w3.org/1999/xhtml\"><div class=\"hapiHeaderText\">2EncW/in42weeksEGAeq38OnFirstEGAeq36OnSecond <b>DENFAIL </b></div><table class=\"hapiPropertyTable\"><tbody><tr><td>Identifier</td><td>d49eff12b5ae0570e385f43288917b0fcc7f54d4422938b9cf7918aaeb400005</td></tr><tr><td>Date of birth</td><td><span>14 February 1985</span></td></tr></tbody></table></div>"},"extension":[{"url":"http://hl7.org/fhir/us/core/StructureDefinition/us-core-race","extension":[{"url":"ombCategory","valueCoding":{"system":"urn:oid:2.16.840.1.113883.6.238","code":"1002-5","display":"American Indian or Alaska Native","userSelected":true}},{"url":"text","valueString":"American Indian or Alaska Native"}]},{"url":"http://hl7.org/fhir/us/core/StructureDefinition/us-core-ethnicity","extension":[{"url":"ombCategory","valueCoding":{"system":"urn:oid:2.16.840.1.113883.6.238","code":"2135-2","display":"Hispanic or Latino","userSelected":true}},{"url":"text","valueString":"Hispanic or Latino"}]}],"identifier":[{"type":{"coding":[{"system":"http://terminology.hl7.org/CodeSystem/v2-0203","code":"MR"}]},"system":"https://bonnie-fhir.healthit.gov/","value":"63487c2f0968f80122540199"}],"active":true,"name":[{"use":"usual","family":"DENPass","given":["2EncWin42weeksEGAeq38onBothEncounters"]}],"gender":"female","birthDate":"1998-02-14"},"request":{"method":"PUT","url":"Patient/64bbffd3-e7b5-4cfb-8e7d-6705b46ce964"}},{"fullUrl":"https://madie.cms.gov/Observation/e77e9865-0fab-4af7-81ff-fa7d90cdc653","resource":{"resourceType":"Observation","id":"e77e9865-0fab-4af7-81ff-fa7d90cdc653","meta":{"profile":["http://hl7.org/fhir/us/qicore/StructureDefinition/qicore-observation"]},"status":"final","category":[{"coding":[{"system":"http://terminology.hl7.org/CodeSystem/observation-category","code":"exam","display":"exam","userSelected":true}]}],"code":{"coding":[{"system":"http://loinc.org","code":"11884-4"}]},"subject":{"reference":"Patient/64bbffd3-e7b5-4cfb-8e7d-6705b46ce964"},"effectiveDateTime":"2026-02-01T09:15:00.000+00:00","valueQuantity":{"value":38.0,"system":"http://unitsofmeasure.org","code":"wk"}},"request":{"method":"PUT","url":"Observation/e77e9865-0fab-4af7-81ff-fa7d90cdc653"}},{"fullUrl":"https://madie.cms.gov/Observation/1d74613a-1717-4440-bf9e-11b4f2969022","resource":{"resourceType":"Observation","id":"1d74613a-1717-4440-bf9e-11b4f2969022","meta":{"profile":["http://hl7.org/fhir/us/qicore/StructureDefinition/qicore-observation"]},"status":"final","category":[{"coding":[{"system":"http://terminology.hl7.org/CodeSystem/observation-category","code":"exam","display":"exam","userSelected":true}]}],"code":{"coding":[{"system":"http://loinc.org","code":"11884-4"}]},"subject":{"reference":"Patient/64bbffd3-e7b5-4cfb-8e7d-6705b46ce964"},"effectiveDateTime":"2026-11-10T08:00:00.000+00:00","valueQuantity":{"value":38.0,"system":"http://unitsofmeasure.org","code":"wk"}},"request":{"method":"PUT","url":"Observation/1d74613a-1717-4440-bf9e-11b4f2969022"}},{"fullUrl":"https://madie.cms.gov/Observation/46f640fc-9452-4ac0-8939-ff14c79defaa","resource":{"resourceType":"Observation","id":"46f640fc-9452-4ac0-8939-ff14c79defaa","meta":{"profile":["http://hl7.org/fhir/us/qicore/StructureDefinition/qicore-observation"]},"status":"final","category":[{"coding":[{"system":"http://terminology.hl7.org/CodeSystem/observation-category","code":"exam","display":"exam","userSelected":true}]}],"code":{"coding":[{"system":"http://loinc.org","code":"93857-1"}]},"subject":{"reference":"Patient/64bbffd3-e7b5-4cfb-8e7d-6705b46ce964"},"effectiveDateTime":"2026-02-01T19:00:00.000+00:00","valueDateTime":"2026-02-01T19:00:00+00:00"},"request":{"method":"PUT","url":"Observation/46f640fc-9452-4ac0-8939-ff14c79defaa"}},{"fullUrl":"https://madie.cms.gov/Observation/00953d40-f2d2-471c-975b-b6f4762a3d12","resource":{"resourceType":"Observation","id":"00953d40-f2d2-471c-975b-b6f4762a3d12","meta":{"profile":["http://hl7.org/fhir/us/qicore/StructureDefinition/qicore-observation"]},"status":"final","category":[{"coding":[{"system":"http://terminology.hl7.org/CodeSystem/observation-category","code":"exam","display":"exam","userSelected":true}]}],"code":{"coding":[{"system":"http://loinc.org","code":"93857-1"}]},"subject":{"reference":"Patient/64bbffd3-e7b5-4cfb-8e7d-6705b46ce964"},"effectiveDateTime":"2026-11-10T08:00:00.000+00:00","valueDateTime":"2026-11-10T08:00:00+00:00"},"request":{"method":"PUT","url":"Observation/00953d40-f2d2-471c-975b-b6f4762a3d12"}},{"fullUrl":"https://madie.cms.gov/Observation/2ebefc6f-c628-416e-a42b-cc89f8df8996","resource":{"resourceType":"Observation","id":"2ebefc6f-c628-416e-a42b-cc89f8df8996","meta":{"profile":["http://hl7.org/fhir/us/qicore/StructureDefinition/qicore-observation"]},"status":"final","category":[{"coding":[{"system":"http://terminology.hl7.org/CodeSystem/observation-category","code":"exam","display":"exam","userSelected":true}]}],"code":{"coding":[{"system":"http://loinc.org","code":"11639-2"}]},"subject":{"reference":"Patient/64bbffd3-e7b5-4cfb-8e7d-6705b46ce964"},"effectiveDateTime":"2026-01-31T08:00:00.000+00:00","valueInteger":0},"request":{"method":"PUT","url":"Observation/2ebefc6f-c628-416e-a42b-cc89f8df8996"}},{"fullUrl":"https://madie.cms.gov/Observation/aaefedd2-6269-4cfa-b692-6b1d4961b492","resource":{"resourceType":"Observation","id":"aaefedd2-6269-4cfa-b692-6b1d4961b492","meta":{"profile":["http://hl7.org/fhir/us/qicore/StructureDefinition/qicore-observation"]},"status":"final","category":[{"coding":[{"system":"http://terminology.hl7.org/CodeSystem/observation-category","code":"exam","display":"exam","userSelected":true}]}],"code":{"coding":[{"system":"http://loinc.org","code":"11637-6"}]},"subject":{"reference":"Patient/64bbffd3-e7b5-4cfb-8e7d-6705b46ce964"},"effectiveDateTime":"2026-01-31T08:00:00.000+00:00","valueInteger":0},"request":{"method":"PUT","url":"Observation/aaefedd2-6269-4cfa-b692-6b1d4961b492"}},{"fullUrl":"https://madie.cms.gov/Observation/1ad75b2c-dfbb-4580-845e-886ff0734b80","resource":{"resourceType":"Observation","id":"1ad75b2c-dfbb-4580-845e-886ff0734b80","meta":{"profile":["http://hl7.org/fhir/us/qicore/StructureDefinition/qicore-observation"]},"status":"final","category":[{"coding":[{"system":"http://terminology.hl7.org/CodeSystem/observation-category","code":"exam","display":"exam","userSelected":true}]}],"code":{"coding":[{"system":"http://loinc.org","code":"11639-2"}]},"subject":{"reference":"Patient/64bbffd3-e7b5-4cfb-8e7d-6705b46ce964"},"effectiveDateTime":"2026-11-09T08:00:00.000+00:00","valueInteger":1},"request":{"method":"PUT","url":"Observation/1ad75b2c-dfbb-4580-845e-886ff0734b80"}},{"fullUrl":"https://madie.cms.gov/Observation/6c226a61-eb9b-4760-8679-96ef9eb51e7c","resource":{"resourceType":"Observation","id":"6c226a61-eb9b-4760-8679-96ef9eb51e7c","meta":{"profile":["http://hl7.org/fhir/us/qicore/StructureDefinition/qicore-observation"]},"status":"final","category":[{"coding":[{"system":"http://terminology.hl7.org/CodeSystem/observation-category","code":"exam","display":"exam","userSelected":true}]}],"code":{"coding":[{"system":"http://loinc.org","code":"11637-6"}]},"subject":{"reference":"Patient/64bbffd3-e7b5-4cfb-8e7d-6705b46ce964"},"effectiveDateTime":"2026-11-09T08:00:00.000+00:00","valueInteger":1},"request":{"method":"PUT","url":"Observation/6c226a61-eb9b-4760-8679-96ef9eb51e7c"}},{"fullUrl":"https://madie.cms.gov/Encounter/40d26503-88ec-4269-90b1-51885e09e6b6","resource":{"resourceType":"Encounter","id":"40d26503-88ec-4269-90b1-51885e09e6b6","meta":{"profile":["http://hl7.org/fhir/us/qicore/StructureDefinition/qicore-encounter"]},"status":"finished","class":{"system":"http://terminology.hl7.org/CodeSystem/v3-ActCode","code":"IMP","display":"inpatient encounter"},"type":[{"coding":[{"system":"http://snomed.info/sct","code":"183452005"}]}],"subject":{"reference":"Patient/64bbffd3-e7b5-4cfb-8e7d-6705b46ce964"},"period":{"start":"2026-02-01T08:00:00.000Z","end":"2026-02-05T08:15:00.000Z"},"length":{"value":4.0,"unit":"days"},"diagnosis":[{"condition":{"reference":"Condition/delivery-of-singleton-f83c"},"use":{"coding":[{"system":"http://snomed.info/sct","code":"169826009","display":"Delivery of Singleton"}]}},{"condition":{"reference":"Condition/27def069-f121-41d1-b362-1a3a18fa39a0"}}]},"request":{"method":"PUT","url":"Encounter/40d26503-88ec-4269-90b1-51885e09e6b6"}},{"fullUrl":"https://madie.cms.gov/Encounter/c50c3913-9400-4f99-82f3-d52dad2988ca","resource":{"resourceType":"Encounter","id":"c50c3913-9400-4f99-82f3-d52dad2988ca","meta":{"profile":["http://hl7.org/fhir/us/qicore/StructureDefinition/qicore-encounter"]},"status":"finished","class":{"system":"http://terminology.hl7.org/CodeSystem/v3-ActCode","code":"IMP","display":"inpatient encounter"},"type":[{"coding":[{"system":"http://snomed.info/sct","code":"183452005"}]}],"subject":{"reference":"Patient/64bbffd3-e7b5-4cfb-8e7d-6705b46ce964"},"period":{"start":"2026-11-10T08:00:00.000Z","end":"2026-11-15T08:15:00.000Z"},"length":{"value":5.0,"unit":"days"},"diagnosis":[{"condition":{"reference":"Condition/delivery-of-singleton-f83c"},"use":{"coding":[{"system":"http://snomed.info/sct","code":"169826009","display":"Delivery of Singleton"}]}}]},"request":{"method":"PUT","url":"Encounter/c50c3913-9400-4f99-82f3-d52dad2988ca"}},{"fullUrl":"https://madie.cms.gov/Coverage/f50e6cc7-34e0-45ee-ae40-2bed81a5b0e6","resource":{"resourceType":"Coverage","id":"f50e6cc7-34e0-45ee-ae40-2bed81a5b0e6","status":"active","beneficiary":{"reference":"Patient/64bbffd3-e7b5-4cfb-8e7d-6705b46ce964"},"period":{"start":"1986-02-14T08:00:00.000Z"},"payor":[{"reference":"Organization/f4907415-83c5-4eae-ab0b-cb63a840880d"}]},"request":{"method":"PUT","url":"Coverage/f50e6cc7-34e0-45ee-ae40-2bed81a5b0e6"}},{"fullUrl":"https://madie.cms.gov/Procedure/4f853261-effe-41c3-b391-fa7c614b4113","resource":{"resourceType":"Procedure","id":"4f853261-effe-41c3-b391-fa7c614b4113","meta":{"profile":["http://hl7.org/fhir/us/qicore/StructureDefinition/qicore-procedure"]},"extension":[{"url":"http://hl7.org/fhir/us/qicore/StructureDefinition/qicore-recorded","valueDateTime":"2014-04-05T09:35:00-04:00"}],"status":"completed","code":{"coding":[{"system":"http://snomed.info/sct","code":"10745001"},{"system":"http://www.cms.gov/Medicare/Coding/ICD10","code":"10D00Z0"},{"system":"http://www.icd10data.com/icd10pcs","code":"10D00Z0","userSelected":true}]},"subject":{"reference":"Patient/64bbffd3-e7b5-4cfb-8e7d-6705b46ce964"},"performedPeriod":{"start":"2026-02-01T08:00:00.000Z","end":"2026-02-05T08:15:00.000Z"}},"request":{"method":"PUT","url":"Procedure/4f853261-effe-41c3-b391-fa7c614b4113"}},{"fullUrl":"https://madie.cms.gov/Procedure/6d06e5b1-f3a9-4f88-a8df-146a2e491595","resource":{"resourceType":"Procedure","id":"6d06e5b1-f3a9-4f88-a8df-146a2e491595","meta":{"profile":["http://hl7.org/fhir/us/qicore/StructureDefinition/qicore-procedure"]},"extension":[{"url":"http://hl7.org/fhir/us/qicore/StructureDefinition/qicore-recorded","valueDateTime":"2014-04-05T09:35:00-04:00"}],"status":"completed","code":{"coding":[{"system":"http://snomed.info/sct","code":"10745001"},{"system":"http://www.cms.gov/Medicare/Coding/ICD10","code":"10D00Z0"},{"system":"http://www.icd10data.com/icd10pcs","code":"10D00Z0","userSelected":true}]},"subject":{"reference":"Patient/64bbffd3-e7b5-4cfb-8e7d-6705b46ce964"},"performedPeriod":{"start":"2026-11-10T08:00:00.000Z","end":"2026-11-15T08:15:00.000Z"}},"request":{"method":"PUT","url":"Procedure/6d06e5b1-f3a9-4f88-a8df-146a2e491595"}},{"fullUrl":"https://madie.cms.gov/Condition/27def069-f121-41d1-b362-1a3a18fa39a0","resource":{"resourceType":"Condition","id":"27def069-f121-41d1-b362-1a3a18fa39a0","meta":{"profile":["http://hl7.org/fhir/us/qicore/StructureDefinition/qicore-condition"]},"category":[{"coding":[{"system":"http://terminology.hl7.org/CodeSystem/condition-category","code":"encounter-diagnosis","display":"Encounter Diagnosis"}]}],"code":{"coding":[{"system":"http://snomed.info/sct","version":"2022-09","code":"169826009","display":"Single live birth (finding)","userSelected":true}]},"subject":{"reference":"Patient/64bbffd3-e7b5-4cfb-8e7d-6705b46ce964"},"recordedDate":"2026-10-21T08:00:00.000+00:00"},"request":{"method":"PUT","url":"Condition/27def069-f121-41d1-b362-1a3a18fa39a0"}},{"fullUrl":"https://madie.cms.gov/Organization/fe8e525d-ff72-4fbd-bb39-85aecb42a6b0","resource":{"resourceType":"Organization","id":"f4907415-83c5-4eae-ab0b-cb63a840880d","meta":{"profile":["http://hl7.org/fhir/us/qicore/StructureDefinition/qicore-organization"]},"identifier":[{"use":"temp","system":"urn:oid:2.16.840.1.113883.4.4","value":"21-3259825"}],"active":true,"type":[{"coding":[{"system":"http://terminology.hl7.org/CodeSystem/organization-type","code":"pay","display":"Payer"}]}],"name":"Blue Cross Blue Shield of Texas","telecom":[{"system":"phone","value":"(+1) 972-766-6900"}],"address":[{"use":"billing","type":"postal","line":["P.O. Box 660044"],"city":"Dallas","state":"TX","postalCode":"75266-0044","country":"USA"}]},"request":{"method":"PUT","url":"Organization/f4907415-83c5-4eae-ab0b-cb63a840880d"}},{"fullUrl":"https://madie.cms.gov/Practitioner/69346de5-a555-4f65-b7a1-c686ff229e04","resource":{"resourceType":"Practitioner","id":"69346de5-a555-4f65-b7a1-c686ff229e04","identifier":[{"system":"http://hl7.org/fhir/sid/us-npi","value":"123456"}],"name":[{"family":"Evil","prefix":["Dr"]}]},"request":{"method":"PUT","url":"Practitioner/69346de5-a555-4f65-b7a1-c686ff229e04"}},{"fullUrl":"https://madie.cms.gov/MeasureReport/493029cf-6985-4bf3-b61f-26f6b9308ee6","resource":{"resourceType":"MeasureReport","id":"493029cf-6985-4bf3-b61f-26f6b9308ee6","meta":{"profile":["http://hl7.org/fhir/us/cqfmeasures/StructureDefinition/test-case-cqfm"]},"contained":[{"resourceType":"Parameters","id":"505ecef1-c81a-4b71-8ca1-3e8bec022408-parameters","parameter":[{"name":"subject","valueString":"64bbffd3-e7b5-4cfb-8e7d-6705b46ce964"}]}],"extension":[{"url":"http://hl7.org/fhir/us/cqfmeasures/StructureDefinition/cqfm-inputParameters","valueReference":{"reference":"#505ecef1-c81a-4b71-8ca1-3e8bec022408-parameters"}},{"url":"http://hl7.org/fhir/us/cqfmeasures/StructureDefinition/cqfm-testCaseDescription","valueMarkdown":"\"Pregnancy 1 delivery documented 2/1/2012, Preterm & Term Births=0,EGA=38\nPregnancy 2  delivery documented 11/10/2012, Preterm & Term Births=1 & EGA=38.  Fails denom."}],"modifierExtension":[{"url":"http://hl7.org/fhir/us/cqfmeasures/StructureDefinition/cqfm-isTestCase","valueBoolean":true}],"status":"complete","type":"individual","measure":"https://madie.cms.gov/Measure/CMS334FHIRPCCesareanBirth","period":{"start":"2026-01-01","end":"2026-12-31"},"group":[{"population":[{"code":{"coding":[{"system":"http://terminology.hl7.org/CodeSystem/measure-population","code":"initial-population","display":"Initial Population"}]},"count":2},{"code":{"coding":[{"system":"http://terminology.hl7.org/CodeSystem/measure-population","code":"denominator","display":"Denominator"}]},"count":1},{"code":{"coding":[{"system":"http://terminology.hl7.org/CodeSystem/measure-population","code":"denominator-exclusion","display":"Denominator Exclusion"}]},"count":0},{"code":{"coding":[{"system":"http://terminology.hl7.org/CodeSystem/measure-population","code":"numerator","display":"Numerator"}]},"count":1}]}]},"request":{"method":"PUT","url":"MeasureReport/493029cf-6985-4bf3-b61f-26f6b9308ee6"}}]}