{"resourceType":"Bundle","id":"tests-6b4ea20a-91ef-4b43-baca-a6b783395a57-bundle","type":"transaction","entry":[{"fullUrl":"https://madie.cms.gov/Patient/6b4ea20a-91ef-4b43-baca-a6b783395a57","resource":{"resourceType":"Patient","id":"6b4ea20a-91ef-4b43-baca-a6b783395a57","meta":{"profile":["http://hl7.org/fhir/us/qicore/StructureDefinition/qicore-patient"]},"text":{"status":"generated","div":"<div xmlns=\"http://www.w3.org/1999/xhtml\"><div class=\"hapiHeaderText\">AssessTermMissingResult <b>DENFAIL </b></div><table class=\"hapiPropertyTable\"><tbody><tr><td>Identifier</td><td>e6e21c3fa4edfea41e3da1195d4a7d3d8dc72d010572e04bff4dafb21a72c78e</td></tr><tr><td>Date of birth</td><td><span>14 February 1985</span></td></tr></tbody></table></div>"},"extension":[{"url":"http://hl7.org/fhir/us/core/StructureDefinition/us-core-race","extension":[{"url":"ombCategory","valueCoding":{"system":"urn:oid:2.16.840.1.113883.6.238","code":"1002-5","display":"American Indian or Alaska Native","userSelected":true}},{"url":"text","valueString":"American Indian or Alaska Native"}]},{"url":"http://hl7.org/fhir/us/core/StructureDefinition/us-core-ethnicity","extension":[{"url":"ombCategory","valueCoding":{"system":"urn:oid:2.16.840.1.113883.6.238","code":"2135-2","display":"Hispanic or Latino","userSelected":true}},{"url":"text","valueString":"Hispanic or Latino"}]}],"identifier":[{"type":{"coding":[{"system":"http://terminology.hl7.org/CodeSystem/v2-0203","code":"MR"}]},"system":"https://bonnie-fhir.healthit.gov/","value":"63487c2d0968f8012254015c"}],"active":true,"name":[{"use":"usual","family":"DENFail","given":["AssessTermMissingResult"]}],"gender":"female","birthDate":"1998-02-14"},"request":{"method":"PUT","url":"Patient/6b4ea20a-91ef-4b43-baca-a6b783395a57"}},{"fullUrl":"https://madie.cms.gov/Observation/c9f62191-742e-4697-9fa7-efca0ef19453","resource":{"resourceType":"Observation","id":"c9f62191-742e-4697-9fa7-efca0ef19453","meta":{"profile":["http://hl7.org/fhir/us/qicore/StructureDefinition/qicore-observation"]},"status":"final","category":[{"coding":[{"system":"http://terminology.hl7.org/CodeSystem/observation-category","code":"exam","display":"exam","userSelected":true}]}],"code":{"coding":[{"system":"http://loinc.org","code":"11637-6"}]},"subject":{"reference":"Patient/6b4ea20a-91ef-4b43-baca-a6b783395a57"},"effectiveDateTime":"2025-09-19T09:00:00.000+00:00","valueInteger":0},"request":{"method":"PUT","url":"Observation/c9f62191-742e-4697-9fa7-efca0ef19453"}},{"fullUrl":"https://madie.cms.gov/Observation/96407bd3-5b29-4053-b6fb-ae5e3cf17f27","resource":{"resourceType":"Observation","id":"96407bd3-5b29-4053-b6fb-ae5e3cf17f27","meta":{"profile":["http://hl7.org/fhir/us/qicore/StructureDefinition/qicore-observation"]},"status":"final","category":[{"coding":[{"system":"http://terminology.hl7.org/CodeSystem/observation-category","code":"exam","display":"exam","userSelected":true}]}],"code":{"coding":[{"system":"http://loinc.org","code":"11639-2"}]},"subject":{"reference":"Patient/6b4ea20a-91ef-4b43-baca-a6b783395a57"},"effectiveDateTime":"2025-09-19T09:00:00.000+00:00"},"request":{"method":"PUT","url":"Observation/96407bd3-5b29-4053-b6fb-ae5e3cf17f27"}},{"fullUrl":"https://madie.cms.gov/Observation/88e07812-7c2b-45b6-89bb-9982dba5049e","resource":{"resourceType":"Observation","id":"88e07812-7c2b-45b6-89bb-9982dba5049e","meta":{"profile":["http://hl7.org/fhir/us/qicore/StructureDefinition/qicore-observation"]},"status":"final","category":[{"coding":[{"system":"http://terminology.hl7.org/CodeSystem/observation-category","code":"exam","display":"exam","userSelected":true}]}],"code":{"coding":[{"system":"http://loinc.org","code":"11884-4"}]},"subject":{"reference":"Patient/6b4ea20a-91ef-4b43-baca-a6b783395a57"},"effectiveDateTime":"2026-06-08T20:00:00.000+00:00","valueQuantity":{"value":37,"system":"http://unitsofmeasure.org","code":"wk"}},"request":{"method":"PUT","url":"Observation/88e07812-7c2b-45b6-89bb-9982dba5049e"}},{"fullUrl":"https://madie.cms.gov/Observation/b77f2509-6879-42bf-99d1-840f9f307374","resource":{"resourceType":"Observation","id":"b77f2509-6879-42bf-99d1-840f9f307374","meta":{"profile":["http://hl7.org/fhir/us/qicore/StructureDefinition/qicore-observation"]},"status":"final","category":[{"coding":[{"system":"http://terminology.hl7.org/CodeSystem/observation-category","code":"exam","display":"exam","userSelected":true}]}],"code":{"coding":[{"system":"http://loinc.org","code":"93857-1"}]},"subject":{"reference":"Patient/6b4ea20a-91ef-4b43-baca-a6b783395a57"},"effectiveDateTime":"2026-06-08T20:00:00.000+00:00","valueDateTime":"2026-06-08T20:00:00+00:00"},"request":{"method":"PUT","url":"Observation/b77f2509-6879-42bf-99d1-840f9f307374"}},{"fullUrl":"https://madie.cms.gov/Encounter/5832daea-a398-4d53-b02d-84147eac40d2","resource":{"resourceType":"Encounter","id":"5832daea-a398-4d53-b02d-84147eac40d2","meta":{"profile":["http://hl7.org/fhir/us/qicore/StructureDefinition/qicore-encounter"]},"status":"finished","class":{"system":"http://terminology.hl7.org/CodeSystem/v3-ActCode","code":"IMP","display":"inpatient encounter"},"type":[{"coding":[{"system":"http://snomed.info/sct","code":"8715000"}]}],"subject":{"reference":"Patient/6b4ea20a-91ef-4b43-baca-a6b783395a57"},"period":{"start":"2026-06-08T08:00:00.000Z","end":"2026-06-10T08:15:00.000Z"},"length":{"value":2,"unit":"days"},"diagnosis":[{"condition":{"reference":"Condition/delivery-of-singleton-f83c"},"use":{"coding":[{"system":"http://snomed.info/sct","code":"169826009","display":"Delivery of Singleton"}]}},{"condition":{"reference":"Condition/a1549f1a-105e-4cd1-b292-9ef6243c986a"}}]},"request":{"method":"PUT","url":"Encounter/5832daea-a398-4d53-b02d-84147eac40d2"}},{"fullUrl":"https://madie.cms.gov/Procedure/5729bf38-f818-443b-a00e-752a741b0af0","resource":{"resourceType":"Procedure","id":"5729bf38-f818-443b-a00e-752a741b0af0","meta":{"profile":["http://hl7.org/fhir/us/qicore/StructureDefinition/qicore-procedure"]},"extension":[{"url":"http://hl7.org/fhir/us/qicore/StructureDefinition/qicore-recorded","valueDateTime":"2014-04-05T09:35:00-04:00"}],"status":"completed","code":{"coding":[{"system":"http://www.cms.gov/Medicare/Coding/ICD10","code":"10D00Z0"},{"system":"http://snomed.info/sct","code":"4504004"},{"system":"http://www.icd10data.com/icd10pcs","code":"10D00Z0","userSelected":true}]},"subject":{"reference":"Patient/6b4ea20a-91ef-4b43-baca-a6b783395a57"},"performedPeriod":{"start":"2026-06-08T20:00:00.000Z","end":"2026-06-08T20:15:00.000Z"}},"request":{"method":"PUT","url":"Procedure/5729bf38-f818-443b-a00e-752a741b0af0"}},{"fullUrl":"https://madie.cms.gov/Condition/a1549f1a-105e-4cd1-b292-9ef6243c986a","resource":{"resourceType":"Condition","id":"a1549f1a-105e-4cd1-b292-9ef6243c986a","meta":{"profile":["http://hl7.org/fhir/us/qicore/StructureDefinition/qicore-condition"]},"category":[{"coding":[{"system":"http://terminology.hl7.org/CodeSystem/condition-category","code":"encounter-diagnosis","display":"Encounter Diagnosis"}]}],"code":{"coding":[{"system":"http://snomed.info/sct","version":"2022-09","code":"169826009","display":"Single live birth (finding)","userSelected":true}]},"subject":{"reference":"Patient/6b4ea20a-91ef-4b43-baca-a6b783395a57"},"recordedDate":"2026-10-21T08:00:00.000+00:00"},"request":{"method":"PUT","url":"Condition/a1549f1a-105e-4cd1-b292-9ef6243c986a"}},{"fullUrl":"https://madie.cms.gov/Coverage/72f1724a-0f00-4b5a-8593-a9dde19a7d4f","resource":{"resourceType":"Coverage","id":"72f1724a-0f00-4b5a-8593-a9dde19a7d4f","meta":{"profile":["http://hl7.org/fhir/us/qicore/StructureDefinition/qicore-coverage"]},"status":"active","beneficiary":{"reference":"Patient/6b4ea20a-91ef-4b43-baca-a6b783395a57"},"payor":[{"reference":"Organization/5ad6ea38-07e9-4482-9e1b-c09eee595be9"}]},"request":{"method":"PUT","url":"Coverage/72f1724a-0f00-4b5a-8593-a9dde19a7d4f"}},{"fullUrl":"https://madie.cms.gov/Organization/4a0ab51f-96bb-4bf0-ad7e-4205fb1be2de","resource":{"resourceType":"Organization","id":"5ad6ea38-07e9-4482-9e1b-c09eee595be9","meta":{"profile":["http://hl7.org/fhir/us/qicore/StructureDefinition/qicore-organization"]},"identifier":[{"use":"temp","system":"urn:oid:2.16.840.1.113883.4.4","value":"21-3259825"}],"active":true,"type":[{"coding":[{"system":"http://terminology.hl7.org/CodeSystem/organization-type","code":"pay","display":"Payer"}]}],"name":"Blue Cross Blue Shield of Texas","telecom":[{"system":"phone","value":"(+1) 972-766-6900"}],"address":[{"use":"billing","type":"postal","line":["P.O. Box 660044"],"city":"Dallas","state":"TX","postalCode":"75266-0044","country":"USA"}]},"request":{"method":"PUT","url":"Organization/5ad6ea38-07e9-4482-9e1b-c09eee595be9"}},{"fullUrl":"https://madie.cms.gov/Practitioner/18726a8e-2baa-44ac-9bff-64f0f33b20e1","resource":{"resourceType":"Practitioner","id":"18726a8e-2baa-44ac-9bff-64f0f33b20e1","identifier":[{"system":"http://hl7.org/fhir/sid/us-npi","value":"123456"}],"name":[{"family":"Evil","prefix":["Dr"]}]},"request":{"method":"PUT","url":"Practitioner/18726a8e-2baa-44ac-9bff-64f0f33b20e1"}},{"fullUrl":"https://madie.cms.gov/MeasureReport/0ae4917f-22af-41c3-9b55-47286202b801","resource":{"resourceType":"MeasureReport","id":"0ae4917f-22af-41c3-9b55-47286202b801","meta":{"profile":["http://hl7.org/fhir/us/cqfmeasures/StructureDefinition/test-case-cqfm"]},"contained":[{"resourceType":"Parameters","id":"11a739fd-5715-46de-977f-55c92cba2f93-parameters","parameter":[{"name":"subject","valueString":"6b4ea20a-91ef-4b43-baca-a6b783395a57"}]}],"extension":[{"url":"http://hl7.org/fhir/us/cqfmeasures/StructureDefinition/cqfm-inputParameters","valueReference":{"reference":"#11a739fd-5715-46de-977f-55c92cba2f93-parameters"}},{"url":"http://hl7.org/fhir/us/cqfmeasures/StructureDefinition/cqfm-testCaseDescription","valueMarkdown":"\"Preterm Births=0, Rel Date/time < 42weeks prior to delivery\nTerm Newborn missing result, Rel Date/time < 42weeks prior to delivery\"\n"}],"modifierExtension":[{"url":"http://hl7.org/fhir/us/cqfmeasures/StructureDefinition/cqfm-isTestCase","valueBoolean":true}],"status":"complete","type":"individual","measure":"https://madie.cms.gov/Measure/CMS334FHIRPCCesareanBirth","period":{"start":"2026-01-01","end":"2026-12-31"},"group":[{"population":[{"code":{"coding":[{"system":"http://terminology.hl7.org/CodeSystem/measure-population","code":"initial-population","display":"Initial Population"}]},"count":1},{"code":{"coding":[{"system":"http://terminology.hl7.org/CodeSystem/measure-population","code":"denominator","display":"Denominator"}]},"count":0},{"code":{"coding":[{"system":"http://terminology.hl7.org/CodeSystem/measure-population","code":"denominator-exclusion","display":"Denominator Exclusion"}]},"count":0},{"code":{"coding":[{"system":"http://terminology.hl7.org/CodeSystem/measure-population","code":"numerator","display":"Numerator"}]},"count":0}]}]},"request":{"method":"PUT","url":"MeasureReport/0ae4917f-22af-41c3-9b55-47286202b801"}}]}