{"resourceType":"Bundle","id":"tests-6ebc8a74-faad-47a1-ba93-14dec2677ef2-bundle","type":"transaction","entry":[{"fullUrl":"https://madie.cms.gov/Patient/6ebc8a74-faad-47a1-ba93-14dec2677ef2","resource":{"resourceType":"Patient","id":"6ebc8a74-faad-47a1-ba93-14dec2677ef2","meta":{"profile":["http://hl7.org/fhir/us/qicore/StructureDefinition/qicore-patient"]},"text":{"status":"generated","div":"<div xmlns=\"http://www.w3.org/1999/xhtml\"><div class=\"hapiHeaderText\">HerpesDx<b>DENEXPASS </b></div><table class=\"hapiPropertyTable\"><tbody><tr><td>Identifier</td><td>26ae2095ae359d33c45002ef417f38a5e4f6a61da3ea75d0332f68a4cb93137e</td></tr><tr><td>Date of birth</td><td><span>14 February 1985</span></td></tr></tbody></table></div>"},"extension":[{"url":"http://hl7.org/fhir/us/core/StructureDefinition/us-core-race","extension":[{"url":"ombCategory","valueCoding":{"system":"urn:oid:2.16.840.1.113883.6.238","code":"1002-5","display":"American Indian or Alaska Native","userSelected":true}},{"url":"text","valueString":"American Indian or Alaska Native"}]},{"url":"http://hl7.org/fhir/us/core/StructureDefinition/us-core-ethnicity","extension":[{"url":"ombCategory","valueCoding":{"system":"urn:oid:2.16.840.1.113883.6.238","code":"2135-2","display":"Hispanic or Latino","userSelected":true}},{"url":"text","valueString":"Hispanic or Latino"}]}],"identifier":[{"type":{"coding":[{"system":"http://terminology.hl7.org/CodeSystem/v2-0203","code":"MR"}]},"system":"https://bonnie-fhir.healthit.gov/","value":"63487c2e0968f8012254018b"}],"active":true,"name":[{"use":"usual","family":"DENEXPass","given":["HerpesDx"]}],"gender":"female","birthDate":"1998-02-14"},"request":{"method":"PUT","url":"Patient/6ebc8a74-faad-47a1-ba93-14dec2677ef2"}},{"fullUrl":"https://madie.cms.gov/Observation/e49c45f0-2172-4c67-956f-79bb3bd2879c","resource":{"resourceType":"Observation","id":"e49c45f0-2172-4c67-956f-79bb3bd2879c","meta":{"profile":["http://hl7.org/fhir/us/qicore/StructureDefinition/qicore-observation"]},"status":"final","category":[{"coding":[{"system":"http://terminology.hl7.org/CodeSystem/observation-category","code":"exam","display":"exam","userSelected":true}]}],"code":{"coding":[{"system":"http://loinc.org","code":"11996-6"}]},"subject":{"reference":"Patient/6ebc8a74-faad-47a1-ba93-14dec2677ef2"},"effectiveDateTime":"2026-06-08T08:00:00.000+00:00","valueInteger":1},"request":{"method":"PUT","url":"Observation/e49c45f0-2172-4c67-956f-79bb3bd2879c"}},{"fullUrl":"https://madie.cms.gov/Observation/cae8e24c-e521-446b-a3ea-ae42585c406d","resource":{"resourceType":"Observation","id":"cae8e24c-e521-446b-a3ea-ae42585c406d","meta":{"profile":["http://hl7.org/fhir/us/qicore/StructureDefinition/qicore-observation"]},"status":"final","category":[{"coding":[{"system":"http://terminology.hl7.org/CodeSystem/observation-category","code":"exam","display":"exam","userSelected":true}]}],"code":{"coding":[{"system":"http://loinc.org","code":"11884-4"}]},"subject":{"reference":"Patient/6ebc8a74-faad-47a1-ba93-14dec2677ef2"},"effectiveDateTime":"2026-06-08T08:00:00.000+00:00","valueQuantity":{"value":43,"system":"http://unitsofmeasure.org","code":"wk"}},"request":{"method":"PUT","url":"Observation/cae8e24c-e521-446b-a3ea-ae42585c406d"}},{"fullUrl":"https://madie.cms.gov/Observation/ae4adb60-39d3-4a93-8a30-58a4a25c5654","resource":{"resourceType":"Observation","id":"ae4adb60-39d3-4a93-8a30-58a4a25c5654","meta":{"profile":["http://hl7.org/fhir/us/qicore/StructureDefinition/qicore-observation"]},"status":"final","category":[{"coding":[{"system":"http://terminology.hl7.org/CodeSystem/observation-category","code":"exam","display":"exam","userSelected":true}]}],"code":{"coding":[{"system":"http://loinc.org","code":"93857-1"}]},"subject":{"reference":"Patient/6ebc8a74-faad-47a1-ba93-14dec2677ef2"},"effectiveDateTime":"2026-06-08T20:00:00.000+00:00","valueDateTime":"2026-06-08T20:00:00+00:00"},"request":{"method":"PUT","url":"Observation/ae4adb60-39d3-4a93-8a30-58a4a25c5654"}},{"fullUrl":"https://madie.cms.gov/Encounter/1ff8eed1-6030-440c-9b56-b1157710310d","resource":{"resourceType":"Encounter","id":"1ff8eed1-6030-440c-9b56-b1157710310d","meta":{"profile":["http://hl7.org/fhir/us/qicore/StructureDefinition/qicore-encounter"]},"status":"finished","class":{"system":"http://terminology.hl7.org/CodeSystem/v3-ActCode","code":"IMP","display":"inpatient encounter"},"type":[{"coding":[{"system":"http://snomed.info/sct","code":"8715000"}]}],"subject":{"reference":"Patient/6ebc8a74-faad-47a1-ba93-14dec2677ef2"},"period":{"start":"2026-06-08T08:00:00.000Z","end":"2026-06-10T08:15:00.000Z"},"diagnosis":[{"condition":{"reference":"Condition/99143f5e-171d-4f59-ae6d-f1d192a0ef39"}},{"condition":{"reference":"Condition/904e54df-7d9e-465c-91d8-52caae1fda49"}}]},"request":{"method":"PUT","url":"Encounter/1ff8eed1-6030-440c-9b56-b1157710310d"}},{"fullUrl":"https://madie.cms.gov/Procedure/cf732ee5-8c9d-412c-8c2c-4f6488546553","resource":{"resourceType":"Procedure","id":"cf732ee5-8c9d-412c-8c2c-4f6488546553","meta":{"profile":["http://hl7.org/fhir/us/qicore/StructureDefinition/qicore-procedure"]},"extension":[{"url":"http://hl7.org/fhir/us/qicore/StructureDefinition/qicore-recorded","valueDateTime":"2014-04-05T09:35:00-04:00"}],"status":"completed","code":{"coding":[{"system":"http://snomed.info/sct","code":"4504004"}]},"subject":{"reference":"Patient/6ebc8a74-faad-47a1-ba93-14dec2677ef2"},"performedPeriod":{"start":"2026-06-08T20:00:00.000Z","end":"2026-06-18T20:00:00.000Z"}},"request":{"method":"PUT","url":"Procedure/cf732ee5-8c9d-412c-8c2c-4f6488546553"}},{"fullUrl":"https://madie.cms.gov/Condition/99143f5e-171d-4f59-ae6d-f1d192a0ef39","resource":{"resourceType":"Condition","id":"99143f5e-171d-4f59-ae6d-f1d192a0ef39","meta":{"profile":["http://hl7.org/fhir/us/qicore/StructureDefinition/qicore-condition"]},"category":[{"coding":[{"system":"http://terminology.hl7.org/CodeSystem/condition-category","code":"encounter-diagnosis","display":"Encounter Diagnosis"}]}],"code":{"coding":[{"system":"http://snomed.info/sct","version":"2022-09","code":"169826009","display":"Single live birth (finding)","userSelected":true}]},"subject":{"reference":"Patient/6ebc8a74-faad-47a1-ba93-14dec2677ef2"},"recordedDate":"2026-10-17T08:00:00.000+00:00"},"request":{"method":"PUT","url":"Condition/99143f5e-171d-4f59-ae6d-f1d192a0ef39"}},{"fullUrl":"https://madie.cms.gov/Condition/904e54df-7d9e-465c-91d8-52caae1fda49","resource":{"resourceType":"Condition","id":"904e54df-7d9e-465c-91d8-52caae1fda49","meta":{"profile":["http://hl7.org/fhir/us/qicore/StructureDefinition/qicore-condition"]},"category":[{"coding":[{"system":"http://terminology.hl7.org/CodeSystem/condition-category","code":"encounter-diagnosis","display":"Encounter Diagnosis"}]}],"code":{"coding":[{"system":"http://snomed.info/sct","version":"2022-09","code":"129670002","display":"Herpetic cervicitis","userSelected":true}]},"subject":{"reference":"Patient/6ebc8a74-faad-47a1-ba93-14dec2677ef2"},"recordedDate":"2026-10-17T08:00:00.000+00:00"},"request":{"method":"PUT","url":"Condition/904e54df-7d9e-465c-91d8-52caae1fda49"}},{"fullUrl":"https://madie.cms.gov/Coverage/63b9823c-7984-4874-8dd1-7d53692c591c","resource":{"resourceType":"Coverage","id":"63b9823c-7984-4874-8dd1-7d53692c591c","meta":{"profile":["http://hl7.org/fhir/us/qicore/StructureDefinition/qicore-coverage"]},"status":"active","beneficiary":{"reference":"Patient/6ebc8a74-faad-47a1-ba93-14dec2677ef2"},"payor":[{"reference":"Organization/db141f66-a1cc-407b-9e95-adac27adee14"}]},"request":{"method":"PUT","url":"Coverage/63b9823c-7984-4874-8dd1-7d53692c591c"}},{"fullUrl":"https://madie.cms.gov/Organization/b7f1b3d8-7025-47a4-9c65-028ebda13aae","resource":{"resourceType":"Organization","id":"db141f66-a1cc-407b-9e95-adac27adee14","meta":{"profile":["http://hl7.org/fhir/us/qicore/StructureDefinition/qicore-organization"]},"identifier":[{"use":"temp","system":"urn:oid:2.16.840.1.113883.4.4","value":"21-3259825"}],"active":true,"type":[{"coding":[{"system":"http://terminology.hl7.org/CodeSystem/organization-type","code":"pay","display":"Payer"}]}],"name":"Blue Cross Blue Shield of Texas","telecom":[{"system":"phone","value":"(+1) 972-766-6900"}],"address":[{"use":"billing","type":"postal","line":["P.O. Box 660044"],"city":"Dallas","state":"TX","postalCode":"75266-0044","country":"USA"}]},"request":{"method":"PUT","url":"Organization/db141f66-a1cc-407b-9e95-adac27adee14"}},{"fullUrl":"https://madie.cms.gov/Practitioner/f35a0aa2-eb42-4e73-ae6c-0d3a90e0c4b1","resource":{"resourceType":"Practitioner","id":"f35a0aa2-eb42-4e73-ae6c-0d3a90e0c4b1","identifier":[{"system":"http://hl7.org/fhir/sid/us-npi","value":"123456"}],"name":[{"family":"Evil","prefix":["Dr"]}]},"request":{"method":"PUT","url":"Practitioner/f35a0aa2-eb42-4e73-ae6c-0d3a90e0c4b1"}},{"fullUrl":"https://madie.cms.gov/MeasureReport/2f93250d-454c-4071-a35f-d9e96d37b05d","resource":{"resourceType":"MeasureReport","id":"2f93250d-454c-4071-a35f-d9e96d37b05d","meta":{"profile":["http://hl7.org/fhir/us/cqfmeasures/StructureDefinition/test-case-cqfm"]},"contained":[{"resourceType":"Parameters","id":"0ad7e278-9de4-4f87-b5bc-4ed039ea445f-parameters","parameter":[{"name":"subject","valueString":"6ebc8a74-faad-47a1-ba93-14dec2677ef2"}]}],"extension":[{"url":"http://hl7.org/fhir/us/cqfmeasures/StructureDefinition/cqfm-inputParameters","valueReference":{"reference":"#0ad7e278-9de4-4f87-b5bc-4ed039ea445f-parameters"}},{"url":"http://hl7.org/fhir/us/cqfmeasures/StructureDefinition/cqfm-testCaseDescription","valueMarkdown":"Patient has diagnosis of herpes"}],"modifierExtension":[{"url":"http://hl7.org/fhir/us/cqfmeasures/StructureDefinition/cqfm-isTestCase","valueBoolean":true}],"status":"complete","type":"individual","measure":"https://madie.cms.gov/Measure/CMS334FHIRPCCesareanBirth","period":{"start":"2026-01-01","end":"2026-12-31"},"group":[{"population":[{"code":{"coding":[{"system":"http://terminology.hl7.org/CodeSystem/measure-population","code":"initial-population","display":"Initial Population"}]},"count":1},{"code":{"coding":[{"system":"http://terminology.hl7.org/CodeSystem/measure-population","code":"denominator","display":"Denominator"}]},"count":1},{"code":{"coding":[{"system":"http://terminology.hl7.org/CodeSystem/measure-population","code":"denominator-exclusion","display":"Denominator Exclusion"}]},"count":1},{"code":{"coding":[{"system":"http://terminology.hl7.org/CodeSystem/measure-population","code":"numerator","display":"Numerator"}]},"count":0}]}]},"request":{"method":"PUT","url":"MeasureReport/2f93250d-454c-4071-a35f-d9e96d37b05d"}}]}