{"resourceType":"Bundle","id":"tests-d66f6c59-6a3f-4e15-b39d-74c91cb12a02-bundle","type":"transaction","entry":[{"fullUrl":"https://madie.cms.gov/Patient/d66f6c59-6a3f-4e15-b39d-74c91cb12a02","resource":{"resourceType":"Patient","id":"d66f6c59-6a3f-4e15-b39d-74c91cb12a02","meta":{"profile":["http://hl7.org/fhir/us/qicore/StructureDefinition/qicore-patient"]},"text":{"status":"generated","div":"<div xmlns=\"http://www.w3.org/1999/xhtml\"><div class=\"hapiHeaderText\">AssessTimeOfDelivRelvDateTimeAfterDelivEnc <b>DENFAIL </b></div><table class=\"hapiPropertyTable\"><tbody><tr><td>Identifier</td><td>b1148e48a87a22456174205c8541090787eeef6a1972002ada41ee86a84e67fb</td></tr><tr><td>Date of birth</td><td><span>14 February 1985</span></td></tr></tbody></table></div>"},"extension":[{"url":"http://hl7.org/fhir/us/core/StructureDefinition/us-core-race","extension":[{"url":"ombCategory","valueCoding":{"system":"urn:oid:2.16.840.1.113883.6.238","code":"1002-5","display":"American Indian or Alaska Native","userSelected":true}},{"url":"text","valueString":"American Indian or Alaska Native"}]},{"url":"http://hl7.org/fhir/us/core/StructureDefinition/us-core-ethnicity","extension":[{"url":"ombCategory","valueCoding":{"system":"urn:oid:2.16.840.1.113883.6.238","code":"2135-2","display":"Hispanic or Latino","userSelected":true}},{"url":"text","valueString":"Hispanic or Latino"}]}],"identifier":[{"type":{"coding":[{"system":"http://terminology.hl7.org/CodeSystem/v2-0203","code":"MR"}]},"system":"https://bonnie-fhir.healthit.gov/","value":"63487c2e0968f8012254017d"}],"active":true,"name":[{"use":"usual","family":"DENFail","given":["AssessTimeOfDelivRelvDateTimeAfterDelivEnc"]}],"gender":"female","birthDate":"1998-02-14"},"request":{"method":"PUT","url":"Patient/d66f6c59-6a3f-4e15-b39d-74c91cb12a02"}},{"fullUrl":"https://madie.cms.gov/Observation/2edd4a77-ab7e-40b2-8b1a-93e4e97e13e9","resource":{"resourceType":"Observation","id":"2edd4a77-ab7e-40b2-8b1a-93e4e97e13e9","meta":{"profile":["http://hl7.org/fhir/us/qicore/StructureDefinition/qicore-observation"]},"status":"final","category":[{"coding":[{"system":"http://terminology.hl7.org/CodeSystem/observation-category","code":"exam","display":"exam","userSelected":true}]}],"code":{"coding":[{"system":"http://loinc.org","code":"11996-6"}]},"subject":{"reference":"Patient/d66f6c59-6a3f-4e15-b39d-74c91cb12a02"},"effectiveDateTime":"2026-06-08T08:00:00.000+00:00","valueInteger":1},"request":{"method":"PUT","url":"Observation/2edd4a77-ab7e-40b2-8b1a-93e4e97e13e9"}},{"fullUrl":"https://madie.cms.gov/Observation/4cd5aa90-d20d-4d34-bbef-aa402eb58285","resource":{"resourceType":"Observation","id":"4cd5aa90-d20d-4d34-bbef-aa402eb58285","meta":{"profile":["http://hl7.org/fhir/us/qicore/StructureDefinition/qicore-observation"]},"status":"final","category":[{"coding":[{"system":"http://terminology.hl7.org/CodeSystem/observation-category","code":"exam","display":"exam","userSelected":true}]}],"code":{"coding":[{"system":"http://loinc.org","code":"11884-4"}]},"subject":{"reference":"Patient/d66f6c59-6a3f-4e15-b39d-74c91cb12a02"},"effectiveDateTime":"2026-06-08T09:15:00.000+00:00","valueQuantity":{"value":38,"system":"http://unitsofmeasure.org","code":"wk"}},"request":{"method":"PUT","url":"Observation/4cd5aa90-d20d-4d34-bbef-aa402eb58285"}},{"fullUrl":"https://madie.cms.gov/Observation/abba73f1-0db7-4e2f-92f5-80a571a0a77d","resource":{"resourceType":"Observation","id":"abba73f1-0db7-4e2f-92f5-80a571a0a77d","meta":{"profile":["http://hl7.org/fhir/us/qicore/StructureDefinition/qicore-observation"]},"status":"final","category":[{"coding":[{"system":"http://terminology.hl7.org/CodeSystem/observation-category","code":"exam","display":"exam","userSelected":true}]}],"code":{"coding":[{"system":"http://loinc.org","code":"93857-1"}]},"subject":{"reference":"Patient/d66f6c59-6a3f-4e15-b39d-74c91cb12a02"},"effectiveDateTime":"2026-06-10T08:16:00.000+00:00","valueDateTime":"2026-06-10T08:16:00+00:00"},"request":{"method":"PUT","url":"Observation/abba73f1-0db7-4e2f-92f5-80a571a0a77d"}},{"fullUrl":"https://madie.cms.gov/Encounter/f22f1964-44ba-46f4-a395-4f7767a252eb","resource":{"resourceType":"Encounter","id":"f22f1964-44ba-46f4-a395-4f7767a252eb","meta":{"profile":["http://hl7.org/fhir/us/qicore/StructureDefinition/qicore-encounter"]},"status":"finished","class":{"system":"http://terminology.hl7.org/CodeSystem/v3-ActCode","code":"IMP","display":"inpatient encounter"},"type":[{"coding":[{"system":"http://snomed.info/sct","code":"183452005"}]}],"subject":{"reference":"Patient/d66f6c59-6a3f-4e15-b39d-74c91cb12a02"},"period":{"start":"2026-06-08T08:00:00.000Z","end":"2026-06-10T08:15:00.000Z"},"length":{"value":2,"unit":"days"},"diagnosis":[{"condition":{"reference":"Condition/delivery-of-singleton-f83c"},"use":{"coding":[{"system":"http://snomed.info/sct","code":"169826009","display":"Delivery of Singleton"}]}},{"condition":{"reference":"Condition/c72ced86-6389-402e-bd99-fd72856267f6"}}]},"request":{"method":"PUT","url":"Encounter/f22f1964-44ba-46f4-a395-4f7767a252eb"}},{"fullUrl":"https://madie.cms.gov/Procedure/34a43009-5cdc-42d2-9954-8c748f4d0c94","resource":{"resourceType":"Procedure","id":"34a43009-5cdc-42d2-9954-8c748f4d0c94","meta":{"profile":["http://hl7.org/fhir/us/qicore/StructureDefinition/qicore-procedure"]},"extension":[{"url":"http://hl7.org/fhir/us/qicore/StructureDefinition/qicore-recorded","valueDateTime":"2014-04-05T09:35:00-04:00"}],"status":"completed","code":{"coding":[{"system":"http://www.cms.gov/Medicare/Coding/ICD10","code":"10D00Z0"},{"system":"http://www.icd10data.com/icd10pcs","code":"10D00Z0","userSelected":true}]},"subject":{"reference":"Patient/d66f6c59-6a3f-4e15-b39d-74c91cb12a02"},"performedPeriod":{"start":"2026-06-08T08:00:00.000Z","end":"2026-06-08T09:15:00.000Z"}},"request":{"method":"PUT","url":"Procedure/34a43009-5cdc-42d2-9954-8c748f4d0c94"}},{"fullUrl":"https://madie.cms.gov/Condition/c72ced86-6389-402e-bd99-fd72856267f6","resource":{"resourceType":"Condition","id":"c72ced86-6389-402e-bd99-fd72856267f6","meta":{"profile":["http://hl7.org/fhir/us/qicore/StructureDefinition/qicore-condition"]},"category":[{"coding":[{"system":"http://terminology.hl7.org/CodeSystem/condition-category","code":"encounter-diagnosis","display":"Encounter Diagnosis"}]}],"code":{"coding":[{"system":"http://snomed.info/sct","version":"2022-09","code":"169826009","display":"Single live birth (finding)","userSelected":true}]},"subject":{"reference":"Patient/d66f6c59-6a3f-4e15-b39d-74c91cb12a02"},"recordedDate":"2026-10-21T08:00:00.000+00:00"},"request":{"method":"PUT","url":"Condition/c72ced86-6389-402e-bd99-fd72856267f6"}},{"fullUrl":"https://madie.cms.gov/Coverage/8ec0c819-fdb1-4218-8a45-32f5f0264933","resource":{"resourceType":"Coverage","id":"8ec0c819-fdb1-4218-8a45-32f5f0264933","meta":{"profile":["http://hl7.org/fhir/us/qicore/StructureDefinition/qicore-coverage"]},"status":"active","beneficiary":{"reference":"Patient/d66f6c59-6a3f-4e15-b39d-74c91cb12a02"},"payor":[{"reference":"Organization/5ad6ea38-07e9-4482-9e1b-c09eee595be9"}]},"request":{"method":"PUT","url":"Coverage/8ec0c819-fdb1-4218-8a45-32f5f0264933"}},{"fullUrl":"https://madie.cms.gov/Organization/dddf85d4-f66f-4978-ae0e-0ca28bc7dc4b","resource":{"resourceType":"Organization","id":"5ad6ea38-07e9-4482-9e1b-c09eee595be9","meta":{"profile":["http://hl7.org/fhir/us/qicore/StructureDefinition/qicore-organization"]},"identifier":[{"use":"temp","system":"urn:oid:2.16.840.1.113883.4.4","value":"21-3259825"}],"active":true,"type":[{"coding":[{"system":"http://terminology.hl7.org/CodeSystem/organization-type","code":"pay","display":"Payer"}]}],"name":"Blue Cross Blue Shield of Texas","telecom":[{"system":"phone","value":"(+1) 972-766-6900"}],"address":[{"use":"billing","type":"postal","line":["P.O. Box 660044"],"city":"Dallas","state":"TX","postalCode":"75266-0044","country":"USA"}]},"request":{"method":"PUT","url":"Organization/5ad6ea38-07e9-4482-9e1b-c09eee595be9"}},{"fullUrl":"https://madie.cms.gov/Practitioner/c34599e5-20b3-4bc4-8e4e-dbf6cf3d8821","resource":{"resourceType":"Practitioner","id":"c34599e5-20b3-4bc4-8e4e-dbf6cf3d8821","identifier":[{"system":"http://hl7.org/fhir/sid/us-npi","value":"123456"}],"name":[{"family":"Evil","prefix":["Dr"]}]},"request":{"method":"PUT","url":"Practitioner/c34599e5-20b3-4bc4-8e4e-dbf6cf3d8821"}},{"fullUrl":"https://madie.cms.gov/MeasureReport/ecc00ef5-d12d-4709-8d3c-26f858689c1e","resource":{"resourceType":"MeasureReport","id":"ecc00ef5-d12d-4709-8d3c-26f858689c1e","meta":{"profile":["http://hl7.org/fhir/us/cqfmeasures/StructureDefinition/test-case-cqfm"]},"contained":[{"resourceType":"Parameters","id":"575558d4-d52c-4dd6-a651-7c88d9f2702e-parameters","parameter":[{"name":"subject","valueString":"d66f6c59-6a3f-4e15-b39d-74c91cb12a02"}]}],"extension":[{"url":"http://hl7.org/fhir/us/cqfmeasures/StructureDefinition/cqfm-inputParameters","valueReference":{"reference":"#575558d4-d52c-4dd6-a651-7c88d9f2702e-parameters"}},{"url":"http://hl7.org/fhir/us/cqfmeasures/StructureDefinition/cqfm-testCaseDescription","valueMarkdown":"Passes: IP, Pt is 27 years of age,  encounter dx of delivery of singleton, gravida, EGA @ 38 weeks, AssessTimeOfDeliv Relevant DateTime After DelivEnc.  Tests \"TimeOfDelivery.relevantDatetime during DeliveryEncounters.relevantPeriod\".\n"}],"modifierExtension":[{"url":"http://hl7.org/fhir/us/cqfmeasures/StructureDefinition/cqfm-isTestCase","valueBoolean":true}],"status":"complete","type":"individual","measure":"https://madie.cms.gov/Measure/CMS334FHIRPCCesareanBirth","period":{"start":"2026-01-01","end":"2026-12-31"},"group":[{"population":[{"code":{"coding":[{"system":"http://terminology.hl7.org/CodeSystem/measure-population","code":"initial-population","display":"Initial Population"}]},"count":1},{"code":{"coding":[{"system":"http://terminology.hl7.org/CodeSystem/measure-population","code":"denominator","display":"Denominator"}]},"count":0},{"code":{"coding":[{"system":"http://terminology.hl7.org/CodeSystem/measure-population","code":"denominator-exclusion","display":"Denominator Exclusion"}]},"count":0},{"code":{"coding":[{"system":"http://terminology.hl7.org/CodeSystem/measure-population","code":"numerator","display":"Numerator"}]},"count":0}]}]},"request":{"method":"PUT","url":"MeasureReport/ecc00ef5-d12d-4709-8d3c-26f858689c1e"}}]}