{"resourceType":"Bundle","id":"tests-6db9ecfd-1392-480d-b0f7-4e81ebfdd335-bundle","type":"transaction","entry":[{"fullUrl":"https://madie.cms.gov/Patient/6db9ecfd-1392-480d-b0f7-4e81ebfdd335","resource":{"resourceType":"Patient","id":"6db9ecfd-1392-480d-b0f7-4e81ebfdd335","meta":{"profile":["http://hl7.org/fhir/us/qicore/StructureDefinition/qicore-patient"]},"text":{"status":"generated","div":"<div xmlns=\"http://www.w3.org/1999/xhtml\"><div class=\"hapiHeaderText\">AssessTerm0RelDtTimeAfterTimeOfDeliv <b>DENFAIL </b></div><table class=\"hapiPropertyTable\"><tbody><tr><td>Identifier</td><td>9dd5eff54ec482e8a14c14f22d39e4cf5c39ca73f868e5a54dc34c2817f3dd51</td></tr><tr><td>Date of birth</td><td><span>14 February 1985</span></td></tr></tbody></table></div>"},"extension":[{"url":"http://hl7.org/fhir/us/core/StructureDefinition/us-core-race","extension":[{"url":"ombCategory","valueCoding":{"system":"urn:oid:2.16.840.1.113883.6.238","code":"1002-5","display":"American Indian or Alaska Native","userSelected":true}},{"url":"text","valueString":"American Indian or Alaska Native"}]},{"url":"http://hl7.org/fhir/us/core/StructureDefinition/us-core-ethnicity","extension":[{"url":"ombCategory","valueCoding":{"system":"urn:oid:2.16.840.1.113883.6.238","code":"2135-2","display":"Hispanic or Latino","userSelected":true}},{"url":"text","valueString":"Hispanic or Latino"}]}],"identifier":[{"type":{"coding":[{"system":"http://terminology.hl7.org/CodeSystem/v2-0203","code":"MR"}]},"system":"https://bonnie-fhir.healthit.gov/","value":"63487c2d0968f80122540162"}],"active":true,"name":[{"use":"usual","family":"DENFail","given":["AssessTerm0RelDtTimeAfterTimeOfDeliv"]}],"gender":"female","birthDate":"1998-02-14"},"request":{"method":"PUT","url":"Patient/6db9ecfd-1392-480d-b0f7-4e81ebfdd335"}},{"fullUrl":"https://madie.cms.gov/Observation/f38a6ed5-75b2-40ee-9198-f8992d6fc061","resource":{"resourceType":"Observation","id":"f38a6ed5-75b2-40ee-9198-f8992d6fc061","meta":{"profile":["http://hl7.org/fhir/us/qicore/StructureDefinition/qicore-observation"]},"status":"final","category":[{"coding":[{"system":"http://terminology.hl7.org/CodeSystem/observation-category","code":"exam","display":"exam","userSelected":true}]}],"code":{"coding":[{"system":"http://loinc.org","code":"11637-6"}]},"subject":{"reference":"Patient/6db9ecfd-1392-480d-b0f7-4e81ebfdd335"},"effectiveDateTime":"2025-09-19T09:00:00.000+00:00","valueInteger":0},"request":{"method":"PUT","url":"Observation/f38a6ed5-75b2-40ee-9198-f8992d6fc061"}},{"fullUrl":"https://madie.cms.gov/Observation/22b9a433-90b0-4b8f-89c0-162b922eece7","resource":{"resourceType":"Observation","id":"22b9a433-90b0-4b8f-89c0-162b922eece7","meta":{"profile":["http://hl7.org/fhir/us/qicore/StructureDefinition/qicore-observation"]},"status":"final","category":[{"coding":[{"system":"http://terminology.hl7.org/CodeSystem/observation-category","code":"exam","display":"exam","userSelected":true}]}],"code":{"coding":[{"system":"http://loinc.org","code":"11884-4"}]},"subject":{"reference":"Patient/6db9ecfd-1392-480d-b0f7-4e81ebfdd335"},"effectiveDateTime":"2026-06-08T20:00:00.000+00:00","valueQuantity":{"value":37,"system":"http://unitsofmeasure.org","code":"wk"}},"request":{"method":"PUT","url":"Observation/22b9a433-90b0-4b8f-89c0-162b922eece7"}},{"fullUrl":"https://madie.cms.gov/Observation/54fd8192-6c3d-4893-bce1-a6c39c459a93","resource":{"resourceType":"Observation","id":"54fd8192-6c3d-4893-bce1-a6c39c459a93","meta":{"profile":["http://hl7.org/fhir/us/qicore/StructureDefinition/qicore-observation"]},"status":"final","category":[{"coding":[{"system":"http://terminology.hl7.org/CodeSystem/observation-category","code":"exam","display":"exam","userSelected":true}]}],"code":{"coding":[{"system":"http://loinc.org","code":"11639-2"}]},"subject":{"reference":"Patient/6db9ecfd-1392-480d-b0f7-4e81ebfdd335"},"effectiveDateTime":"2026-06-08T21:00:00.000+00:00","valueInteger":0},"request":{"method":"PUT","url":"Observation/54fd8192-6c3d-4893-bce1-a6c39c459a93"}},{"fullUrl":"https://madie.cms.gov/Observation/738300ad-b591-43ee-9fe3-995ac32b36a8","resource":{"resourceType":"Observation","id":"738300ad-b591-43ee-9fe3-995ac32b36a8","meta":{"profile":["http://hl7.org/fhir/us/qicore/StructureDefinition/qicore-observation"]},"status":"final","category":[{"coding":[{"system":"http://terminology.hl7.org/CodeSystem/observation-category","code":"exam","display":"exam","userSelected":true}]}],"code":{"coding":[{"system":"http://loinc.org","code":"93857-1"}]},"subject":{"reference":"Patient/6db9ecfd-1392-480d-b0f7-4e81ebfdd335"},"effectiveDateTime":"2026-06-08T20:00:00.000+00:00","valueDateTime":"2026-06-08T20:00:00+00:00"},"request":{"method":"PUT","url":"Observation/738300ad-b591-43ee-9fe3-995ac32b36a8"}},{"fullUrl":"https://madie.cms.gov/Encounter/50fc7cf3-9fea-4f08-b12d-dfc7f196709a","resource":{"resourceType":"Encounter","id":"50fc7cf3-9fea-4f08-b12d-dfc7f196709a","meta":{"profile":["http://hl7.org/fhir/us/qicore/StructureDefinition/qicore-encounter"]},"status":"finished","class":{"system":"http://terminology.hl7.org/CodeSystem/v3-ActCode","code":"IMP","display":"inpatient encounter"},"type":[{"coding":[{"system":"http://snomed.info/sct","code":"8715000"}]}],"subject":{"reference":"Patient/6db9ecfd-1392-480d-b0f7-4e81ebfdd335"},"period":{"start":"2026-06-08T08:00:00.000Z","end":"2026-06-10T08:15:00.000Z"},"length":{"value":2,"unit":"days"},"diagnosis":[{"condition":{"reference":"Condition/delivery-of-singleton-f83c"},"use":{"coding":[{"system":"http://snomed.info/sct","code":"169826009","display":"Delivery of Singleton"}]}},{"condition":{"reference":"Condition/252d1e83-0e51-4bf9-bdea-8abaf4371ec3"}}]},"request":{"method":"PUT","url":"Encounter/50fc7cf3-9fea-4f08-b12d-dfc7f196709a"}},{"fullUrl":"https://madie.cms.gov/Procedure/5fba8be3-de8e-4212-883a-87c44e7a85f8","resource":{"resourceType":"Procedure","id":"5fba8be3-de8e-4212-883a-87c44e7a85f8","meta":{"profile":["http://hl7.org/fhir/us/qicore/StructureDefinition/qicore-procedure"]},"extension":[{"url":"http://hl7.org/fhir/us/qicore/StructureDefinition/qicore-recorded","valueDateTime":"2014-04-05T09:35:00-04:00"}],"status":"completed","code":{"coding":[{"system":"http://www.cms.gov/Medicare/Coding/ICD10","code":"10D00Z0"},{"system":"http://snomed.info/sct","code":"4504004"},{"system":"http://www.icd10data.com/icd10pcs","code":"10D00Z0","userSelected":true}]},"subject":{"reference":"Patient/6db9ecfd-1392-480d-b0f7-4e81ebfdd335"},"performedPeriod":{"start":"2026-06-08T20:00:00.000Z","end":"2026-06-08T20:15:00.000Z"}},"request":{"method":"PUT","url":"Procedure/5fba8be3-de8e-4212-883a-87c44e7a85f8"}},{"fullUrl":"https://madie.cms.gov/Condition/252d1e83-0e51-4bf9-bdea-8abaf4371ec3","resource":{"resourceType":"Condition","id":"252d1e83-0e51-4bf9-bdea-8abaf4371ec3","meta":{"profile":["http://hl7.org/fhir/us/qicore/StructureDefinition/qicore-condition"]},"category":[{"coding":[{"system":"http://terminology.hl7.org/CodeSystem/condition-category","code":"encounter-diagnosis","display":"Encounter Diagnosis"}]}],"code":{"coding":[{"system":"http://snomed.info/sct","version":"2022-09","code":"169826009","display":"Single live birth (finding)","userSelected":true}]},"subject":{"reference":"Patient/6db9ecfd-1392-480d-b0f7-4e81ebfdd335"},"recordedDate":"2026-10-21T08:00:00.000+00:00"},"request":{"method":"PUT","url":"Condition/252d1e83-0e51-4bf9-bdea-8abaf4371ec3"}},{"fullUrl":"https://madie.cms.gov/Coverage/18d99dcb-6f1f-427c-b169-011f35a79140","resource":{"resourceType":"Coverage","id":"18d99dcb-6f1f-427c-b169-011f35a79140","meta":{"profile":["http://hl7.org/fhir/us/qicore/StructureDefinition/qicore-coverage"]},"status":"active","beneficiary":{"reference":"Patient/6db9ecfd-1392-480d-b0f7-4e81ebfdd335"},"payor":[{"reference":"Organization/aeb2c6be-6577-4bba-a6b6-6eab95111f1b"}]},"request":{"method":"PUT","url":"Coverage/18d99dcb-6f1f-427c-b169-011f35a79140"}},{"fullUrl":"https://madie.cms.gov/Organization/7414e1c3-92ed-46ea-a641-5a1ef0adabf9","resource":{"resourceType":"Organization","id":"aeb2c6be-6577-4bba-a6b6-6eab95111f1b","meta":{"profile":["http://hl7.org/fhir/us/qicore/StructureDefinition/qicore-organization"]},"identifier":[{"use":"temp","system":"urn:oid:2.16.840.1.113883.4.4","value":"21-3259825"}],"active":true,"type":[{"coding":[{"system":"http://terminology.hl7.org/CodeSystem/organization-type","code":"pay","display":"Payer"}]}],"name":"Blue Cross Blue Shield of Texas","telecom":[{"system":"phone","value":"(+1) 972-766-6900"}],"address":[{"use":"billing","type":"postal","line":["P.O. Box 660044"],"city":"Dallas","state":"TX","postalCode":"75266-0044","country":"USA"}]},"request":{"method":"PUT","url":"Organization/aeb2c6be-6577-4bba-a6b6-6eab95111f1b"}},{"fullUrl":"https://madie.cms.gov/Practitioner/547bca42-8a99-4955-9b7e-772fd6ef6167","resource":{"resourceType":"Practitioner","id":"547bca42-8a99-4955-9b7e-772fd6ef6167","identifier":[{"system":"http://hl7.org/fhir/sid/us-npi","value":"123456"}],"name":[{"family":"Evil","prefix":["Dr"]}]},"request":{"method":"PUT","url":"Practitioner/547bca42-8a99-4955-9b7e-772fd6ef6167"}},{"fullUrl":"https://madie.cms.gov/MeasureReport/45403b82-6766-4216-8ace-cf3901cc0fb8","resource":{"resourceType":"MeasureReport","id":"45403b82-6766-4216-8ace-cf3901cc0fb8","meta":{"profile":["http://hl7.org/fhir/us/cqfmeasures/StructureDefinition/test-case-cqfm"]},"contained":[{"resourceType":"Parameters","id":"bca4fab0-f0f2-4193-b986-e7385ea54161-parameters","parameter":[{"name":"subject","valueString":"6db9ecfd-1392-480d-b0f7-4e81ebfdd335"}]}],"extension":[{"url":"http://hl7.org/fhir/us/cqfmeasures/StructureDefinition/cqfm-inputParameters","valueReference":{"reference":"#bca4fab0-f0f2-4193-b986-e7385ea54161-parameters"}},{"url":"http://hl7.org/fhir/us/cqfmeasures/StructureDefinition/cqfm-testCaseDescription","valueMarkdown":"\"Preterm Births=0, authored < 42weeks prior to Asse delivery\nTerm Newborn=0, authored  1 hour after Asse delivery datetime\ntiming logic needed to constrain the author time to no later than the time of delivery, DENOM fail\"\n"}],"modifierExtension":[{"url":"http://hl7.org/fhir/us/cqfmeasures/StructureDefinition/cqfm-isTestCase","valueBoolean":true}],"status":"complete","type":"individual","measure":"https://madie.cms.gov/Measure/CMS334FHIRPCCesareanBirth","period":{"start":"2026-01-01","end":"2026-12-31"},"group":[{"population":[{"code":{"coding":[{"system":"http://terminology.hl7.org/CodeSystem/measure-population","code":"initial-population","display":"Initial Population"}]},"count":1},{"code":{"coding":[{"system":"http://terminology.hl7.org/CodeSystem/measure-population","code":"denominator","display":"Denominator"}]},"count":0},{"code":{"coding":[{"system":"http://terminology.hl7.org/CodeSystem/measure-population","code":"denominator-exclusion","display":"Denominator Exclusion"}]},"count":0},{"code":{"coding":[{"system":"http://terminology.hl7.org/CodeSystem/measure-population","code":"numerator","display":"Numerator"}]},"count":0}]}]},"request":{"method":"PUT","url":"MeasureReport/45403b82-6766-4216-8ace-cf3901cc0fb8"}}]}