{"resourceType":"Bundle","id":"tests-85b60f52-7b08-46f3-946b-cb317b28acf5-bundle","type":"transaction","entry":[{"fullUrl":"https://madie.cms.gov/Patient/85b60f52-7b08-46f3-946b-cb317b28acf5","resource":{"resourceType":"Patient","id":"85b60f52-7b08-46f3-946b-cb317b28acf5","meta":{"profile":["http://hl7.org/fhir/us/qicore/StructureDefinition/qicore-patient"]},"extension":[{"url":"http://hl7.org/fhir/us/core/StructureDefinition/us-core-race","extension":[{"url":"ombCategory","valueCoding":{"system":"urn:oid:2.16.840.1.113883.6.238","code":"2028-9","display":"Asian"}},{"url":"text","valueString":"Asian"}]},{"url":"http://hl7.org/fhir/us/core/StructureDefinition/us-core-ethnicity","extension":[{"url":"ombCategory","valueCoding":{"system":"urn:oid:2.16.840.1.113883.6.238","code":"2135-2","display":"Hispanic or Latino"}},{"url":"text","valueString":"Hispanic or Latino"}]}],"identifier":[{"system":"http://hospital.smarthealthit.org","value":"999999995"}],"name":[{"family":"Bertha","given":["Betty"]}],"gender":"female","birthDate":"1958-12-31"},"request":{"method":"PUT","url":"Patient/85b60f52-7b08-46f3-946b-cb317b28acf5"}},{"fullUrl":"https://madie.cms.gov/Encounter/Encounter-51","resource":{"resourceType":"Encounter","id":"98565855-90d7-4d9e-a6b5-41651e18d343","meta":{"profile":["http://hl7.org/fhir/us/qicore/StructureDefinition/qicore-encounter"]},"status":"finished","class":{"system":"http://terminology.hl7.org/CodeSystem/v3-ActCode","code":"AMB","display":"ambulatory"},"type":[{"coding":[{"system":"http://snomed.info/sct","code":"185460008","display":"Home visit request by patient (procedure)"}]}],"subject":{"reference":"Patient/85b60f52-7b08-46f3-946b-cb317b28acf5"},"period":{"start":"2025-01-01T00:00:00.000Z","end":"2025-01-01T00:15:00.000Z"}},"request":{"method":"PUT","url":"Encounter/98565855-90d7-4d9e-a6b5-41651e18d343"}},{"fullUrl":"https://madie.cms.gov/Condition/Condition-45","resource":{"resourceType":"Condition","id":"545c3521-d2b7-4b69-9478-17921f2b17d9","meta":{"profile":["http://hl7.org/fhir/us/qicore/StructureDefinition/qicore-condition"]},"clinicalStatus":{"coding":[{"system":"http://terminology.hl7.org/CodeSystem/condition-clinical","code":"active"}]},"category":[{"coding":[{"system":"http://terminology.hl7.org/CodeSystem/condition-category","code":"problem-list-item","display":"Problem List Item"}]}],"code":{"coding":[{"system":"http://snomed.info/sct","code":"102781000119107","display":"Sensory neuropathy due to type 1 diabetes mellitus (disorder)"}]},"subject":{"reference":"Patient/85b60f52-7b08-46f3-946b-cb317b28acf5"},"onsetDateTime":"2025-01-01T23:59:00.000Z"},"request":{"method":"PUT","url":"Condition/545c3521-d2b7-4b69-9478-17921f2b17d9"}},{"fullUrl":"https://madie.cms.gov/Condition/Condition-46","resource":{"resourceType":"Condition","id":"aba8b419-6245-4a7d-9049-829aa69552b0","meta":{"profile":["http://hl7.org/fhir/us/qicore/StructureDefinition/qicore-condition"]},"clinicalStatus":{"coding":[{"system":"http://terminology.hl7.org/CodeSystem/condition-clinical","code":"active"}]},"category":[{"coding":[{"system":"http://terminology.hl7.org/CodeSystem/condition-category","code":"problem-list-item","display":"Problem List Item"}]}],"code":{"coding":[{"system":"http://snomed.info/sct","code":"101421000119107","display":"Dementia due to Parkinson's disease (disorder)"}]},"subject":{"reference":"Patient/85b60f52-7b08-46f3-946b-cb317b28acf5"},"onsetDateTime":"2024-12-31T23:59:59.000Z"},"request":{"method":"PUT","url":"Condition/aba8b419-6245-4a7d-9049-829aa69552b0"}},{"fullUrl":"https://madie.cms.gov/Encounter/Encounter-52","resource":{"resourceType":"Encounter","id":"06627537-438e-440d-851a-22b493bb0f85","meta":{"profile":["http://hl7.org/fhir/us/qicore/StructureDefinition/qicore-encounter"]},"status":"finished","class":{"system":"http://terminology.hl7.org/CodeSystem/v3-ActCode","code":"AMB","display":"ambulatory"},"type":[{"coding":[{"system":"http://snomed.info/sct","code":"183450002","display":"Admission to burn unit (procedure)"}]}],"subject":{"reference":"Patient/85b60f52-7b08-46f3-946b-cb317b28acf5"},"period":{"start":"2025-05-01T00:00:00.000Z","end":"2025-05-01T01:00:00.000Z"},"diagnosis":[{"condition":{"reference":"Condition/Condition-46"}}]},"request":{"method":"PUT","url":"Encounter/06627537-438e-440d-851a-22b493bb0f85"}},{"fullUrl":"https://madie.cms.gov/DeviceRequest/DeviceRequest-5","resource":{"resourceType":"DeviceRequest","id":"56d0419a-9a8f-4721-b094-e8b8feea07bc","meta":{"profile":["http://hl7.org/fhir/us/qicore/StructureDefinition/qicore-devicerequest"]},"modifierExtension":[{"url":"http://hl7.org/fhir/us/qicore/StructureDefinition/qicore-doNotPeform","valueBoolean":false}],"status":"completed","intent":"order","codeCodeableConcept":{"coding":[{"system":"http://snomed.info/sct","code":"183240000","display":"Self-propelled wheelchair (physical object)"}]},"subject":{"reference":"Patient/85b60f52-7b08-46f3-946b-cb317b28acf5"},"authoredOn":"2025-11-01T23:59:00.000Z"},"request":{"method":"PUT","url":"DeviceRequest/56d0419a-9a8f-4721-b094-e8b8feea07bc"}},{"fullUrl":"https://madie.cms.gov/MeasureReport/0175d510-7237-451f-af21-082d73e22772","resource":{"resourceType":"MeasureReport","id":"0175d510-7237-451f-af21-082d73e22772","meta":{"profile":["http://hl7.org/fhir/us/cqfmeasures/StructureDefinition/test-case-cqfm"]},"contained":[{"resourceType":"Parameters","id":"8fd793ac-9ec2-45c2-ae4f-d1414fc2c717-parameters","parameter":[{"name":"subject","valueString":"85b60f52-7b08-46f3-946b-cb317b28acf5"}]}],"extension":[{"url":"http://hl7.org/fhir/us/cqfmeasures/StructureDefinition/cqfm-inputParameters","valueReference":{"reference":"#8fd793ac-9ec2-45c2-ae4f-d1414fc2c717-parameters"}},{"url":"http://hl7.org/fhir/us/cqfmeasures/StructureDefinition/cqfm-testCaseDescription","valueMarkdown":"One inpatient visit during the MP"}],"modifierExtension":[{"url":"http://hl7.org/fhir/us/cqfmeasures/StructureDefinition/cqfm-isTestCase","valueBoolean":true}],"status":"complete","type":"individual","measure":"https://madie.cms.gov/Measure/DiabetesGlycemicStatusAssessmentGreaterThan9PercentFHIR","period":{"start":"2025-01-01","end":"2025-12-31"},"group":[{"population":[{"code":{"coding":[{"system":"http://terminology.hl7.org/CodeSystem/measure-population","code":"initial-population","display":"Initial Population"}]},"count":1},{"code":{"coding":[{"system":"http://terminology.hl7.org/CodeSystem/measure-population","code":"denominator","display":"Denominator"}]},"count":1},{"code":{"coding":[{"system":"http://terminology.hl7.org/CodeSystem/measure-population","code":"denominator-exclusion","display":"Denominator Exclusion"}]},"count":1},{"code":{"coding":[{"system":"http://terminology.hl7.org/CodeSystem/measure-population","code":"numerator","display":"Numerator"}]},"count":0}]}]},"request":{"method":"PUT","url":"MeasureReport/0175d510-7237-451f-af21-082d73e22772"}}]}