{"resourceType":"Bundle","id":"tests-ac4d7076-d1cb-44c6-a94f-c2c86266d53b-bundle","type":"transaction","entry":[{"fullUrl":"https://madie.cms.gov/Patient/ac4d7076-d1cb-44c6-a94f-c2c86266d53b","resource":{"resourceType":"Patient","id":"ac4d7076-d1cb-44c6-a94f-c2c86266d53b","meta":{"profile":["http://hl7.org/fhir/us/qicore/StructureDefinition/qicore-patient"]},"extension":[{"url":"http://hl7.org/fhir/us/core/StructureDefinition/us-core-race","extension":[{"url":"ombCategory","valueCoding":{"system":"urn:oid:2.16.840.1.113883.6.238","code":"2028-9","display":"Asian","userSelected":true}},{"url":"text","valueString":"Asian"}]},{"url":"http://hl7.org/fhir/us/core/StructureDefinition/us-core-ethnicity","extension":[{"url":"ombCategory","valueCoding":{"system":"urn:oid:2.16.840.1.113883.6.238","code":"2135-2","display":"Hispanic or Latino","userSelected":true}},{"url":"text","valueString":"Hispanic or Latino"}]}],"identifier":[{"type":{"coding":[{"system":"http://terminology.hl7.org/CodeSystem/v2-0203","code":"MR"}]},"system":"http://hospital.smarthealthit.org","value":"999999995"}],"name":[{"family":"Bertha","given":["Betty"]}],"gender":"female","birthDate":"1957-12-31"},"request":{"method":"PUT","url":"Patient/ac4d7076-d1cb-44c6-a94f-c2c86266d53b"}},{"fullUrl":"https://madie.cms.gov/Encounter/Encounter-6","resource":{"resourceType":"Encounter","id":"5245e0ce-1614-4489-ac1b-5028b5baa9e1","meta":{"profile":["http://hl7.org/fhir/us/qicore/StructureDefinition/qicore-encounter"]},"status":"finished","class":{"system":"http://terminology.hl7.org/CodeSystem/v3-ActCode","code":"AMB","display":"ambulatory"},"type":[{"coding":[{"system":"http://snomed.info/sct","code":"185460008","display":"Home visit request by patient (procedure)"}]}],"subject":{"reference":"Patient/ac4d7076-d1cb-44c6-a94f-c2c86266d53b"},"period":{"start":"2025-01-01T00:00:00.000Z","end":"2025-01-01T00:15:00.000Z"}},"request":{"method":"PUT","url":"Encounter/5245e0ce-1614-4489-ac1b-5028b5baa9e1"}},{"fullUrl":"https://madie.cms.gov/Condition/Condition-6","resource":{"resourceType":"Condition","id":"458da3e4-88ff-4cd3-b4bc-2d3c30418160","meta":{"profile":["http://hl7.org/fhir/us/qicore/StructureDefinition/qicore-condition"]},"clinicalStatus":{"coding":[{"system":"http://terminology.hl7.org/CodeSystem/condition-clinical","code":"active"}]},"category":[{"coding":[{"system":"http://terminology.hl7.org/CodeSystem/condition-category","code":"problem-list-item","display":"Problem List Item"}]}],"code":{"coding":[{"system":"http://snomed.info/sct","code":"102781000119107","display":"Sensory neuropathy due to type 1 diabetes mellitus (disorder)"}]},"subject":{"reference":"Patient/ac4d7076-d1cb-44c6-a94f-c2c86266d53b"},"onsetDateTime":"2025-01-01T23:59:00.000Z"},"request":{"method":"PUT","url":"Condition/458da3e4-88ff-4cd3-b4bc-2d3c30418160"}},{"fullUrl":"https://madie.cms.gov/Condition/Condition-7","resource":{"resourceType":"Condition","id":"f358ca4d-0161-4554-8458-677fbf3c66dd","meta":{"profile":["http://hl7.org/fhir/us/qicore/StructureDefinition/qicore-condition"]},"clinicalStatus":{"coding":[{"system":"http://terminology.hl7.org/CodeSystem/condition-clinical","code":"active"}]},"category":[{"coding":[{"system":"http://terminology.hl7.org/CodeSystem/condition-category","code":"problem-list-item","display":"Problem List Item"}]}],"code":{"coding":[{"system":"http://snomed.info/sct","code":"101421000119107","display":"Dementia due to Parkinson's disease (disorder)"}]},"subject":{"reference":"Patient/ac4d7076-d1cb-44c6-a94f-c2c86266d53b"},"onsetDateTime":"2024-12-31T23:59:59.000Z"},"request":{"method":"PUT","url":"Condition/f358ca4d-0161-4554-8458-677fbf3c66dd"}},{"fullUrl":"https://madie.cms.gov/Encounter/Encounter-7","resource":{"resourceType":"Encounter","id":"b9271d6f-346b-4ffa-9bae-884f96d8c2c8","meta":{"profile":["http://hl7.org/fhir/us/qicore/StructureDefinition/qicore-encounter"]},"status":"finished","class":{"system":"http://terminology.hl7.org/CodeSystem/v3-ActCode","code":"AMB","display":"ambulatory"},"type":[{"coding":[{"system":"http://snomed.info/sct","code":"4525004","display":"Emergency department patient visit (procedure)"}]}],"subject":{"reference":"Patient/ac4d7076-d1cb-44c6-a94f-c2c86266d53b"},"period":{"start":"2024-12-31T00:00:00.000Z","end":"2025-01-01T01:00:00.000Z"},"diagnosis":[{"condition":{"reference":"Condition/Condition-7"}}]},"request":{"method":"PUT","url":"Encounter/b9271d6f-346b-4ffa-9bae-884f96d8c2c8"}},{"fullUrl":"https://madie.cms.gov/Encounter/Encounter-8","resource":{"resourceType":"Encounter","id":"e0d80dfc-7e5b-49f4-ba05-13ea7685a7c9","meta":{"profile":["http://hl7.org/fhir/us/qicore/StructureDefinition/qicore-encounter"]},"status":"finished","class":{"system":"http://terminology.hl7.org/CodeSystem/v3-ActCode","code":"AMB","display":"ambulatory"},"type":[{"coding":[{"system":"http://snomed.info/sct","code":"4525004","display":"Emergency department patient visit (procedure)"}]}],"subject":{"reference":"Patient/ac4d7076-d1cb-44c6-a94f-c2c86266d53b"},"period":{"start":"2025-05-01T00:00:00.000Z","end":"2025-05-01T01:00:00.000Z"},"diagnosis":[{"condition":{"reference":"Condition/Condition-7"}}]},"request":{"method":"PUT","url":"Encounter/e0d80dfc-7e5b-49f4-ba05-13ea7685a7c9"}},{"fullUrl":"https://madie.cms.gov/DeviceRequest/DeviceRequest-1","resource":{"resourceType":"DeviceRequest","id":"04568b6c-7366-40c9-a57c-85fd0868fea0","meta":{"profile":["http://hl7.org/fhir/us/qicore/StructureDefinition/qicore-devicerequest"]},"modifierExtension":[{"url":"http://hl7.org/fhir/us/qicore/StructureDefinition/qicore-doNotPeform","valueBoolean":false}],"status":"completed","intent":"order","codeCodeableConcept":{"coding":[{"system":"http://snomed.info/sct","code":"183240000","display":"Self-propelled wheelchair (physical object)"}]},"subject":{"reference":"Patient/ac4d7076-d1cb-44c6-a94f-c2c86266d53b"},"authoredOn":"2025-11-01T23:59:00.000Z"},"request":{"method":"PUT","url":"DeviceRequest/04568b6c-7366-40c9-a57c-85fd0868fea0"}},{"fullUrl":"https://madie.cms.gov/MeasureReport/7e61c8a7-3351-40fc-a503-8e7ff45f28ed","resource":{"resourceType":"MeasureReport","id":"7e61c8a7-3351-40fc-a503-8e7ff45f28ed","meta":{"profile":["http://hl7.org/fhir/us/cqfmeasures/StructureDefinition/test-case-cqfm"]},"contained":[{"resourceType":"Parameters","id":"7f55befb-cf41-42fe-a3d1-d300503a7919-parameters","parameter":[{"name":"subject","valueString":"ac4d7076-d1cb-44c6-a94f-c2c86266d53b"}]}],"extension":[{"url":"http://hl7.org/fhir/us/cqfmeasures/StructureDefinition/cqfm-inputParameters","valueReference":{"reference":"#7f55befb-cf41-42fe-a3d1-d300503a7919-parameters"}},{"url":"http://hl7.org/fhir/us/cqfmeasures/StructureDefinition/cqfm-testCaseDescription","valueMarkdown":"Two outpatient visits on different days of service"}],"modifierExtension":[{"url":"http://hl7.org/fhir/us/cqfmeasures/StructureDefinition/cqfm-isTestCase","valueBoolean":true}],"status":"complete","type":"individual","measure":"https://madie.cms.gov/Measure/DiabetesGlycemicStatusAssessmentGreaterThan9PercentFHIR","period":{"start":"2025-01-01","end":"2025-12-31"},"group":[{"population":[{"code":{"coding":[{"system":"http://terminology.hl7.org/CodeSystem/measure-population","code":"initial-population","display":"Initial Population"}]},"count":1},{"code":{"coding":[{"system":"http://terminology.hl7.org/CodeSystem/measure-population","code":"denominator","display":"Denominator"}]},"count":1},{"code":{"coding":[{"system":"http://terminology.hl7.org/CodeSystem/measure-population","code":"denominator-exclusion","display":"Denominator Exclusion"}]},"count":1},{"code":{"coding":[{"system":"http://terminology.hl7.org/CodeSystem/measure-population","code":"numerator","display":"Numerator"}]},"count":0}]}]},"request":{"method":"PUT","url":"MeasureReport/7e61c8a7-3351-40fc-a503-8e7ff45f28ed"}}]}