{"resourceType":"Bundle","id":"tests-4fb37f38-8be8-4963-8386-38c98cc095c8-bundle","type":"transaction","entry":[{"resource":{"resourceType":"Bundle","id":"64947021d09ece2c2e9bf955","type":"transaction","entry":[{"fullUrl":"https://madie.cms.gov/Patient/4fb37f38-8be8-4963-8386-38c98cc095c8","resource":{"resourceType":"Patient","id":"4fb37f38-8be8-4963-8386-38c98cc095c8","meta":{"profile":["http://hl7.org/fhir/us/qicore/StructureDefinition/qicore-patient"]},"extension":[{"url":"http://hl7.org/fhir/us/core/StructureDefinition/us-core-race","extension":[{"url":"ombCategory","valueCoding":{"system":"urn:oid:2.16.840.1.113883.6.238","code":"2054-5","display":"Black or African American","userSelected":true}},{"url":"text","valueString":"Black or African American"}]},{"url":"http://hl7.org/fhir/us/core/StructureDefinition/us-core-ethnicity","extension":[{"url":"ombCategory","valueCoding":{"system":"urn:oid:2.16.840.1.113883.6.238","code":"2186-5","display":"Not Hispanic or Latino","userSelected":true}},{"url":"text","valueString":"Not Hispanic or Latino"}]}],"identifier":[{"type":{"coding":[{"system":"http://terminology.hl7.org/CodeSystem/v2-0203","code":"MR"}]},"system":"https://bonnie-fhir.healthit.gov/","value":"64947021d09ece2c2e9bf955"}],"name":[{"family":"22IPFail","given":["LV240DaysIntoMP"]}],"gender":"female","birthDate":"1987-08-04"},"request":{"method":"POST","url":"Patient/4fb37f38-8be8-4963-8386-38c98cc095c8"}},{"fullUrl":"https://madie.cms.gov/Condition/hiv-f956","resource":{"resourceType":"Condition","id":"hiv-f956","meta":{"profile":["http://hl7.org/fhir/us/qicore/StructureDefinition/qicore-condition"]},"clinicalStatus":{"coding":[{"system":"http://terminology.hl7.org/CodeSystem/condition-clinical","code":"active","display":"active","userSelected":true}]},"category":[{"coding":[{"system":"http://terminology.hl7.org/CodeSystem/condition-category","code":"problem-list-item","display":"Problem List Item"}]}],"code":{"coding":[{"system":"http://hl7.org/fhir/sid/icd-9-cm","version":"2013","code":"042","display":"Human immunodeficiency virus [HIV] disease","userSelected":true},{"system":"http://snomed.info/sct","code":"165816005","userSelected":true}]},"subject":{"reference":"Patient/4fb37f38-8be8-4963-8386-38c98cc095c8"},"onsetDateTime":"2000-06-22T08:00:00.000+00:00","recordedDate":"2000-06-22T08:00:00.000+00:00"},"request":{"method":"POST","url":"Condition/hiv-f956"}},{"fullUrl":"https://madie.cms.gov/Observation/hiv-viral-load-f957","resource":{"resourceType":"Observation","id":"hiv-viral-load-f957","meta":{"profile":["http://hl7.org/fhir/us/qicore/StructureDefinition/qicore-observation"]},"status":"final","category":[{"coding":[{"system":"http://terminology.hl7.org/CodeSystem/observation-category"}]}],"code":{"coding":[{"system":"http://loinc.org","version":"2.73","code":"10351-5","display":"HIV 1 RNA [Units/volume] (viral load) in Serum or Plasma by Probe with amplification","userSelected":true}]},"subject":{"reference":"Patient/4fb37f38-8be8-4963-8386-38c98cc095c8"},"effectiveDateTime":"2025-11-22T08:00:00.000+00:00"},"request":{"method":"POST","url":"Observation/hiv-viral-load-f957"}},{"fullUrl":"https://madie.cms.gov/Coverage/1","resource":{"resourceType":"Coverage","id":"1","meta":{"profile":["http://hl7.org/fhir/us/qicore/StructureDefinition/qicore-coverage"]},"status":"active","beneficiary":{"reference":"Patient/4fb37f38-8be8-4963-8386-38c98cc095c8"},"payor":[{"reference":"Organization/123456"}]},"request":{"method":"POST","url":"Coverage/1"}},{"fullUrl":"https://madie.cms.gov/Organization/123456","resource":{"resourceType":"Organization","id":"123456","meta":{"profile":["http://hl7.org/fhir/us/qicore/StructureDefinition/qicore-organization"]},"identifier":[{"use":"temp","system":"urn:oid:2.16.840.1.113883.4.4","value":"21-3259825"}],"active":true,"type":[{"coding":[{"system":"http://terminology.hl7.org/CodeSystem/organization-type","code":"pay","display":"Payer"}]}],"name":"Blue Cross Blue Shield of Texas","telecom":[{"system":"phone","value":"(+1) 972-766-6900"}],"address":[{"use":"billing","type":"postal","line":["P.O. Box 660044"],"city":"Dallas","state":"TX","postalCode":"75266-0044","country":"USA"}]},"request":{"method":"POST","url":"Organization/123456"}},{"fullUrl":"https://madie.cms.gov/Practitioner/practitioner-123456","resource":{"resourceType":"Practitioner","id":"practitioner-123456","meta":{"profile":["http://hl7.org/fhir/us/qicore/StructureDefinition/qicore-practitioner"]},"identifier":[{"system":"http://hl7.org/fhir/sid/us-npi","value":"123456"}],"name":[{"family":"Evil","prefix":["Dr"]}]},"request":{"method":"POST","url":"Practitioner/practitioner-123456"}},{"fullUrl":"https://madie.cms.gov/MeasureReport/7c7515e2-8b9c-4c18-952b-3235f8d22592","resource":{"resourceType":"MeasureReport","id":"7c7515e2-8b9c-4c18-952b-3235f8d22592","meta":{"profile":["http://hl7.org/fhir/us/cqfmeasures/StructureDefinition/test-case-cqfm"]},"contained":[{"resourceType":"Parameters","id":"bfeabf50-ca12-4660-8e3a-8ae411b18177-parameters","parameter":[{"name":"subject","valueString":"4fb37f38-8be8-4963-8386-38c98cc095c8"}]}],"extension":[{"url":"http://hl7.org/fhir/us/cqfmeasures/StructureDefinition/cqfm-inputParameters","valueReference":{"reference":"#bfeabf50-ca12-4660-8e3a-8ae411b18177-parameters"}},{"url":"http://hl7.org/fhir/us/cqfmeasures/StructureDefinition/cqfm-testCaseDescription","valueMarkdown":"Patient has VL test more than 240 days after start of MP and no other encounters."}],"modifierExtension":[{"url":"http://hl7.org/fhir/us/cqfmeasures/StructureDefinition/cqfm-isTestCase","valueBoolean":true}],"status":"complete","type":"individual","measure":"https://madie.cms.gov/Measure/HIVRetentionFHIR","period":{"start":"2025-01-01","end":"2025-12-31"},"group":[{"population":[{"code":{"coding":[{"system":"http://terminology.hl7.org/CodeSystem/measure-population","code":"initial-population","display":"Initial Population"}]},"count":0},{"code":{"coding":[{"system":"http://terminology.hl7.org/CodeSystem/measure-population","code":"denominator","display":"Denominator"}]},"count":0},{"code":{"coding":[{"system":"http://terminology.hl7.org/CodeSystem/measure-population","code":"numerator","display":"Numerator"}]},"count":0}]}],"evaluatedResource":[{"reference":"https://madie.cms.gov/Patient/4fb37f38-8be8-4963-8386-38c98cc095c8"},{"reference":"https://madie.cms.gov/Condition/hiv-f956"},{"reference":"https://madie.cms.gov/Observation/hiv-viral-load-f957"},{"reference":"https://madie.cms.gov/Coverage/1"},{"reference":"https://madie.cms.gov/Organization/123456"},{"reference":"https://madie.cms.gov/Practitioner/practitioner-123456"}]},"request":{"method":"POST","url":"MeasureReport/7c7515e2-8b9c-4c18-952b-3235f8d22592"}}]},"request":{"method":"PUT","url":"Bundle/64947021d09ece2c2e9bf955"}}]}