{"resourceType":"Bundle","id":"tests-89de85c7-996d-40f2-bbdb-2495c659b959-bundle","type":"transaction","entry":[{"fullUrl":"https://madie.cms.gov/Patient/89de85c7-996d-40f2-bbdb-2495c659b959","resource":{"resourceType":"Patient","id":"89de85c7-996d-40f2-bbdb-2495c659b959","meta":{"profile":["http://hl7.org/fhir/us/qicore/StructureDefinition/qicore-patient"]},"extension":[{"url":"http://hl7.org/fhir/us/core/StructureDefinition/us-core-race","extension":[{"url":"ombCategory","valueCoding":{"system":"urn:oid:2.16.840.1.113883.6.238","code":"1002-5","display":"American Indian or Alaska Native","userSelected":true}},{"url":"text","valueString":"American Indian or Alaska Native"}]},{"url":"http://hl7.org/fhir/us/core/StructureDefinition/us-core-ethnicity","extension":[{"url":"ombCategory","valueCoding":{"system":"urn:oid:2.16.840.1.113883.6.238","code":"2135-2","display":"Hispanic or Latino","userSelected":true}},{"url":"text","valueString":"Hispanic or Latino"}]}],"identifier":[{"type":{"coding":[{"system":"http://terminology.hl7.org/CodeSystem/v2-0203","code":"MR"}]},"system":"https://bonnie-fhir.healthit.gov/","value":"64945f79d09ece2c2e9bf904"}],"name":[{"family":"6NumFail","given":["TwoEncLessThan90DaysApart"]}],"gender":"female","birthDate":"1946-01-05"},"request":{"method":"PUT","url":"Patient/89de85c7-996d-40f2-bbdb-2495c659b959"}},{"fullUrl":"https://madie.cms.gov/Condition/hiv-f905","resource":{"resourceType":"Condition","id":"31f419a2-3556-4eb5-a8a0-0600f55b375b","meta":{"profile":["http://hl7.org/fhir/us/qicore/StructureDefinition/qicore-condition"]},"clinicalStatus":{"coding":[{"system":"http://terminology.hl7.org/CodeSystem/condition-clinical","code":"active","display":"active","userSelected":true}]},"category":[{"coding":[{"system":"http://terminology.hl7.org/CodeSystem/condition-category","code":"problem-list-item","display":"Problem List Item"}]}],"code":{"coding":[{"system":"http://hl7.org/fhir/sid/icd-9-cm","version":"2013","code":"042","display":"Human immunodeficiency virus [HIV] disease","userSelected":true},{"system":"http://snomed.info/sct","code":"165816005","userSelected":true}]},"subject":{"reference":"Patient/89de85c7-996d-40f2-bbdb-2495c659b959"},"onsetDateTime":"2022-01-08T08:00:00.000+00:00","recordedDate":"2022-01-08T08:00:00.000+00:00"},"request":{"method":"PUT","url":"Condition/31f419a2-3556-4eb5-a8a0-0600f55b375b"}},{"fullUrl":"https://madie.cms.gov/Encounter/preventive-care-services-initial-office-visit-18-and-up-f906","resource":{"resourceType":"Encounter","id":"d6c6b656-e5a0-4df3-9370-3f080d67d6d6","meta":{"profile":["http://hl7.org/fhir/us/qicore/StructureDefinition/qicore-encounter"]},"status":"finished","class":{"system":"http://terminology.hl7.org/CodeSystem/v3-ActCode","code":"AMB","display":"ambulatory"},"type":[{"coding":[{"system":"http://www.ama-assn.org/go/cpt","version":"2023","code":"99395","display":"Periodic comprehensive preventive medicine reevaluation and management of an individual including an age and gender appropriate history, examination, counseling/anticipatory guidance/risk factor reduction interventions, and the ordering of laboratory/diagnostic procedures, established patient; 18-39 years","userSelected":true}]}],"subject":{"reference":"Patient/89de85c7-996d-40f2-bbdb-2495c659b959"},"period":{"start":"2025-02-01T08:00:00.000+00:00","end":"2025-02-01T08:15:00.000+00:00"}},"request":{"method":"PUT","url":"Encounter/d6c6b656-e5a0-4df3-9370-3f080d67d6d6"}},{"fullUrl":"https://madie.cms.gov/Encounter/home-visits-f907","resource":{"resourceType":"Encounter","id":"930028cf-94e3-4770-b0d7-a02bd0e594c5","meta":{"profile":["http://hl7.org/fhir/us/qicore/StructureDefinition/qicore-encounter"]},"status":"finished","class":{"system":"http://terminology.hl7.org/CodeSystem/v3-ActCode","code":"AMB","display":"ambulatory"},"type":[{"coding":[{"system":"http://snomed.info/sct","version":"2022-09","code":"439708006","display":"Home visit (procedure)","userSelected":true}]}],"subject":{"reference":"Patient/89de85c7-996d-40f2-bbdb-2495c659b959"},"period":{"start":"2025-04-01T08:00:00.000+00:00","end":"2025-04-01T08:35:00.000+00:00"}},"request":{"method":"PUT","url":"Encounter/930028cf-94e3-4770-b0d7-a02bd0e594c5"}},{"fullUrl":"https://madie.cms.gov/Coverage/1","resource":{"resourceType":"Coverage","id":"463d7e8e-5ec4-409b-8156-1b96d9ce43f7","meta":{"profile":["http://hl7.org/fhir/us/qicore/StructureDefinition/qicore-coverage"]},"status":"active","beneficiary":{"reference":"Patient/89de85c7-996d-40f2-bbdb-2495c659b959"},"payor":[{"reference":"Organization/5224cb12-ed64-4d6d-ab28-40a64f0800f1"}]},"request":{"method":"PUT","url":"Coverage/463d7e8e-5ec4-409b-8156-1b96d9ce43f7"}},{"fullUrl":"https://madie.cms.gov/Organization/123456","resource":{"resourceType":"Organization","id":"5224cb12-ed64-4d6d-ab28-40a64f0800f1","meta":{"profile":["http://hl7.org/fhir/us/qicore/StructureDefinition/qicore-organization"]},"identifier":[{"use":"temp","system":"urn:oid:2.16.840.1.113883.4.4","value":"21-3259825"}],"active":true,"type":[{"coding":[{"system":"http://terminology.hl7.org/CodeSystem/organization-type","code":"pay","display":"Payer"}]}],"name":"Blue Cross Blue Shield of Texas","telecom":[{"system":"phone","value":"(+1) 972-766-6900"}],"address":[{"use":"billing","type":"postal","line":["P.O. Box 660044"],"city":"Dallas","state":"TX","postalCode":"75266-0044","country":"USA"}]},"request":{"method":"PUT","url":"Organization/5224cb12-ed64-4d6d-ab28-40a64f0800f1"}},{"fullUrl":"https://madie.cms.gov/Practitioner/practitioner-123456","resource":{"resourceType":"Practitioner","id":"a36e9ae9-9775-43cc-9f6f-e4aa2d196983","meta":{"profile":["http://hl7.org/fhir/us/qicore/StructureDefinition/qicore-practitioner"]},"identifier":[{"system":"http://hl7.org/fhir/sid/us-npi","value":"123456"}],"name":[{"family":"Evil","prefix":["Dr"]}]},"request":{"method":"PUT","url":"Practitioner/a36e9ae9-9775-43cc-9f6f-e4aa2d196983"}},{"fullUrl":"https://madie.cms.gov/MeasureReport/584e2a7e-04f1-433c-bc57-2a4b952e5258","resource":{"resourceType":"MeasureReport","id":"584e2a7e-04f1-433c-bc57-2a4b952e5258","meta":{"profile":["http://hl7.org/fhir/us/cqfmeasures/StructureDefinition/test-case-cqfm"]},"contained":[{"resourceType":"Parameters","id":"c83f984c-23f2-4746-b966-e2b030322f19-parameters","parameter":[{"name":"subject","valueString":"89de85c7-996d-40f2-bbdb-2495c659b959"}]}],"extension":[{"url":"http://hl7.org/fhir/us/cqfmeasures/StructureDefinition/cqfm-inputParameters","valueReference":{"reference":"#c83f984c-23f2-4746-b966-e2b030322f19-parameters"}},{"url":"http://hl7.org/fhir/us/cqfmeasures/StructureDefinition/cqfm-testCaseDescription","valueMarkdown":"The patient has two encounters in less than 60 days. Expect numerator to fail."}],"modifierExtension":[{"url":"http://hl7.org/fhir/us/cqfmeasures/StructureDefinition/cqfm-isTestCase","valueBoolean":true}],"status":"complete","type":"individual","measure":"https://madie.cms.gov/Measure/HIVRetentionFHIR","period":{"start":"2025-01-01","end":"2025-12-31"},"group":[{"population":[{"code":{"coding":[{"system":"http://terminology.hl7.org/CodeSystem/measure-population","code":"initial-population","display":"Initial Population"}]},"count":1},{"code":{"coding":[{"system":"http://terminology.hl7.org/CodeSystem/measure-population","code":"denominator","display":"Denominator"}]},"count":1},{"code":{"coding":[{"system":"http://terminology.hl7.org/CodeSystem/measure-population","code":"numerator","display":"Numerator"}]},"count":0}]}]},"request":{"method":"PUT","url":"MeasureReport/584e2a7e-04f1-433c-bc57-2a4b952e5258"}}]}