{"resourceType":"Bundle","id":"tests-c1ac2e8a-6c58-4c63-943c-e73bc94e209a-bundle","type":"transaction","entry":[{"fullUrl":"https://madie.cms.gov/Patient/c1ac2e8a-6c58-4c63-943c-e73bc94e209a","resource":{"resourceType":"Patient","id":"c1ac2e8a-6c58-4c63-943c-e73bc94e209a","meta":{"profile":["http://hl7.org/fhir/us/qicore/StructureDefinition/qicore-patient"]},"extension":[{"url":"http://hl7.org/fhir/us/core/StructureDefinition/us-core-race","extension":[{"url":"ombCategory","valueCoding":{"system":"urn:oid:2.16.840.1.113883.6.238","code":"2106-3","display":"White","userSelected":true}},{"url":"text","valueString":"White"}]},{"url":"http://hl7.org/fhir/us/core/StructureDefinition/us-core-ethnicity","extension":[{"url":"ombCategory","valueCoding":{"system":"urn:oid:2.16.840.1.113883.6.238","code":"2186-5","display":"Not Hispanic or Latino","userSelected":true}},{"url":"text","valueString":"Not Hispanic or Latino"}]}],"identifier":[{"type":{"coding":[{"system":"http://terminology.hl7.org/CodeSystem/v2-0203","code":"MR"}]},"system":"https://bonnie-fhir.healthit.gov/","value":"64946654d09ece2c2e9bf919"}],"name":[{"family":"11NumPass","given":["EncEachMonthVLEachMonth"]}],"gender":"male","birthDate":"1976-10-01"},"request":{"method":"PUT","url":"Patient/c1ac2e8a-6c58-4c63-943c-e73bc94e209a"}},{"fullUrl":"https://madie.cms.gov/Condition/hiv-f91a","resource":{"resourceType":"Condition","id":"f5cfcbc4-48eb-413c-8c74-3cc0ea52f9d3","meta":{"profile":["http://hl7.org/fhir/us/qicore/StructureDefinition/qicore-condition"]},"clinicalStatus":{"coding":[{"system":"http://terminology.hl7.org/CodeSystem/condition-clinical","code":"active","display":"active","userSelected":true}]},"category":[{"coding":[{"system":"http://terminology.hl7.org/CodeSystem/condition-category","code":"problem-list-item","display":"Problem List Item"}]}],"code":{"coding":[{"system":"http://hl7.org/fhir/sid/icd-9-cm","version":"2013","code":"042","display":"Human immunodeficiency virus [HIV] disease","userSelected":true},{"system":"http://snomed.info/sct","code":"165816005","userSelected":true}]},"subject":{"reference":"Patient/c1ac2e8a-6c58-4c63-943c-e73bc94e209a"},"onsetDateTime":"2021-06-13T08:00:00.000+00:00","recordedDate":"2021-06-13T08:00:00.000+00:00"},"request":{"method":"PUT","url":"Condition/f5cfcbc4-48eb-413c-8c74-3cc0ea52f9d3"}},{"fullUrl":"https://madie.cms.gov/Encounter/face-to-face-interaction-f91b","resource":{"resourceType":"Encounter","id":"7e25f595-6be5-480b-8670-5e665ec556a0","meta":{"profile":["http://hl7.org/fhir/us/qicore/StructureDefinition/qicore-encounter"]},"status":"finished","class":{"system":"http://terminology.hl7.org/CodeSystem/v3-ActCode","code":"AMB","display":"ambulatory"},"type":[{"coding":[{"system":"http://snomed.info/sct","version":"2022-09","code":"12843005","display":"Subsequent hospital visit by physician (procedure)","userSelected":true}]}],"subject":{"reference":"Patient/c1ac2e8a-6c58-4c63-943c-e73bc94e209a"},"period":{"start":"2025-01-01T08:00:00.000+00:00","end":"2025-01-01T08:15:00.000+00:00"}},"request":{"method":"PUT","url":"Encounter/7e25f595-6be5-480b-8670-5e665ec556a0"}},{"fullUrl":"https://madie.cms.gov/Encounter/outpatient-consultation-f91c","resource":{"resourceType":"Encounter","id":"be25b504-a308-40de-9ca8-fa829fae1195","meta":{"profile":["http://hl7.org/fhir/us/qicore/StructureDefinition/qicore-encounter"]},"status":"finished","class":{"system":"http://terminology.hl7.org/CodeSystem/v3-ActCode","code":"AMB","display":"ambulatory"},"type":[{"coding":[{"system":"http://snomed.info/sct","version":"2022-09","code":"281036007","display":"Follow-up consultation (procedure)","userSelected":true}]}],"subject":{"reference":"Patient/c1ac2e8a-6c58-4c63-943c-e73bc94e209a"},"period":{"start":"2025-02-01T08:00:00.000+00:00","end":"2025-02-01T08:15:00.000+00:00"}},"request":{"method":"PUT","url":"Encounter/be25b504-a308-40de-9ca8-fa829fae1195"}},{"fullUrl":"https://madie.cms.gov/Encounter/outpatient-consultation-f91d","resource":{"resourceType":"Encounter","id":"7526a556-8474-4763-a3f9-f63332b7707e","meta":{"profile":["http://hl7.org/fhir/us/qicore/StructureDefinition/qicore-encounter"]},"status":"finished","class":{"system":"http://terminology.hl7.org/CodeSystem/v3-ActCode","code":"AMB","display":"ambulatory"},"type":[{"coding":[{"system":"http://snomed.info/sct","version":"2022-09","code":"281036007","display":"Follow-up consultation (procedure)","userSelected":true}]}],"subject":{"reference":"Patient/c1ac2e8a-6c58-4c63-943c-e73bc94e209a"},"period":{"start":"2025-03-01T08:00:00.000+00:00","end":"2025-03-01T08:15:00.000+00:00"}},"request":{"method":"PUT","url":"Encounter/7526a556-8474-4763-a3f9-f63332b7707e"}},{"fullUrl":"https://madie.cms.gov/Encounter/annual-wellness-visit-f91e","resource":{"resourceType":"Encounter","id":"e9385f5c-dda9-4915-88f3-3fcf3b617c56","meta":{"profile":["http://hl7.org/fhir/us/qicore/StructureDefinition/qicore-encounter"]},"status":"finished","class":{"system":"http://terminology.hl7.org/CodeSystem/v3-ActCode","code":"AMB","display":"ambulatory"},"type":[{"coding":[{"system":"http://snomed.info/sct","version":"2022-09","code":"444971000124105","display":"Annual wellness visit (procedure)","userSelected":true}]}],"subject":{"reference":"Patient/c1ac2e8a-6c58-4c63-943c-e73bc94e209a"},"period":{"start":"2025-04-01T08:00:00.000+00:00","end":"2025-04-01T08:15:00.000+00:00"}},"request":{"method":"PUT","url":"Encounter/e9385f5c-dda9-4915-88f3-3fcf3b617c56"}},{"fullUrl":"https://madie.cms.gov/Encounter/preventive-care-services-established-office-visit-18-and-up-f91f","resource":{"resourceType":"Encounter","id":"46a257aa-1565-473c-9c70-f5d78c9b1059","meta":{"profile":["http://hl7.org/fhir/us/qicore/StructureDefinition/qicore-encounter"]},"status":"finished","class":{"system":"http://terminology.hl7.org/CodeSystem/v3-ActCode","code":"AMB","display":"ambulatory"},"type":[{"coding":[{"system":"http://www.ama-assn.org/go/cpt","version":"2023","code":"99395","display":"Periodic comprehensive preventive medicine reevaluation and management of an individual including an age and gender appropriate history, examination, counseling/anticipatory guidance/risk factor reduction interventions, and the ordering of laboratory/diagnostic procedures, established patient; 18-39 years","userSelected":true}]}],"subject":{"reference":"Patient/c1ac2e8a-6c58-4c63-943c-e73bc94e209a"},"period":{"start":"2025-05-01T08:00:00.000+00:00","end":"2025-05-01T08:15:00.000+00:00"}},"request":{"method":"PUT","url":"Encounter/46a257aa-1565-473c-9c70-f5d78c9b1059"}},{"fullUrl":"https://madie.cms.gov/Encounter/preventive-care-services-established-office-visit-18-and-up-f920","resource":{"resourceType":"Encounter","id":"b8ee248c-6c97-4ac0-a9dd-5271b4e09f13","meta":{"profile":["http://hl7.org/fhir/us/qicore/StructureDefinition/qicore-encounter"]},"status":"finished","class":{"system":"http://terminology.hl7.org/CodeSystem/v3-ActCode","code":"AMB","display":"ambulatory"},"type":[{"coding":[{"system":"http://www.ama-assn.org/go/cpt","version":"2023","code":"99395","display":"Periodic comprehensive preventive medicine reevaluation and management of an individual including an age and gender appropriate history, examination, counseling/anticipatory guidance/risk factor reduction interventions, and the ordering of laboratory/diagnostic procedures, established patient; 18-39 years","userSelected":true}]}],"subject":{"reference":"Patient/c1ac2e8a-6c58-4c63-943c-e73bc94e209a"},"period":{"start":"2025-06-01T08:00:00.000+00:00","end":"2025-06-01T08:15:00.000+00:00"}},"request":{"method":"PUT","url":"Encounter/b8ee248c-6c97-4ac0-a9dd-5271b4e09f13"}},{"fullUrl":"https://madie.cms.gov/Encounter/telephone-visits-f921","resource":{"resourceType":"Encounter","id":"1bd30ad3-658d-4078-9be5-52998aba7369","meta":{"profile":["http://hl7.org/fhir/us/qicore/StructureDefinition/qicore-encounter"]},"status":"finished","class":{"system":"http://terminology.hl7.org/CodeSystem/v3-ActCode","code":"AMB","display":"ambulatory"},"type":[{"coding":[{"system":"http://snomed.info/sct","version":"2022-09","code":"185317003","display":"Telephone encounter (procedure)","userSelected":true}]}],"subject":{"reference":"Patient/c1ac2e8a-6c58-4c63-943c-e73bc94e209a"},"period":{"start":"2025-07-01T08:00:00.000+00:00","end":"2025-07-01T08:15:00.000+00:00"}},"request":{"method":"PUT","url":"Encounter/1bd30ad3-658d-4078-9be5-52998aba7369"}},{"fullUrl":"https://madie.cms.gov/Encounter/telephone-visits-f922","resource":{"resourceType":"Encounter","id":"75f9319b-8ab2-4e11-941b-67c69f112c74","meta":{"profile":["http://hl7.org/fhir/us/qicore/StructureDefinition/qicore-encounter"]},"status":"finished","class":{"system":"http://terminology.hl7.org/CodeSystem/v3-ActCode","code":"AMB","display":"ambulatory"},"type":[{"coding":[{"system":"http://snomed.info/sct","version":"2022-09","code":"185317003","display":"Telephone encounter (procedure)","userSelected":true}]}],"subject":{"reference":"Patient/c1ac2e8a-6c58-4c63-943c-e73bc94e209a"},"period":{"start":"2025-08-01T08:00:00.000+00:00","end":"2025-08-01T08:15:00.000+00:00"}},"request":{"method":"PUT","url":"Encounter/75f9319b-8ab2-4e11-941b-67c69f112c74"}},{"fullUrl":"https://madie.cms.gov/Encounter/encounter-inpatient-f923","resource":{"resourceType":"Encounter","id":"bc6b289f-7cf0-4698-a6f3-d2d66865690a","meta":{"profile":["http://hl7.org/fhir/us/qicore/StructureDefinition/qicore-encounter"]},"status":"finished","class":{"system":"http://terminology.hl7.org/CodeSystem/v3-ActCode","code":"EMER","display":"emergency"},"type":[{"coding":[{"system":"http://snomed.info/sct","version":"2022-09","code":"183452005","display":"Emergency hospital admission (procedure)","userSelected":true}]}],"subject":{"reference":"Patient/c1ac2e8a-6c58-4c63-943c-e73bc94e209a"},"period":{"start":"2025-09-01T08:00:00.000+00:00","end":"2025-09-01T08:15:00.000+00:00"}},"request":{"method":"PUT","url":"Encounter/bc6b289f-7cf0-4698-a6f3-d2d66865690a"}},{"fullUrl":"https://madie.cms.gov/Encounter/observation-services-f924","resource":{"resourceType":"Encounter","id":"c7c68561-8d6f-4012-ad3d-2aa7b0cfad51","meta":{"profile":["http://hl7.org/fhir/us/qicore/StructureDefinition/qicore-encounter"]},"status":"finished","class":{"system":"http://terminology.hl7.org/CodeSystem/v3-ActCode","code":"OBSENC","display":"observation encounter"},"type":[{"coding":[{"system":"http://snomed.info/sct","version":"2022-09","code":"448951000124107","display":"Admission to observation unit (procedure)","userSelected":true}]}],"subject":{"reference":"Patient/c1ac2e8a-6c58-4c63-943c-e73bc94e209a"},"period":{"start":"2025-10-01T08:00:00.000+00:00","end":"2025-10-01T08:15:00.000+00:00"}},"request":{"method":"PUT","url":"Encounter/c7c68561-8d6f-4012-ad3d-2aa7b0cfad51"}},{"fullUrl":"https://madie.cms.gov/Encounter/outpatient-surgery-service-f925","resource":{"resourceType":"Encounter","id":"44e2ec2e-c849-410e-ab10-1605d90b8c00","meta":{"profile":["http://hl7.org/fhir/us/qicore/StructureDefinition/qicore-encounter"]},"status":"finished","class":{"system":"http://terminology.hl7.org/CodeSystem/v3-ActCode","code":"AMB","display":"ambulatory"},"type":[{"coding":[{"system":"http://snomed.info/sct","version":"2022-09","code":"110468005","display":"Ambulatory surgery (procedure)","userSelected":true}]}],"subject":{"reference":"Patient/c1ac2e8a-6c58-4c63-943c-e73bc94e209a"},"period":{"start":"2025-11-01T08:00:00.000+00:00","end":"2025-11-01T08:15:00.000+00:00"}},"request":{"method":"PUT","url":"Encounter/44e2ec2e-c849-410e-ab10-1605d90b8c00"}},{"fullUrl":"https://madie.cms.gov/Encounter/encounter-inpatient-f926","resource":{"resourceType":"Encounter","id":"8473986c-ff51-4d85-9931-aa4f42da8867","meta":{"profile":["http://hl7.org/fhir/us/qicore/StructureDefinition/qicore-encounter"]},"status":"finished","class":{"system":"http://terminology.hl7.org/CodeSystem/v3-ActCode","code":"EMER","display":"emergency"},"type":[{"coding":[{"system":"http://snomed.info/sct","version":"2022-09","code":"183452005","display":"Emergency hospital admission (procedure)","userSelected":true}]}],"subject":{"reference":"Patient/c1ac2e8a-6c58-4c63-943c-e73bc94e209a"},"period":{"start":"2025-12-01T08:00:00.000+00:00","end":"2025-12-01T08:15:00.000+00:00"}},"request":{"method":"PUT","url":"Encounter/8473986c-ff51-4d85-9931-aa4f42da8867"}},{"fullUrl":"https://madie.cms.gov/Observation/hiv-viral-load-f927","resource":{"resourceType":"Observation","id":"6c891a72-c413-4059-a3e4-13af90cfa5fe","meta":{"profile":["http://hl7.org/fhir/us/qicore/StructureDefinition/qicore-observation"]},"status":"final","category":[{"coding":[{"system":"http://terminology.hl7.org/CodeSystem/observation-category"}]}],"code":{"coding":[{"system":"http://loinc.org","version":"2.73","code":"10351-5","display":"HIV 1 RNA [Units/volume] (viral load) in Serum or Plasma by Probe with amplification","userSelected":true}]},"subject":{"reference":"Patient/c1ac2e8a-6c58-4c63-943c-e73bc94e209a"},"effectivePeriod":{"start":"2025-06-02T10:30:10+01:00","end":"2025-06-05T10:30:10+01:00"},"issued":"2025-06-01T08:00:00.000+00:00"},"request":{"method":"PUT","url":"Observation/6c891a72-c413-4059-a3e4-13af90cfa5fe"}},{"fullUrl":"https://madie.cms.gov/Observation/hiv-viral-load-f928","resource":{"resourceType":"Observation","id":"d664f03a-6f2b-4a36-ba4e-95dc7d58da73","meta":{"profile":["http://hl7.org/fhir/us/qicore/StructureDefinition/qicore-observation"]},"status":"final","category":[{"coding":[{"system":"http://terminology.hl7.org/CodeSystem/observation-category"}]}],"code":{"coding":[{"system":"http://loinc.org","version":"2.73","code":"10351-5","display":"HIV 1 RNA [Units/volume] (viral load) in Serum or Plasma by Probe with amplification","userSelected":true}]},"subject":{"reference":"Patient/c1ac2e8a-6c58-4c63-943c-e73bc94e209a"},"issued":"2025-02-01T08:00:00.000+00:00"},"request":{"method":"PUT","url":"Observation/d664f03a-6f2b-4a36-ba4e-95dc7d58da73"}},{"fullUrl":"https://madie.cms.gov/Observation/hiv-viral-load-f929","resource":{"resourceType":"Observation","id":"581ba11e-08c4-4a3b-8d2d-cbef6da89eae","meta":{"profile":["http://hl7.org/fhir/us/qicore/StructureDefinition/qicore-observation"]},"status":"final","category":[{"coding":[{"system":"http://terminology.hl7.org/CodeSystem/observation-category"}]}],"code":{"coding":[{"system":"http://loinc.org","version":"2.73","code":"10351-5","display":"HIV 1 RNA [Units/volume] (viral load) in Serum or Plasma by Probe with amplification","userSelected":true}]},"subject":{"reference":"Patient/c1ac2e8a-6c58-4c63-943c-e73bc94e209a"},"issued":"2025-03-01T08:00:00.000+00:00"},"request":{"method":"PUT","url":"Observation/581ba11e-08c4-4a3b-8d2d-cbef6da89eae"}},{"fullUrl":"https://madie.cms.gov/Observation/hiv-viral-load-f92a","resource":{"resourceType":"Observation","id":"c803d23e-6c37-4bd6-9fdc-a6fbe1b53bf2","meta":{"profile":["http://hl7.org/fhir/us/qicore/StructureDefinition/qicore-observation"]},"status":"final","category":[{"coding":[{"system":"http://terminology.hl7.org/CodeSystem/observation-category"}]}],"code":{"coding":[{"system":"http://loinc.org","version":"2.73","code":"10351-5","display":"HIV 1 RNA [Units/volume] (viral load) in Serum or Plasma by Probe with amplification","userSelected":true}]},"subject":{"reference":"Patient/c1ac2e8a-6c58-4c63-943c-e73bc94e209a"},"issued":"2025-04-01T08:00:00.000+00:00"},"request":{"method":"PUT","url":"Observation/c803d23e-6c37-4bd6-9fdc-a6fbe1b53bf2"}},{"fullUrl":"https://madie.cms.gov/Observation/hiv-viral-load-f92b","resource":{"resourceType":"Observation","id":"0e3986b6-3bc7-4154-b4fd-e204c0073947","meta":{"profile":["http://hl7.org/fhir/us/qicore/StructureDefinition/qicore-observation"]},"status":"final","category":[{"coding":[{"system":"http://terminology.hl7.org/CodeSystem/observation-category"}]}],"code":{"coding":[{"system":"http://loinc.org","version":"2.73","code":"10351-5","display":"HIV 1 RNA [Units/volume] (viral load) in Serum or Plasma by Probe with amplification","userSelected":true}]},"subject":{"reference":"Patient/c1ac2e8a-6c58-4c63-943c-e73bc94e209a"},"issued":"2025-05-01T08:00:00.000+00:00"},"request":{"method":"PUT","url":"Observation/0e3986b6-3bc7-4154-b4fd-e204c0073947"}},{"fullUrl":"https://madie.cms.gov/Observation/hiv-viral-load-f92c","resource":{"resourceType":"Observation","id":"c081f6b5-2fcf-4019-af45-070a3928f83d","meta":{"profile":["http://hl7.org/fhir/us/qicore/StructureDefinition/qicore-observation"]},"status":"final","category":[{"coding":[{"system":"http://terminology.hl7.org/CodeSystem/observation-category"}]}],"code":{"coding":[{"system":"http://loinc.org","version":"2.73","code":"10351-5","display":"HIV 1 RNA [Units/volume] (viral load) in Serum or Plasma by Probe with amplification","userSelected":true}]},"subject":{"reference":"Patient/c1ac2e8a-6c58-4c63-943c-e73bc94e209a"},"issued":"2025-06-01T08:00:00.000+00:00"},"request":{"method":"PUT","url":"Observation/c081f6b5-2fcf-4019-af45-070a3928f83d"}},{"fullUrl":"https://madie.cms.gov/Observation/hiv-viral-load-f92d","resource":{"resourceType":"Observation","id":"238c9f67-9ef4-433c-b853-fce127f4ae03","meta":{"profile":["http://hl7.org/fhir/us/qicore/StructureDefinition/qicore-observation"]},"status":"final","category":[{"coding":[{"system":"http://terminology.hl7.org/CodeSystem/observation-category"}]}],"code":{"coding":[{"system":"http://loinc.org","version":"2.73","code":"10351-5","display":"HIV 1 RNA [Units/volume] (viral load) in Serum or Plasma by Probe with amplification","userSelected":true}]},"subject":{"reference":"Patient/c1ac2e8a-6c58-4c63-943c-e73bc94e209a"},"issued":"2025-07-01T08:00:00.000+00:00"},"request":{"method":"PUT","url":"Observation/238c9f67-9ef4-433c-b853-fce127f4ae03"}},{"fullUrl":"https://madie.cms.gov/Observation/hiv-viral-load-f92e","resource":{"resourceType":"Observation","id":"8d0fc5b5-396b-4bbe-a0cb-d43a05724475","meta":{"profile":["http://hl7.org/fhir/us/qicore/StructureDefinition/qicore-observation"]},"status":"final","category":[{"coding":[{"system":"http://terminology.hl7.org/CodeSystem/observation-category"}]}],"code":{"coding":[{"system":"http://loinc.org","version":"2.73","code":"10351-5","display":"HIV 1 RNA [Units/volume] (viral load) in Serum or Plasma by Probe with amplification","userSelected":true}]},"subject":{"reference":"Patient/c1ac2e8a-6c58-4c63-943c-e73bc94e209a"},"issued":"2025-08-01T08:00:00.000+00:00"},"request":{"method":"PUT","url":"Observation/8d0fc5b5-396b-4bbe-a0cb-d43a05724475"}},{"fullUrl":"https://madie.cms.gov/Observation/hiv-viral-load-f92f","resource":{"resourceType":"Observation","id":"46778253-7864-48a8-a1eb-722c638add35","meta":{"profile":["http://hl7.org/fhir/us/qicore/StructureDefinition/qicore-observation"]},"status":"final","category":[{"coding":[{"system":"http://terminology.hl7.org/CodeSystem/observation-category"}]}],"code":{"coding":[{"system":"http://loinc.org","version":"2.73","code":"10351-5","display":"HIV 1 RNA [Units/volume] (viral load) in Serum or Plasma by Probe with amplification","userSelected":true}]},"subject":{"reference":"Patient/c1ac2e8a-6c58-4c63-943c-e73bc94e209a"},"issued":"2025-09-01T08:00:00.000+00:00"},"request":{"method":"PUT","url":"Observation/46778253-7864-48a8-a1eb-722c638add35"}},{"fullUrl":"https://madie.cms.gov/Observation/hiv-viral-load-f930","resource":{"resourceType":"Observation","id":"3f5d8b40-470b-4600-b44b-6e33c274eba9","meta":{"profile":["http://hl7.org/fhir/us/qicore/StructureDefinition/qicore-observation"]},"status":"final","category":[{"coding":[{"system":"http://terminology.hl7.org/CodeSystem/observation-category"}]}],"code":{"coding":[{"system":"http://loinc.org","version":"2.73","code":"10351-5","display":"HIV 1 RNA [Units/volume] (viral load) in Serum or Plasma by Probe with amplification","userSelected":true}]},"subject":{"reference":"Patient/c1ac2e8a-6c58-4c63-943c-e73bc94e209a"},"issued":"2025-10-01T08:00:00.000+00:00"},"request":{"method":"PUT","url":"Observation/3f5d8b40-470b-4600-b44b-6e33c274eba9"}},{"fullUrl":"https://madie.cms.gov/Observation/hiv-viral-load-f931","resource":{"resourceType":"Observation","id":"6390efbf-fed4-48e0-8e1b-1baba09f4e83","meta":{"profile":["http://hl7.org/fhir/us/qicore/StructureDefinition/qicore-observation"]},"status":"final","category":[{"coding":[{"system":"http://terminology.hl7.org/CodeSystem/observation-category"}]}],"code":{"coding":[{"system":"http://loinc.org","version":"2.73","code":"10351-5","display":"HIV 1 RNA [Units/volume] (viral load) in Serum or Plasma by Probe with amplification","userSelected":true}]},"subject":{"reference":"Patient/c1ac2e8a-6c58-4c63-943c-e73bc94e209a"},"issued":"2025-11-01T08:00:00.000+00:00"},"request":{"method":"PUT","url":"Observation/6390efbf-fed4-48e0-8e1b-1baba09f4e83"}},{"fullUrl":"https://madie.cms.gov/Observation/hiv-viral-load-f932","resource":{"resourceType":"Observation","id":"122adcdc-0dd7-406e-87f3-e54bd774df52","meta":{"profile":["http://hl7.org/fhir/us/qicore/StructureDefinition/qicore-observation"]},"status":"final","category":[{"coding":[{"system":"http://terminology.hl7.org/CodeSystem/observation-category"}]}],"code":{"coding":[{"system":"http://loinc.org","version":"2.73","code":"10351-5","display":"HIV 1 RNA [Units/volume] (viral load) in Serum or Plasma by Probe with amplification","userSelected":true}]},"subject":{"reference":"Patient/c1ac2e8a-6c58-4c63-943c-e73bc94e209a"},"issued":"2025-12-01T08:00:00.000+00:00"},"request":{"method":"PUT","url":"Observation/122adcdc-0dd7-406e-87f3-e54bd774df52"}},{"fullUrl":"https://madie.cms.gov/Coverage/1","resource":{"resourceType":"Coverage","id":"084dee8f-b931-4d88-8eab-d7406412935e","meta":{"profile":["http://hl7.org/fhir/us/qicore/StructureDefinition/qicore-coverage"]},"status":"active","beneficiary":{"reference":"Patient/c1ac2e8a-6c58-4c63-943c-e73bc94e209a"},"payor":[{"reference":"Organization/4da248b0-6e59-49b7-b80e-338aa21d299f"}]},"request":{"method":"PUT","url":"Coverage/084dee8f-b931-4d88-8eab-d7406412935e"}},{"fullUrl":"https://madie.cms.gov/Organization/123456","resource":{"resourceType":"Organization","id":"4da248b0-6e59-49b7-b80e-338aa21d299f","meta":{"profile":["http://hl7.org/fhir/us/qicore/StructureDefinition/qicore-organization"]},"identifier":[{"use":"temp","system":"urn:oid:2.16.840.1.113883.4.4","value":"21-3259825"}],"active":true,"type":[{"coding":[{"system":"http://terminology.hl7.org/CodeSystem/organization-type","code":"pay","display":"Payer"}]}],"name":"Blue Cross Blue Shield of Texas","telecom":[{"system":"phone","value":"(+1) 972-766-6900"}],"address":[{"use":"billing","type":"postal","line":["P.O. Box 660044"],"city":"Dallas","state":"TX","postalCode":"75266-0044","country":"USA"}]},"request":{"method":"PUT","url":"Organization/4da248b0-6e59-49b7-b80e-338aa21d299f"}},{"fullUrl":"https://madie.cms.gov/Practitioner/practitioner-123456","resource":{"resourceType":"Practitioner","id":"2f5f00a9-b417-4b66-82e0-908af120296f","meta":{"profile":["http://hl7.org/fhir/us/qicore/StructureDefinition/qicore-practitioner"]},"identifier":[{"system":"http://hl7.org/fhir/sid/us-npi","value":"123456"}],"name":[{"family":"Evil","prefix":["Dr"]}]},"request":{"method":"PUT","url":"Practitioner/2f5f00a9-b417-4b66-82e0-908af120296f"}},{"fullUrl":"https://madie.cms.gov/MeasureReport/9e814a9b-b41e-410c-bfe3-8b22bb701d32","resource":{"resourceType":"MeasureReport","id":"9e814a9b-b41e-410c-bfe3-8b22bb701d32","meta":{"profile":["http://hl7.org/fhir/us/cqfmeasures/StructureDefinition/test-case-cqfm"]},"contained":[{"resourceType":"Parameters","id":"33f60b88-b00e-44b3-8149-3c89e8d43594-parameters","parameter":[{"name":"subject","valueString":"c1ac2e8a-6c58-4c63-943c-e73bc94e209a"}]}],"extension":[{"url":"http://hl7.org/fhir/us/cqfmeasures/StructureDefinition/cqfm-inputParameters","valueReference":{"reference":"#33f60b88-b00e-44b3-8149-3c89e8d43594-parameters"}},{"url":"http://hl7.org/fhir/us/cqfmeasures/StructureDefinition/cqfm-testCaseDescription","valueMarkdown":"Patient has an encounter each month and a VL test each month"}],"modifierExtension":[{"url":"http://hl7.org/fhir/us/cqfmeasures/StructureDefinition/cqfm-isTestCase","valueBoolean":true}],"status":"complete","type":"individual","measure":"https://madie.cms.gov/Measure/HIVRetentionFHIR","period":{"start":"2025-01-01","end":"2025-12-31"},"group":[{"population":[{"code":{"coding":[{"system":"http://terminology.hl7.org/CodeSystem/measure-population","code":"initial-population","display":"Initial Population"}]},"count":1},{"code":{"coding":[{"system":"http://terminology.hl7.org/CodeSystem/measure-population","code":"denominator","display":"Denominator"}]},"count":1},{"code":{"coding":[{"system":"http://terminology.hl7.org/CodeSystem/measure-population","code":"numerator","display":"Numerator"}]},"count":1}]}]},"request":{"method":"PUT","url":"MeasureReport/9e814a9b-b41e-410c-bfe3-8b22bb701d32"}}]}