{"resourceType":"Bundle","id":"tests-944f86a3-e617-4a14-97b8-e5678fb92f8e-bundle","type":"transaction","entry":[{"fullUrl":"https://madie.cms.gov/Patient/944f86a3-e617-4a14-97b8-e5678fb92f8e","resource":{"resourceType":"Patient","id":"944f86a3-e617-4a14-97b8-e5678fb92f8e","meta":{"profile":["http://hl7.org/fhir/us/qicore/StructureDefinition/qicore-patient"]},"extension":[{"url":"http://hl7.org/fhir/us/core/StructureDefinition/us-core-race","extension":[{"url":"ombCategory","valueCoding":{"system":"urn:oid:2.16.840.1.113883.6.238","code":"2106-3","display":"White","userSelected":true}},{"url":"text","valueString":"White"}]},{"url":"http://hl7.org/fhir/us/core/StructureDefinition/us-core-ethnicity","extension":[{"url":"ombCategory","valueCoding":{"system":"urn:oid:2.16.840.1.113883.6.238","code":"2135-2","display":"Hispanic or Latino","userSelected":true}},{"url":"text","valueString":"Hispanic or Latino"}]}],"identifier":[{"type":{"coding":[{"system":"http://terminology.hl7.org/CodeSystem/v2-0203","code":"MR"}]},"system":"https://bonnie-fhir.healthit.gov/","value":"6494618ad09ece2c2e9bf90c"}],"name":[{"family":"8NumFail","given":["TwoEncwithOneDuringMPoneafterMP"]}],"gender":"male","birthDate":"1989-10-21"},"request":{"method":"PUT","url":"Patient/944f86a3-e617-4a14-97b8-e5678fb92f8e"}},{"fullUrl":"https://madie.cms.gov/Condition/hiv-f90d","resource":{"resourceType":"Condition","id":"45789b35-64d5-437a-9aa8-0ac6636b9e28","meta":{"profile":["http://hl7.org/fhir/us/qicore/StructureDefinition/qicore-condition"]},"clinicalStatus":{"coding":[{"system":"http://terminology.hl7.org/CodeSystem/condition-clinical","code":"active","display":"active","userSelected":true}]},"category":[{"coding":[{"system":"http://terminology.hl7.org/CodeSystem/condition-category","code":"problem-list-item","display":"Problem List Item"}]}],"code":{"coding":[{"system":"http://hl7.org/fhir/sid/icd-9-cm","version":"2013","code":"042","display":"Human immunodeficiency virus [HIV] disease","userSelected":true},{"system":"http://snomed.info/sct","code":"165816005","userSelected":true}]},"subject":{"reference":"Patient/944f86a3-e617-4a14-97b8-e5678fb92f8e"},"onsetDateTime":"2001-08-27T09:00:00.000+00:00","recordedDate":"2001-08-27T09:30:00.000+00:00"},"request":{"method":"PUT","url":"Condition/45789b35-64d5-437a-9aa8-0ac6636b9e28"}},{"fullUrl":"https://madie.cms.gov/Encounter/outpatient-consultation-f90e","resource":{"resourceType":"Encounter","id":"b2d1b03e-e8b9-4f1f-a5a1-300d1ee0bcbb","meta":{"profile":["http://hl7.org/fhir/us/qicore/StructureDefinition/qicore-encounter"]},"status":"finished","class":{"system":"http://terminology.hl7.org/CodeSystem/v3-ActCode","code":"AMB","display":"ambulatory"},"type":[{"coding":[{"system":"http://snomed.info/sct","version":"2022-09","code":"281036007","display":"Follow-up consultation (procedure)","userSelected":true}]}],"subject":{"reference":"Patient/944f86a3-e617-4a14-97b8-e5678fb92f8e"},"period":{"start":"2025-05-22T08:00:00.000+00:00","end":"2025-05-22T08:00:00.000+00:00"}},"request":{"method":"PUT","url":"Encounter/b2d1b03e-e8b9-4f1f-a5a1-300d1ee0bcbb"}},{"fullUrl":"https://madie.cms.gov/Encounter/face-to-face-interaction-f90f","resource":{"resourceType":"Encounter","id":"1097a255-fc3f-426b-ac9d-489c6817df3b","meta":{"profile":["http://hl7.org/fhir/us/qicore/StructureDefinition/qicore-encounter"]},"status":"finished","class":{"system":"http://terminology.hl7.org/CodeSystem/v3-ActCode","code":"IMP","display":"inpatient encounter"},"type":[{"coding":[{"system":"http://snomed.info/sct","version":"2022-09","code":"12843005","display":"Subsequent hospital visit by physician (procedure)","userSelected":true}]}],"subject":{"reference":"Patient/944f86a3-e617-4a14-97b8-e5678fb92f8e"},"period":{"start":"2026-01-01T00:00:00.000+00:00","end":"2026-01-01T08:15:00.000+00:00"}},"request":{"method":"PUT","url":"Encounter/1097a255-fc3f-426b-ac9d-489c6817df3b"}},{"fullUrl":"https://madie.cms.gov/Coverage/1","resource":{"resourceType":"Coverage","id":"b3b91c39-3759-4318-91cc-dd50fbd64229","meta":{"profile":["http://hl7.org/fhir/us/qicore/StructureDefinition/qicore-coverage"]},"status":"active","beneficiary":{"reference":"Patient/944f86a3-e617-4a14-97b8-e5678fb92f8e"},"payor":[{"reference":"Organization/806b0255-13cb-4f2b-9412-571554dd2169"}]},"request":{"method":"PUT","url":"Coverage/b3b91c39-3759-4318-91cc-dd50fbd64229"}},{"fullUrl":"https://madie.cms.gov/Organization/123456","resource":{"resourceType":"Organization","id":"806b0255-13cb-4f2b-9412-571554dd2169","meta":{"profile":["http://hl7.org/fhir/us/qicore/StructureDefinition/qicore-organization"]},"identifier":[{"use":"temp","system":"urn:oid:2.16.840.1.113883.4.4","value":"21-3259825"}],"active":true,"type":[{"coding":[{"system":"http://terminology.hl7.org/CodeSystem/organization-type","code":"pay","display":"Payer"}]}],"name":"Blue Cross Blue Shield of Texas","telecom":[{"system":"phone","value":"(+1) 972-766-6900"}],"address":[{"use":"billing","type":"postal","line":["P.O. Box 660044"],"city":"Dallas","state":"TX","postalCode":"75266-0044","country":"USA"}]},"request":{"method":"PUT","url":"Organization/806b0255-13cb-4f2b-9412-571554dd2169"}},{"fullUrl":"https://madie.cms.gov/Practitioner/practitioner-123456","resource":{"resourceType":"Practitioner","id":"116d42f1-31cb-4ab2-8cc4-c0ee8787b9b8","meta":{"profile":["http://hl7.org/fhir/us/qicore/StructureDefinition/qicore-practitioner"]},"identifier":[{"system":"http://hl7.org/fhir/sid/us-npi","value":"123456"}],"name":[{"family":"Evil","prefix":["Dr"]}]},"request":{"method":"PUT","url":"Practitioner/116d42f1-31cb-4ab2-8cc4-c0ee8787b9b8"}},{"fullUrl":"https://madie.cms.gov/MeasureReport/f387b2f0-7ea0-4207-9f90-48b065ebcf7b","resource":{"resourceType":"MeasureReport","id":"f387b2f0-7ea0-4207-9f90-48b065ebcf7b","meta":{"profile":["http://hl7.org/fhir/us/cqfmeasures/StructureDefinition/test-case-cqfm"]},"contained":[{"resourceType":"Parameters","id":"297d989d-acdc-4b76-b006-1c694e8c37ef-parameters","parameter":[{"name":"subject","valueString":"944f86a3-e617-4a14-97b8-e5678fb92f8e"}]}],"extension":[{"url":"http://hl7.org/fhir/us/cqfmeasures/StructureDefinition/cqfm-inputParameters","valueReference":{"reference":"#297d989d-acdc-4b76-b006-1c694e8c37ef-parameters"}},{"url":"http://hl7.org/fhir/us/cqfmeasures/StructureDefinition/cqfm-testCaseDescription","valueMarkdown":"Two encounters with one after the MP"}],"modifierExtension":[{"url":"http://hl7.org/fhir/us/cqfmeasures/StructureDefinition/cqfm-isTestCase","valueBoolean":true}],"status":"complete","type":"individual","measure":"https://madie.cms.gov/Measure/HIVRetentionFHIR","period":{"start":"2025-01-01","end":"2025-12-31"},"group":[{"population":[{"code":{"coding":[{"system":"http://terminology.hl7.org/CodeSystem/measure-population","code":"initial-population","display":"Initial Population"}]},"count":1},{"code":{"coding":[{"system":"http://terminology.hl7.org/CodeSystem/measure-population","code":"denominator","display":"Denominator"}]},"count":1},{"code":{"coding":[{"system":"http://terminology.hl7.org/CodeSystem/measure-population","code":"numerator","display":"Numerator"}]},"count":0}]}]},"request":{"method":"PUT","url":"MeasureReport/f387b2f0-7ea0-4207-9f90-48b065ebcf7b"}}]}