{"resourceType":"Bundle","id":"tests-12abed4a-8a88-4d4c-854c-ca9402dc2d08-bundle","type":"transaction","entry":[{"fullUrl":"https://madie.cms.gov/Patient/12abed4a-8a88-4d4c-854c-ca9402dc2d08","resource":{"resourceType":"Patient","id":"12abed4a-8a88-4d4c-854c-ca9402dc2d08","meta":{"profile":["http://hl7.org/fhir/us/qicore/StructureDefinition/qicore-patient"]},"extension":[{"url":"http://hl7.org/fhir/us/core/StructureDefinition/us-core-race","extension":[{"url":"ombCategory","valueCoding":{"system":"urn:oid:2.16.840.1.113883.6.238","code":"1002-5","display":"American Indian or Alaska Native","userSelected":true}},{"url":"text","valueString":"American Indian or Alaska Native"}]},{"url":"http://hl7.org/fhir/us/core/StructureDefinition/us-core-ethnicity","extension":[{"url":"ombCategory","valueCoding":{"system":"urn:oid:2.16.840.1.113883.6.238","code":"2135-2","display":"Hispanic or Latino","userSelected":true}},{"url":"text","valueString":"Hispanic or Latino"}]}],"identifier":[{"type":{"coding":[{"system":"http://terminology.hl7.org/CodeSystem/v2-0203","code":"MR"}]},"system":"https://bonnie-fhir.healthit.gov/","value":"649470b3d09ece2c2e9bf958"}],"name":[{"family":"23NumFail","given":["EncAndVLWithin90Days"]}],"gender":"unknown","birthDate":"1946-01-05"},"request":{"method":"PUT","url":"Patient/12abed4a-8a88-4d4c-854c-ca9402dc2d08"}},{"fullUrl":"https://madie.cms.gov/Condition/hiv-f959","resource":{"resourceType":"Condition","id":"4047f25d-2a38-443f-a529-91ddcc2326f5","meta":{"profile":["http://hl7.org/fhir/us/qicore/StructureDefinition/qicore-condition"]},"clinicalStatus":{"coding":[{"system":"http://terminology.hl7.org/CodeSystem/condition-clinical","code":"active","display":"active","userSelected":true}]},"category":[{"coding":[{"system":"http://terminology.hl7.org/CodeSystem/condition-category","code":"problem-list-item","display":"Problem List Item"}]}],"code":{"coding":[{"system":"http://hl7.org/fhir/sid/icd-9-cm","version":"2013","code":"042","display":"Human immunodeficiency virus [HIV] disease","userSelected":true},{"system":"http://snomed.info/sct","code":"165816005","userSelected":true}]},"subject":{"reference":"Patient/12abed4a-8a88-4d4c-854c-ca9402dc2d08"},"onsetDateTime":"1999-10-05T08:00:00.000+00:00","recordedDate":"2024-06-22T08:00:00.000+00:00"},"request":{"method":"PUT","url":"Condition/4047f25d-2a38-443f-a529-91ddcc2326f5"}},{"fullUrl":"https://madie.cms.gov/Observation/hiv-viral-load-f95a","resource":{"resourceType":"Observation","id":"2109d6a5-1f03-495c-bc53-08c13b08babe","meta":{"profile":["http://hl7.org/fhir/us/qicore/StructureDefinition/qicore-observation"]},"status":"final","category":[{"coding":[{"system":"http://terminology.hl7.org/CodeSystem/observation-category"}]}],"code":{"coding":[{"system":"http://loinc.org","version":"2.73","code":"10351-5","display":"HIV 1 RNA [Units/volume] (viral load) in Serum or Plasma by Probe with amplification","userSelected":true}]},"subject":{"reference":"Patient/12abed4a-8a88-4d4c-854c-ca9402dc2d08"},"effectiveDateTime":"2025-01-22T08:30:00.000+00:00"},"request":{"method":"PUT","url":"Observation/2109d6a5-1f03-495c-bc53-08c13b08babe"}},{"fullUrl":"https://madie.cms.gov/Encounter/office-visit-f95b","resource":{"resourceType":"Encounter","id":"8a78678f-7fbd-440b-8867-a92fa4922758","meta":{"profile":["http://hl7.org/fhir/us/qicore/StructureDefinition/qicore-encounter"]},"status":"finished","class":{"system":"http://terminology.hl7.org/CodeSystem/v3-ActCode","code":"AMB","display":"ambulatory"},"type":[{"coding":[{"system":"http://snomed.info/sct","version":"2022-09","code":"185463005","display":"Visit out of hours (procedure)","userSelected":true}]}],"subject":{"reference":"Patient/12abed4a-8a88-4d4c-854c-ca9402dc2d08"},"period":{"start":"2025-01-22T08:00:00.000+00:00","end":"2025-01-22T08:15:00.000+00:00"}},"request":{"method":"PUT","url":"Encounter/8a78678f-7fbd-440b-8867-a92fa4922758"}},{"fullUrl":"https://madie.cms.gov/Coverage/1","resource":{"resourceType":"Coverage","id":"33961bf4-31d0-4061-91a6-9705e38605f4","meta":{"profile":["http://hl7.org/fhir/us/qicore/StructureDefinition/qicore-coverage"]},"status":"active","beneficiary":{"reference":"Patient/12abed4a-8a88-4d4c-854c-ca9402dc2d08"},"payor":[{"reference":"Organization/80e3e0d1-b2aa-43a6-b1d2-00bfa3164a0f"}]},"request":{"method":"PUT","url":"Coverage/33961bf4-31d0-4061-91a6-9705e38605f4"}},{"fullUrl":"https://madie.cms.gov/Organization/123456","resource":{"resourceType":"Organization","id":"80e3e0d1-b2aa-43a6-b1d2-00bfa3164a0f","meta":{"profile":["http://hl7.org/fhir/us/qicore/StructureDefinition/qicore-organization"]},"identifier":[{"use":"temp","system":"urn:oid:2.16.840.1.113883.4.4","value":"21-3259825"}],"active":true,"type":[{"coding":[{"system":"http://terminology.hl7.org/CodeSystem/organization-type","code":"pay","display":"Payer"}]}],"name":"Blue Cross Blue Shield of Texas","telecom":[{"system":"phone","value":"(+1) 972-766-6900"}],"address":[{"use":"billing","type":"postal","line":["P.O. Box 660044"],"city":"Dallas","state":"TX","postalCode":"75266-0044","country":"USA"}]},"request":{"method":"PUT","url":"Organization/80e3e0d1-b2aa-43a6-b1d2-00bfa3164a0f"}},{"fullUrl":"https://madie.cms.gov/Practitioner/practitioner-123456","resource":{"resourceType":"Practitioner","id":"52100a42-e292-4931-a8e1-b126452a9f72","meta":{"profile":["http://hl7.org/fhir/us/qicore/StructureDefinition/qicore-practitioner"]},"identifier":[{"system":"http://hl7.org/fhir/sid/us-npi","value":"123456"}],"name":[{"family":"Evil","prefix":["Dr"]}]},"request":{"method":"PUT","url":"Practitioner/52100a42-e292-4931-a8e1-b126452a9f72"}},{"fullUrl":"https://madie.cms.gov/MeasureReport/8cf3497a-cba8-4362-b846-c7f43ea5702f","resource":{"resourceType":"MeasureReport","id":"8cf3497a-cba8-4362-b846-c7f43ea5702f","meta":{"profile":["http://hl7.org/fhir/us/cqfmeasures/StructureDefinition/test-case-cqfm"]},"contained":[{"resourceType":"Parameters","id":"c9baf633-4214-49f8-87f2-e766d49345f4-parameters","parameter":[{"name":"subject","valueString":"12abed4a-8a88-4d4c-854c-ca9402dc2d08"}]}],"extension":[{"url":"http://hl7.org/fhir/us/cqfmeasures/StructureDefinition/cqfm-inputParameters","valueReference":{"reference":"#c9baf633-4214-49f8-87f2-e766d49345f4-parameters"}},{"url":"http://hl7.org/fhir/us/cqfmeasures/StructureDefinition/cqfm-testCaseDescription","valueMarkdown":"Patient has an encounter and VL within 90 day period."}],"modifierExtension":[{"url":"http://hl7.org/fhir/us/cqfmeasures/StructureDefinition/cqfm-isTestCase","valueBoolean":true}],"status":"complete","type":"individual","measure":"https://madie.cms.gov/Measure/HIVRetentionFHIR","period":{"start":"2025-01-01","end":"2025-12-31"},"group":[{"population":[{"code":{"coding":[{"system":"http://terminology.hl7.org/CodeSystem/measure-population","code":"initial-population","display":"Initial Population"}]},"count":1},{"code":{"coding":[{"system":"http://terminology.hl7.org/CodeSystem/measure-population","code":"denominator","display":"Denominator"}]},"count":1},{"code":{"coding":[{"system":"http://terminology.hl7.org/CodeSystem/measure-population","code":"numerator","display":"Numerator"}]},"count":0}]}]},"request":{"method":"PUT","url":"MeasureReport/8cf3497a-cba8-4362-b846-c7f43ea5702f"}}]}