{"resourceType":"Bundle","id":"tests-c1ac2e8a-6c58-4c63-943c-e73bc94e209a-bundle","type":"transaction","entry":[{"fullUrl":"https://madie.cms.gov/Patient/c1ac2e8a-6c58-4c63-943c-e73bc94e209a","resource":{"resourceType":"Patient","id":"c1ac2e8a-6c58-4c63-943c-e73bc94e209a","meta":{"profile":["http://hl7.org/fhir/us/qicore/StructureDefinition/qicore-patient"]},"extension":[{"url":"http://hl7.org/fhir/us/core/StructureDefinition/us-core-race","extension":[{"url":"ombCategory","valueCoding":{"system":"urn:oid:2.16.840.1.113883.6.238","code":"2106-3","display":"White","userSelected":true}},{"url":"text","valueString":"White"}]},{"url":"http://hl7.org/fhir/us/core/StructureDefinition/us-core-ethnicity","extension":[{"url":"ombCategory","valueCoding":{"system":"urn:oid:2.16.840.1.113883.6.238","code":"2186-5","display":"Not Hispanic or Latino","userSelected":true}},{"url":"text","valueString":"Not Hispanic or Latino"}]}],"identifier":[{"type":{"coding":[{"system":"http://terminology.hl7.org/CodeSystem/v2-0203","code":"MR"}]},"system":"https://bonnie-fhir.healthit.gov/","value":"64946654d09ece2c2e9bf919"}],"name":[{"family":"11NumPass","given":["EncEachMonthVLEachMonth"]}],"gender":"male","birthDate":"1976-10-01"},"request":{"method":"PUT","url":"Patient/c1ac2e8a-6c58-4c63-943c-e73bc94e209a"}},{"fullUrl":"https://madie.cms.gov/Condition/hiv-f91a","resource":{"resourceType":"Condition","id":"53b84aba-d1f0-40c4-89a4-709293985ac3","meta":{"profile":["http://hl7.org/fhir/us/qicore/StructureDefinition/qicore-condition"]},"clinicalStatus":{"coding":[{"system":"http://terminology.hl7.org/CodeSystem/condition-clinical","code":"active","display":"active","userSelected":true}]},"category":[{"coding":[{"system":"http://terminology.hl7.org/CodeSystem/condition-category","code":"problem-list-item","display":"Problem List Item"}]}],"code":{"coding":[{"system":"http://hl7.org/fhir/sid/icd-9-cm","version":"2013","code":"042","display":"Human immunodeficiency virus [HIV] disease","userSelected":true},{"system":"http://snomed.info/sct","code":"165816005","userSelected":true}]},"subject":{"reference":"Patient/c1ac2e8a-6c58-4c63-943c-e73bc94e209a"},"onsetDateTime":"2021-06-13T08:00:00.000+00:00","recordedDate":"2021-06-13T08:00:00.000+00:00"},"request":{"method":"PUT","url":"Condition/53b84aba-d1f0-40c4-89a4-709293985ac3"}},{"fullUrl":"https://madie.cms.gov/Encounter/face-to-face-interaction-f91b","resource":{"resourceType":"Encounter","id":"1901ca10-b118-4043-8603-2c6427d24758","meta":{"profile":["http://hl7.org/fhir/us/qicore/StructureDefinition/qicore-encounter"]},"status":"finished","class":{"system":"http://terminology.hl7.org/CodeSystem/v3-ActCode","code":"AMB","display":"ambulatory"},"type":[{"coding":[{"system":"http://snomed.info/sct","version":"2022-09","code":"12843005","display":"Subsequent hospital visit by physician (procedure)","userSelected":true}]}],"subject":{"reference":"Patient/c1ac2e8a-6c58-4c63-943c-e73bc94e209a"},"period":{"start":"2025-01-01T08:00:00.000+00:00","end":"2025-01-01T08:15:00.000+00:00"}},"request":{"method":"PUT","url":"Encounter/1901ca10-b118-4043-8603-2c6427d24758"}},{"fullUrl":"https://madie.cms.gov/Encounter/outpatient-consultation-f91c","resource":{"resourceType":"Encounter","id":"f12459a8-a99d-4be1-bdea-c8c3ff7d62de","meta":{"profile":["http://hl7.org/fhir/us/qicore/StructureDefinition/qicore-encounter"]},"status":"finished","class":{"system":"http://terminology.hl7.org/CodeSystem/v3-ActCode","code":"AMB","display":"ambulatory"},"type":[{"coding":[{"system":"http://snomed.info/sct","version":"2022-09","code":"281036007","display":"Follow-up consultation (procedure)","userSelected":true}]}],"subject":{"reference":"Patient/c1ac2e8a-6c58-4c63-943c-e73bc94e209a"},"period":{"start":"2025-02-01T08:00:00.000+00:00","end":"2025-02-01T08:15:00.000+00:00"}},"request":{"method":"PUT","url":"Encounter/f12459a8-a99d-4be1-bdea-c8c3ff7d62de"}},{"fullUrl":"https://madie.cms.gov/Encounter/outpatient-consultation-f91d","resource":{"resourceType":"Encounter","id":"777c4355-0a78-4d9c-97b2-eb9c09cb6ac6","meta":{"profile":["http://hl7.org/fhir/us/qicore/StructureDefinition/qicore-encounter"]},"status":"finished","class":{"system":"http://terminology.hl7.org/CodeSystem/v3-ActCode","code":"AMB","display":"ambulatory"},"type":[{"coding":[{"system":"http://snomed.info/sct","version":"2022-09","code":"281036007","display":"Follow-up consultation (procedure)","userSelected":true}]}],"subject":{"reference":"Patient/c1ac2e8a-6c58-4c63-943c-e73bc94e209a"},"period":{"start":"2025-03-01T08:00:00.000+00:00","end":"2025-03-01T08:15:00.000+00:00"}},"request":{"method":"PUT","url":"Encounter/777c4355-0a78-4d9c-97b2-eb9c09cb6ac6"}},{"fullUrl":"https://madie.cms.gov/Encounter/annual-wellness-visit-f91e","resource":{"resourceType":"Encounter","id":"fae99150-de89-408d-bc86-d5286d1c6417","meta":{"profile":["http://hl7.org/fhir/us/qicore/StructureDefinition/qicore-encounter"]},"status":"finished","class":{"system":"http://terminology.hl7.org/CodeSystem/v3-ActCode","code":"AMB","display":"ambulatory"},"type":[{"coding":[{"system":"http://snomed.info/sct","version":"2022-09","code":"444971000124105","display":"Annual wellness visit (procedure)","userSelected":true}]}],"subject":{"reference":"Patient/c1ac2e8a-6c58-4c63-943c-e73bc94e209a"},"period":{"start":"2025-04-01T08:00:00.000+00:00","end":"2025-04-01T08:15:00.000+00:00"}},"request":{"method":"PUT","url":"Encounter/fae99150-de89-408d-bc86-d5286d1c6417"}},{"fullUrl":"https://madie.cms.gov/Encounter/preventive-care-services-established-office-visit-18-and-up-f91f","resource":{"resourceType":"Encounter","id":"8e5f15c8-7c19-4dea-87eb-519f9c9c203c","meta":{"profile":["http://hl7.org/fhir/us/qicore/StructureDefinition/qicore-encounter"]},"status":"finished","class":{"system":"http://terminology.hl7.org/CodeSystem/v3-ActCode","code":"AMB","display":"ambulatory"},"type":[{"coding":[{"system":"http://www.ama-assn.org/go/cpt","version":"2023","code":"99395","display":"Periodic comprehensive preventive medicine reevaluation and management of an individual including an age and gender appropriate history, examination, counseling/anticipatory guidance/risk factor reduction interventions, and the ordering of laboratory/diagnostic procedures, established patient; 18-39 years","userSelected":true}]}],"subject":{"reference":"Patient/c1ac2e8a-6c58-4c63-943c-e73bc94e209a"},"period":{"start":"2025-05-01T08:00:00.000+00:00","end":"2025-05-01T08:15:00.000+00:00"}},"request":{"method":"PUT","url":"Encounter/8e5f15c8-7c19-4dea-87eb-519f9c9c203c"}},{"fullUrl":"https://madie.cms.gov/Encounter/preventive-care-services-established-office-visit-18-and-up-f920","resource":{"resourceType":"Encounter","id":"c7b09c62-ca36-4957-9c09-9eb1053fe5ea","meta":{"profile":["http://hl7.org/fhir/us/qicore/StructureDefinition/qicore-encounter"]},"status":"finished","class":{"system":"http://terminology.hl7.org/CodeSystem/v3-ActCode","code":"AMB","display":"ambulatory"},"type":[{"coding":[{"system":"http://www.ama-assn.org/go/cpt","version":"2023","code":"99395","display":"Periodic comprehensive preventive medicine reevaluation and management of an individual including an age and gender appropriate history, examination, counseling/anticipatory guidance/risk factor reduction interventions, and the ordering of laboratory/diagnostic procedures, established patient; 18-39 years","userSelected":true}]}],"subject":{"reference":"Patient/c1ac2e8a-6c58-4c63-943c-e73bc94e209a"},"period":{"start":"2025-06-01T08:00:00.000+00:00","end":"2025-06-01T08:15:00.000+00:00"}},"request":{"method":"PUT","url":"Encounter/c7b09c62-ca36-4957-9c09-9eb1053fe5ea"}},{"fullUrl":"https://madie.cms.gov/Encounter/telephone-visits-f921","resource":{"resourceType":"Encounter","id":"556aaca0-1629-4ae9-9162-67d487c76e7e","meta":{"profile":["http://hl7.org/fhir/us/qicore/StructureDefinition/qicore-encounter"]},"status":"finished","class":{"system":"http://terminology.hl7.org/CodeSystem/v3-ActCode","code":"AMB","display":"ambulatory"},"type":[{"coding":[{"system":"http://snomed.info/sct","version":"2022-09","code":"185317003","display":"Telephone encounter (procedure)","userSelected":true}]}],"subject":{"reference":"Patient/c1ac2e8a-6c58-4c63-943c-e73bc94e209a"},"period":{"start":"2025-07-01T08:00:00.000+00:00","end":"2025-07-01T08:15:00.000+00:00"}},"request":{"method":"PUT","url":"Encounter/556aaca0-1629-4ae9-9162-67d487c76e7e"}},{"fullUrl":"https://madie.cms.gov/Encounter/telephone-visits-f922","resource":{"resourceType":"Encounter","id":"1fc9557d-a114-44da-b7cd-3744cc6beb79","meta":{"profile":["http://hl7.org/fhir/us/qicore/StructureDefinition/qicore-encounter"]},"status":"finished","class":{"system":"http://terminology.hl7.org/CodeSystem/v3-ActCode","code":"AMB","display":"ambulatory"},"type":[{"coding":[{"system":"http://snomed.info/sct","version":"2022-09","code":"185317003","display":"Telephone encounter (procedure)","userSelected":true}]}],"subject":{"reference":"Patient/c1ac2e8a-6c58-4c63-943c-e73bc94e209a"},"period":{"start":"2025-08-01T08:00:00.000+00:00","end":"2025-08-01T08:15:00.000+00:00"}},"request":{"method":"PUT","url":"Encounter/1fc9557d-a114-44da-b7cd-3744cc6beb79"}},{"fullUrl":"https://madie.cms.gov/Encounter/encounter-inpatient-f923","resource":{"resourceType":"Encounter","id":"1868f470-ed0e-4d38-868e-80eddaff05de","meta":{"profile":["http://hl7.org/fhir/us/qicore/StructureDefinition/qicore-encounter"]},"status":"finished","class":{"system":"http://terminology.hl7.org/CodeSystem/v3-ActCode","code":"EMER","display":"emergency"},"type":[{"coding":[{"system":"http://snomed.info/sct","version":"2022-09","code":"183452005","display":"Emergency hospital admission (procedure)","userSelected":true}]}],"subject":{"reference":"Patient/c1ac2e8a-6c58-4c63-943c-e73bc94e209a"},"period":{"start":"2025-09-01T08:00:00.000+00:00","end":"2025-09-01T08:15:00.000+00:00"}},"request":{"method":"PUT","url":"Encounter/1868f470-ed0e-4d38-868e-80eddaff05de"}},{"fullUrl":"https://madie.cms.gov/Encounter/observation-services-f924","resource":{"resourceType":"Encounter","id":"828c3b80-092a-4f76-9dbb-aa70465f8b1d","meta":{"profile":["http://hl7.org/fhir/us/qicore/StructureDefinition/qicore-encounter"]},"status":"finished","class":{"system":"http://terminology.hl7.org/CodeSystem/v3-ActCode","code":"OBSENC","display":"observation encounter"},"type":[{"coding":[{"system":"http://snomed.info/sct","version":"2022-09","code":"448951000124107","display":"Admission to observation unit (procedure)","userSelected":true}]}],"subject":{"reference":"Patient/c1ac2e8a-6c58-4c63-943c-e73bc94e209a"},"period":{"start":"2025-10-01T08:00:00.000+00:00","end":"2025-10-01T08:15:00.000+00:00"}},"request":{"method":"PUT","url":"Encounter/828c3b80-092a-4f76-9dbb-aa70465f8b1d"}},{"fullUrl":"https://madie.cms.gov/Encounter/outpatient-surgery-service-f925","resource":{"resourceType":"Encounter","id":"6103b54d-11ee-450e-bd99-291f75a8b9d4","meta":{"profile":["http://hl7.org/fhir/us/qicore/StructureDefinition/qicore-encounter"]},"status":"finished","class":{"system":"http://terminology.hl7.org/CodeSystem/v3-ActCode","code":"AMB","display":"ambulatory"},"type":[{"coding":[{"system":"http://snomed.info/sct","version":"2022-09","code":"110468005","display":"Ambulatory surgery (procedure)","userSelected":true}]}],"subject":{"reference":"Patient/c1ac2e8a-6c58-4c63-943c-e73bc94e209a"},"period":{"start":"2025-11-01T08:00:00.000+00:00","end":"2025-11-01T08:15:00.000+00:00"}},"request":{"method":"PUT","url":"Encounter/6103b54d-11ee-450e-bd99-291f75a8b9d4"}},{"fullUrl":"https://madie.cms.gov/Encounter/encounter-inpatient-f926","resource":{"resourceType":"Encounter","id":"33ec27f9-36cf-48f2-9d10-352c855ab593","meta":{"profile":["http://hl7.org/fhir/us/qicore/StructureDefinition/qicore-encounter"]},"status":"finished","class":{"system":"http://terminology.hl7.org/CodeSystem/v3-ActCode","code":"EMER","display":"emergency"},"type":[{"coding":[{"system":"http://snomed.info/sct","version":"2022-09","code":"183452005","display":"Emergency hospital admission (procedure)","userSelected":true}]}],"subject":{"reference":"Patient/c1ac2e8a-6c58-4c63-943c-e73bc94e209a"},"period":{"start":"2025-12-01T08:00:00.000+00:00","end":"2025-12-01T08:15:00.000+00:00"}},"request":{"method":"PUT","url":"Encounter/33ec27f9-36cf-48f2-9d10-352c855ab593"}},{"fullUrl":"https://madie.cms.gov/Observation/hiv-viral-load-f927","resource":{"resourceType":"Observation","id":"248996b6-3c46-4877-af0a-8dac4323d57f","meta":{"profile":["http://hl7.org/fhir/us/qicore/StructureDefinition/qicore-observation"]},"status":"final","category":[{"coding":[{"system":"http://terminology.hl7.org/CodeSystem/observation-category"}]}],"code":{"coding":[{"system":"http://loinc.org","version":"2.73","code":"10351-5","display":"HIV 1 RNA [Units/volume] (viral load) in Serum or Plasma by Probe with amplification","userSelected":true}]},"subject":{"reference":"Patient/c1ac2e8a-6c58-4c63-943c-e73bc94e209a"},"effectivePeriod":{"start":"2025-06-02T10:30:10+01:00","end":"2025-06-05T10:30:10+01:00"},"issued":"2025-06-01T08:00:00.000+00:00"},"request":{"method":"PUT","url":"Observation/248996b6-3c46-4877-af0a-8dac4323d57f"}},{"fullUrl":"https://madie.cms.gov/Observation/hiv-viral-load-f928","resource":{"resourceType":"Observation","id":"5c778ae1-7195-4fa6-b961-24161e911db4","meta":{"profile":["http://hl7.org/fhir/us/qicore/StructureDefinition/qicore-observation"]},"status":"final","category":[{"coding":[{"system":"http://terminology.hl7.org/CodeSystem/observation-category"}]}],"code":{"coding":[{"system":"http://loinc.org","version":"2.73","code":"10351-5","display":"HIV 1 RNA [Units/volume] (viral load) in Serum or Plasma by Probe with amplification","userSelected":true}]},"subject":{"reference":"Patient/c1ac2e8a-6c58-4c63-943c-e73bc94e209a"},"issued":"2025-02-01T08:00:00.000+00:00"},"request":{"method":"PUT","url":"Observation/5c778ae1-7195-4fa6-b961-24161e911db4"}},{"fullUrl":"https://madie.cms.gov/Observation/hiv-viral-load-f929","resource":{"resourceType":"Observation","id":"5e4ca2c7-d50b-4a6d-a4b0-3436ea58523d","meta":{"profile":["http://hl7.org/fhir/us/qicore/StructureDefinition/qicore-observation"]},"status":"final","category":[{"coding":[{"system":"http://terminology.hl7.org/CodeSystem/observation-category"}]}],"code":{"coding":[{"system":"http://loinc.org","version":"2.73","code":"10351-5","display":"HIV 1 RNA [Units/volume] (viral load) in Serum or Plasma by Probe with amplification","userSelected":true}]},"subject":{"reference":"Patient/c1ac2e8a-6c58-4c63-943c-e73bc94e209a"},"issued":"2025-03-01T08:00:00.000+00:00"},"request":{"method":"PUT","url":"Observation/5e4ca2c7-d50b-4a6d-a4b0-3436ea58523d"}},{"fullUrl":"https://madie.cms.gov/Observation/hiv-viral-load-f92a","resource":{"resourceType":"Observation","id":"45d724cc-c334-4f5f-ae88-c4516727cc90","meta":{"profile":["http://hl7.org/fhir/us/qicore/StructureDefinition/qicore-observation"]},"status":"final","category":[{"coding":[{"system":"http://terminology.hl7.org/CodeSystem/observation-category"}]}],"code":{"coding":[{"system":"http://loinc.org","version":"2.73","code":"10351-5","display":"HIV 1 RNA [Units/volume] (viral load) in Serum or Plasma by Probe with amplification","userSelected":true}]},"subject":{"reference":"Patient/c1ac2e8a-6c58-4c63-943c-e73bc94e209a"},"issued":"2025-04-01T08:00:00.000+00:00"},"request":{"method":"PUT","url":"Observation/45d724cc-c334-4f5f-ae88-c4516727cc90"}},{"fullUrl":"https://madie.cms.gov/Observation/hiv-viral-load-f92b","resource":{"resourceType":"Observation","id":"6733d827-42ef-44ea-a199-1b297a0c88e9","meta":{"profile":["http://hl7.org/fhir/us/qicore/StructureDefinition/qicore-observation"]},"status":"final","category":[{"coding":[{"system":"http://terminology.hl7.org/CodeSystem/observation-category"}]}],"code":{"coding":[{"system":"http://loinc.org","version":"2.73","code":"10351-5","display":"HIV 1 RNA [Units/volume] (viral load) in Serum or Plasma by Probe with amplification","userSelected":true}]},"subject":{"reference":"Patient/c1ac2e8a-6c58-4c63-943c-e73bc94e209a"},"issued":"2025-05-01T08:00:00.000+00:00"},"request":{"method":"PUT","url":"Observation/6733d827-42ef-44ea-a199-1b297a0c88e9"}},{"fullUrl":"https://madie.cms.gov/Observation/hiv-viral-load-f92c","resource":{"resourceType":"Observation","id":"91d514a4-6474-4a3a-bd97-86804cec7866","meta":{"profile":["http://hl7.org/fhir/us/qicore/StructureDefinition/qicore-observation"]},"status":"final","category":[{"coding":[{"system":"http://terminology.hl7.org/CodeSystem/observation-category"}]}],"code":{"coding":[{"system":"http://loinc.org","version":"2.73","code":"10351-5","display":"HIV 1 RNA [Units/volume] (viral load) in Serum or Plasma by Probe with amplification","userSelected":true}]},"subject":{"reference":"Patient/c1ac2e8a-6c58-4c63-943c-e73bc94e209a"},"issued":"2025-06-01T08:00:00.000+00:00"},"request":{"method":"PUT","url":"Observation/91d514a4-6474-4a3a-bd97-86804cec7866"}},{"fullUrl":"https://madie.cms.gov/Observation/hiv-viral-load-f92d","resource":{"resourceType":"Observation","id":"114ae72b-2446-472a-b2a7-b463e0fd8d85","meta":{"profile":["http://hl7.org/fhir/us/qicore/StructureDefinition/qicore-observation"]},"status":"final","category":[{"coding":[{"system":"http://terminology.hl7.org/CodeSystem/observation-category"}]}],"code":{"coding":[{"system":"http://loinc.org","version":"2.73","code":"10351-5","display":"HIV 1 RNA [Units/volume] (viral load) in Serum or Plasma by Probe with amplification","userSelected":true}]},"subject":{"reference":"Patient/c1ac2e8a-6c58-4c63-943c-e73bc94e209a"},"issued":"2025-07-01T08:00:00.000+00:00"},"request":{"method":"PUT","url":"Observation/114ae72b-2446-472a-b2a7-b463e0fd8d85"}},{"fullUrl":"https://madie.cms.gov/Observation/hiv-viral-load-f92e","resource":{"resourceType":"Observation","id":"512e0596-d757-468b-846a-b25e9630a321","meta":{"profile":["http://hl7.org/fhir/us/qicore/StructureDefinition/qicore-observation"]},"status":"final","category":[{"coding":[{"system":"http://terminology.hl7.org/CodeSystem/observation-category"}]}],"code":{"coding":[{"system":"http://loinc.org","version":"2.73","code":"10351-5","display":"HIV 1 RNA [Units/volume] (viral load) in Serum or Plasma by Probe with amplification","userSelected":true}]},"subject":{"reference":"Patient/c1ac2e8a-6c58-4c63-943c-e73bc94e209a"},"issued":"2025-08-01T08:00:00.000+00:00"},"request":{"method":"PUT","url":"Observation/512e0596-d757-468b-846a-b25e9630a321"}},{"fullUrl":"https://madie.cms.gov/Observation/hiv-viral-load-f92f","resource":{"resourceType":"Observation","id":"69f1bb49-e8bc-4466-97ca-3c8a90beca01","meta":{"profile":["http://hl7.org/fhir/us/qicore/StructureDefinition/qicore-observation"]},"status":"final","category":[{"coding":[{"system":"http://terminology.hl7.org/CodeSystem/observation-category"}]}],"code":{"coding":[{"system":"http://loinc.org","version":"2.73","code":"10351-5","display":"HIV 1 RNA [Units/volume] (viral load) in Serum or Plasma by Probe with amplification","userSelected":true}]},"subject":{"reference":"Patient/c1ac2e8a-6c58-4c63-943c-e73bc94e209a"},"issued":"2025-09-01T08:00:00.000+00:00"},"request":{"method":"PUT","url":"Observation/69f1bb49-e8bc-4466-97ca-3c8a90beca01"}},{"fullUrl":"https://madie.cms.gov/Observation/hiv-viral-load-f930","resource":{"resourceType":"Observation","id":"9981ed59-e6d8-423e-8684-ca1f223382d6","meta":{"profile":["http://hl7.org/fhir/us/qicore/StructureDefinition/qicore-observation"]},"status":"final","category":[{"coding":[{"system":"http://terminology.hl7.org/CodeSystem/observation-category"}]}],"code":{"coding":[{"system":"http://loinc.org","version":"2.73","code":"10351-5","display":"HIV 1 RNA [Units/volume] (viral load) in Serum or Plasma by Probe with amplification","userSelected":true}]},"subject":{"reference":"Patient/c1ac2e8a-6c58-4c63-943c-e73bc94e209a"},"issued":"2025-10-01T08:00:00.000+00:00"},"request":{"method":"PUT","url":"Observation/9981ed59-e6d8-423e-8684-ca1f223382d6"}},{"fullUrl":"https://madie.cms.gov/Observation/hiv-viral-load-f931","resource":{"resourceType":"Observation","id":"7a9dc9bf-dd79-4838-a648-d4aaa7059253","meta":{"profile":["http://hl7.org/fhir/us/qicore/StructureDefinition/qicore-observation"]},"status":"final","category":[{"coding":[{"system":"http://terminology.hl7.org/CodeSystem/observation-category"}]}],"code":{"coding":[{"system":"http://loinc.org","version":"2.73","code":"10351-5","display":"HIV 1 RNA [Units/volume] (viral load) in Serum or Plasma by Probe with amplification","userSelected":true}]},"subject":{"reference":"Patient/c1ac2e8a-6c58-4c63-943c-e73bc94e209a"},"issued":"2025-11-01T08:00:00.000+00:00"},"request":{"method":"PUT","url":"Observation/7a9dc9bf-dd79-4838-a648-d4aaa7059253"}},{"fullUrl":"https://madie.cms.gov/Observation/hiv-viral-load-f932","resource":{"resourceType":"Observation","id":"50ef3ef7-417b-4520-881b-1decd280b314","meta":{"profile":["http://hl7.org/fhir/us/qicore/StructureDefinition/qicore-observation"]},"status":"final","category":[{"coding":[{"system":"http://terminology.hl7.org/CodeSystem/observation-category"}]}],"code":{"coding":[{"system":"http://loinc.org","version":"2.73","code":"10351-5","display":"HIV 1 RNA [Units/volume] (viral load) in Serum or Plasma by Probe with amplification","userSelected":true}]},"subject":{"reference":"Patient/c1ac2e8a-6c58-4c63-943c-e73bc94e209a"},"issued":"2025-12-01T08:00:00.000+00:00"},"request":{"method":"PUT","url":"Observation/50ef3ef7-417b-4520-881b-1decd280b314"}},{"fullUrl":"https://madie.cms.gov/Coverage/1","resource":{"resourceType":"Coverage","id":"47e29347-59ed-4910-a2d8-2f64d26ccfd8","meta":{"profile":["http://hl7.org/fhir/us/qicore/StructureDefinition/qicore-coverage"]},"status":"active","beneficiary":{"reference":"Patient/c1ac2e8a-6c58-4c63-943c-e73bc94e209a"},"payor":[{"reference":"Organization/aeb2c6be-6577-4bba-a6b6-6eab95111f1b"}]},"request":{"method":"PUT","url":"Coverage/47e29347-59ed-4910-a2d8-2f64d26ccfd8"}},{"fullUrl":"https://madie.cms.gov/Organization/123456","resource":{"resourceType":"Organization","id":"aeb2c6be-6577-4bba-a6b6-6eab95111f1b","meta":{"profile":["http://hl7.org/fhir/us/qicore/StructureDefinition/qicore-organization"]},"identifier":[{"use":"temp","system":"urn:oid:2.16.840.1.113883.4.4","value":"21-3259825"}],"active":true,"type":[{"coding":[{"system":"http://terminology.hl7.org/CodeSystem/organization-type","code":"pay","display":"Payer"}]}],"name":"Blue Cross Blue Shield of Texas","telecom":[{"system":"phone","value":"(+1) 972-766-6900"}],"address":[{"use":"billing","type":"postal","line":["P.O. Box 660044"],"city":"Dallas","state":"TX","postalCode":"75266-0044","country":"USA"}]},"request":{"method":"PUT","url":"Organization/aeb2c6be-6577-4bba-a6b6-6eab95111f1b"}},{"fullUrl":"https://madie.cms.gov/Practitioner/practitioner-123456","resource":{"resourceType":"Practitioner","id":"1c3e62f8-7d20-4054-870b-16de20949750","meta":{"profile":["http://hl7.org/fhir/us/qicore/StructureDefinition/qicore-practitioner"]},"identifier":[{"system":"http://hl7.org/fhir/sid/us-npi","value":"123456"}],"name":[{"family":"Evil","prefix":["Dr"]}]},"request":{"method":"PUT","url":"Practitioner/1c3e62f8-7d20-4054-870b-16de20949750"}},{"fullUrl":"https://madie.cms.gov/MeasureReport/9e814a9b-b41e-410c-bfe3-8b22bb701d32","resource":{"resourceType":"MeasureReport","id":"9e814a9b-b41e-410c-bfe3-8b22bb701d32","meta":{"profile":["http://hl7.org/fhir/us/cqfmeasures/StructureDefinition/test-case-cqfm"]},"contained":[{"resourceType":"Parameters","id":"33f60b88-b00e-44b3-8149-3c89e8d43594-parameters","parameter":[{"name":"subject","valueString":"c1ac2e8a-6c58-4c63-943c-e73bc94e209a"}]}],"extension":[{"url":"http://hl7.org/fhir/us/cqfmeasures/StructureDefinition/cqfm-inputParameters","valueReference":{"reference":"#33f60b88-b00e-44b3-8149-3c89e8d43594-parameters"}},{"url":"http://hl7.org/fhir/us/cqfmeasures/StructureDefinition/cqfm-testCaseDescription","valueMarkdown":"Patient has an encounter each month and a VL test each month"}],"modifierExtension":[{"url":"http://hl7.org/fhir/us/cqfmeasures/StructureDefinition/cqfm-isTestCase","valueBoolean":true}],"status":"complete","type":"individual","measure":"https://madie.cms.gov/Measure/HIVRetentionFHIR","period":{"start":"2025-01-01","end":"2025-12-31"},"group":[{"population":[{"code":{"coding":[{"system":"http://terminology.hl7.org/CodeSystem/measure-population","code":"initial-population","display":"Initial Population"}]},"count":1},{"code":{"coding":[{"system":"http://terminology.hl7.org/CodeSystem/measure-population","code":"denominator","display":"Denominator"}]},"count":1},{"code":{"coding":[{"system":"http://terminology.hl7.org/CodeSystem/measure-population","code":"numerator","display":"Numerator"}]},"count":1}]}]},"request":{"method":"PUT","url":"MeasureReport/9e814a9b-b41e-410c-bfe3-8b22bb701d32"}}]}