{"resourceType":"Bundle","id":"tests-4a461ae6-b9f7-4e9f-aab2-ecc9e65fb298-bundle","type":"transaction","entry":[{"fullUrl":"https://madie.cms.gov/Patient/4a461ae6-b9f7-4e9f-aab2-ecc9e65fb298","resource":{"resourceType":"Patient","id":"4a461ae6-b9f7-4e9f-aab2-ecc9e65fb298","meta":{"profile":["http://hl7.org/fhir/us/qicore/StructureDefinition/qicore-patient"]},"extension":[{"url":"http://hl7.org/fhir/us/core/StructureDefinition/us-core-race","extension":[{"url":"ombCategory","valueCoding":{"system":"urn:oid:2.16.840.1.113883.6.238","code":"2054-5","display":"Black or African American","userSelected":true}},{"url":"text","valueString":"Black or African American"}]},{"url":"http://hl7.org/fhir/us/core/StructureDefinition/us-core-ethnicity","extension":[{"url":"ombCategory","valueCoding":{"system":"urn:oid:2.16.840.1.113883.6.238","code":"2186-5","display":"Not Hispanic or Latino","userSelected":true}},{"url":"text","valueString":"Not Hispanic or Latino"}]}],"identifier":[{"type":{"coding":[{"system":"http://terminology.hl7.org/CodeSystem/v2-0203","code":"MR"}]},"system":"https://bonnie-fhir.healthit.gov/","value":"649469c3d09ece2c2e9bf93f"}],"name":[{"family":"15NumPass","given":["TwoEncJan1andDec31"]}],"gender":"female","birthDate":"2015-08-04"},"request":{"method":"PUT","url":"Patient/4a461ae6-b9f7-4e9f-aab2-ecc9e65fb298"}},{"fullUrl":"https://madie.cms.gov/Condition/hiv-f940","resource":{"resourceType":"Condition","id":"4916b6e4-2a17-4cd6-8470-62dd0e1d93dd","meta":{"profile":["http://hl7.org/fhir/us/qicore/StructureDefinition/qicore-condition"]},"clinicalStatus":{"coding":[{"system":"http://terminology.hl7.org/CodeSystem/condition-clinical","code":"active","display":"active","userSelected":true}]},"category":[{"coding":[{"system":"http://terminology.hl7.org/CodeSystem/condition-category","code":"problem-list-item","display":"Problem List Item"}]}],"code":{"coding":[{"system":"http://hl7.org/fhir/sid/icd-9-cm","version":"2013","code":"042","display":"Human immunodeficiency virus [HIV] disease","userSelected":true},{"system":"http://snomed.info/sct","code":"230180003","userSelected":true}]},"subject":{"reference":"Patient/4a461ae6-b9f7-4e9f-aab2-ecc9e65fb298"},"onsetDateTime":"2025-01-01T08:00:00.000+00:00","recordedDate":"2025-01-01T08:00:00.000+00:00"},"request":{"method":"PUT","url":"Condition/4916b6e4-2a17-4cd6-8470-62dd0e1d93dd"}},{"fullUrl":"https://madie.cms.gov/Encounter/home-healthcare-services-f941","resource":{"resourceType":"Encounter","id":"ce44c4c8-25ab-4b46-a2fb-93c690deb469","meta":{"profile":["http://hl7.org/fhir/us/qicore/StructureDefinition/qicore-encounter"]},"status":"finished","class":{"system":"http://terminology.hl7.org/CodeSystem/v3-ActCode","code":"AMB","display":"ambulatory"},"type":[{"coding":[{"system":"http://snomed.info/sct","version":"2022-09","code":"185460008","display":"Home visit request by patient (procedure)","userSelected":true}]}],"subject":{"reference":"Patient/4a461ae6-b9f7-4e9f-aab2-ecc9e65fb298"},"period":{"start":"2025-02-01T08:00:00.000+00:00","end":"2025-02-01T08:15:00.000+00:00"}},"request":{"method":"PUT","url":"Encounter/ce44c4c8-25ab-4b46-a2fb-93c690deb469"}},{"fullUrl":"https://madie.cms.gov/Encounter/office-visit-f942","resource":{"resourceType":"Encounter","id":"192dc366-331e-425e-8783-9e2b70eed698","meta":{"profile":["http://hl7.org/fhir/us/qicore/StructureDefinition/qicore-encounter"]},"status":"finished","class":{"system":"http://terminology.hl7.org/CodeSystem/v3-ActCode","code":"AMB","display":"ambulatory"},"type":[{"coding":[{"system":"http://snomed.info/sct","version":"2022-09","code":"185463005","display":"Visit out of hours (procedure)","userSelected":true}]}],"subject":{"reference":"Patient/4a461ae6-b9f7-4e9f-aab2-ecc9e65fb298"},"period":{"start":"2025-12-31T08:00:00.000+00:00","end":"2025-12-31T08:15:00.000+00:00"}},"request":{"method":"PUT","url":"Encounter/192dc366-331e-425e-8783-9e2b70eed698"}},{"fullUrl":"https://madie.cms.gov/Coverage/1","resource":{"resourceType":"Coverage","id":"31406568-dada-4c42-9a85-aad794bdf187","meta":{"profile":["http://hl7.org/fhir/us/qicore/StructureDefinition/qicore-coverage"]},"status":"active","beneficiary":{"reference":"Patient/4a461ae6-b9f7-4e9f-aab2-ecc9e65fb298"},"payor":[{"reference":"Organization/5ad6ea38-07e9-4482-9e1b-c09eee595be9"}]},"request":{"method":"PUT","url":"Coverage/31406568-dada-4c42-9a85-aad794bdf187"}},{"fullUrl":"https://madie.cms.gov/Organization/123456","resource":{"resourceType":"Organization","id":"5ad6ea38-07e9-4482-9e1b-c09eee595be9","meta":{"profile":["http://hl7.org/fhir/us/qicore/StructureDefinition/qicore-organization"]},"identifier":[{"use":"temp","system":"urn:oid:2.16.840.1.113883.4.4","value":"21-3259825"}],"active":true,"type":[{"coding":[{"system":"http://terminology.hl7.org/CodeSystem/organization-type","code":"pay","display":"Payer"}]}],"name":"Blue Cross Blue Shield of Texas","telecom":[{"system":"phone","value":"(+1) 972-766-6900"}],"address":[{"use":"billing","type":"postal","line":["P.O. Box 660044"],"city":"Dallas","state":"TX","postalCode":"75266-0044","country":"USA"}]},"request":{"method":"PUT","url":"Organization/5ad6ea38-07e9-4482-9e1b-c09eee595be9"}},{"fullUrl":"https://madie.cms.gov/Practitioner/practitioner-123456","resource":{"resourceType":"Practitioner","id":"3e6cec0f-c407-4181-8243-9cff9a97308f","meta":{"profile":["http://hl7.org/fhir/us/qicore/StructureDefinition/qicore-practitioner"]},"identifier":[{"system":"http://hl7.org/fhir/sid/us-npi","value":"123456"}],"name":[{"family":"Evil","prefix":["Dr"]}]},"request":{"method":"PUT","url":"Practitioner/3e6cec0f-c407-4181-8243-9cff9a97308f"}},{"fullUrl":"https://madie.cms.gov/MeasureReport/f44d1105-abef-45ea-bf68-9a5e6d93c781","resource":{"resourceType":"MeasureReport","id":"f44d1105-abef-45ea-bf68-9a5e6d93c781","meta":{"profile":["http://hl7.org/fhir/us/cqfmeasures/StructureDefinition/test-case-cqfm"]},"contained":[{"resourceType":"Parameters","id":"b73ac6a3-427d-4fb7-ba45-0fc62656afae-parameters","parameter":[{"name":"subject","valueString":"4a461ae6-b9f7-4e9f-aab2-ecc9e65fb298"}]}],"extension":[{"url":"http://hl7.org/fhir/us/cqfmeasures/StructureDefinition/cqfm-inputParameters","valueReference":{"reference":"#b73ac6a3-427d-4fb7-ba45-0fc62656afae-parameters"}},{"url":"http://hl7.org/fhir/us/cqfmeasures/StructureDefinition/cqfm-testCaseDescription","valueMarkdown":"Patient has two encounters in the MP on Jan 1 and Dec 31 (HIV dx at birth)"}],"modifierExtension":[{"url":"http://hl7.org/fhir/us/cqfmeasures/StructureDefinition/cqfm-isTestCase","valueBoolean":true}],"status":"complete","type":"individual","measure":"https://madie.cms.gov/Measure/HIVRetentionFHIR","period":{"start":"2025-01-01","end":"2025-12-31"},"group":[{"population":[{"code":{"coding":[{"system":"http://terminology.hl7.org/CodeSystem/measure-population","code":"initial-population","display":"Initial Population"}]},"count":1},{"code":{"coding":[{"system":"http://terminology.hl7.org/CodeSystem/measure-population","code":"denominator","display":"Denominator"}]},"count":1},{"code":{"coding":[{"system":"http://terminology.hl7.org/CodeSystem/measure-population","code":"numerator","display":"Numerator"}]},"count":1}]}]},"request":{"method":"PUT","url":"MeasureReport/f44d1105-abef-45ea-bf68-9a5e6d93c781"}}]}