{
  "resourceType": "Bundle",
  "id": "OBSERVFail-DenomMOFailsLT12HrIPStayWithFall",
  "type": "transaction",
  "entry": [ {
    "fullUrl": "https://madie.cms.gov/Encounter/9fb3fd3a-e51f-481e-81ff-a71e9dc49ac9",
    "resource": {
      "resourceType": "Encounter",
      "id": "9fb3fd3a-e51f-481e-81ff-a71e9dc49ac9",
      "meta": {
        "profile": [ "http://hl7.org/fhir/us/qicore/StructureDefinition/qicore-encounter" ]
      },
      "status": "finished",
      "class": {
        "system": "http://terminology.hl7.org/CodeSystem/v3-ActCode",
        "code": "IMP",
        "display": "inpatient encounter"
      },
      "type": [ {
        "coding": [ {
          "system": "http://snomed.info/sct",
          "code": "183452005"
        } ]
      } ],
      "subject": {
        "reference": "Patient/3c34a5af-1ef1-4b86-a41f-ac1d44e96ca0"
      },
      "period": {
        "start": "2026-11-09T11:00:00+00:00",
        "end": "2026-11-10T08:15:00+00:00"
      },
      "diagnosis": [ {
        "extension": [ {
          "url": "http://hl7.org/fhir/us/qicore/StructureDefinition/qicore-encounter-diagnosisPresentOnAdmission",
          "valueCodeableConcept": {
            "coding": [ {
              "system": "https://www.cms.gov/Medicare/Medicare-Fee-for-Service-Payment/HospitalAcqCond/Coding",
              "code": "N"
            } ]
          }
        } ],
        "condition": {
          "reference": "Condition/b16c04c1-7195-44d6-9d8e-ade543a0aa55"
        }
      } ]
    },
    "request": {
      "method": "PUT",
      "url": "Encounter/9fb3fd3a-e51f-481e-81ff-a71e9dc49ac9"
    }
  }, {
    "fullUrl": "https://madie.cms.gov/Condition/b16c04c1-7195-44d6-9d8e-ade543a0aa55",
    "resource": {
      "resourceType": "Condition",
      "id": "b16c04c1-7195-44d6-9d8e-ade543a0aa55",
      "meta": {
        "profile": [ "http://hl7.org/fhir/us/qicore/StructureDefinition/qicore-condition" ]
      },
      "clinicalStatus": {
        "coding": [ {
          "system": "http://terminology.hl7.org/CodeSystem/condition-clinical",
          "code": "active"
        } ]
      },
      "verificationStatus": {
        "coding": [ {
          "system": "http://terminology.hl7.org/CodeSystem/condition-ver-status",
          "code": "confirmed"
        } ]
      },
      "category": [ {
        "coding": [ {
          "system": "http://terminology.hl7.org/CodeSystem/condition-category",
          "code": "encounter-diagnosis",
          "display": "Encounter Diagnosis"
        } ]
      } ],
      "code": {
        "coding": [ {
          "system": "http://hl7.org/fhir/sid/icd-10-cm",
          "code": "S01.00XA"
        } ]
      },
      "subject": {
        "reference": "Patient/3c34a5af-1ef1-4b86-a41f-ac1d44e96ca0"
      },
      "encounter": {
        "reference": "Encounter/9fb3fd3a-e51f-481e-81ff-a71e9dc49ac9"
      }
    },
    "request": {
      "method": "PUT",
      "url": "Condition/b16c04c1-7195-44d6-9d8e-ade543a0aa55"
    }
  }, {
    "fullUrl": "https://madie.cms.gov/Patient/3c34a5af-1ef1-4b86-a41f-ac1d44e96ca0",
    "resource": {
      "resourceType": "Patient",
      "id": "3c34a5af-1ef1-4b86-a41f-ac1d44e96ca0",
      "meta": {
        "profile": [ "http://hl7.org/fhir/us/qicore/StructureDefinition/qicore-patient" ]
      },
      "extension": [ {
        "url": "http://hl7.org/fhir/us/core/StructureDefinition/us-core-race",
        "extension": [ {
          "url": "ombCategory",
          "valueCoding": {
            "system": "urn:oid:2.16.840.1.113883.6.238",
            "code": "2054-5",
            "display": "Black or African American",
            "userSelected": true
          }
        }, {
          "url": "text",
          "valueString": "Black or African American"
        } ]
      }, {
        "url": "http://hl7.org/fhir/us/core/StructureDefinition/us-core-ethnicity",
        "extension": [ {
          "url": "ombCategory",
          "valueCoding": {
            "system": "urn:oid:2.16.840.1.113883.6.238",
            "code": "2186-5",
            "display": "Not Hispanic or Latino",
            "userSelected": true
          }
        }, {
          "url": "text",
          "valueString": "Not Hispanic or Latino"
        } ]
      } ],
      "identifier": [ {
        "type": {
          "coding": [ {
            "system": "http://terminology.hl7.org/CodeSystem/v2-0203",
            "code": "MR"
          } ]
        },
        "system": "https://bonnie-fhir.healthit.gov/",
        "value": "61152a3b98086b7a79cbd7c1"
      } ],
      "active": true,
      "name": [ {
        "use": "usual",
        "family": "OBSERVFail",
        "given": [ "DenomMOFailsLT12HrIPStayWithFall" ]
      } ],
      "gender": "male",
      "birthDate": "1964-12-11"
    },
    "request": {
      "method": "PUT",
      "url": "Patient/3c34a5af-1ef1-4b86-a41f-ac1d44e96ca0"
    }
  }, {
    "fullUrl": "https://madie.cms.gov/AdverseEvent/04f44829-90f2-4ce3-8667-09b121691fae",
    "resource": {
      "resourceType": "AdverseEvent",
      "id": "04f44829-90f2-4ce3-8667-09b121691fae",
      "meta": {
        "profile": [ "http://hl7.org/fhir/us/qicore/StructureDefinition/qicore-adverseevent" ]
      },
      "actuality": "actual",
      "event": {
        "coding": [ {
          "system": "http://hl7.org/fhir/sid/icd-10-cm",
          "code": "W01.0XXA"
        } ]
      },
      "subject": {
        "reference": "Patient/3c34a5af-1ef1-4b86-a41f-ac1d44e96ca0"
      },
      "date": "2026-11-10T08:00:00+00:00"
    },
    "request": {
      "method": "PUT",
      "url": "AdverseEvent/04f44829-90f2-4ce3-8667-09b121691fae"
    }
  }, {
    "fullUrl": "https://madie.cms.gov/MeasureReport/c419a1cb-1923-45cd-ad53-52409f637f26",
    "resource": {
      "resourceType": "MeasureReport",
      "id": "c419a1cb-1923-45cd-ad53-52409f637f26",
      "meta": {
        "profile": [ "http://hl7.org/fhir/us/cqfmeasures/StructureDefinition/test-case-cqfm" ]
      },
      "contained": [ {
        "resourceType": "Parameters",
        "id": "d98d722f-750e-452f-99be-095f97005001-parameters",
        "parameter": [ {
          "name": "subject",
          "valueString": "3c34a5af-1ef1-4b86-a41f-ac1d44e96ca0"
        } ]
      } ],
      "extension": [ {
        "url": "http://hl7.org/fhir/us/cqfmeasures/StructureDefinition/cqfm-inputParameters",
        "valueReference": {
          "reference": "#d98d722f-750e-452f-99be-095f97005001-parameters"
        }
      }, {
        "url": "http://hl7.org/fhir/us/cqfmeasures/StructureDefinition/cqfm-testCaseDescription",
        "valueMarkdown": "Encounter IP of less than 12 hours with adverse event fall during encounter,  and encounter dx of injury NPOA. Meets numerator but since LOS <24 hrs, denom MO = 0."
      } ],
      "modifierExtension": [ {
        "url": "http://hl7.org/fhir/us/cqfmeasures/StructureDefinition/cqfm-isTestCase",
        "valueBoolean": true
      } ],
      "status": "complete",
      "type": "individual",
      "measure": "https://madie.cms.gov/Measure/FallsWithInjuryFHIR",
      "period": {
        "start": "2026-01-01",
        "end": "2026-12-31"
      },
      "group": [ {
        "population": [ {
          "code": {
            "coding": [ {
              "system": "http://terminology.hl7.org/CodeSystem/measure-population",
              "code": "initial-population",
              "display": "Initial Population"
            } ]
          },
          "count": 1
        }, {
          "code": {
            "coding": [ {
              "system": "http://terminology.hl7.org/CodeSystem/measure-population",
              "code": "denominator",
              "display": "Denominator"
            } ]
          },
          "count": 1
        }, {
          "code": {
            "coding": [ {
              "system": "http://terminology.hl7.org/CodeSystem/measure-population",
              "code": "denominator-exclusion",
              "display": "Denominator Exclusion"
            } ]
          },
          "count": 0
        }, {
          "code": {
            "coding": [ {
              "system": "http://terminology.hl7.org/CodeSystem/measure-population",
              "code": "numerator",
              "display": "Numerator"
            } ]
          },
          "count": 1
        }, {
          "code": {
            "coding": [ {
              "system": "http://terminology.hl7.org/CodeSystem/measure-population",
              "code": "numerator-exclusion",
              "display": "Numerator Exclusion"
            } ]
          },
          "count": 0
        }, {
          "code": {
            "coding": [ {
              "system": "http://terminology.hl7.org/CodeSystem/measure-population",
              "code": "denominator-observation",
              "display": "DenominatorObservation"
            } ]
          },
          "count": 0
        }, {
          "code": {
            "coding": [ {
              "system": "http://terminology.hl7.org/CodeSystem/measure-population",
              "code": "numerator-observation",
              "display": "Numerator Observation"
            } ]
          },
          "count": 1
        } ]
      } ],
      "evaluatedResource": [ {
        "reference": "Encounter/9fb3fd3a-e51f-481e-81ff-a71e9dc49ac9"
      }, {
        "reference": "Condition/b16c04c1-7195-44d6-9d8e-ade543a0aa55"
      }, {
        "reference": "Patient/3c34a5af-1ef1-4b86-a41f-ac1d44e96ca0"
      }, {
        "reference": "AdverseEvent/04f44829-90f2-4ce3-8667-09b121691fae"
      } ]
    },
    "request": {
      "method": "PUT",
      "url": "MeasureReport/c419a1cb-1923-45cd-ad53-52409f637f26"
    }
  } ]
}