{"resourceType":"Bundle","id":"tests-c640ff8f-5b2a-448e-85a2-e739af7a8dc4-bundle","type":"transaction","entry":[{"fullUrl":"https://madie.cms.gov/Patient/c640ff8f-5b2a-448e-85a2-e739af7a8dc4","resource":{"resourceType":"Patient","id":"c640ff8f-5b2a-448e-85a2-e739af7a8dc4","meta":{"profile":["http://hl7.org/fhir/us/qicore/StructureDefinition/qicore-patient"]},"text":{"status":"generated","div":"<div xmlns=\"http://www.w3.org/1999/xhtml\"><div class=\"hapiHeaderText\">MedDCMedReason <b>DENEXCEPPASS </b></div><table class=\"hapiPropertyTable\"><tbody><tr><td>Identifier</td><td>a74a3b413f99bbe600a1f178896a0083</td></tr><tr><td>Date of birth</td><td><span>23 May 1954</span></td></tr></tbody></table></div>"},"extension":[{"url":"http://hl7.org/fhir/us/core/StructureDefinition/us-core-race","extension":[{"url":"ombCategory","valueCoding":{"system":"urn:oid:2.16.840.1.113883.6.238","code":"1002-5","display":"American Indian or Alaska Native","userSelected":true}},{"url":"text","valueString":"American Indian or Alaska Native"}]},{"url":"http://hl7.org/fhir/us/core/StructureDefinition/us-core-ethnicity","extension":[{"url":"ombCategory","valueCoding":{"system":"urn:oid:2.16.840.1.113883.6.238","code":"2135-2","display":"Hispanic or Latino","userSelected":true}},{"url":"text","valueString":"Hispanic or Latino"}]}],"identifier":[{"type":{"coding":[{"system":"http://terminology.hl7.org/CodeSystem/v2-0203","code":"MR"}]},"system":"https://bonnie-fhir.healthit.gov/","value":"633c9d030968f8012250fc6f"}],"active":true,"name":[{"use":"usual","family":"DENEXCEPPass","given":["MedDCMedReason"]}],"gender":"female","birthDate":"1955-05-23"},"request":{"method":"PUT","url":"Patient/c640ff8f-5b2a-448e-85a2-e739af7a8dc4"}},{"fullUrl":"https://madie.cms.gov/Encounter/f632b381-6deb-4e78-9cb2-9894ef194467","resource":{"resourceType":"Encounter","id":"f632b381-6deb-4e78-9cb2-9894ef194467","meta":{"profile":["http://hl7.org/fhir/us/qicore/StructureDefinition/qicore-encounter"]},"status":"finished","class":{"system":"http://terminology.hl7.org/CodeSystem/v3-ActCode","code":"IMP","display":"inpatient encounter"},"type":[{"coding":[{"system":"http://snomed.info/sct","code":"32485007"}]}],"subject":{"reference":"Patient/c640ff8f-5b2a-448e-85a2-e739af7a8dc4"},"period":{"start":"2026-11-20T08:00:00.000Z","end":"2026-11-24T08:15:00.000Z"},"length":{"value":4,"unit":"days"},"diagnosis":[{"condition":{"reference":"Condition/232461d0-c6d7-409d-b199-9bed7e77ff2e"},"use":{"coding":[{"system":"http://terminology.hl7.org/CodeSystem/diagnosis-role","code":"billing","display":"Billing"}]},"rank":1}]},"request":{"method":"PUT","url":"Encounter/f632b381-6deb-4e78-9cb2-9894ef194467"}},{"fullUrl":"https://madie.cms.gov/MedicationRequest/05900e03-bbe4-4d2d-9f49-16dc54290810","resource":{"resourceType":"MedicationRequest","id":"05900e03-bbe4-4d2d-9f49-16dc54290810","meta":{"profile":["http://hl7.org/fhir/us/qicore/StructureDefinition/qicore-mednotrequested"]},"status":"completed","intent":"order","category":[{"coding":[{"system":"http://terminology.hl7.org/CodeSystem/medicationrequest-category","code":"community"}]}],"doNotPerform":true,"medicationCodeableConcept":{"coding":[{"system":"http://www.nlm.nih.gov/research/umls/rxnorm","code":"308351"}]},"subject":{"reference":"Patient/c640ff8f-5b2a-448e-85a2-e739af7a8dc4"},"authoredOn":"2026-11-24T08:10:00.000+00:00","requester":{"reference":"Practitioner/example"},"reasonCode":[{"coding":[{"system":"http://snomed.info/sct","code":"183932001"}]}]},"request":{"method":"PUT","url":"MedicationRequest/05900e03-bbe4-4d2d-9f49-16dc54290810"}},{"fullUrl":"https://madie.cms.gov/Coverage/3b26d643-6e63-4159-a0ea-aefc0cce23b7","resource":{"resourceType":"Coverage","id":"3b26d643-6e63-4159-a0ea-aefc0cce23b7","status":"active","beneficiary":{"reference":"Patient/c640ff8f-5b2a-448e-85a2-e739af7a8dc4"},"period":{"start":"1955-05-23T08:00:00.000Z"},"payor":[{"reference":"Organization/e75793c9-fdf6-463a-8c1d-4ee44320dc25"}]},"request":{"method":"PUT","url":"Coverage/3b26d643-6e63-4159-a0ea-aefc0cce23b7"}},{"fullUrl":"https://madie.cms.gov/Procedure/2bb758b3-418c-440e-a6c7-2d2047fb08bb","resource":{"resourceType":"Procedure","id":"2bb758b3-418c-440e-a6c7-2d2047fb08bb","meta":{"profile":["http://hl7.org/fhir/us/qicore/StructureDefinition/qicore-procedure"]},"extension":[{"url":"http://hl7.org/fhir/us/qicore/StructureDefinition/qicore-recorded","valueDateTime":"2014-04-05T09:35:00-04:00"}],"status":"completed","code":{"coding":[{"system":"http://www.cms.gov/Medicare/Coding/ICD10","code":"02560ZZ"},{"system":"http://snomed.info/sct","code":"175095005"}]},"subject":{"reference":"Patient/c640ff8f-5b2a-448e-85a2-e739af7a8dc4"},"performedPeriod":{"start":"2026-11-20T06:00:00.000Z","end":"2026-11-20T07:15:00.000Z"}},"request":{"method":"PUT","url":"Procedure/2bb758b3-418c-440e-a6c7-2d2047fb08bb"}},{"fullUrl":"https://madie.cms.gov/Condition/232461d0-c6d7-409d-b199-9bed7e77ff2e","resource":{"resourceType":"Condition","id":"232461d0-c6d7-409d-b199-9bed7e77ff2e","meta":{"profile":["http://hl7.org/fhir/us/qicore/StructureDefinition/qicore-condition"]},"clinicalStatus":{"coding":[{"system":"http://terminology.hl7.org/CodeSystem/condition-clinical","code":"active"}]},"verificationStatus":{"coding":[{"system":"http://terminology.hl7.org/CodeSystem/condition-ver-status","code":"confirmed"}]},"category":[{"coding":[{"system":"http://terminology.hl7.org/CodeSystem/condition-category","code":"encounter-diagnosis","display":"Encounter Diagnosis"}]}],"code":{"coding":[{"system":"http://snomed.info/sct","version":"2021-09","code":"111297002","display":"Nonparalytic stroke (disorder)","userSelected":true}]},"subject":{"reference":"Patient/c640ff8f-5b2a-448e-85a2-e739af7a8dc4"},"recordedDate":"2026-10-13T08:00:00.000+00:00"},"request":{"method":"PUT","url":"Condition/232461d0-c6d7-409d-b199-9bed7e77ff2e"}},{"fullUrl":"https://madie.cms.gov/Organization/47330b6f-aeb7-4758-a9a0-c34bd1431222","resource":{"resourceType":"Organization","id":"e75793c9-fdf6-463a-8c1d-4ee44320dc25","meta":{"profile":["http://hl7.org/fhir/us/qicore/StructureDefinition/qicore-organization"]},"identifier":[{"use":"temp","system":"urn:oid:2.16.840.1.113883.4.4","value":"21-3259825"}],"active":true,"type":[{"coding":[{"system":"http://terminology.hl7.org/CodeSystem/organization-type","code":"pay","display":"Payer"}]}],"name":"Blue Cross Blue Shield of Texas","telecom":[{"system":"phone","value":"(+1) 972-766-6900"}],"address":[{"use":"billing","type":"postal","line":["P.O. Box 660044"],"city":"Dallas","state":"TX","postalCode":"75266-0044","country":"USA"}]},"request":{"method":"PUT","url":"Organization/e75793c9-fdf6-463a-8c1d-4ee44320dc25"}},{"fullUrl":"https://madie.cms.gov/MeasureReport/a38619b9-bdf3-4a4c-9ce3-ea5c0e63b7ad","resource":{"resourceType":"MeasureReport","id":"a38619b9-bdf3-4a4c-9ce3-ea5c0e63b7ad","meta":{"profile":["http://hl7.org/fhir/us/cqfmeasures/StructureDefinition/test-case-cqfm"]},"contained":[{"resourceType":"Parameters","id":"6ad3c4b8-5b83-4ce4-a35a-0e16b08cb1bb-parameters","parameter":[{"name":"subject","valueString":"c640ff8f-5b2a-448e-85a2-e739af7a8dc4"}]}],"extension":[{"url":"http://hl7.org/fhir/us/cqfmeasures/StructureDefinition/cqfm-inputParameters","valueReference":{"reference":"#6ad3c4b8-5b83-4ce4-a35a-0e16b08cb1bb-parameters"}},{"url":"http://hl7.org/fhir/us/cqfmeasures/StructureDefinition/cqfm-testCaseDescription","valueMarkdown":"Med Reason coverage for Med Discharge"}],"modifierExtension":[{"url":"http://hl7.org/fhir/us/cqfmeasures/StructureDefinition/cqfm-isTestCase","valueBoolean":true}],"status":"complete","type":"individual","measure":"https://madie.cms.gov/Measure/CMS71FHIRSTKAnticoagAFFlutter","period":{"start":"2026-01-01","end":"2026-12-31"},"group":[{"population":[{"code":{"coding":[{"system":"http://terminology.hl7.org/CodeSystem/measure-population","code":"initial-population","display":"Initial Population"}]},"count":1},{"code":{"coding":[{"system":"http://terminology.hl7.org/CodeSystem/measure-population","code":"denominator","display":"Denominator"}]},"count":1},{"code":{"coding":[{"system":"http://terminology.hl7.org/CodeSystem/measure-population","code":"denominator-exclusion","display":"Denominator Exclusion"}]},"count":0},{"code":{"coding":[{"system":"http://terminology.hl7.org/CodeSystem/measure-population","code":"numerator","display":"Numerator"}]},"count":0},{"code":{"coding":[{"system":"http://terminology.hl7.org/CodeSystem/measure-population","code":"denominator-exception","display":"Denominator Exception"}]},"count":1}]}]},"request":{"method":"PUT","url":"MeasureReport/a38619b9-bdf3-4a4c-9ce3-ea5c0e63b7ad"}}]}