{"resourceType":"Bundle","id":"tests-ad014d1d-6043-4b40-9fd3-0abc1f308a04-bundle","type":"transaction","entry":[{"fullUrl":"https://madie.cms.gov/Patient/ad014d1d-6043-4b40-9fd3-0abc1f308a04","resource":{"resourceType":"Patient","id":"ad014d1d-6043-4b40-9fd3-0abc1f308a04","meta":{"profile":["http://hl7.org/fhir/us/qicore/StructureDefinition/qicore-patient"]},"text":{"status":"generated","div":"<div xmlns=\"http://www.w3.org/1999/xhtml\"><div class=\"hapiHeaderText\">EncDx=IschemicStroke <b>IPPFAIL </b></div><table class=\"hapiPropertyTable\"><tbody><tr><td>Identifier</td><td>56529beb139611ad036d263322dc8071</td></tr><tr><td>Date of birth</td><td><span>01 December 1960</span></td></tr></tbody></table></div>"},"extension":[{"url":"http://hl7.org/fhir/us/core/StructureDefinition/us-core-race","extension":[{"url":"ombCategory","valueCoding":{"system":"urn:oid:2.16.840.1.113883.6.238","code":"1002-5","display":"American Indian or Alaska Native","userSelected":true}},{"url":"text","valueString":"American Indian or Alaska Native"}]},{"url":"http://hl7.org/fhir/us/core/StructureDefinition/us-core-ethnicity","extension":[{"url":"ombCategory","valueCoding":{"system":"urn:oid:2.16.840.1.113883.6.238","code":"2135-2","display":"Hispanic or Latino","userSelected":true}},{"url":"text","valueString":"Hispanic or Latino"}]}],"identifier":[{"type":{"coding":[{"system":"http://terminology.hl7.org/CodeSystem/v2-0203","code":"MR"}]},"system":"https://bonnie-fhir.healthit.gov/","value":"633c9d030968f8012250fc95"}],"active":true,"name":[{"use":"usual","family":"IPPFail","given":["EncDx=IschemicStroke "]}],"gender":"male","birthDate":"1961-12-01"},"request":{"method":"PUT","url":"Patient/ad014d1d-6043-4b40-9fd3-0abc1f308a04"}},{"fullUrl":"https://madie.cms.gov/Encounter/0b619d26-b899-4282-9f0f-72b429040a2f","resource":{"resourceType":"Encounter","id":"0b619d26-b899-4282-9f0f-72b429040a2f","meta":{"profile":["http://hl7.org/fhir/us/qicore/StructureDefinition/qicore-encounter"]},"status":"finished","class":{"system":"http://terminology.hl7.org/CodeSystem/v3-ActCode","code":"IMP","display":"inpatient encounter"},"type":[{"coding":[{"system":"http://snomed.info/sct","code":"32485007"}]}],"subject":{"reference":"Patient/ad014d1d-6043-4b40-9fd3-0abc1f308a04"},"period":{"start":"2026-02-08T08:00:00.000Z","end":"2026-02-10T08:15:00.000Z"},"length":{"value":2.0,"unit":"days"},"diagnosis":[{"condition":{"reference":"Condition/b68a7104-d7f7-4d5a-84a3-4c2464f85969"}}]},"request":{"method":"PUT","url":"Encounter/0b619d26-b899-4282-9f0f-72b429040a2f"}},{"fullUrl":"https://madie.cms.gov/Coverage/5a2f4de9-53af-47c0-8b08-cb61e8ccef27","resource":{"resourceType":"Coverage","id":"5a2f4de9-53af-47c0-8b08-cb61e8ccef27","status":"active","beneficiary":{"reference":"Patient/ad014d1d-6043-4b40-9fd3-0abc1f308a04"},"period":{"start":"1961-12-01T08:00:00.000Z"},"payor":[{"reference":"Organization/18ca435c-cae6-4c34-8033-af717477f9fc"}]},"request":{"method":"PUT","url":"Coverage/5a2f4de9-53af-47c0-8b08-cb61e8ccef27"}},{"fullUrl":"https://madie.cms.gov/Condition/b68a7104-d7f7-4d5a-84a3-4c2464f85969","resource":{"resourceType":"Condition","id":"b68a7104-d7f7-4d5a-84a3-4c2464f85969","meta":{"profile":["http://hl7.org/fhir/us/qicore/StructureDefinition/qicore-condition"]},"clinicalStatus":{"coding":[{"system":"http://terminology.hl7.org/CodeSystem/condition-clinical","code":"active"}]},"verificationStatus":{"coding":[{"system":"http://terminology.hl7.org/CodeSystem/condition-ver-status","code":"confirmed"}]},"category":[{"coding":[{"system":"http://terminology.hl7.org/CodeSystem/condition-category","code":"encounter-diagnosis","display":"Encounter Diagnosis"}]}],"code":{"coding":[{"system":"http://snomed.info/sct","version":"2021-09","code":"111297002","display":"Nonparalytic stroke (disorder)","userSelected":true}]},"subject":{"reference":"Patient/ad014d1d-6043-4b40-9fd3-0abc1f308a04"},"recordedDate":"2026-10-13T08:00:00.000+00:00"},"request":{"method":"PUT","url":"Condition/b68a7104-d7f7-4d5a-84a3-4c2464f85969"}},{"fullUrl":"https://madie.cms.gov/Organization/113cadd6-03db-40c1-a228-45173d2cacbf","resource":{"resourceType":"Organization","id":"18ca435c-cae6-4c34-8033-af717477f9fc","meta":{"profile":["http://hl7.org/fhir/us/qicore/StructureDefinition/qicore-organization"]},"identifier":[{"use":"temp","system":"urn:oid:2.16.840.1.113883.4.4","value":"21-3259825"}],"active":true,"type":[{"coding":[{"system":"http://terminology.hl7.org/CodeSystem/organization-type","code":"pay","display":"Payer"}]}],"name":"Blue Cross Blue Shield of Texas","telecom":[{"system":"phone","value":"(+1) 972-766-6900"}],"address":[{"use":"billing","type":"postal","line":["P.O. Box 660044"],"city":"Dallas","state":"TX","postalCode":"75266-0044","country":"USA"}]},"request":{"method":"PUT","url":"Organization/18ca435c-cae6-4c34-8033-af717477f9fc"}},{"fullUrl":"https://madie.cms.gov/Practitioner/7f51f73f-fd86-4204-abcd-14624f334f8b","resource":{"resourceType":"Practitioner","id":"7f51f73f-fd86-4204-abcd-14624f334f8b","identifier":[{"system":"http://hl7.org/fhir/sid/us-npi","value":"123456"}],"name":[{"family":"Evil","prefix":["Dr"]}]},"request":{"method":"PUT","url":"Practitioner/7f51f73f-fd86-4204-abcd-14624f334f8b"}},{"fullUrl":"https://madie.cms.gov/MeasureReport/3e08483f-cd00-4426-a941-3f28bc34ace5","resource":{"resourceType":"MeasureReport","id":"3e08483f-cd00-4426-a941-3f28bc34ace5","meta":{"profile":["http://hl7.org/fhir/us/cqfmeasures/StructureDefinition/test-case-cqfm"]},"contained":[{"resourceType":"Parameters","id":"1fb5c21a-f5dc-4ffd-a95c-6a05c268448a-parameters","parameter":[{"name":"subject","valueString":"ad014d1d-6043-4b40-9fd3-0abc1f308a04"}]}],"extension":[{"url":"http://hl7.org/fhir/us/cqfmeasures/StructureDefinition/cqfm-inputParameters","valueReference":{"reference":"#1fb5c21a-f5dc-4ffd-a95c-6a05c268448a-parameters"}},{"url":"http://hl7.org/fhir/us/cqfmeasures/StructureDefinition/cqfm-testCaseDescription","valueMarkdown":"Enc Dx = ischemic stroke, age GT 18, without EncPrinipleDx\n"}],"modifierExtension":[{"url":"http://hl7.org/fhir/us/cqfmeasures/StructureDefinition/cqfm-isTestCase","valueBoolean":true}],"status":"complete","type":"individual","measure":"https://madie.cms.gov/Measure/CMS71FHIRSTKAnticoagAFFlutter","period":{"start":"2026-01-01","end":"2026-12-31"},"group":[{"population":[{"code":{"coding":[{"system":"http://terminology.hl7.org/CodeSystem/measure-population","code":"initial-population","display":"Initial Population"}]},"count":0},{"code":{"coding":[{"system":"http://terminology.hl7.org/CodeSystem/measure-population","code":"denominator","display":"Denominator"}]},"count":0},{"code":{"coding":[{"system":"http://terminology.hl7.org/CodeSystem/measure-population","code":"denominator-exclusion","display":"Denominator Exclusion"}]},"count":0},{"code":{"coding":[{"system":"http://terminology.hl7.org/CodeSystem/measure-population","code":"numerator","display":"Numerator"}]},"count":0},{"code":{"coding":[{"system":"http://terminology.hl7.org/CodeSystem/measure-population","code":"denominator-exception","display":"Denominator Exception"}]},"count":0}]}]},"request":{"method":"PUT","url":"MeasureReport/3e08483f-cd00-4426-a941-3f28bc34ace5"}}]}