{"resourceType":"Bundle","id":"tests-c6b15880-138d-42cd-8350-8a16968c246b-bundle","type":"transaction","entry":[{"fullUrl":"https://madie.cms.gov/Patient/c6b15880-138d-42cd-8350-8a16968c246b","resource":{"resourceType":"Patient","id":"c6b15880-138d-42cd-8350-8a16968c246b","meta":{"profile":["http://hl7.org/fhir/us/qicore/StructureDefinition/qicore-patient"]},"text":{"status":"generated","div":"<div xmlns=\"http://www.w3.org/1999/xhtml\"><div class=\"hapiHeaderText\">CMPdurEnc_NoEDNoObsBFEnc <b>DENEXPASS </b></div><table class=\"hapiPropertyTable\"><tbody><tr><td>Identifier</td><td>669cd2691aaab3d70b8b307e64426a43</td></tr><tr><td>Date of birth</td><td><span>18 September 1985</span></td></tr></tbody></table></div>"},"extension":[{"url":"http://hl7.org/fhir/us/core/StructureDefinition/us-core-race","extension":[{"url":"ombCategory","valueCoding":{"system":"urn:oid:2.16.840.1.113883.6.238","code":"1002-5","display":"American Indian or Alaska Native","userSelected":true}},{"url":"text","valueString":"American Indian or Alaska Native"}]},{"url":"http://hl7.org/fhir/us/core/StructureDefinition/us-core-ethnicity","extension":[{"url":"ombCategory","valueCoding":{"system":"urn:oid:2.16.840.1.113883.6.238","code":"2135-2","display":"Hispanic or Latino","userSelected":true}},{"url":"text","valueString":"Hispanic or Latino"}]}],"identifier":[{"type":{"coding":[{"system":"http://terminology.hl7.org/CodeSystem/v2-0203","code":"MR"}]},"system":"https://bonnie-fhir.healthit.gov/","value":"633c9d030968f8012250fc80"}],"active":true,"name":[{"use":"usual","family":"DENEXPass","given":["CMPdurEnc_NoEDNoObsBFEnc"]}],"gender":"female","birthDate":"1986-09-18"},"request":{"method":"PUT","url":"Patient/c6b15880-138d-42cd-8350-8a16968c246b"}},{"fullUrl":"https://madie.cms.gov/Condition/f021ec79-f5e0-4bfa-8b82-c31f03a7cfcb","resource":{"resourceType":"Condition","id":"f021ec79-f5e0-4bfa-8b82-c31f03a7cfcb","meta":{"profile":["http://hl7.org/fhir/us/qicore/StructureDefinition/qicore-condition"]},"clinicalStatus":{"coding":[{"system":"http://terminology.hl7.org/CodeSystem/condition-clinical","code":"inactive"}]},"verificationStatus":{"coding":[{"system":"http://terminology.hl7.org/CodeSystem/condition-ver-status","code":"confirmed"}]},"category":[{"coding":[{"system":"http://terminology.hl7.org/CodeSystem/condition-category","code":"encounter-diagnosis","display":"Encounter Diagnosis"}]}],"code":{"coding":[{"system":"http://hl7.org/fhir/sid/icd-10-cm","code":"I48.20"},{"system":"http://hl7.org/fhir/sid/icd-10-cm","code":"I48.0"},{"system":"http://snomed.info/sct","code":"5370000"}]},"subject":{"reference":"Patient/c6b15880-138d-42cd-8350-8a16968c246b"},"onsetDateTime":"2026-10-01T09:00:00.000Z","abatementDateTime":"2026-10-12T00:15:00.000Z"},"request":{"method":"PUT","url":"Condition/f021ec79-f5e0-4bfa-8b82-c31f03a7cfcb"}},{"fullUrl":"https://madie.cms.gov/Encounter/818a3b6a-a16a-4e77-8fc9-1dc94254c440","resource":{"resourceType":"Encounter","id":"818a3b6a-a16a-4e77-8fc9-1dc94254c440","meta":{"profile":["http://hl7.org/fhir/us/qicore/StructureDefinition/qicore-encounter"]},"status":"finished","class":{"system":"http://terminology.hl7.org/CodeSystem/v3-ActCode","code":"IMP","display":"inpatient encounter"},"type":[{"coding":[{"system":"http://snomed.info/sct","code":"32485007"}]}],"subject":{"reference":"Patient/c6b15880-138d-42cd-8350-8a16968c246b"},"period":{"start":"2026-10-01T09:00:00.000Z","end":"2026-10-12T00:15:00.000Z"},"length":{"value":11,"unit":"days"},"diagnosis":[{"condition":{"reference":"Condition/5b774f0f-dc86-406f-bdea-24eba363e945"},"use":{"coding":[{"system":"http://terminology.hl7.org/CodeSystem/diagnosis-role","code":"billing","display":"Billing"}]},"rank":1}]},"request":{"method":"PUT","url":"Encounter/818a3b6a-a16a-4e77-8fc9-1dc94254c440"}},{"fullUrl":"https://madie.cms.gov/Procedure/73643bdd-52b2-4bba-b35e-3d73f94f1dde","resource":{"resourceType":"Procedure","id":"73643bdd-52b2-4bba-b35e-3d73f94f1dde","meta":{"profile":["http://hl7.org/fhir/us/qicore/StructureDefinition/qicore-procedure"]},"extension":[{"url":"http://hl7.org/fhir/us/qicore/StructureDefinition/qicore-recorded","valueDateTime":"2026-11-19T09:35:00-04:00"}],"status":"completed","code":{"coding":[{"system":"http://snomed.info/sct","code":"133918004"}]},"subject":{"reference":"Patient/c6b15880-138d-42cd-8350-8a16968c246b"},"performedPeriod":{"start":"2026-10-01T09:00:00.000Z","end":"2026-10-12T00:15:00.000Z"}},"request":{"method":"PUT","url":"Procedure/73643bdd-52b2-4bba-b35e-3d73f94f1dde"}},{"fullUrl":"https://madie.cms.gov/Coverage/da53ac26-f9a8-4656-a6c7-6f2143c24f83","resource":{"resourceType":"Coverage","id":"da53ac26-f9a8-4656-a6c7-6f2143c24f83","status":"active","beneficiary":{"reference":"Patient/c6b15880-138d-42cd-8350-8a16968c246b"},"period":{"start":"1986-09-18T08:00:00.000Z"},"payor":[{"reference":"Organization/f7da4368-fb6d-4d73-a75b-f78024cbb18d"}]},"request":{"method":"PUT","url":"Coverage/da53ac26-f9a8-4656-a6c7-6f2143c24f83"}},{"fullUrl":"https://madie.cms.gov/Condition/5b774f0f-dc86-406f-bdea-24eba363e945","resource":{"resourceType":"Condition","id":"5b774f0f-dc86-406f-bdea-24eba363e945","meta":{"profile":["http://hl7.org/fhir/us/qicore/StructureDefinition/qicore-condition"]},"clinicalStatus":{"coding":[{"system":"http://terminology.hl7.org/CodeSystem/condition-clinical","code":"active"}]},"verificationStatus":{"coding":[{"system":"http://terminology.hl7.org/CodeSystem/condition-ver-status","code":"confirmed"}]},"category":[{"coding":[{"system":"http://terminology.hl7.org/CodeSystem/condition-category","code":"encounter-diagnosis","display":"Encounter Diagnosis"}]}],"code":{"coding":[{"system":"http://snomed.info/sct","version":"2021-09","code":"111297002","display":"Nonparalytic stroke (disorder)","userSelected":true}]},"subject":{"reference":"Patient/c6b15880-138d-42cd-8350-8a16968c246b"},"recordedDate":"2026-10-13T08:00:00.000+00:00"},"request":{"method":"PUT","url":"Condition/5b774f0f-dc86-406f-bdea-24eba363e945"}},{"fullUrl":"https://madie.cms.gov/Organization/d688ad3b-8ec1-44ac-a3c8-59ed9bbd171c","resource":{"resourceType":"Organization","id":"f7da4368-fb6d-4d73-a75b-f78024cbb18d","meta":{"profile":["http://hl7.org/fhir/us/qicore/StructureDefinition/qicore-organization"]},"identifier":[{"use":"temp","system":"urn:oid:2.16.840.1.113883.4.4","value":"21-3259825"}],"active":true,"type":[{"coding":[{"system":"http://terminology.hl7.org/CodeSystem/organization-type","code":"pay","display":"Payer"}]}],"name":"Blue Cross Blue Shield of Texas","telecom":[{"system":"phone","value":"(+1) 972-766-6900"}],"address":[{"use":"billing","type":"postal","line":["P.O. Box 660044"],"city":"Dallas","state":"TX","postalCode":"75266-0044","country":"USA"}]},"request":{"method":"PUT","url":"Organization/f7da4368-fb6d-4d73-a75b-f78024cbb18d"}},{"fullUrl":"https://madie.cms.gov/Practitioner/33d93ed6-ba80-48f1-9203-3f58967656c4","resource":{"resourceType":"Practitioner","id":"33d93ed6-ba80-48f1-9203-3f58967656c4","identifier":[{"system":"http://hl7.org/fhir/sid/us-npi","value":"123456"}],"name":[{"family":"Evil","prefix":["Dr"]}]},"request":{"method":"PUT","url":"Practitioner/33d93ed6-ba80-48f1-9203-3f58967656c4"}},{"fullUrl":"https://madie.cms.gov/MeasureReport/8c71be66-c6f0-4cf2-8517-99381b86cda9","resource":{"resourceType":"MeasureReport","id":"8c71be66-c6f0-4cf2-8517-99381b86cda9","meta":{"profile":["http://hl7.org/fhir/us/cqfmeasures/StructureDefinition/test-case-cqfm"]},"contained":[{"resourceType":"Parameters","id":"fef86ca9-17fc-4a9e-960a-0fa9b08fcbc9-parameters","parameter":[{"name":"subject","valueString":"c6b15880-138d-42cd-8350-8a16968c246b"}]}],"extension":[{"url":"http://hl7.org/fhir/us/cqfmeasures/StructureDefinition/cqfm-inputParameters","valueReference":{"reference":"#fef86ca9-17fc-4a9e-960a-0fa9b08fcbc9-parameters"}},{"url":"http://hl7.org/fhir/us/cqfmeasures/StructureDefinition/cqfm-testCaseDescription","valueMarkdown":"Patient receives CMP during inpatient encounter. No ED. No Obs. Testing HospitalizationWithObservation function\n"}],"modifierExtension":[{"url":"http://hl7.org/fhir/us/cqfmeasures/StructureDefinition/cqfm-isTestCase","valueBoolean":true}],"status":"complete","type":"individual","measure":"https://madie.cms.gov/Measure/CMS71FHIRSTKAnticoagAFFlutter","period":{"start":"2026-01-01","end":"2026-12-31"},"group":[{"population":[{"code":{"coding":[{"system":"http://terminology.hl7.org/CodeSystem/measure-population","code":"initial-population","display":"Initial Population"}]},"count":1},{"code":{"coding":[{"system":"http://terminology.hl7.org/CodeSystem/measure-population","code":"denominator","display":"Denominator"}]},"count":1},{"code":{"coding":[{"system":"http://terminology.hl7.org/CodeSystem/measure-population","code":"denominator-exclusion","display":"Denominator Exclusion"}]},"count":1},{"code":{"coding":[{"system":"http://terminology.hl7.org/CodeSystem/measure-population","code":"numerator","display":"Numerator"}]},"count":0},{"code":{"coding":[{"system":"http://terminology.hl7.org/CodeSystem/measure-population","code":"denominator-exception","display":"Denominator Exception"}]},"count":0}]}]},"request":{"method":"PUT","url":"MeasureReport/8c71be66-c6f0-4cf2-8517-99381b86cda9"}}]}