{"resourceType":"Bundle","id":"tests-12f5363d-fa3f-4a61-aad9-defc8583ca12-bundle","type":"transaction","entry":[{"fullUrl":"https://madie.cms.gov/Patient/12f5363d-fa3f-4a61-aad9-defc8583ca12","resource":{"resourceType":"Patient","id":"12f5363d-fa3f-4a61-aad9-defc8583ca12","meta":{"profile":["http://hl7.org/fhir/us/qicore/StructureDefinition/qicore-patient"]},"text":{"status":"generated","div":"<div xmlns=\"http://www.w3.org/1999/xhtml\"><div class=\"hapiHeaderText\">CMOdurED_ED=1hrNoObsBFEnc <b>DENEXPASS </b></div><table class=\"hapiPropertyTable\"><tbody><tr><td>Identifier</td><td>670854918483ca8b7894283bd5cddbcf5037c5392991b8777bf3c4f78ed05f0b</td></tr><tr><td>Date of birth</td><td><span>18 September 1985</span></td></tr></tbody></table></div>"},"extension":[{"url":"http://hl7.org/fhir/us/core/StructureDefinition/us-core-race","extension":[{"url":"ombCategory","valueCoding":{"system":"urn:oid:2.16.840.1.113883.6.238","code":"1002-5","display":"American Indian or Alaska Native","userSelected":true}},{"url":"text","valueString":"American Indian or Alaska Native"}]},{"url":"http://hl7.org/fhir/us/core/StructureDefinition/us-core-ethnicity","extension":[{"url":"ombCategory","valueCoding":{"system":"urn:oid:2.16.840.1.113883.6.238","code":"2135-2","display":"Hispanic or Latino","userSelected":true}},{"url":"text","valueString":"Hispanic or Latino"}]}],"identifier":[{"type":{"coding":[{"system":"http://terminology.hl7.org/CodeSystem/v2-0203","code":"MR"}]},"system":"https://bonnie-fhir.healthit.gov/","value":"633c9d040968f8012250fca3"}],"active":true,"name":[{"use":"usual","family":"DENEXPass","given":["CMOdurED_ED=1hrNoObsBFEnc"]}],"gender":"female","birthDate":"1986-09-18"},"request":{"method":"PUT","url":"Patient/12f5363d-fa3f-4a61-aad9-defc8583ca12"}},{"fullUrl":"https://madie.cms.gov/Condition/35d8cabf-4052-439a-b485-bfe5d41fdea0","resource":{"resourceType":"Condition","id":"35d8cabf-4052-439a-b485-bfe5d41fdea0","meta":{"profile":["http://hl7.org/fhir/us/qicore/StructureDefinition/qicore-condition"]},"clinicalStatus":{"coding":[{"system":"http://terminology.hl7.org/CodeSystem/condition-clinical","code":"inactive"}]},"verificationStatus":{"coding":[{"system":"http://terminology.hl7.org/CodeSystem/condition-ver-status","code":"confirmed"}]},"category":[{"coding":[{"system":"http://terminology.hl7.org/CodeSystem/condition-category","code":"encounter-diagnosis","display":"Encounter Diagnosis"}]}],"code":{"coding":[{"system":"http://hl7.org/fhir/sid/icd-10-cm","code":"I48.20"},{"system":"http://hl7.org/fhir/sid/icd-10-cm","code":"I48.0"},{"system":"http://snomed.info/sct","code":"5370000"}]},"subject":{"reference":"Patient/12f5363d-fa3f-4a61-aad9-defc8583ca12"},"onsetDateTime":"2026-10-01T09:01:00.000Z","abatementDateTime":"2026-10-12T00:15:00.000Z"},"request":{"method":"PUT","url":"Condition/35d8cabf-4052-439a-b485-bfe5d41fdea0"}},{"fullUrl":"https://madie.cms.gov/Encounter/da54c608-3b0e-48d3-bea9-85ca7eb48626","resource":{"resourceType":"Encounter","id":"da54c608-3b0e-48d3-bea9-85ca7eb48626","meta":{"profile":["http://hl7.org/fhir/us/qicore/StructureDefinition/qicore-encounter"]},"status":"finished","class":{"system":"http://terminology.hl7.org/CodeSystem/v3-ActCode","code":"EMER","display":"emergency"},"type":[{"coding":[{"system":"http://snomed.info/sct","code":"4525004"}]}],"subject":{"reference":"Patient/12f5363d-fa3f-4a61-aad9-defc8583ca12"},"period":{"start":"2026-10-01T09:01:00.000Z","end":"2026-10-01T12:15:00.000Z"},"length":{"value":0,"unit":"days"}},"request":{"method":"PUT","url":"Encounter/da54c608-3b0e-48d3-bea9-85ca7eb48626"}},{"fullUrl":"https://madie.cms.gov/Encounter/3402b2b1-48f2-4369-a251-845f4d9df48a","resource":{"resourceType":"Encounter","id":"3402b2b1-48f2-4369-a251-845f4d9df48a","meta":{"profile":["http://hl7.org/fhir/us/qicore/StructureDefinition/qicore-encounter"]},"status":"finished","class":{"system":"http://terminology.hl7.org/CodeSystem/v3-ActCode","code":"IMP","display":"inpatient encounter"},"type":[{"coding":[{"system":"http://snomed.info/sct","code":"32485007"}]}],"subject":{"reference":"Patient/12f5363d-fa3f-4a61-aad9-defc8583ca12"},"period":{"start":"2026-10-01T13:15:00.000Z","end":"2026-10-12T00:15:00.000Z"},"length":{"value":11,"unit":"days"},"diagnosis":[{"condition":{"reference":"Condition/211799bf-d64e-4aeb-a239-d014d41e5e92"},"use":{"coding":[{"system":"http://terminology.hl7.org/CodeSystem/diagnosis-role","code":"billing","display":"Billing"}]},"rank":1}]},"request":{"method":"PUT","url":"Encounter/3402b2b1-48f2-4369-a251-845f4d9df48a"}},{"fullUrl":"https://madie.cms.gov/ServiceRequest/c1a0c35d-f157-491a-9ebf-b74e76e1b338","resource":{"resourceType":"ServiceRequest","id":"c1a0c35d-f157-491a-9ebf-b74e76e1b338","meta":{"profile":["http://hl7.org/fhir/us/qicore/StructureDefinition/qicore-servicerequest"]},"status":"active","intent":"order","code":{"coding":[{"system":"http://snomed.info/sct","code":"133918004"}]},"subject":{"reference":"Patient/12f5363d-fa3f-4a61-aad9-defc8583ca12"},"authoredOn":"2026-10-01T09:15:00.000+00:00"},"request":{"method":"PUT","url":"ServiceRequest/c1a0c35d-f157-491a-9ebf-b74e76e1b338"}},{"fullUrl":"https://madie.cms.gov/Coverage/35806f9b-73d8-4e71-aa2e-1dab3ba6ef6b","resource":{"resourceType":"Coverage","id":"35806f9b-73d8-4e71-aa2e-1dab3ba6ef6b","status":"active","beneficiary":{"reference":"Patient/12f5363d-fa3f-4a61-aad9-defc8583ca12"},"period":{"start":"1986-09-18T08:00:00.000Z"},"payor":[{"reference":"Organization/3778262e-e084-4bb5-9a47-1a144735f786"}]},"request":{"method":"PUT","url":"Coverage/35806f9b-73d8-4e71-aa2e-1dab3ba6ef6b"}},{"fullUrl":"https://madie.cms.gov/Condition/211799bf-d64e-4aeb-a239-d014d41e5e92","resource":{"resourceType":"Condition","id":"211799bf-d64e-4aeb-a239-d014d41e5e92","meta":{"profile":["http://hl7.org/fhir/us/qicore/StructureDefinition/qicore-condition"]},"clinicalStatus":{"coding":[{"system":"http://terminology.hl7.org/CodeSystem/condition-clinical","code":"active"}]},"verificationStatus":{"coding":[{"system":"http://terminology.hl7.org/CodeSystem/condition-ver-status","code":"confirmed"}]},"category":[{"coding":[{"system":"http://terminology.hl7.org/CodeSystem/condition-category","code":"encounter-diagnosis","display":"Encounter Diagnosis"}]}],"code":{"coding":[{"system":"http://snomed.info/sct","version":"2021-09","code":"111297002","display":"Nonparalytic stroke (disorder)","userSelected":true}]},"subject":{"reference":"Patient/12f5363d-fa3f-4a61-aad9-defc8583ca12"},"recordedDate":"2026-10-13T08:00:00.000+00:00"},"request":{"method":"PUT","url":"Condition/211799bf-d64e-4aeb-a239-d014d41e5e92"}},{"fullUrl":"https://madie.cms.gov/Organization/6a2ad825-5c96-4704-9112-6241e9cc4037","resource":{"resourceType":"Organization","id":"3778262e-e084-4bb5-9a47-1a144735f786","meta":{"profile":["http://hl7.org/fhir/us/qicore/StructureDefinition/qicore-organization"]},"identifier":[{"use":"temp","system":"urn:oid:2.16.840.1.113883.4.4","value":"21-3259825"}],"active":true,"type":[{"coding":[{"system":"http://terminology.hl7.org/CodeSystem/organization-type","code":"pay","display":"Payer"}]}],"name":"Blue Cross Blue Shield of Texas","telecom":[{"system":"phone","value":"(+1) 972-766-6900"}],"address":[{"use":"billing","type":"postal","line":["P.O. Box 660044"],"city":"Dallas","state":"TX","postalCode":"75266-0044","country":"USA"}]},"request":{"method":"PUT","url":"Organization/3778262e-e084-4bb5-9a47-1a144735f786"}},{"fullUrl":"https://madie.cms.gov/Practitioner/d2a5c040-48c2-472c-bd8e-ab8665d147b8","resource":{"resourceType":"Practitioner","id":"d2a5c040-48c2-472c-bd8e-ab8665d147b8","identifier":[{"system":"http://hl7.org/fhir/sid/us-npi","value":"123456"}],"name":[{"family":"Evil","prefix":["Dr"]}]},"request":{"method":"PUT","url":"Practitioner/d2a5c040-48c2-472c-bd8e-ab8665d147b8"}},{"fullUrl":"https://madie.cms.gov/MeasureReport/d4fe852b-136e-43eb-843d-abc5049d7654","resource":{"resourceType":"MeasureReport","id":"d4fe852b-136e-43eb-843d-abc5049d7654","meta":{"profile":["http://hl7.org/fhir/us/cqfmeasures/StructureDefinition/test-case-cqfm"]},"contained":[{"resourceType":"Parameters","id":"1d36e54b-c02c-475b-80da-51903f626769-parameters","parameter":[{"name":"subject","valueString":"12f5363d-fa3f-4a61-aad9-defc8583ca12"}]}],"extension":[{"url":"http://hl7.org/fhir/us/cqfmeasures/StructureDefinition/cqfm-inputParameters","valueReference":{"reference":"#1d36e54b-c02c-475b-80da-51903f626769-parameters"}},{"url":"http://hl7.org/fhir/us/cqfmeasures/StructureDefinition/cqfm-testCaseDescription","valueMarkdown":"\"Patient receives CMO during ED. ED ends 60 min before Inpatient start. No Observation. Testing day HospitalizationWithObservation function\n\"\n"}],"modifierExtension":[{"url":"http://hl7.org/fhir/us/cqfmeasures/StructureDefinition/cqfm-isTestCase","valueBoolean":true}],"status":"complete","type":"individual","measure":"https://madie.cms.gov/Measure/CMS71FHIRSTKAnticoagAFFlutter","period":{"start":"2026-01-01","end":"2026-12-31"},"group":[{"population":[{"code":{"coding":[{"system":"http://terminology.hl7.org/CodeSystem/measure-population","code":"initial-population","display":"Initial Population"}]},"count":1},{"code":{"coding":[{"system":"http://terminology.hl7.org/CodeSystem/measure-population","code":"denominator","display":"Denominator"}]},"count":1},{"code":{"coding":[{"system":"http://terminology.hl7.org/CodeSystem/measure-population","code":"denominator-exclusion","display":"Denominator Exclusion"}]},"count":1},{"code":{"coding":[{"system":"http://terminology.hl7.org/CodeSystem/measure-population","code":"numerator","display":"Numerator"}]},"count":0},{"code":{"coding":[{"system":"http://terminology.hl7.org/CodeSystem/measure-population","code":"denominator-exception","display":"Denominator Exception"}]},"count":0}]}]},"request":{"method":"PUT","url":"MeasureReport/d4fe852b-136e-43eb-843d-abc5049d7654"}}]}