{"resourceType":"Bundle","id":"tests-67622b2b-10f4-44c5-be6e-7f15b78f1464-bundle","type":"transaction","entry":[{"fullUrl":"https://madie.cms.gov/Patient/67622b2b-10f4-44c5-be6e-7f15b78f1464","resource":{"resourceType":"Patient","id":"67622b2b-10f4-44c5-be6e-7f15b78f1464","meta":{"profile":["http://hl7.org/fhir/us/qicore/StructureDefinition/qicore-patient"]},"text":{"status":"generated","div":"<div xmlns=\"http://www.w3.org/1999/xhtml\"><div class=\"hapiHeaderText\">2IPPass1IPFail DENEXPass <b>NUMERPASSX1 </b></div><table class=\"hapiPropertyTable\"><tbody><tr><td>Identifier</td><td>52c14de634122f39abfbd9ffaa41bc27</td></tr><tr><td>Date of birth</td><td><span>23 May 1954</span></td></tr></tbody></table></div>"},"extension":[{"url":"http://hl7.org/fhir/us/core/StructureDefinition/us-core-race","extension":[{"url":"ombCategory","valueCoding":{"system":"urn:oid:2.16.840.1.113883.6.238","code":"1002-5","display":"American Indian or Alaska Native","userSelected":true}},{"url":"text","valueString":"American Indian or Alaska Native"}]},{"url":"http://hl7.org/fhir/us/core/StructureDefinition/us-core-ethnicity","extension":[{"url":"ombCategory","valueCoding":{"system":"urn:oid:2.16.840.1.113883.6.238","code":"2135-2","display":"Hispanic or Latino","userSelected":true}},{"url":"text","valueString":"Hispanic or Latino"}]}],"identifier":[{"type":{"coding":[{"system":"http://terminology.hl7.org/CodeSystem/v2-0203","code":"MR"}]},"system":"https://bonnie-fhir.healthit.gov/","value":"633c9d040968f8012250fcaf"}],"active":true,"name":[{"use":"usual","family":"NUMERPassX1","given":["2IPPass1IPFail DENEXPass"]}],"gender":"female","birthDate":"1955-05-23"},"request":{"method":"PUT","url":"Patient/67622b2b-10f4-44c5-be6e-7f15b78f1464"}},{"fullUrl":"https://madie.cms.gov/Encounter/fdcae463-f723-4cb3-aa1e-99f0e1544c5c","resource":{"resourceType":"Encounter","id":"fdcae463-f723-4cb3-aa1e-99f0e1544c5c","meta":{"profile":["http://hl7.org/fhir/us/qicore/StructureDefinition/qicore-encounter"]},"status":"finished","class":{"system":"http://terminology.hl7.org/CodeSystem/v3-ActCode","code":"IMP","display":"inpatient encounter"},"type":[{"coding":[{"system":"http://snomed.info/sct","code":"32485007"}]}],"subject":{"reference":"Patient/67622b2b-10f4-44c5-be6e-7f15b78f1464"},"period":{"start":"2026-11-20T08:00:00.000Z","end":"2026-11-24T08:15:00.000Z"},"length":{"value":4,"unit":"days"},"diagnosis":[{"condition":{"reference":"Condition/42df9ca9-2323-4335-af45-e5c842cc78cf"},"use":{"coding":[{"system":"http://terminology.hl7.org/CodeSystem/diagnosis-role","code":"billing","display":"Billing"}]},"rank":1}]},"request":{"method":"PUT","url":"Encounter/fdcae463-f723-4cb3-aa1e-99f0e1544c5c"}},{"fullUrl":"https://madie.cms.gov/Encounter/86d97cc6-0ebf-4399-be24-bd84fe7a1112","resource":{"resourceType":"Encounter","id":"86d97cc6-0ebf-4399-be24-bd84fe7a1112","meta":{"profile":["http://hl7.org/fhir/us/qicore/StructureDefinition/qicore-encounter"]},"status":"finished","class":{"system":"http://terminology.hl7.org/CodeSystem/v3-ActCode","code":"IMP","display":"inpatient encounter"},"type":[{"coding":[{"system":"http://snomed.info/sct","code":"183452005"}]}],"subject":{"reference":"Patient/67622b2b-10f4-44c5-be6e-7f15b78f1464"},"period":{"start":"2026-10-28T08:00:00.000Z","end":"2026-10-30T08:15:00.000Z"},"diagnosis":[{"condition":{"reference":"Condition/bad7cde9-91b3-4bf1-9f68-46b7efd5892e"},"use":{"coding":[{"system":"http://terminology.hl7.org/CodeSystem/diagnosis-role","code":"billing","display":"Billing"}]},"rank":2}]},"request":{"method":"PUT","url":"Encounter/86d97cc6-0ebf-4399-be24-bd84fe7a1112"}},{"fullUrl":"https://madie.cms.gov/Encounter/7c8d85cb-4d41-4d9b-b431-01da45bd7a90","resource":{"resourceType":"Encounter","id":"7c8d85cb-4d41-4d9b-b431-01da45bd7a90","meta":{"profile":["http://hl7.org/fhir/us/qicore/StructureDefinition/qicore-encounter"]},"status":"finished","class":{"system":"http://terminology.hl7.org/CodeSystem/v3-ActCode","code":"IMP","display":"inpatient encounter"},"type":[{"coding":[{"system":"http://snomed.info/sct","code":"183452005"}]}],"subject":{"reference":"Patient/67622b2b-10f4-44c5-be6e-7f15b78f1464"},"period":{"start":"2026-09-03T08:00:00.000Z","end":"2026-09-07T08:15:00.000Z"},"length":{"value":4,"unit":"days"},"diagnosis":[{"condition":{"reference":"Condition/bad7cde9-91b3-4bf1-9f68-46b7efd5892e"},"use":{"coding":[{"system":"http://www.cms.gov/Medicare/Coding/ICD10","code":"02560ZZ","display":"Destruction of Right Atrium, Open Approach"}]}},{"condition":{"reference":"Condition/105a671d-3f0d-44f7-8292-41380a9c8f52"}},{"condition":{"reference":"Condition/e589fe6f-f6c5-431b-b206-8f6df68c10dd"},"use":{"coding":[{"system":"http://terminology.hl7.org/CodeSystem/diagnosis-role","code":"billing","display":"Billing"}]},"rank":1}]},"request":{"method":"PUT","url":"Encounter/7c8d85cb-4d41-4d9b-b431-01da45bd7a90"}},{"fullUrl":"https://madie.cms.gov/ServiceRequest/728f303b-1a85-44e4-b09c-0ebb7713d4b2","resource":{"resourceType":"ServiceRequest","id":"728f303b-1a85-44e4-b09c-0ebb7713d4b2","meta":{"profile":["http://hl7.org/fhir/us/qicore/StructureDefinition/qicore-servicerequest"]},"status":"active","intent":"order","code":{"coding":[{"system":"http://snomed.info/sct","code":"133918004"}]},"subject":{"reference":"Patient/67622b2b-10f4-44c5-be6e-7f15b78f1464"},"authoredOn":"2026-11-20T08:00:00.000+00:00"},"request":{"method":"PUT","url":"ServiceRequest/728f303b-1a85-44e4-b09c-0ebb7713d4b2"}},{"fullUrl":"https://madie.cms.gov/MedicationRequest/267ed611-b6d7-4260-bd0e-aedb43ff68c2","resource":{"resourceType":"MedicationRequest","id":"267ed611-b6d7-4260-bd0e-aedb43ff68c2","meta":{"profile":["http://hl7.org/fhir/us/qicore/StructureDefinition/qicore-mednotrequested"]},"status":"completed","intent":"order","category":[{"coding":[{"system":"http://terminology.hl7.org/CodeSystem/medicationrequest-category","code":"community"}]}],"doNotPerform":true,"medicationCodeableConcept":{"coding":[{"system":"http://www.nlm.nih.gov/research/umls/rxnorm","code":"308351"}]},"subject":{"reference":"Patient/67622b2b-10f4-44c5-be6e-7f15b78f1464"},"authoredOn":"2026-09-07T08:00:00.000+00:00","requester":{"reference":"Practitioner/example"},"reasonCode":[{"coding":[{"system":"http://snomed.info/sct","code":"183966005","display":"Drug treatment not indicated (situation)"}]}]},"request":{"method":"PUT","url":"MedicationRequest/267ed611-b6d7-4260-bd0e-aedb43ff68c2"}},{"fullUrl":"https://madie.cms.gov/MedicationRequest/9a9a0931-da5b-4898-b50a-1996cae8e923","resource":{"resourceType":"MedicationRequest","id":"9a9a0931-da5b-4898-b50a-1996cae8e923","meta":{"profile":["http://hl7.org/fhir/us/qicore/StructureDefinition/qicore-medicationrequest"]},"status":"active","intent":"order","category":[{"coding":[{"system":"http://terminology.hl7.org/CodeSystem/medicationrequest-category","code":"community","display":"Community","userSelected":true}]}],"medicationCodeableConcept":{"coding":[{"system":"http://www.nlm.nih.gov/research/umls/rxnorm","version":"2022-01","code":"1114198","display":"rivaroxaban 10 MG Oral Tablet","userSelected":true}]},"subject":{"reference":"Patient/67622b2b-10f4-44c5-be6e-7f15b78f1464"},"authoredOn":"2026-11-24T08:00:00.000+00:00","requester":{"reference":"Practitioner/example"}},"request":{"method":"PUT","url":"MedicationRequest/9a9a0931-da5b-4898-b50a-1996cae8e923"}},{"fullUrl":"https://madie.cms.gov/Coverage/f77643ae-4184-40ea-9d27-4679e5422a8e","resource":{"resourceType":"Coverage","id":"f77643ae-4184-40ea-9d27-4679e5422a8e","status":"active","beneficiary":{"reference":"Patient/67622b2b-10f4-44c5-be6e-7f15b78f1464"},"period":{"start":"1955-05-23T08:00:00.000Z"},"payor":[{"reference":"Organization/80e3e0d1-b2aa-43a6-b1d2-00bfa3164a0f"}]},"request":{"method":"PUT","url":"Coverage/f77643ae-4184-40ea-9d27-4679e5422a8e"}},{"fullUrl":"https://madie.cms.gov/Procedure/75eb53dd-92ae-414a-a381-6d00135aa072","resource":{"resourceType":"Procedure","id":"75eb53dd-92ae-414a-a381-6d00135aa072","meta":{"profile":["http://hl7.org/fhir/us/qicore/StructureDefinition/qicore-procedure"]},"extension":[{"url":"http://hl7.org/fhir/us/qicore/StructureDefinition/qicore-recorded","valueDateTime":"2026-11-19T09:35:00-04:00"}],"status":"completed","code":{"coding":[{"system":"http://www.cms.gov/Medicare/Coding/ICD10","code":"02560ZZ"},{"system":"http://snomed.info/sct","code":"175095005"}]},"subject":{"reference":"Patient/67622b2b-10f4-44c5-be6e-7f15b78f1464"},"performedPeriod":{"start":"2026-11-20T06:00:00.000Z","end":"2026-11-20T07:15:00.000Z"}},"request":{"method":"PUT","url":"Procedure/75eb53dd-92ae-414a-a381-6d00135aa072"}},{"fullUrl":"https://madie.cms.gov/Condition/42df9ca9-2323-4335-af45-e5c842cc78cf","resource":{"resourceType":"Condition","id":"42df9ca9-2323-4335-af45-e5c842cc78cf","meta":{"profile":["http://hl7.org/fhir/us/qicore/StructureDefinition/qicore-condition"]},"clinicalStatus":{"coding":[{"system":"http://terminology.hl7.org/CodeSystem/condition-clinical","code":"active"}]},"verificationStatus":{"coding":[{"system":"http://terminology.hl7.org/CodeSystem/condition-ver-status","code":"confirmed"}]},"category":[{"coding":[{"system":"http://terminology.hl7.org/CodeSystem/condition-category","code":"encounter-diagnosis","display":"Encounter Diagnosis"}]}],"code":{"coding":[{"system":"http://snomed.info/sct","version":"2021-09","code":"111297002","display":"Nonparalytic stroke (disorder)","userSelected":true}]},"subject":{"reference":"Patient/67622b2b-10f4-44c5-be6e-7f15b78f1464"},"recordedDate":"2026-10-13T08:00:00.000+00:00"},"request":{"method":"PUT","url":"Condition/42df9ca9-2323-4335-af45-e5c842cc78cf"}},{"fullUrl":"https://madie.cms.gov/Condition/bad7cde9-91b3-4bf1-9f68-46b7efd5892e","resource":{"resourceType":"Condition","id":"bad7cde9-91b3-4bf1-9f68-46b7efd5892e","meta":{"profile":["http://hl7.org/fhir/us/qicore/StructureDefinition/qicore-condition"]},"clinicalStatus":{"coding":[{"system":"http://terminology.hl7.org/CodeSystem/condition-clinical","code":"active"}]},"verificationStatus":{"coding":[{"system":"http://terminology.hl7.org/CodeSystem/condition-ver-status","code":"confirmed"}]},"category":[{"coding":[{"system":"http://terminology.hl7.org/CodeSystem/condition-category","code":"encounter-diagnosis","display":"Encounter Diagnosis"}]}],"code":{"coding":[{"system":"http://www.icd10data.com/icd10pcs","version":"2022","code":"02560ZZ","display":"Destruction of Right Atrium, Open Approach","userSelected":true}]},"subject":{"reference":"Patient/67622b2b-10f4-44c5-be6e-7f15b78f1464"},"recordedDate":"2026-10-13T08:00:00.000+00:00"},"request":{"method":"PUT","url":"Condition/bad7cde9-91b3-4bf1-9f68-46b7efd5892e"}},{"fullUrl":"https://madie.cms.gov/Condition/02bf5412-5aa5-4cd4-bdb5-47a41dfa2b48","resource":{"resourceType":"Condition","id":"02bf5412-5aa5-4cd4-bdb5-47a41dfa2b48","meta":{"profile":["http://hl7.org/fhir/us/qicore/StructureDefinition/qicore-condition"]},"clinicalStatus":{"coding":[{"system":"http://terminology.hl7.org/CodeSystem/condition-clinical","code":"active"}]},"verificationStatus":{"coding":[{"system":"http://terminology.hl7.org/CodeSystem/condition-ver-status","code":"confirmed"}]},"category":[{"coding":[{"system":"http://terminology.hl7.org/CodeSystem/condition-category","code":"encounter-diagnosis","display":"Encounter Diagnosis"}]}],"code":{"coding":[{"system":"http://snomed.info/sct","version":"2021-09","code":"111297002","display":"Nonparalytic stroke (disorder)","userSelected":true}]},"subject":{"reference":"Patient/67622b2b-10f4-44c5-be6e-7f15b78f1464"},"recordedDate":"2026-10-13T08:00:00.000+00:00"},"request":{"method":"PUT","url":"Condition/02bf5412-5aa5-4cd4-bdb5-47a41dfa2b48"}},{"fullUrl":"https://madie.cms.gov/Condition/105a671d-3f0d-44f7-8292-41380a9c8f52","resource":{"resourceType":"Condition","id":"105a671d-3f0d-44f7-8292-41380a9c8f52","meta":{"profile":["http://hl7.org/fhir/us/qicore/StructureDefinition/qicore-condition"]},"clinicalStatus":{"coding":[{"system":"http://terminology.hl7.org/CodeSystem/condition-clinical","code":"active"}]},"verificationStatus":{"coding":[{"system":"http://terminology.hl7.org/CodeSystem/condition-ver-status","code":"confirmed"}]},"category":[{"coding":[{"system":"http://terminology.hl7.org/CodeSystem/condition-category","code":"encounter-diagnosis","display":"Encounter Diagnosis"}]}],"code":{"coding":[{"system":"http://snomed.info/sct","version":"2021-09","code":"120041000119109","display":"Atrial fibrillation with rapid ventricular response (disorder)","userSelected":true}]},"subject":{"reference":"Patient/67622b2b-10f4-44c5-be6e-7f15b78f1464"},"recordedDate":"2026-10-13T08:00:00.000+00:00"},"request":{"method":"PUT","url":"Condition/105a671d-3f0d-44f7-8292-41380a9c8f52"}},{"fullUrl":"https://madie.cms.gov/Condition/e589fe6f-f6c5-431b-b206-8f6df68c10dd","resource":{"resourceType":"Condition","id":"e589fe6f-f6c5-431b-b206-8f6df68c10dd","meta":{"profile":["http://hl7.org/fhir/us/qicore/StructureDefinition/qicore-condition"]},"clinicalStatus":{"coding":[{"system":"http://terminology.hl7.org/CodeSystem/condition-clinical","code":"active"}]},"verificationStatus":{"coding":[{"system":"http://terminology.hl7.org/CodeSystem/condition-ver-status","code":"confirmed"}]},"category":[{"coding":[{"system":"http://terminology.hl7.org/CodeSystem/condition-category","code":"encounter-diagnosis","display":"Encounter Diagnosis"}]}],"code":{"coding":[{"system":"http://snomed.info/sct","version":"2021-09","code":"111297002","display":"Nonparalytic stroke (disorder)","userSelected":true}]},"subject":{"reference":"Patient/67622b2b-10f4-44c5-be6e-7f15b78f1464"},"recordedDate":"2026-10-13T08:00:00.000+00:00"},"request":{"method":"PUT","url":"Condition/e589fe6f-f6c5-431b-b206-8f6df68c10dd"}},{"fullUrl":"https://madie.cms.gov/Organization/c06e9fda-638b-45ab-bc61-46705180b380","resource":{"resourceType":"Organization","id":"80e3e0d1-b2aa-43a6-b1d2-00bfa3164a0f","meta":{"profile":["http://hl7.org/fhir/us/qicore/StructureDefinition/qicore-organization"]},"identifier":[{"use":"temp","system":"urn:oid:2.16.840.1.113883.4.4","value":"21-3259825"}],"active":true,"type":[{"coding":[{"system":"http://terminology.hl7.org/CodeSystem/organization-type","code":"pay","display":"Payer"}]}],"name":"Blue Cross Blue Shield of Texas","telecom":[{"system":"phone","value":"(+1) 972-766-6900"}],"address":[{"use":"billing","type":"postal","line":["P.O. Box 660044"],"city":"Dallas","state":"TX","postalCode":"75266-0044","country":"USA"}]},"request":{"method":"PUT","url":"Organization/80e3e0d1-b2aa-43a6-b1d2-00bfa3164a0f"}},{"fullUrl":"https://madie.cms.gov/Practitioner/696d513b-99d1-4a55-a4ec-76fddfbd88b8","resource":{"resourceType":"Practitioner","id":"696d513b-99d1-4a55-a4ec-76fddfbd88b8","identifier":[{"system":"http://hl7.org/fhir/sid/us-npi","value":"123456"}],"name":[{"family":"Evil","prefix":["Dr"]}]},"request":{"method":"PUT","url":"Practitioner/696d513b-99d1-4a55-a4ec-76fddfbd88b8"}},{"fullUrl":"https://madie.cms.gov/MeasureReport/26e14fbf-d737-447d-8fc5-0a92b18caf83","resource":{"resourceType":"MeasureReport","id":"26e14fbf-d737-447d-8fc5-0a92b18caf83","meta":{"profile":["http://hl7.org/fhir/us/cqfmeasures/StructureDefinition/test-case-cqfm"]},"contained":[{"resourceType":"Parameters","id":"bd4df1e9-f13b-406c-9111-44cccec4d81d-parameters","parameter":[{"name":"subject","valueString":"67622b2b-10f4-44c5-be6e-7f15b78f1464"}]}],"extension":[{"url":"http://hl7.org/fhir/us/cqfmeasures/StructureDefinition/cqfm-inputParameters","valueReference":{"reference":"#bd4df1e9-f13b-406c-9111-44cccec4d81d-parameters"}},{"url":"http://hl7.org/fhir/us/cqfmeasures/StructureDefinition/cqfm-testCaseDescription","valueMarkdown":"Pt. discharged on anticoagulant, starts during encounter 1. Encounter 2 has admitting diagnosis with rank 2. Encounter 3 satisfies IPP and Denom. \n"}],"modifierExtension":[{"url":"http://hl7.org/fhir/us/cqfmeasures/StructureDefinition/cqfm-isTestCase","valueBoolean":true}],"status":"complete","type":"individual","measure":"https://madie.cms.gov/Measure/CMS71FHIRSTKAnticoagAFFlutter","period":{"start":"2026-01-01","end":"2026-12-31"},"group":[{"population":[{"code":{"coding":[{"system":"http://terminology.hl7.org/CodeSystem/measure-population","code":"initial-population","display":"Initial Population"}]},"count":2},{"code":{"coding":[{"system":"http://terminology.hl7.org/CodeSystem/measure-population","code":"denominator","display":"Denominator"}]},"count":2},{"code":{"coding":[{"system":"http://terminology.hl7.org/CodeSystem/measure-population","code":"denominator-exclusion","display":"Denominator Exclusion"}]},"count":1},{"code":{"coding":[{"system":"http://terminology.hl7.org/CodeSystem/measure-population","code":"numerator","display":"Numerator"}]},"count":0},{"code":{"coding":[{"system":"http://terminology.hl7.org/CodeSystem/measure-population","code":"denominator-exception","display":"Denominator Exception"}]},"count":1}]}]},"request":{"method":"PUT","url":"MeasureReport/26e14fbf-d737-447d-8fc5-0a92b18caf83"}}]}