{"resourceType":"Bundle","id":"tests-02ee41e8-26d8-4575-a999-32ee2204d745-bundle","type":"transaction","entry":[{"fullUrl":"https://madie.cms.gov/Patient/02ee41e8-26d8-4575-a999-32ee2204d745","resource":{"resourceType":"Patient","id":"02ee41e8-26d8-4575-a999-32ee2204d745","meta":{"profile":["http://hl7.org/fhir/us/qicore/StructureDefinition/qicore-patient"]},"text":{"status":"generated","div":"<div xmlns=\"http://www.w3.org/1999/xhtml\"><div class=\"hapiHeaderText\">AMA <b>DENEXPASS </b></div><table class=\"hapiPropertyTable\"><tbody><tr><td>Identifier</td><td>b38296647323cdc7f628f752ac1b84d0</td></tr><tr><td>Date of birth</td><td><span>31 July 1969</span></td></tr></tbody></table></div>"},"extension":[{"url":"http://hl7.org/fhir/us/core/StructureDefinition/us-core-race","extension":[{"url":"ombCategory","valueCoding":{"system":"urn:oid:2.16.840.1.113883.6.238","code":"1002-5","display":"American Indian or Alaska Native","userSelected":true}},{"url":"text","valueString":"American Indian or Alaska Native"}]},{"url":"http://hl7.org/fhir/us/core/StructureDefinition/us-core-ethnicity","extension":[{"url":"ombCategory","valueCoding":{"system":"urn:oid:2.16.840.1.113883.6.238","code":"2135-2","display":"Hispanic or Latino","userSelected":true}},{"url":"text","valueString":"Hispanic or Latino"}]}],"identifier":[{"type":{"coding":[{"system":"http://terminology.hl7.org/CodeSystem/v2-0203","code":"MR"}]},"system":"https://bonnie-fhir.healthit.gov/","value":"633c9d020968f8012250fc64"}],"active":true,"name":[{"use":"usual","family":"DENEXPass","given":["AMA"]}],"gender":"male","birthDate":"1970-07-31"},"request":{"method":"PUT","url":"Patient/02ee41e8-26d8-4575-a999-32ee2204d745"}},{"fullUrl":"https://madie.cms.gov/Encounter/f15a3c7a-4f31-4e2d-a6b1-b0bec3cf63d9","resource":{"resourceType":"Encounter","id":"f15a3c7a-4f31-4e2d-a6b1-b0bec3cf63d9","meta":{"profile":["http://hl7.org/fhir/us/qicore/StructureDefinition/qicore-encounter"]},"status":"finished","class":{"system":"http://terminology.hl7.org/CodeSystem/v3-ActCode","code":"IMP","display":"inpatient encounter"},"type":[{"coding":[{"system":"http://snomed.info/sct","code":"32485007"}]}],"subject":{"reference":"Patient/02ee41e8-26d8-4575-a999-32ee2204d745"},"period":{"start":"2026-11-20T08:00:00.000Z","end":"2026-11-24T08:15:00.000Z"},"length":{"value":4,"unit":"days"},"diagnosis":[{"condition":{"reference":"Condition/bd6e8c59-33f7-4c83-8e15-509e48196d78"},"use":{"coding":[{"system":"http://terminology.hl7.org/CodeSystem/diagnosis-role","code":"billing","display":"Billing"}]},"rank":1}],"hospitalization":{"dischargeDisposition":{"coding":[{"system":"http://snomed.info/sct","code":"445060000","display":"Left Against Medical Advice"}]}}},"request":{"method":"PUT","url":"Encounter/f15a3c7a-4f31-4e2d-a6b1-b0bec3cf63d9"}},{"fullUrl":"https://madie.cms.gov/Coverage/c4bfe3f3-c2a3-49ae-8a91-351183c0c3f8","resource":{"resourceType":"Coverage","id":"c4bfe3f3-c2a3-49ae-8a91-351183c0c3f8","status":"active","beneficiary":{"reference":"Patient/02ee41e8-26d8-4575-a999-32ee2204d745"},"period":{"start":"1970-07-31T08:00:00.000Z"},"payor":[{"reference":"Organization/f7da4368-fb6d-4d73-a75b-f78024cbb18d"}]},"request":{"method":"PUT","url":"Coverage/c4bfe3f3-c2a3-49ae-8a91-351183c0c3f8"}},{"fullUrl":"https://madie.cms.gov/Procedure/e25e9ead-bc06-4505-8291-784812bb659d","resource":{"resourceType":"Procedure","id":"e25e9ead-bc06-4505-8291-784812bb659d","meta":{"profile":["http://hl7.org/fhir/us/qicore/StructureDefinition/qicore-procedure"]},"extension":[{"url":"http://hl7.org/fhir/us/qicore/StructureDefinition/qicore-recorded","valueDateTime":"2026-11-19T09:35:00-04:00"}],"status":"completed","code":{"coding":[{"system":"http://www.cms.gov/Medicare/Coding/ICD10","code":"02560ZZ"},{"system":"http://snomed.info/sct","code":"175095005"}]},"subject":{"reference":"Patient/02ee41e8-26d8-4575-a999-32ee2204d745"},"performedPeriod":{"start":"2026-11-19T08:00:00.000Z","end":"2026-11-20T08:15:00.000Z"}},"request":{"method":"PUT","url":"Procedure/e25e9ead-bc06-4505-8291-784812bb659d"}},{"fullUrl":"https://madie.cms.gov/Condition/bd6e8c59-33f7-4c83-8e15-509e48196d78","resource":{"resourceType":"Condition","id":"bd6e8c59-33f7-4c83-8e15-509e48196d78","meta":{"profile":["http://hl7.org/fhir/us/qicore/StructureDefinition/qicore-condition"]},"clinicalStatus":{"coding":[{"system":"http://terminology.hl7.org/CodeSystem/condition-clinical","code":"active"}]},"verificationStatus":{"coding":[{"system":"http://terminology.hl7.org/CodeSystem/condition-ver-status","code":"confirmed"}]},"category":[{"coding":[{"system":"http://terminology.hl7.org/CodeSystem/condition-category","code":"encounter-diagnosis","display":"Encounter Diagnosis"}]}],"code":{"coding":[{"system":"http://snomed.info/sct","version":"2021-09","code":"111297002","display":"Nonparalytic stroke (disorder)","userSelected":true}]},"subject":{"reference":"Patient/02ee41e8-26d8-4575-a999-32ee2204d745"},"recordedDate":"2026-10-04T08:00:00.000+00:00"},"request":{"method":"PUT","url":"Condition/bd6e8c59-33f7-4c83-8e15-509e48196d78"}},{"fullUrl":"https://madie.cms.gov/Organization/488d7efd-1a4b-4d6f-adb6-ff049179cc36","resource":{"resourceType":"Organization","id":"f7da4368-fb6d-4d73-a75b-f78024cbb18d","meta":{"profile":["http://hl7.org/fhir/us/qicore/StructureDefinition/qicore-organization"]},"identifier":[{"use":"temp","system":"urn:oid:2.16.840.1.113883.4.4","value":"21-3259825"}],"active":true,"type":[{"coding":[{"system":"http://terminology.hl7.org/CodeSystem/organization-type","code":"pay","display":"Payer"}]}],"name":"Blue Cross Blue Shield of Texas","telecom":[{"system":"phone","value":"(+1) 972-766-6900"}],"address":[{"use":"billing","type":"postal","line":["P.O. Box 660044"],"city":"Dallas","state":"TX","postalCode":"75266-0044","country":"USA"}]},"request":{"method":"PUT","url":"Organization/f7da4368-fb6d-4d73-a75b-f78024cbb18d"}},{"fullUrl":"https://madie.cms.gov/Practitioner/a1085148-52ba-4f7f-bfd0-4995324646cc","resource":{"resourceType":"Practitioner","id":"a1085148-52ba-4f7f-bfd0-4995324646cc","identifier":[{"system":"http://hl7.org/fhir/sid/us-npi","value":"123456"}],"name":[{"family":"Evil","prefix":["Dr"]}]},"request":{"method":"PUT","url":"Practitioner/a1085148-52ba-4f7f-bfd0-4995324646cc"}},{"fullUrl":"https://madie.cms.gov/MeasureReport/cdb1a8a0-3486-4faa-bf08-ebfaf67d11f1","resource":{"resourceType":"MeasureReport","id":"cdb1a8a0-3486-4faa-bf08-ebfaf67d11f1","meta":{"profile":["http://hl7.org/fhir/us/cqfmeasures/StructureDefinition/test-case-cqfm"]},"contained":[{"resourceType":"Parameters","id":"f6c79517-e387-4085-b2be-2b1bec9e4bd6-parameters","parameter":[{"name":"subject","valueString":"02ee41e8-26d8-4575-a999-32ee2204d745"}]}],"extension":[{"url":"http://hl7.org/fhir/us/cqfmeasures/StructureDefinition/cqfm-inputParameters","valueReference":{"reference":"#f6c79517-e387-4085-b2be-2b1bec9e4bd6-parameters"}},{"url":"http://hl7.org/fhir/us/cqfmeasures/StructureDefinition/cqfm-testCaseDescription","valueMarkdown":"Patient left AMA, so meets denominator exclusion criteria. \n"}],"modifierExtension":[{"url":"http://hl7.org/fhir/us/cqfmeasures/StructureDefinition/cqfm-isTestCase","valueBoolean":true}],"status":"complete","type":"individual","measure":"https://madie.cms.gov/Measure/CMS71FHIRSTKAnticoagAFFlutter","period":{"start":"2026-01-01","end":"2026-12-31"},"group":[{"population":[{"code":{"coding":[{"system":"http://terminology.hl7.org/CodeSystem/measure-population","code":"initial-population","display":"Initial Population"}]},"count":1},{"code":{"coding":[{"system":"http://terminology.hl7.org/CodeSystem/measure-population","code":"denominator","display":"Denominator"}]},"count":1},{"code":{"coding":[{"system":"http://terminology.hl7.org/CodeSystem/measure-population","code":"denominator-exclusion","display":"Denominator Exclusion"}]},"count":1},{"code":{"coding":[{"system":"http://terminology.hl7.org/CodeSystem/measure-population","code":"numerator","display":"Numerator"}]},"count":0},{"code":{"coding":[{"system":"http://terminology.hl7.org/CodeSystem/measure-population","code":"denominator-exception","display":"Denominator Exception"}]},"count":0}]}]},"request":{"method":"PUT","url":"MeasureReport/cdb1a8a0-3486-4faa-bf08-ebfaf67d11f1"}}]}