{"resourceType":"Bundle","id":"tests-63e42e45-fb2a-4a44-8354-79ea81b5d041-bundle","type":"transaction","entry":[{"fullUrl":"https://madie.cms.gov/Patient/63e42e45-fb2a-4a44-8354-79ea81b5d041","resource":{"resourceType":"Patient","id":"63e42e45-fb2a-4a44-8354-79ea81b5d041","meta":{"profile":["http://hl7.org/fhir/us/qicore/StructureDefinition/qicore-patient"]},"text":{"status":"generated","div":"<div xmlns=\"http://www.w3.org/1999/xhtml\"><div class=\"hapiHeaderText\">CMOdurObs_NoEDObs&lt;1hrBFEnc <b>DENEXPASS </b></div><table class=\"hapiPropertyTable\"><tbody><tr><td>Identifier</td><td>78184564d7a2b04b1b82068bb9a7b746</td></tr><tr><td>Date of birth</td><td><span>18 September 1985</span></td></tr></tbody></table></div>"},"extension":[{"url":"http://hl7.org/fhir/us/core/StructureDefinition/us-core-race","extension":[{"url":"ombCategory","valueCoding":{"system":"urn:oid:2.16.840.1.113883.6.238","code":"1002-5","display":"American Indian or Alaska Native","userSelected":true}},{"url":"text","valueString":"American Indian or Alaska Native"}]},{"url":"http://hl7.org/fhir/us/core/StructureDefinition/us-core-ethnicity","extension":[{"url":"ombCategory","valueCoding":{"system":"urn:oid:2.16.840.1.113883.6.238","code":"2135-2","display":"Hispanic or Latino","userSelected":true}},{"url":"text","valueString":"Hispanic or Latino"}]}],"identifier":[{"type":{"coding":[{"system":"http://terminology.hl7.org/CodeSystem/v2-0203","code":"MR"}]},"system":"https://bonnie-fhir.healthit.gov/","value":"633c9d030968f8012250fc85"}],"active":true,"name":[{"use":"usual","family":"DENEXPass","given":["CMOdurObs_NoEDObs<1hrBFEnc"]}],"gender":"female","birthDate":"1986-09-18"},"request":{"method":"PUT","url":"Patient/63e42e45-fb2a-4a44-8354-79ea81b5d041"}},{"fullUrl":"https://madie.cms.gov/Condition/15092ae3-dff9-4697-9544-c44737b1e619","resource":{"resourceType":"Condition","id":"15092ae3-dff9-4697-9544-c44737b1e619","meta":{"profile":["http://hl7.org/fhir/us/qicore/StructureDefinition/qicore-condition"]},"clinicalStatus":{"coding":[{"system":"http://terminology.hl7.org/CodeSystem/condition-clinical","code":"inactive"}]},"verificationStatus":{"coding":[{"system":"http://terminology.hl7.org/CodeSystem/condition-ver-status","code":"confirmed"}]},"category":[{"coding":[{"system":"http://terminology.hl7.org/CodeSystem/condition-category","code":"encounter-diagnosis","display":"Encounter Diagnosis"}]}],"code":{"coding":[{"system":"http://hl7.org/fhir/sid/icd-10-cm","code":"I48.20"},{"system":"http://hl7.org/fhir/sid/icd-10-cm","code":"I48.0"},{"system":"http://snomed.info/sct","code":"5370000"}]},"subject":{"reference":"Patient/63e42e45-fb2a-4a44-8354-79ea81b5d041"},"onsetDateTime":"2026-02-11T08:00:00.000Z","abatementDateTime":"2026-02-11T08:15:00.000Z"},"request":{"method":"PUT","url":"Condition/15092ae3-dff9-4697-9544-c44737b1e619"}},{"fullUrl":"https://madie.cms.gov/Condition/3d9e4f14-7890-4b6c-999c-36703a60ef5f","resource":{"resourceType":"Condition","id":"3d9e4f14-7890-4b6c-999c-36703a60ef5f","meta":{"profile":["http://hl7.org/fhir/us/qicore/StructureDefinition/qicore-condition"]},"clinicalStatus":{"coding":[{"system":"http://terminology.hl7.org/CodeSystem/condition-clinical","code":"inactive"}]},"verificationStatus":{"coding":[{"system":"http://terminology.hl7.org/CodeSystem/condition-ver-status","code":"confirmed"}]},"category":[{"coding":[{"system":"http://terminology.hl7.org/CodeSystem/condition-category","code":"encounter-diagnosis","display":"Encounter Diagnosis"}]}],"code":{"coding":[{"system":"http://hl7.org/fhir/sid/icd-10-cm","code":"I48.20"},{"system":"http://hl7.org/fhir/sid/icd-10-cm","code":"I48.0"},{"system":"http://snomed.info/sct","code":"5370000"}]},"subject":{"reference":"Patient/63e42e45-fb2a-4a44-8354-79ea81b5d041"},"onsetDateTime":"2026-10-01T09:00:00.000Z","abatementDateTime":"2026-10-12T00:15:00.000Z"},"request":{"method":"PUT","url":"Condition/3d9e4f14-7890-4b6c-999c-36703a60ef5f"}},{"fullUrl":"https://madie.cms.gov/Encounter/5f1d73e3-115f-455c-864f-ad7cb46fefbe","resource":{"resourceType":"Encounter","id":"5f1d73e3-115f-455c-864f-ad7cb46fefbe","meta":{"profile":["http://hl7.org/fhir/us/qicore/StructureDefinition/qicore-encounter"]},"status":"finished","class":{"system":"http://terminology.hl7.org/CodeSystem/v3-ActCode","code":"OBSENC","display":"observation encounter"},"type":[{"coding":[{"system":"http://snomed.info/sct","code":"448951000124107"}]}],"subject":{"reference":"Patient/63e42e45-fb2a-4a44-8354-79ea81b5d041"},"period":{"start":"2026-10-01T08:00:00.000Z","end":"2026-10-01T08:59:00.000Z"},"length":{"value":0,"unit":"days"}},"request":{"method":"PUT","url":"Encounter/5f1d73e3-115f-455c-864f-ad7cb46fefbe"}},{"fullUrl":"https://madie.cms.gov/Encounter/d58accc7-bccd-4608-b9de-291554843036","resource":{"resourceType":"Encounter","id":"d58accc7-bccd-4608-b9de-291554843036","meta":{"profile":["http://hl7.org/fhir/us/qicore/StructureDefinition/qicore-encounter"]},"status":"finished","class":{"system":"http://terminology.hl7.org/CodeSystem/v3-ActCode","code":"IMP","display":"inpatient encounter"},"type":[{"coding":[{"system":"http://snomed.info/sct","code":"32485007"}]}],"subject":{"reference":"Patient/63e42e45-fb2a-4a44-8354-79ea81b5d041"},"period":{"start":"2026-10-01T09:00:00.000Z","end":"2026-10-12T00:15:00.000Z"},"length":{"value":11,"unit":"days"},"diagnosis":[{"condition":{"reference":"Condition/ea0bae6f-e9ad-425b-8fc0-f26047d1d244"},"use":{"coding":[{"system":"http://terminology.hl7.org/CodeSystem/diagnosis-role","code":"billing","display":"Billing"}]},"rank":1}]},"request":{"method":"PUT","url":"Encounter/d58accc7-bccd-4608-b9de-291554843036"}},{"fullUrl":"https://madie.cms.gov/ServiceRequest/d4987610-c106-41e0-97ce-4c87db3f4f79","resource":{"resourceType":"ServiceRequest","id":"d4987610-c106-41e0-97ce-4c87db3f4f79","meta":{"profile":["http://hl7.org/fhir/us/qicore/StructureDefinition/qicore-servicerequest"]},"status":"active","intent":"order","code":{"coding":[{"system":"http://snomed.info/sct","code":"133918004"}]},"subject":{"reference":"Patient/63e42e45-fb2a-4a44-8354-79ea81b5d041"},"authoredOn":"2026-10-01T08:01:00.000+00:00"},"request":{"method":"PUT","url":"ServiceRequest/d4987610-c106-41e0-97ce-4c87db3f4f79"}},{"fullUrl":"https://madie.cms.gov/Coverage/7f06da34-5d05-4fcd-bc03-ac0b660b4510","resource":{"resourceType":"Coverage","id":"7f06da34-5d05-4fcd-bc03-ac0b660b4510","status":"active","beneficiary":{"reference":"Patient/63e42e45-fb2a-4a44-8354-79ea81b5d041"},"period":{"start":"1986-09-18T08:00:00.000Z"},"payor":[{"reference":"Organization/607fdef9-3983-4cef-ab1a-95434d29b463"}]},"request":{"method":"PUT","url":"Coverage/7f06da34-5d05-4fcd-bc03-ac0b660b4510"}},{"fullUrl":"https://madie.cms.gov/Condition/ea0bae6f-e9ad-425b-8fc0-f26047d1d244","resource":{"resourceType":"Condition","id":"ea0bae6f-e9ad-425b-8fc0-f26047d1d244","meta":{"profile":["http://hl7.org/fhir/us/qicore/StructureDefinition/qicore-condition"]},"clinicalStatus":{"coding":[{"system":"http://terminology.hl7.org/CodeSystem/condition-clinical","code":"active"}]},"verificationStatus":{"coding":[{"system":"http://terminology.hl7.org/CodeSystem/condition-ver-status","code":"confirmed"}]},"category":[{"coding":[{"system":"http://terminology.hl7.org/CodeSystem/condition-category","code":"encounter-diagnosis","display":"Encounter Diagnosis"}]}],"code":{"coding":[{"system":"http://snomed.info/sct","version":"2021-09","code":"111297002","display":"Nonparalytic stroke (disorder)","userSelected":true}]},"subject":{"reference":"Patient/63e42e45-fb2a-4a44-8354-79ea81b5d041"},"recordedDate":"2026-10-13T08:00:00.000+00:00"},"request":{"method":"PUT","url":"Condition/ea0bae6f-e9ad-425b-8fc0-f26047d1d244"}},{"fullUrl":"https://madie.cms.gov/Organization/6cb1124f-415a-4aaf-a3ab-6821a22a4035","resource":{"resourceType":"Organization","id":"607fdef9-3983-4cef-ab1a-95434d29b463","meta":{"profile":["http://hl7.org/fhir/us/qicore/StructureDefinition/qicore-organization"]},"identifier":[{"use":"temp","system":"urn:oid:2.16.840.1.113883.4.4","value":"21-3259825"}],"active":true,"type":[{"coding":[{"system":"http://terminology.hl7.org/CodeSystem/organization-type","code":"pay","display":"Payer"}]}],"name":"Blue Cross Blue Shield of Texas","telecom":[{"system":"phone","value":"(+1) 972-766-6900"}],"address":[{"use":"billing","type":"postal","line":["P.O. Box 660044"],"city":"Dallas","state":"TX","postalCode":"75266-0044","country":"USA"}]},"request":{"method":"PUT","url":"Organization/607fdef9-3983-4cef-ab1a-95434d29b463"}},{"fullUrl":"https://madie.cms.gov/Practitioner/f50a9057-2290-47a0-b7de-88dc2336c9f0","resource":{"resourceType":"Practitioner","id":"f50a9057-2290-47a0-b7de-88dc2336c9f0","identifier":[{"system":"http://hl7.org/fhir/sid/us-npi","value":"123456"}],"name":[{"family":"Evil","prefix":["Dr"]}]},"request":{"method":"PUT","url":"Practitioner/f50a9057-2290-47a0-b7de-88dc2336c9f0"}},{"fullUrl":"https://madie.cms.gov/MeasureReport/f64efce4-f5b8-45ed-bc60-3fe143b8df24","resource":{"resourceType":"MeasureReport","id":"f64efce4-f5b8-45ed-bc60-3fe143b8df24","meta":{"profile":["http://hl7.org/fhir/us/cqfmeasures/StructureDefinition/test-case-cqfm"]},"contained":[{"resourceType":"Parameters","id":"517512ac-3f1a-4bc0-976c-9ac194425f0e-parameters","parameter":[{"name":"subject","valueString":"63e42e45-fb2a-4a44-8354-79ea81b5d041"}]}],"extension":[{"url":"http://hl7.org/fhir/us/cqfmeasures/StructureDefinition/cqfm-inputParameters","valueReference":{"reference":"#517512ac-3f1a-4bc0-976c-9ac194425f0e-parameters"}},{"url":"http://hl7.org/fhir/us/cqfmeasures/StructureDefinition/cqfm-testCaseDescription","valueMarkdown":"Patient receives Observation. No ED Obs starts 1 min before inpatient encounter. Testing HospitalizationWithObservation function.\n"}],"modifierExtension":[{"url":"http://hl7.org/fhir/us/cqfmeasures/StructureDefinition/cqfm-isTestCase","valueBoolean":true}],"status":"complete","type":"individual","measure":"https://madie.cms.gov/Measure/CMS71FHIRSTKAnticoagAFFlutter","period":{"start":"2026-01-01","end":"2026-12-31"},"group":[{"population":[{"code":{"coding":[{"system":"http://terminology.hl7.org/CodeSystem/measure-population","code":"initial-population","display":"Initial Population"}]},"count":1},{"code":{"coding":[{"system":"http://terminology.hl7.org/CodeSystem/measure-population","code":"denominator","display":"Denominator"}]},"count":1},{"code":{"coding":[{"system":"http://terminology.hl7.org/CodeSystem/measure-population","code":"denominator-exclusion","display":"Denominator Exclusion"}]},"count":1},{"code":{"coding":[{"system":"http://terminology.hl7.org/CodeSystem/measure-population","code":"numerator","display":"Numerator"}]},"count":0},{"code":{"coding":[{"system":"http://terminology.hl7.org/CodeSystem/measure-population","code":"denominator-exception","display":"Denominator Exception"}]},"count":0}]}]},"request":{"method":"PUT","url":"MeasureReport/f64efce4-f5b8-45ed-bc60-3fe143b8df24"}}]}