{"resourceType":"Bundle","id":"tests-05ddb4d0-26ee-47e7-8d57-825bdab98515-bundle","type":"transaction","entry":[{"fullUrl":"https://madie.cms.gov/Patient/05ddb4d0-26ee-47e7-8d57-825bdab98515","resource":{"resourceType":"Patient","id":"05ddb4d0-26ee-47e7-8d57-825bdab98515","meta":{"profile":["http://hl7.org/fhir/us/qicore/StructureDefinition/qicore-patient"]},"text":{"status":"generated","div":"<div xmlns=\"http://www.w3.org/1999/xhtml\"><div class=\"hapiHeaderText\">2IPPass1IPFail DENEXPass <b>NUMERPASSX1 </b></div><table class=\"hapiPropertyTable\"><tbody><tr><td>Identifier</td><td>52c14de634122f39abfbd9ffaa41bc27</td></tr><tr><td>Date of birth</td><td><span>23 May 1954</span></td></tr></tbody></table></div>"},"extension":[{"url":"http://hl7.org/fhir/us/core/StructureDefinition/us-core-race","extension":[{"url":"ombCategory","valueCoding":{"system":"urn:oid:2.16.840.1.113883.6.238","code":"1002-5","display":"American Indian or Alaska Native","userSelected":true}},{"url":"text","valueString":"American Indian or Alaska Native"}]},{"url":"http://hl7.org/fhir/us/core/StructureDefinition/us-core-ethnicity","extension":[{"url":"ombCategory","valueCoding":{"system":"urn:oid:2.16.840.1.113883.6.238","code":"2135-2","display":"Hispanic or Latino","userSelected":true}},{"url":"text","valueString":"Hispanic or Latino"}]}],"identifier":[{"type":{"coding":[{"system":"http://terminology.hl7.org/CodeSystem/v2-0203","code":"MR"}]},"system":"https://bonnie-fhir.healthit.gov/","value":"633c9d040968f8012250fcaf"}],"active":true,"name":[{"use":"usual","family":"NUMERPassX1","given":["2IPPass1IPFail DENEXPass"]}],"gender":"female","birthDate":"1955-05-23"},"request":{"method":"PUT","url":"Patient/05ddb4d0-26ee-47e7-8d57-825bdab98515"}},{"fullUrl":"https://madie.cms.gov/Encounter/e1f580b4-d37e-4c43-a045-a7eddaef9e10","resource":{"resourceType":"Encounter","id":"e1f580b4-d37e-4c43-a045-a7eddaef9e10","meta":{"profile":["http://hl7.org/fhir/us/qicore/StructureDefinition/qicore-encounter"]},"status":"finished","class":{"system":"http://terminology.hl7.org/CodeSystem/v3-ActCode","code":"IMP","display":"inpatient encounter"},"type":[{"coding":[{"system":"http://snomed.info/sct","code":"32485007"}]}],"subject":{"reference":"Patient/05ddb4d0-26ee-47e7-8d57-825bdab98515"},"period":{"start":"2026-11-20T08:00:00.000Z","end":"2026-11-24T08:15:00.000Z"},"length":{"value":4,"unit":"days"},"diagnosis":[{"condition":{"reference":"Condition/2eb7de77-aea6-4f96-a851-dfc05f6022d2"},"use":{"coding":[{"system":"http://terminology.hl7.org/CodeSystem/diagnosis-role","code":"billing","display":"Billing"}]},"rank":1}]},"request":{"method":"PUT","url":"Encounter/e1f580b4-d37e-4c43-a045-a7eddaef9e10"}},{"fullUrl":"https://madie.cms.gov/Encounter/b39ec118-c764-4850-8e0f-5a9d55f3b133","resource":{"resourceType":"Encounter","id":"b39ec118-c764-4850-8e0f-5a9d55f3b133","meta":{"profile":["http://hl7.org/fhir/us/qicore/StructureDefinition/qicore-encounter"]},"status":"finished","class":{"system":"http://terminology.hl7.org/CodeSystem/v3-ActCode","code":"IMP","display":"inpatient encounter"},"type":[{"coding":[{"system":"http://snomed.info/sct","code":"183452005"}]}],"subject":{"reference":"Patient/05ddb4d0-26ee-47e7-8d57-825bdab98515"},"period":{"start":"2026-10-28T08:00:00.000Z","end":"2026-10-30T08:15:00.000Z"},"diagnosis":[{"condition":{"reference":"Condition/9e1855e2-5860-4266-a616-98c1fce90a5a"},"use":{"coding":[{"system":"http://terminology.hl7.org/CodeSystem/diagnosis-role","code":"billing","display":"Billing"}]},"rank":2}]},"request":{"method":"PUT","url":"Encounter/b39ec118-c764-4850-8e0f-5a9d55f3b133"}},{"fullUrl":"https://madie.cms.gov/Encounter/611803c1-9ac1-4702-909b-7af921b84092","resource":{"resourceType":"Encounter","id":"611803c1-9ac1-4702-909b-7af921b84092","meta":{"profile":["http://hl7.org/fhir/us/qicore/StructureDefinition/qicore-encounter"]},"status":"finished","class":{"system":"http://terminology.hl7.org/CodeSystem/v3-ActCode","code":"IMP","display":"inpatient encounter"},"type":[{"coding":[{"system":"http://snomed.info/sct","code":"183452005"}]}],"subject":{"reference":"Patient/05ddb4d0-26ee-47e7-8d57-825bdab98515"},"period":{"start":"2026-09-03T08:00:00.000Z","end":"2026-09-07T08:15:00.000Z"},"length":{"value":4,"unit":"days"},"diagnosis":[{"condition":{"reference":"condition/atrial-ablation-19a5"},"use":{"coding":[{"system":"http://www.cms.gov/Medicare/Coding/ICD10","code":"02560ZZ","display":"Destruction of Right Atrium, Open Approach"}]}},{"condition":{"reference":"Condition/16077a2a-0dd0-45c0-bc08-2ecb98e297ef"},"use":{"coding":[{"system":"http://terminology.hl7.org/CodeSystem/diagnosis-role","code":"billing","display":"Billing"}]}},{"condition":{"reference":"Condition/ed0e4dbf-7a00-43d7-a3f2-bd8b44eea36d"},"use":{"coding":[{"system":"http://terminology.hl7.org/CodeSystem/diagnosis-role","code":"billing","display":"Billing"}]},"rank":1}]},"request":{"method":"PUT","url":"Encounter/611803c1-9ac1-4702-909b-7af921b84092"}},{"fullUrl":"https://madie.cms.gov/ServiceRequest/3cfbbec1-6149-4dfd-9554-869cbbd5ebc8","resource":{"resourceType":"ServiceRequest","id":"3cfbbec1-6149-4dfd-9554-869cbbd5ebc8","meta":{"profile":["http://hl7.org/fhir/us/qicore/StructureDefinition/qicore-servicerequest"]},"status":"active","intent":"order","code":{"coding":[{"system":"http://snomed.info/sct","code":"133918004"}]},"subject":{"reference":"Patient/05ddb4d0-26ee-47e7-8d57-825bdab98515"},"authoredOn":"2026-11-20T08:00:00.000+00:00"},"request":{"method":"PUT","url":"ServiceRequest/3cfbbec1-6149-4dfd-9554-869cbbd5ebc8"}},{"fullUrl":"https://madie.cms.gov/MedicationRequest/01d6851f-e166-4807-b942-d7c4568bc8e0","resource":{"resourceType":"MedicationRequest","id":"01d6851f-e166-4807-b942-d7c4568bc8e0","meta":{"profile":["http://hl7.org/fhir/us/qicore/StructureDefinition/qicore-medicationrequest"]},"status":"active","intent":"order","category":[{"coding":[{"system":"http://terminology.hl7.org/CodeSystem/medicationrequest-category","code":"discharge","display":"Discharge","userSelected":true}]}],"medicationCodeableConcept":{"coding":[{"system":"http://www.nlm.nih.gov/research/umls/rxnorm","code":"308351"}]},"subject":{"reference":"Patient/05ddb4d0-26ee-47e7-8d57-825bdab98515"},"authoredOn":"2026-11-24T08:00:00.000+00:00","requester":{"reference":"Practitioner/example"}},"request":{"method":"PUT","url":"MedicationRequest/01d6851f-e166-4807-b942-d7c4568bc8e0"}},{"fullUrl":"https://madie.cms.gov/MedicationRequest/74ab838a-09e6-4c59-9c9d-83e2ca375abb","resource":{"resourceType":"MedicationRequest","id":"74ab838a-09e6-4c59-9c9d-83e2ca375abb","meta":{"profile":["http://hl7.org/fhir/us/qicore/StructureDefinition/qicore-medicationrequest"]},"status":"active","intent":"order","category":[{"coding":[{"system":"http://terminology.hl7.org/CodeSystem/medicationrequest-category","code":"community","display":"Community","userSelected":true}]}],"medicationCodeableConcept":{"coding":[{"system":"http://www.nlm.nih.gov/research/umls/rxnorm","version":"2022-01","code":"1114198","display":"rivaroxaban 10 MG Oral Tablet","userSelected":true}]},"subject":{"reference":"Patient/05ddb4d0-26ee-47e7-8d57-825bdab98515"},"authoredOn":"2026-09-07T08:00:00.000+00:00","requester":{"reference":"Practitioner/example"}},"request":{"method":"PUT","url":"MedicationRequest/74ab838a-09e6-4c59-9c9d-83e2ca375abb"}},{"fullUrl":"https://madie.cms.gov/Coverage/939f683e-2abd-445c-be8c-570957a47f81","resource":{"resourceType":"Coverage","id":"939f683e-2abd-445c-be8c-570957a47f81","status":"active","beneficiary":{"reference":"Patient/05ddb4d0-26ee-47e7-8d57-825bdab98515"},"period":{"start":"1955-05-23T08:00:00.000Z"},"payor":[{"reference":"Organization/890316dc-a4ad-43b4-ba6f-9fb9e6eca282"}]},"request":{"method":"PUT","url":"Coverage/939f683e-2abd-445c-be8c-570957a47f81"}},{"fullUrl":"https://madie.cms.gov/Procedure/9829da2e-c37e-4bee-ad8b-1d12a8dd5f83","resource":{"resourceType":"Procedure","id":"9829da2e-c37e-4bee-ad8b-1d12a8dd5f83","meta":{"profile":["http://hl7.org/fhir/us/qicore/StructureDefinition/qicore-procedure"]},"extension":[{"url":"http://hl7.org/fhir/us/qicore/StructureDefinition/qicore-recorded","valueDateTime":"2026-11-19T09:35:00-04:00"}],"status":"completed","code":{"coding":[{"system":"http://www.cms.gov/Medicare/Coding/ICD10","code":"02560ZZ"},{"system":"http://snomed.info/sct","code":"175095005"}]},"subject":{"reference":"Patient/05ddb4d0-26ee-47e7-8d57-825bdab98515"},"performedPeriod":{"start":"2026-11-20T06:00:00.000Z","end":"2026-11-20T07:15:00.000Z"}},"request":{"method":"PUT","url":"Procedure/9829da2e-c37e-4bee-ad8b-1d12a8dd5f83"}},{"fullUrl":"https://madie.cms.gov/Condition/2eb7de77-aea6-4f96-a851-dfc05f6022d2","resource":{"resourceType":"Condition","id":"2eb7de77-aea6-4f96-a851-dfc05f6022d2","meta":{"profile":["http://hl7.org/fhir/us/qicore/StructureDefinition/qicore-condition"]},"clinicalStatus":{"coding":[{"system":"http://terminology.hl7.org/CodeSystem/condition-clinical","code":"active"}]},"verificationStatus":{"coding":[{"system":"http://terminology.hl7.org/CodeSystem/condition-ver-status","code":"confirmed"}]},"category":[{"coding":[{"system":"http://terminology.hl7.org/CodeSystem/condition-category","code":"encounter-diagnosis","display":"Encounter Diagnosis"}]}],"code":{"coding":[{"system":"http://snomed.info/sct","version":"2021-09","code":"111297002","display":"Nonparalytic stroke (disorder)","userSelected":true}]},"subject":{"reference":"Patient/05ddb4d0-26ee-47e7-8d57-825bdab98515"},"recordedDate":"2026-10-13T08:00:00.000+00:00"},"request":{"method":"PUT","url":"Condition/2eb7de77-aea6-4f96-a851-dfc05f6022d2"}},{"fullUrl":"https://madie.cms.gov/Condition/9e1855e2-5860-4266-a616-98c1fce90a5a","resource":{"resourceType":"Condition","id":"9e1855e2-5860-4266-a616-98c1fce90a5a","meta":{"profile":["http://hl7.org/fhir/us/qicore/StructureDefinition/qicore-condition"]},"clinicalStatus":{"coding":[{"system":"http://terminology.hl7.org/CodeSystem/condition-clinical","code":"active"}]},"verificationStatus":{"coding":[{"system":"http://terminology.hl7.org/CodeSystem/condition-ver-status","code":"confirmed"}]},"category":[{"coding":[{"system":"http://terminology.hl7.org/CodeSystem/condition-category","code":"encounter-diagnosis","display":"Encounter Diagnosis"}]}],"code":{"coding":[{"system":"http://www.icd10data.com/icd10pcs","version":"2022","code":"02560ZZ","display":"Destruction of Right Atrium, Open Approach","userSelected":true}]},"subject":{"reference":"Patient/05ddb4d0-26ee-47e7-8d57-825bdab98515"},"recordedDate":"2026-10-13T08:00:00.000+00:00"},"request":{"method":"PUT","url":"Condition/9e1855e2-5860-4266-a616-98c1fce90a5a"}},{"fullUrl":"https://madie.cms.gov/Condition/6b5a259d-74a4-4d09-845c-b8af0df43ae5","resource":{"resourceType":"Condition","id":"6b5a259d-74a4-4d09-845c-b8af0df43ae5","meta":{"profile":["http://hl7.org/fhir/us/qicore/StructureDefinition/qicore-condition"]},"clinicalStatus":{"coding":[{"system":"http://terminology.hl7.org/CodeSystem/condition-clinical","code":"active"}]},"verificationStatus":{"coding":[{"system":"http://terminology.hl7.org/CodeSystem/condition-ver-status","code":"confirmed"}]},"category":[{"coding":[{"system":"http://terminology.hl7.org/CodeSystem/condition-category","code":"encounter-diagnosis","display":"Encounter Diagnosis"}]}],"code":{"coding":[{"system":"http://snomed.info/sct","version":"2021-09","code":"111297002","display":"Nonparalytic stroke (disorder)","userSelected":true}]},"subject":{"reference":"Patient/05ddb4d0-26ee-47e7-8d57-825bdab98515"},"recordedDate":"2026-10-13T08:00:00.000+00:00"},"request":{"method":"PUT","url":"Condition/6b5a259d-74a4-4d09-845c-b8af0df43ae5"}},{"fullUrl":"https://madie.cms.gov/Condition/16077a2a-0dd0-45c0-bc08-2ecb98e297ef","resource":{"resourceType":"Condition","id":"16077a2a-0dd0-45c0-bc08-2ecb98e297ef","meta":{"profile":["http://hl7.org/fhir/us/qicore/StructureDefinition/qicore-condition"]},"clinicalStatus":{"coding":[{"system":"http://terminology.hl7.org/CodeSystem/condition-clinical","code":"active"}]},"verificationStatus":{"coding":[{"system":"http://terminology.hl7.org/CodeSystem/condition-ver-status","code":"confirmed"}]},"category":[{"coding":[{"system":"http://terminology.hl7.org/CodeSystem/condition-category","code":"encounter-diagnosis","display":"Encounter Diagnosis"}]}],"code":{"coding":[{"system":"http://snomed.info/sct","version":"2021-09","code":"120041000119109","display":"Atrial fibrillation with rapid ventricular response (disorder)","userSelected":true}]},"subject":{"reference":"Patient/05ddb4d0-26ee-47e7-8d57-825bdab98515"},"recordedDate":"2026-10-13T08:00:00.000+00:00"},"request":{"method":"PUT","url":"Condition/16077a2a-0dd0-45c0-bc08-2ecb98e297ef"}},{"fullUrl":"https://madie.cms.gov/Condition/ed0e4dbf-7a00-43d7-a3f2-bd8b44eea36d","resource":{"resourceType":"Condition","id":"ed0e4dbf-7a00-43d7-a3f2-bd8b44eea36d","meta":{"profile":["http://hl7.org/fhir/us/qicore/StructureDefinition/qicore-condition"]},"clinicalStatus":{"coding":[{"system":"http://terminology.hl7.org/CodeSystem/condition-clinical","code":"active"}]},"verificationStatus":{"coding":[{"system":"http://terminology.hl7.org/CodeSystem/condition-ver-status","code":"confirmed"}]},"category":[{"coding":[{"system":"http://terminology.hl7.org/CodeSystem/condition-category","code":"encounter-diagnosis","display":"Encounter Diagnosis"}]}],"code":{"coding":[{"system":"http://snomed.info/sct","version":"2021-09","code":"111297002","display":"Nonparalytic stroke (disorder)","userSelected":true}]},"subject":{"reference":"Patient/05ddb4d0-26ee-47e7-8d57-825bdab98515"},"recordedDate":"2026-10-13T08:00:00.000+00:00"},"request":{"method":"PUT","url":"Condition/ed0e4dbf-7a00-43d7-a3f2-bd8b44eea36d"}},{"fullUrl":"https://madie.cms.gov/Organization/f60695f7-0c03-4ff3-96c2-d8306e49aa71","resource":{"resourceType":"Organization","id":"890316dc-a4ad-43b4-ba6f-9fb9e6eca282","meta":{"profile":["http://hl7.org/fhir/us/qicore/StructureDefinition/qicore-organization"]},"identifier":[{"use":"temp","system":"urn:oid:2.16.840.1.113883.4.4","value":"21-3259825"}],"active":true,"type":[{"coding":[{"system":"http://terminology.hl7.org/CodeSystem/organization-type","code":"pay","display":"Payer"}]}],"name":"Blue Cross Blue Shield of Texas","telecom":[{"system":"phone","value":"(+1) 972-766-6900"}],"address":[{"use":"billing","type":"postal","line":["P.O. Box 660044"],"city":"Dallas","state":"TX","postalCode":"75266-0044","country":"USA"}]},"request":{"method":"PUT","url":"Organization/890316dc-a4ad-43b4-ba6f-9fb9e6eca282"}},{"fullUrl":"https://madie.cms.gov/Practitioner/1142e185-9eb3-426d-a544-56bd08f81de8","resource":{"resourceType":"Practitioner","id":"1142e185-9eb3-426d-a544-56bd08f81de8","identifier":[{"system":"http://hl7.org/fhir/sid/us-npi","value":"123456"}],"name":[{"family":"Evil","prefix":["Dr"]}]},"request":{"method":"PUT","url":"Practitioner/1142e185-9eb3-426d-a544-56bd08f81de8"}},{"fullUrl":"https://madie.cms.gov/MeasureReport/c2c66e6a-ce6d-42d0-81b3-7d19039bf649","resource":{"resourceType":"MeasureReport","id":"c2c66e6a-ce6d-42d0-81b3-7d19039bf649","meta":{"profile":["http://hl7.org/fhir/us/cqfmeasures/StructureDefinition/test-case-cqfm"]},"contained":[{"resourceType":"Parameters","id":"74fc2fa4-5fe1-4a11-892e-3fb699cedecd-parameters","parameter":[{"name":"subject","valueString":"05ddb4d0-26ee-47e7-8d57-825bdab98515"}]}],"extension":[{"url":"http://hl7.org/fhir/us/cqfmeasures/StructureDefinition/cqfm-inputParameters","valueReference":{"reference":"#74fc2fa4-5fe1-4a11-892e-3fb699cedecd-parameters"}},{"url":"http://hl7.org/fhir/us/cqfmeasures/StructureDefinition/cqfm-testCaseDescription","valueMarkdown":"Pt. discharged on anticoagulant, starts during encounter 1. Encounter 2 has admitting diagnosis with rank 2. Encounter 3 satisfies IPP and Denom. \n"}],"modifierExtension":[{"url":"http://hl7.org/fhir/us/cqfmeasures/StructureDefinition/cqfm-isTestCase","valueBoolean":true}],"status":"complete","type":"individual","measure":"https://madie.cms.gov/Measure/CMS71FHIRSTKAnticoagAFFlutter","period":{"start":"2026-01-01","end":"2026-12-31"},"group":[{"population":[{"code":{"coding":[{"system":"http://terminology.hl7.org/CodeSystem/measure-population","code":"initial-population","display":"Initial Population"}]},"count":2},{"code":{"coding":[{"system":"http://terminology.hl7.org/CodeSystem/measure-population","code":"denominator","display":"Denominator"}]},"count":2},{"code":{"coding":[{"system":"http://terminology.hl7.org/CodeSystem/measure-population","code":"denominator-exclusion","display":"Denominator Exclusion"}]},"count":1},{"code":{"coding":[{"system":"http://terminology.hl7.org/CodeSystem/measure-population","code":"numerator","display":"Numerator"}]},"count":1},{"code":{"coding":[{"system":"http://terminology.hl7.org/CodeSystem/measure-population","code":"denominator-exception","display":"Denominator Exception"}]},"count":0}]}]},"request":{"method":"PUT","url":"MeasureReport/c2c66e6a-ce6d-42d0-81b3-7d19039bf649"}}]}