{"resourceType":"Bundle","id":"tests-dbe7efdb-fd75-4da4-a998-ae7e04051bd1-bundle","type":"transaction","entry":[{"fullUrl":"https://madie.cms.gov/Patient/dbe7efdb-fd75-4da4-a998-ae7e04051bd1","resource":{"resourceType":"Patient","id":"dbe7efdb-fd75-4da4-a998-ae7e04051bd1","meta":{"profile":["http://hl7.org/fhir/us/qicore/StructureDefinition/qicore-patient"]},"text":{"status":"generated","div":"<div xmlns=\"http://www.w3.org/1999/xhtml\"><div class=\"hapiHeaderText\">CMOdurED_ED=1hrNoObsBFEnc <b>DENEXPASS </b></div><table class=\"hapiPropertyTable\"><tbody><tr><td>Identifier</td><td>670854918483ca8b7894283bd5cddbcf5037c5392991b8777bf3c4f78ed05f0b</td></tr><tr><td>Date of birth</td><td><span>18 September 1985</span></td></tr></tbody></table></div>"},"extension":[{"url":"http://hl7.org/fhir/us/core/StructureDefinition/us-core-race","extension":[{"url":"ombCategory","valueCoding":{"system":"urn:oid:2.16.840.1.113883.6.238","code":"1002-5","display":"American Indian or Alaska Native","userSelected":true}},{"url":"text","valueString":"American Indian or Alaska Native"}]},{"url":"http://hl7.org/fhir/us/core/StructureDefinition/us-core-ethnicity","extension":[{"url":"ombCategory","valueCoding":{"system":"urn:oid:2.16.840.1.113883.6.238","code":"2135-2","display":"Hispanic or Latino","userSelected":true}},{"url":"text","valueString":"Hispanic or Latino"}]}],"identifier":[{"type":{"coding":[{"system":"http://terminology.hl7.org/CodeSystem/v2-0203","code":"MR"}]},"system":"https://bonnie-fhir.healthit.gov/","value":"633c9d040968f8012250fca3"}],"active":true,"name":[{"use":"usual","family":"DENEXPass","given":["CMOdurED_ED=1hrNoObsBFEnc"]}],"gender":"female","birthDate":"1986-09-18"},"request":{"method":"PUT","url":"Patient/dbe7efdb-fd75-4da4-a998-ae7e04051bd1"}},{"fullUrl":"https://madie.cms.gov/Condition/b747eb89-cae9-49db-97f2-9b934a102259","resource":{"resourceType":"Condition","id":"b747eb89-cae9-49db-97f2-9b934a102259","meta":{"profile":["http://hl7.org/fhir/us/qicore/StructureDefinition/qicore-condition"]},"clinicalStatus":{"coding":[{"system":"http://terminology.hl7.org/CodeSystem/condition-clinical","code":"inactive"}]},"verificationStatus":{"coding":[{"system":"http://terminology.hl7.org/CodeSystem/condition-ver-status","code":"confirmed"}]},"category":[{"coding":[{"system":"http://terminology.hl7.org/CodeSystem/condition-category","code":"encounter-diagnosis","display":"Encounter Diagnosis"}]}],"code":{"coding":[{"system":"http://hl7.org/fhir/sid/icd-10-cm","code":"I48.20"},{"system":"http://hl7.org/fhir/sid/icd-10-cm","code":"I48.0"},{"system":"http://snomed.info/sct","code":"5370000"}]},"subject":{"reference":"Patient/dbe7efdb-fd75-4da4-a998-ae7e04051bd1"},"onsetDateTime":"2026-10-01T09:01:00.000Z","abatementDateTime":"2026-10-12T00:15:00.000Z"},"request":{"method":"PUT","url":"Condition/b747eb89-cae9-49db-97f2-9b934a102259"}},{"fullUrl":"https://madie.cms.gov/Encounter/e6b8425d-d1f7-459a-a296-18c86160eaab","resource":{"resourceType":"Encounter","id":"e6b8425d-d1f7-459a-a296-18c86160eaab","meta":{"profile":["http://hl7.org/fhir/us/qicore/StructureDefinition/qicore-encounter"]},"status":"finished","class":{"system":"http://terminology.hl7.org/CodeSystem/v3-ActCode","code":"EMER","display":"emergency"},"type":[{"coding":[{"system":"http://snomed.info/sct","code":"4525004"}]}],"subject":{"reference":"Patient/dbe7efdb-fd75-4da4-a998-ae7e04051bd1"},"period":{"start":"2026-10-01T09:01:00.000Z","end":"2026-10-01T12:15:00.000Z"},"length":{"value":0,"unit":"days"}},"request":{"method":"PUT","url":"Encounter/e6b8425d-d1f7-459a-a296-18c86160eaab"}},{"fullUrl":"https://madie.cms.gov/Encounter/72c9ae62-5a46-4d29-bb81-69899e320585","resource":{"resourceType":"Encounter","id":"72c9ae62-5a46-4d29-bb81-69899e320585","meta":{"profile":["http://hl7.org/fhir/us/qicore/StructureDefinition/qicore-encounter"]},"status":"finished","class":{"system":"http://terminology.hl7.org/CodeSystem/v3-ActCode","code":"IMP","display":"inpatient encounter"},"type":[{"coding":[{"system":"http://snomed.info/sct","code":"32485007"}]}],"subject":{"reference":"Patient/dbe7efdb-fd75-4da4-a998-ae7e04051bd1"},"period":{"start":"2026-10-01T13:15:00.000Z","end":"2026-10-12T00:15:00.000Z"},"length":{"value":11,"unit":"days"},"diagnosis":[{"condition":{"reference":"Condition/70581fdb-e6ce-4760-802e-0a58e61a7e97"},"use":{"coding":[{"system":"http://terminology.hl7.org/CodeSystem/diagnosis-role","code":"billing","display":"Billing"}]},"rank":1}]},"request":{"method":"PUT","url":"Encounter/72c9ae62-5a46-4d29-bb81-69899e320585"}},{"fullUrl":"https://madie.cms.gov/ServiceRequest/dd1797e6-1e05-4fd1-9f3b-f8e7ecd311ed","resource":{"resourceType":"ServiceRequest","id":"dd1797e6-1e05-4fd1-9f3b-f8e7ecd311ed","meta":{"profile":["http://hl7.org/fhir/us/qicore/StructureDefinition/qicore-servicerequest"]},"status":"active","intent":"order","doNotPerform":true,"code":{"coding":[{"system":"http://snomed.info/sct","code":"133918004"}]},"subject":{"reference":"Patient/dbe7efdb-fd75-4da4-a998-ae7e04051bd1"},"authoredOn":"2026-10-01T09:15:00.000+00:00"},"request":{"method":"PUT","url":"ServiceRequest/dd1797e6-1e05-4fd1-9f3b-f8e7ecd311ed"}},{"fullUrl":"https://madie.cms.gov/Coverage/60409317-9c69-47ed-b214-5dbc8cbb777d","resource":{"resourceType":"Coverage","id":"60409317-9c69-47ed-b214-5dbc8cbb777d","status":"active","beneficiary":{"reference":"Patient/dbe7efdb-fd75-4da4-a998-ae7e04051bd1"},"period":{"start":"1986-09-18T08:00:00.000Z"},"payor":[{"reference":"Organization/890316dc-a4ad-43b4-ba6f-9fb9e6eca282"}]},"request":{"method":"PUT","url":"Coverage/60409317-9c69-47ed-b214-5dbc8cbb777d"}},{"fullUrl":"https://madie.cms.gov/Condition/70581fdb-e6ce-4760-802e-0a58e61a7e97","resource":{"resourceType":"Condition","id":"70581fdb-e6ce-4760-802e-0a58e61a7e97","meta":{"profile":["http://hl7.org/fhir/us/qicore/StructureDefinition/qicore-condition"]},"clinicalStatus":{"coding":[{"system":"http://terminology.hl7.org/CodeSystem/condition-clinical","code":"active"}]},"verificationStatus":{"coding":[{"system":"http://terminology.hl7.org/CodeSystem/condition-ver-status","code":"confirmed"}]},"category":[{"coding":[{"system":"http://terminology.hl7.org/CodeSystem/condition-category","code":"encounter-diagnosis","display":"Encounter Diagnosis"}]}],"code":{"coding":[{"system":"http://snomed.info/sct","version":"2021-09","code":"111297002","display":"Nonparalytic stroke (disorder)","userSelected":true}]},"subject":{"reference":"Patient/dbe7efdb-fd75-4da4-a998-ae7e04051bd1"},"recordedDate":"2026-10-13T08:00:00.000+00:00"},"request":{"method":"PUT","url":"Condition/70581fdb-e6ce-4760-802e-0a58e61a7e97"}},{"fullUrl":"https://madie.cms.gov/Organization/2380d1c9-829d-44b1-be59-140795eb980f","resource":{"resourceType":"Organization","id":"890316dc-a4ad-43b4-ba6f-9fb9e6eca282","meta":{"profile":["http://hl7.org/fhir/us/qicore/StructureDefinition/qicore-organization"]},"identifier":[{"use":"temp","system":"urn:oid:2.16.840.1.113883.4.4","value":"21-3259825"}],"active":true,"type":[{"coding":[{"system":"http://terminology.hl7.org/CodeSystem/organization-type","code":"pay","display":"Payer"}]}],"name":"Blue Cross Blue Shield of Texas","telecom":[{"system":"phone","value":"(+1) 972-766-6900"}],"address":[{"use":"billing","type":"postal","line":["P.O. Box 660044"],"city":"Dallas","state":"TX","postalCode":"75266-0044","country":"USA"}]},"request":{"method":"PUT","url":"Organization/890316dc-a4ad-43b4-ba6f-9fb9e6eca282"}},{"fullUrl":"https://madie.cms.gov/Practitioner/10be7b54-d8d8-4e99-9de5-ec0a2b1fde56","resource":{"resourceType":"Practitioner","id":"10be7b54-d8d8-4e99-9de5-ec0a2b1fde56","identifier":[{"system":"http://hl7.org/fhir/sid/us-npi","value":"123456"}],"name":[{"family":"Evil","prefix":["Dr"]}]},"request":{"method":"PUT","url":"Practitioner/10be7b54-d8d8-4e99-9de5-ec0a2b1fde56"}},{"fullUrl":"https://madie.cms.gov/MeasureReport/99fc7e97-f8a0-4759-bb62-0740a9701089","resource":{"resourceType":"MeasureReport","id":"99fc7e97-f8a0-4759-bb62-0740a9701089","meta":{"profile":["http://hl7.org/fhir/us/cqfmeasures/StructureDefinition/test-case-cqfm"]},"contained":[{"resourceType":"Parameters","id":"3f559e59-57c5-433a-b0ab-d726a3bd506d-parameters","parameter":[{"name":"subject","valueString":"dbe7efdb-fd75-4da4-a998-ae7e04051bd1"}]}],"extension":[{"url":"http://hl7.org/fhir/us/cqfmeasures/StructureDefinition/cqfm-inputParameters","valueReference":{"reference":"#3f559e59-57c5-433a-b0ab-d726a3bd506d-parameters"}},{"url":"http://hl7.org/fhir/us/cqfmeasures/StructureDefinition/cqfm-testCaseDescription","valueMarkdown":"Testing Coverage issue do not perform is true"}],"modifierExtension":[{"url":"http://hl7.org/fhir/us/cqfmeasures/StructureDefinition/cqfm-isTestCase","valueBoolean":true}],"status":"complete","type":"individual","measure":"https://madie.cms.gov/Measure/CMS71FHIRSTKAnticoagAFFlutter","period":{"start":"2026-01-01","end":"2026-12-31"},"group":[{"population":[{"code":{"coding":[{"system":"http://terminology.hl7.org/CodeSystem/measure-population","code":"initial-population","display":"Initial Population"}]},"count":1},{"code":{"coding":[{"system":"http://terminology.hl7.org/CodeSystem/measure-population","code":"denominator","display":"Denominator"}]},"count":1},{"code":{"coding":[{"system":"http://terminology.hl7.org/CodeSystem/measure-population","code":"denominator-exclusion","display":"Denominator Exclusion"}]},"count":0},{"code":{"coding":[{"system":"http://terminology.hl7.org/CodeSystem/measure-population","code":"numerator","display":"Numerator"}]},"count":0},{"code":{"coding":[{"system":"http://terminology.hl7.org/CodeSystem/measure-population","code":"denominator-exception","display":"Denominator Exception"}]},"count":0}]}]},"request":{"method":"PUT","url":"MeasureReport/99fc7e97-f8a0-4759-bb62-0740a9701089"}}]}