{"resourceType":"Bundle","id":"tests-0f3f1ce7-9c34-4082-a635-f09ddcf53ac1-bundle","type":"transaction","entry":[{"fullUrl":"https://madie.cms.gov/Patient/0f3f1ce7-9c34-4082-a635-f09ddcf53ac1","resource":{"resourceType":"Patient","id":"0f3f1ce7-9c34-4082-a635-f09ddcf53ac1","meta":{"profile":["http://hl7.org/fhir/us/qicore/StructureDefinition/qicore-patient"]},"text":{"status":"generated","div":"<div xmlns=\"http://www.w3.org/1999/xhtml\"><div class=\"hapiHeaderText\">CMOdurEnc_ED=1hrNoObsBFEnc <b>DENEXPASS </b></div><table class=\"hapiPropertyTable\"><tbody><tr><td>Identifier</td><td>c13349494c162d88448cb3ad5c0d4a05</td></tr><tr><td>Date of birth</td><td><span>18 September 1985</span></td></tr></tbody></table></div>"},"extension":[{"url":"http://hl7.org/fhir/us/core/StructureDefinition/us-core-race","extension":[{"url":"ombCategory","valueCoding":{"system":"urn:oid:2.16.840.1.113883.6.238","code":"1002-5","display":"American Indian or Alaska Native","userSelected":true}},{"url":"text","valueString":"American Indian or Alaska Native"}]},{"url":"http://hl7.org/fhir/us/core/StructureDefinition/us-core-ethnicity","extension":[{"url":"ombCategory","valueCoding":{"system":"urn:oid:2.16.840.1.113883.6.238","code":"2135-2","display":"Hispanic or Latino","userSelected":true}},{"url":"text","valueString":"Hispanic or Latino"}]}],"identifier":[{"type":{"coding":[{"system":"http://terminology.hl7.org/CodeSystem/v2-0203","code":"MR"}]},"system":"https://bonnie-fhir.healthit.gov/","value":"633c9d030968f8012250fc83"}],"active":true,"name":[{"use":"usual","family":"DENEXPass","given":["CMOdurEnc_ED=1hrNoObsBFEnc"]}],"gender":"female","birthDate":"1986-09-18"},"request":{"method":"PUT","url":"Patient/0f3f1ce7-9c34-4082-a635-f09ddcf53ac1"}},{"fullUrl":"https://madie.cms.gov/Condition/88a4a794-3796-4742-8ade-0d88a5f75639","resource":{"resourceType":"Condition","id":"88a4a794-3796-4742-8ade-0d88a5f75639","meta":{"profile":["http://hl7.org/fhir/us/qicore/StructureDefinition/qicore-condition"]},"clinicalStatus":{"coding":[{"system":"http://terminology.hl7.org/CodeSystem/condition-clinical","code":"inactive"}]},"verificationStatus":{"coding":[{"system":"http://terminology.hl7.org/CodeSystem/condition-ver-status","code":"confirmed"}]},"category":[{"coding":[{"system":"http://terminology.hl7.org/CodeSystem/condition-category","code":"encounter-diagnosis","display":"Encounter Diagnosis"}]}],"code":{"coding":[{"system":"http://hl7.org/fhir/sid/icd-10-cm","code":"I48.20"},{"system":"http://hl7.org/fhir/sid/icd-10-cm","code":"I48.0"},{"system":"http://snomed.info/sct","code":"5370000"}]},"subject":{"reference":"Patient/0f3f1ce7-9c34-4082-a635-f09ddcf53ac1"},"onsetDateTime":"2026-10-01T09:00:00.000Z","abatementDateTime":"2026-10-12T00:15:00.000Z"},"request":{"method":"PUT","url":"Condition/88a4a794-3796-4742-8ade-0d88a5f75639"}},{"fullUrl":"https://madie.cms.gov/Encounter/3925552b-be74-416a-9b65-c025c110f515","resource":{"resourceType":"Encounter","id":"3925552b-be74-416a-9b65-c025c110f515","meta":{"profile":["http://hl7.org/fhir/us/qicore/StructureDefinition/qicore-encounter"]},"status":"finished","class":{"system":"http://terminology.hl7.org/CodeSystem/v3-ActCode","code":"EMER","display":"emergency"},"type":[{"coding":[{"system":"http://snomed.info/sct","code":"4525004"}]}],"subject":{"reference":"Patient/0f3f1ce7-9c34-4082-a635-f09ddcf53ac1"},"period":{"start":"2026-10-01T08:00:00.000Z","end":"2026-10-01T09:00:00.000Z"},"length":{"value":0,"unit":"days"}},"request":{"method":"PUT","url":"Encounter/3925552b-be74-416a-9b65-c025c110f515"}},{"fullUrl":"https://madie.cms.gov/Encounter/f2a95dd5-59da-476e-b530-dfd6d1c72a6c","resource":{"resourceType":"Encounter","id":"f2a95dd5-59da-476e-b530-dfd6d1c72a6c","meta":{"profile":["http://hl7.org/fhir/us/qicore/StructureDefinition/qicore-encounter"]},"status":"finished","class":{"system":"http://terminology.hl7.org/CodeSystem/v3-ActCode","code":"IMP","display":"inpatient encounter"},"type":[{"coding":[{"system":"http://snomed.info/sct","code":"32485007"}]}],"subject":{"reference":"Patient/0f3f1ce7-9c34-4082-a635-f09ddcf53ac1"},"period":{"start":"2026-10-01T09:00:00.000Z","end":"2026-10-12T00:15:00.000Z"},"length":{"value":11,"unit":"days"},"diagnosis":[{"condition":{"reference":"Condition/f0649a52-8233-46ae-a760-efe5a15c005b"},"use":{"coding":[{"system":"http://terminology.hl7.org/CodeSystem/diagnosis-role","code":"billing","display":"Billing"}]},"rank":1}]},"request":{"method":"PUT","url":"Encounter/f2a95dd5-59da-476e-b530-dfd6d1c72a6c"}},{"fullUrl":"https://madie.cms.gov/ServiceRequest/6613fb00-b90c-4928-a5c7-4dd3e19e701f","resource":{"resourceType":"ServiceRequest","id":"6613fb00-b90c-4928-a5c7-4dd3e19e701f","meta":{"profile":["http://hl7.org/fhir/us/qicore/StructureDefinition/qicore-servicerequest"]},"status":"active","intent":"order","code":{"coding":[{"system":"http://snomed.info/sct","code":"133918004"}]},"subject":{"reference":"Patient/0f3f1ce7-9c34-4082-a635-f09ddcf53ac1"},"authoredOn":"2026-10-01T09:15:00.000+00:00"},"request":{"method":"PUT","url":"ServiceRequest/6613fb00-b90c-4928-a5c7-4dd3e19e701f"}},{"fullUrl":"https://madie.cms.gov/Coverage/93e9c918-73f7-419d-9c6f-b1dd06fb012e","resource":{"resourceType":"Coverage","id":"93e9c918-73f7-419d-9c6f-b1dd06fb012e","status":"active","beneficiary":{"reference":"Patient/0f3f1ce7-9c34-4082-a635-f09ddcf53ac1"},"period":{"start":"1986-09-18T08:00:00.000Z"},"payor":[{"reference":"Organization/3778262e-e084-4bb5-9a47-1a144735f786"}]},"request":{"method":"PUT","url":"Coverage/93e9c918-73f7-419d-9c6f-b1dd06fb012e"}},{"fullUrl":"https://madie.cms.gov/Condition/f0649a52-8233-46ae-a760-efe5a15c005b","resource":{"resourceType":"Condition","id":"f0649a52-8233-46ae-a760-efe5a15c005b","meta":{"profile":["http://hl7.org/fhir/us/qicore/StructureDefinition/qicore-condition"]},"clinicalStatus":{"coding":[{"system":"http://terminology.hl7.org/CodeSystem/condition-clinical","code":"active"}]},"verificationStatus":{"coding":[{"system":"http://terminology.hl7.org/CodeSystem/condition-ver-status","code":"confirmed"}]},"category":[{"coding":[{"system":"http://terminology.hl7.org/CodeSystem/condition-category","code":"encounter-diagnosis","display":"Encounter Diagnosis"}]}],"code":{"coding":[{"system":"http://snomed.info/sct","version":"2021-09","code":"111297002","display":"Nonparalytic stroke (disorder)","userSelected":true}]},"subject":{"reference":"Patient/0f3f1ce7-9c34-4082-a635-f09ddcf53ac1"},"recordedDate":"2026-10-13T08:00:00.000+00:00"},"request":{"method":"PUT","url":"Condition/f0649a52-8233-46ae-a760-efe5a15c005b"}},{"fullUrl":"https://madie.cms.gov/Organization/a5310685-7f3a-4fe0-9475-fee503b53678","resource":{"resourceType":"Organization","id":"3778262e-e084-4bb5-9a47-1a144735f786","meta":{"profile":["http://hl7.org/fhir/us/qicore/StructureDefinition/qicore-organization"]},"identifier":[{"use":"temp","system":"urn:oid:2.16.840.1.113883.4.4","value":"21-3259825"}],"active":true,"type":[{"coding":[{"system":"http://terminology.hl7.org/CodeSystem/organization-type","code":"pay","display":"Payer"}]}],"name":"Blue Cross Blue Shield of Texas","telecom":[{"system":"phone","value":"(+1) 972-766-6900"}],"address":[{"use":"billing","type":"postal","line":["P.O. Box 660044"],"city":"Dallas","state":"TX","postalCode":"75266-0044","country":"USA"}]},"request":{"method":"PUT","url":"Organization/3778262e-e084-4bb5-9a47-1a144735f786"}},{"fullUrl":"https://madie.cms.gov/Practitioner/aac80eac-9398-49b3-84b0-6c92a3859ec1","resource":{"resourceType":"Practitioner","id":"aac80eac-9398-49b3-84b0-6c92a3859ec1","identifier":[{"system":"http://hl7.org/fhir/sid/us-npi","value":"123456"}],"name":[{"family":"Evil","prefix":["Dr"]}]},"request":{"method":"PUT","url":"Practitioner/aac80eac-9398-49b3-84b0-6c92a3859ec1"}},{"fullUrl":"https://madie.cms.gov/MeasureReport/5f88e402-6ef4-4e89-9fa6-a930e26996af","resource":{"resourceType":"MeasureReport","id":"5f88e402-6ef4-4e89-9fa6-a930e26996af","meta":{"profile":["http://hl7.org/fhir/us/cqfmeasures/StructureDefinition/test-case-cqfm"]},"contained":[{"resourceType":"Parameters","id":"c76a3885-9fa9-4080-81f6-2895d02d55d7-parameters","parameter":[{"name":"subject","valueString":"0f3f1ce7-9c34-4082-a635-f09ddcf53ac1"}]}],"extension":[{"url":"http://hl7.org/fhir/us/cqfmeasures/StructureDefinition/cqfm-inputParameters","valueReference":{"reference":"#c76a3885-9fa9-4080-81f6-2895d02d55d7-parameters"}},{"url":"http://hl7.org/fhir/us/cqfmeasures/StructureDefinition/cqfm-testCaseDescription","valueMarkdown":"Patient receives CMO during inpatient encounter. ED ends 60 min. before Observation start, Obs ends 60 min before inpatient encounter start. Testing HospitalizationWithObservation function.\n"}],"modifierExtension":[{"url":"http://hl7.org/fhir/us/cqfmeasures/StructureDefinition/cqfm-isTestCase","valueBoolean":true}],"status":"complete","type":"individual","measure":"https://madie.cms.gov/Measure/CMS71FHIRSTKAnticoagAFFlutter","period":{"start":"2026-01-01","end":"2026-12-31"},"group":[{"population":[{"code":{"coding":[{"system":"http://terminology.hl7.org/CodeSystem/measure-population","code":"initial-population","display":"Initial Population"}]},"count":1},{"code":{"coding":[{"system":"http://terminology.hl7.org/CodeSystem/measure-population","code":"denominator","display":"Denominator"}]},"count":1},{"code":{"coding":[{"system":"http://terminology.hl7.org/CodeSystem/measure-population","code":"denominator-exclusion","display":"Denominator Exclusion"}]},"count":1},{"code":{"coding":[{"system":"http://terminology.hl7.org/CodeSystem/measure-population","code":"numerator","display":"Numerator"}]},"count":0},{"code":{"coding":[{"system":"http://terminology.hl7.org/CodeSystem/measure-population","code":"denominator-exception","display":"Denominator Exception"}]},"count":0}]}]},"request":{"method":"PUT","url":"MeasureReport/5f88e402-6ef4-4e89-9fa6-a930e26996af"}}]}