{"resourceType":"Bundle","id":"tests-b3bcdbbc-3b69-4e22-b993-b04d87f225a8-bundle","type":"transaction","entry":[{"fullUrl":"https://madie.cms.gov/Patient/b3bcdbbc-3b69-4e22-b993-b04d87f225a8","resource":{"resourceType":"Patient","id":"b3bcdbbc-3b69-4e22-b993-b04d87f225a8","meta":{"profile":["http://hl7.org/fhir/us/qicore/StructureDefinition/qicore-patient"]},"text":{"status":"generated","div":"<div xmlns=\"http://www.w3.org/1999/xhtml\"><div class=\"hapiHeaderText\">CMOdurEnc_ED&gt;1hrNoObsBFEnc <b>DENEXPASS </b></div><table class=\"hapiPropertyTable\"><tbody><tr><td>Identifier</td><td>598ef08c763129d6d7c5f79b51d3f082</td></tr><tr><td>Date of birth</td><td><span>18 September 1985</span></td></tr></tbody></table></div>"},"extension":[{"url":"http://hl7.org/fhir/us/core/StructureDefinition/us-core-race","extension":[{"url":"ombCategory","valueCoding":{"system":"urn:oid:2.16.840.1.113883.6.238","code":"1002-5","display":"American Indian or Alaska Native","userSelected":true}},{"url":"text","valueString":"American Indian or Alaska Native"}]},{"url":"http://hl7.org/fhir/us/core/StructureDefinition/us-core-ethnicity","extension":[{"url":"ombCategory","valueCoding":{"system":"urn:oid:2.16.840.1.113883.6.238","code":"2135-2","display":"Hispanic or Latino","userSelected":true}},{"url":"text","valueString":"Hispanic or Latino"}]}],"identifier":[{"type":{"coding":[{"system":"http://terminology.hl7.org/CodeSystem/v2-0203","code":"MR"}]},"system":"https://bonnie-fhir.healthit.gov/","value":"633c9d030968f8012250fc81"}],"active":true,"name":[{"use":"usual","family":"DENEXPass","given":["CMOdurEnc_ED>1hrNoObsBFEnc"]}],"gender":"female","birthDate":"1986-09-18"},"request":{"method":"PUT","url":"Patient/b3bcdbbc-3b69-4e22-b993-b04d87f225a8"}},{"fullUrl":"https://madie.cms.gov/Condition/59e09093-26c0-4813-ba1d-cf7a0fbf37ed","resource":{"resourceType":"Condition","id":"59e09093-26c0-4813-ba1d-cf7a0fbf37ed","meta":{"profile":["http://hl7.org/fhir/us/qicore/StructureDefinition/qicore-condition"]},"clinicalStatus":{"coding":[{"system":"http://terminology.hl7.org/CodeSystem/condition-clinical","code":"inactive"}]},"verificationStatus":{"coding":[{"system":"http://terminology.hl7.org/CodeSystem/condition-ver-status","code":"confirmed"}]},"category":[{"coding":[{"system":"http://terminology.hl7.org/CodeSystem/condition-category","code":"encounter-diagnosis","display":"Encounter Diagnosis"}]}],"code":{"coding":[{"system":"http://hl7.org/fhir/sid/icd-10-cm","code":"I48.20"},{"system":"http://hl7.org/fhir/sid/icd-10-cm","code":"I48.0"},{"system":"http://snomed.info/sct","code":"5370000"}]},"subject":{"reference":"Patient/b3bcdbbc-3b69-4e22-b993-b04d87f225a8"},"onsetDateTime":"2026-10-01T09:00:00.000Z","abatementDateTime":"2026-10-12T00:15:00.000Z"},"request":{"method":"PUT","url":"Condition/59e09093-26c0-4813-ba1d-cf7a0fbf37ed"}},{"fullUrl":"https://madie.cms.gov/Encounter/9ff633c0-272e-49d8-8962-7ba247d43284","resource":{"resourceType":"Encounter","id":"9ff633c0-272e-49d8-8962-7ba247d43284","meta":{"profile":["http://hl7.org/fhir/us/qicore/StructureDefinition/qicore-encounter"]},"status":"finished","class":{"system":"http://terminology.hl7.org/CodeSystem/v3-ActCode","code":"EMER","display":"emergency"},"type":[{"coding":[{"system":"http://snomed.info/sct","code":"4525004"}]}],"subject":{"reference":"Patient/b3bcdbbc-3b69-4e22-b993-b04d87f225a8"},"period":{"start":"2026-10-01T08:00:00.000Z","end":"2026-10-01T08:59:00.000Z"},"length":{"value":0,"unit":"days"}},"request":{"method":"PUT","url":"Encounter/9ff633c0-272e-49d8-8962-7ba247d43284"}},{"fullUrl":"https://madie.cms.gov/Encounter/5ffb2fef-f277-4a68-a3bc-de744eea75cf","resource":{"resourceType":"Encounter","id":"5ffb2fef-f277-4a68-a3bc-de744eea75cf","meta":{"profile":["http://hl7.org/fhir/us/qicore/StructureDefinition/qicore-encounter"]},"status":"finished","class":{"system":"http://terminology.hl7.org/CodeSystem/v3-ActCode","code":"IMP","display":"inpatient encounter"},"type":[{"coding":[{"system":"http://snomed.info/sct","code":"32485007"}]}],"subject":{"reference":"Patient/b3bcdbbc-3b69-4e22-b993-b04d87f225a8"},"period":{"start":"2026-10-01T10:00:00.000Z","end":"2026-10-12T00:15:00.000Z"},"length":{"value":11,"unit":"days"},"diagnosis":[{"condition":{"reference":"Condition/c08e678e-b889-4c7d-9529-fab960e648ae"},"use":{"coding":[{"system":"http://terminology.hl7.org/CodeSystem/diagnosis-role","code":"billing","display":"Billing"}]},"rank":1}]},"request":{"method":"PUT","url":"Encounter/5ffb2fef-f277-4a68-a3bc-de744eea75cf"}},{"fullUrl":"https://madie.cms.gov/ServiceRequest/eb5b39c2-fedd-43e5-960f-fb82f25c28e8","resource":{"resourceType":"ServiceRequest","id":"eb5b39c2-fedd-43e5-960f-fb82f25c28e8","meta":{"profile":["http://hl7.org/fhir/us/qicore/StructureDefinition/qicore-servicerequest"]},"status":"active","intent":"order","code":{"coding":[{"system":"http://snomed.info/sct","code":"133918004"}]},"subject":{"reference":"Patient/b3bcdbbc-3b69-4e22-b993-b04d87f225a8"},"authoredOn":"2026-10-01T10:00:00.000+00:00"},"request":{"method":"PUT","url":"ServiceRequest/eb5b39c2-fedd-43e5-960f-fb82f25c28e8"}},{"fullUrl":"https://madie.cms.gov/Coverage/fa6722cb-f9d2-4e72-8269-850aa010bb58","resource":{"resourceType":"Coverage","id":"fa6722cb-f9d2-4e72-8269-850aa010bb58","status":"active","beneficiary":{"reference":"Patient/b3bcdbbc-3b69-4e22-b993-b04d87f225a8"},"period":{"start":"1986-09-18T08:00:00.000Z"},"payor":[{"reference":"Organization/db141f66-a1cc-407b-9e95-adac27adee14"}]},"request":{"method":"PUT","url":"Coverage/fa6722cb-f9d2-4e72-8269-850aa010bb58"}},{"fullUrl":"https://madie.cms.gov/Condition/c08e678e-b889-4c7d-9529-fab960e648ae","resource":{"resourceType":"Condition","id":"c08e678e-b889-4c7d-9529-fab960e648ae","meta":{"profile":["http://hl7.org/fhir/us/qicore/StructureDefinition/qicore-condition"]},"clinicalStatus":{"coding":[{"system":"http://terminology.hl7.org/CodeSystem/condition-clinical","code":"active"}]},"verificationStatus":{"coding":[{"system":"http://terminology.hl7.org/CodeSystem/condition-ver-status","code":"confirmed"}]},"category":[{"coding":[{"system":"http://terminology.hl7.org/CodeSystem/condition-category","code":"encounter-diagnosis","display":"Encounter Diagnosis"}]}],"code":{"coding":[{"system":"http://snomed.info/sct","version":"2021-09","code":"111297002","display":"Nonparalytic stroke (disorder)","userSelected":true}]},"subject":{"reference":"Patient/b3bcdbbc-3b69-4e22-b993-b04d87f225a8"},"recordedDate":"2026-10-13T08:00:00.000+00:00"},"request":{"method":"PUT","url":"Condition/c08e678e-b889-4c7d-9529-fab960e648ae"}},{"fullUrl":"https://madie.cms.gov/Organization/3ebf8612-8d42-4a53-a6f0-86a7c28d32c8","resource":{"resourceType":"Organization","id":"db141f66-a1cc-407b-9e95-adac27adee14","meta":{"profile":["http://hl7.org/fhir/us/qicore/StructureDefinition/qicore-organization"]},"identifier":[{"use":"temp","system":"urn:oid:2.16.840.1.113883.4.4","value":"21-3259825"}],"active":true,"type":[{"coding":[{"system":"http://terminology.hl7.org/CodeSystem/organization-type","code":"pay","display":"Payer"}]}],"name":"Blue Cross Blue Shield of Texas","telecom":[{"system":"phone","value":"(+1) 972-766-6900"}],"address":[{"use":"billing","type":"postal","line":["P.O. Box 660044"],"city":"Dallas","state":"TX","postalCode":"75266-0044","country":"USA"}]},"request":{"method":"PUT","url":"Organization/db141f66-a1cc-407b-9e95-adac27adee14"}},{"fullUrl":"https://madie.cms.gov/Practitioner/5e01e31a-5754-4462-af50-d721a2bccfdd","resource":{"resourceType":"Practitioner","id":"5e01e31a-5754-4462-af50-d721a2bccfdd","identifier":[{"system":"http://hl7.org/fhir/sid/us-npi","value":"123456"}],"name":[{"family":"Evil","prefix":["Dr"]}]},"request":{"method":"PUT","url":"Practitioner/5e01e31a-5754-4462-af50-d721a2bccfdd"}},{"fullUrl":"https://madie.cms.gov/MeasureReport/ba413b77-492f-472d-8fc9-97212fa81334","resource":{"resourceType":"MeasureReport","id":"ba413b77-492f-472d-8fc9-97212fa81334","meta":{"profile":["http://hl7.org/fhir/us/cqfmeasures/StructureDefinition/test-case-cqfm"]},"contained":[{"resourceType":"Parameters","id":"3cbed32b-a856-42a7-9a53-f25bda3bc1d6-parameters","parameter":[{"name":"subject","valueString":"b3bcdbbc-3b69-4e22-b993-b04d87f225a8"}]}],"extension":[{"url":"http://hl7.org/fhir/us/cqfmeasures/StructureDefinition/cqfm-inputParameters","valueReference":{"reference":"#3cbed32b-a856-42a7-9a53-f25bda3bc1d6-parameters"}},{"url":"http://hl7.org/fhir/us/cqfmeasures/StructureDefinition/cqfm-testCaseDescription","valueMarkdown":"Patient receives CMO during inpatient encounter. ED ends 61 minutes before inpatient encounter start on the same day. No Observation. Testing HospitalizationWithObservation function.\n"}],"modifierExtension":[{"url":"http://hl7.org/fhir/us/cqfmeasures/StructureDefinition/cqfm-isTestCase","valueBoolean":true}],"status":"complete","type":"individual","measure":"https://madie.cms.gov/Measure/CMS71FHIRSTKAnticoagAFFlutter","period":{"start":"2026-01-01","end":"2026-12-31"},"group":[{"population":[{"code":{"coding":[{"system":"http://terminology.hl7.org/CodeSystem/measure-population","code":"initial-population","display":"Initial Population"}]},"count":1},{"code":{"coding":[{"system":"http://terminology.hl7.org/CodeSystem/measure-population","code":"denominator","display":"Denominator"}]},"count":1},{"code":{"coding":[{"system":"http://terminology.hl7.org/CodeSystem/measure-population","code":"denominator-exclusion","display":"Denominator Exclusion"}]},"count":1},{"code":{"coding":[{"system":"http://terminology.hl7.org/CodeSystem/measure-population","code":"numerator","display":"Numerator"}]},"count":0},{"code":{"coding":[{"system":"http://terminology.hl7.org/CodeSystem/measure-population","code":"denominator-exception","display":"Denominator Exception"}]},"count":0}]}]},"request":{"method":"PUT","url":"MeasureReport/ba413b77-492f-472d-8fc9-97212fa81334"}}]}