{"resourceType":"Bundle","id":"tests-e20b4e76-8523-43ab-abc2-a4f4137a84bb-bundle","type":"transaction","entry":[{"fullUrl":"https://madie.cms.gov/Patient/e20b4e76-8523-43ab-abc2-a4f4137a84bb","resource":{"resourceType":"Patient","id":"e20b4e76-8523-43ab-abc2-a4f4137a84bb","meta":{"profile":["http://hl7.org/fhir/us/qicore/StructureDefinition/qicore-patient"]},"text":{"status":"generated","div":"<div xmlns=\"http://www.w3.org/1999/xhtml\"><div class=\"hapiHeaderText\">MedRsnStartTmEQEncAdmTm <b>DENEXCEPPASS </b></div><table class=\"hapiPropertyTable\"><tbody><tr><td>Identifier</td><td>35cbbf7aaaa0d68e43732015209d5ef8</td></tr><tr><td>Date of birth</td><td><span>23 May 1954</span></td></tr></tbody></table></div>"},"extension":[{"url":"http://hl7.org/fhir/us/core/StructureDefinition/us-core-race","extension":[{"url":"ombCategory","valueCoding":{"system":"urn:oid:2.16.840.1.113883.6.238","code":"1002-5","display":"American Indian or Alaska Native","userSelected":true}},{"url":"text","valueString":"American Indian or Alaska Native"}]},{"url":"http://hl7.org/fhir/us/core/StructureDefinition/us-core-ethnicity","extension":[{"url":"ombCategory","valueCoding":{"system":"urn:oid:2.16.840.1.113883.6.238","code":"2135-2","display":"Hispanic or Latino","userSelected":true}},{"url":"text","valueString":"Hispanic or Latino"}]}],"identifier":[{"type":{"coding":[{"system":"http://terminology.hl7.org/CodeSystem/v2-0203","code":"MR"}]},"system":"https://bonnie-fhir.healthit.gov/","value":"633c9d040968f8012250fc9e"}],"active":true,"name":[{"use":"usual","family":"DENEXCEPPass","given":["MedRsnStartTmEQEncAdmTm"]}],"gender":"female","birthDate":"1955-05-23"},"request":{"method":"PUT","url":"Patient/e20b4e76-8523-43ab-abc2-a4f4137a84bb"}},{"fullUrl":"https://madie.cms.gov/Encounter/a269c199-e1a6-4753-be57-c4e399b5bbb5","resource":{"resourceType":"Encounter","id":"a269c199-e1a6-4753-be57-c4e399b5bbb5","meta":{"profile":["http://hl7.org/fhir/us/qicore/StructureDefinition/qicore-encounter"]},"status":"finished","class":{"system":"http://terminology.hl7.org/CodeSystem/v3-ActCode","code":"IMP","display":"inpatient encounter"},"type":[{"coding":[{"system":"http://snomed.info/sct","code":"32485007"}]}],"subject":{"reference":"Patient/e20b4e76-8523-43ab-abc2-a4f4137a84bb"},"period":{"start":"2026-11-20T07:16:00.000Z","end":"2026-11-24T08:15:00.000Z"},"length":{"value":4,"unit":"days"},"diagnosis":[{"condition":{"reference":"Condition/10fb5216-573e-48f2-89fc-116e385e40bc"},"use":{"coding":[{"system":"http://terminology.hl7.org/CodeSystem/diagnosis-role","code":"billing","display":"Billing"}]},"rank":1}]},"request":{"method":"PUT","url":"Encounter/a269c199-e1a6-4753-be57-c4e399b5bbb5"}},{"fullUrl":"https://madie.cms.gov/MedicationRequest/00568b78-cc18-47e6-bacb-3d6204f39079","resource":{"resourceType":"MedicationRequest","id":"00568b78-cc18-47e6-bacb-3d6204f39079","meta":{"profile":["http://hl7.org/fhir/us/qicore/StructureDefinition/qicore-mednotrequested"]},"status":"completed","intent":"order","category":[{"coding":[{"system":"http://terminology.hl7.org/CodeSystem/medicationrequest-category","code":"community"}]}],"doNotPerform":true,"medicationCodeableConcept":{"coding":[{"system":"http://www.nlm.nih.gov/research/umls/rxnorm","code":"1037045"}]},"subject":{"reference":"Patient/e20b4e76-8523-43ab-abc2-a4f4137a84bb"},"authoredOn":"2026-11-20T07:16:00.000+00:00","requester":{"reference":"Practitioner/example"},"reasonCode":[{"coding":[{"system":"http://snomed.info/sct","code":"183932001"}]}]},"request":{"method":"PUT","url":"MedicationRequest/00568b78-cc18-47e6-bacb-3d6204f39079"}},{"fullUrl":"https://madie.cms.gov/Coverage/fa123735-bba6-41d4-a4f0-cc8ef6fa8d44","resource":{"resourceType":"Coverage","id":"fa123735-bba6-41d4-a4f0-cc8ef6fa8d44","status":"active","beneficiary":{"reference":"Patient/e20b4e76-8523-43ab-abc2-a4f4137a84bb"},"period":{"start":"1955-05-23T08:00:00.000Z"},"payor":[{"reference":"Organization/18ca435c-cae6-4c34-8033-af717477f9fc"}]},"request":{"method":"PUT","url":"Coverage/fa123735-bba6-41d4-a4f0-cc8ef6fa8d44"}},{"fullUrl":"https://madie.cms.gov/Procedure/22b60ddd-d50b-4645-b65f-c8e19a5eb14d","resource":{"resourceType":"Procedure","id":"22b60ddd-d50b-4645-b65f-c8e19a5eb14d","meta":{"profile":["http://hl7.org/fhir/us/qicore/StructureDefinition/qicore-procedure"]},"extension":[{"url":"http://hl7.org/fhir/us/qicore/StructureDefinition/qicore-recorded","valueDateTime":"2014-04-05T09:35:00-04:00"}],"status":"completed","code":{"coding":[{"system":"http://www.cms.gov/Medicare/Coding/ICD10","code":"02560ZZ"},{"system":"http://snomed.info/sct","code":"175095005"}]},"subject":{"reference":"Patient/e20b4e76-8523-43ab-abc2-a4f4137a84bb"},"performedPeriod":{"start":"2026-11-20T07:15:00.000Z","end":"2026-11-20T07:16:00.000Z"}},"request":{"method":"PUT","url":"Procedure/22b60ddd-d50b-4645-b65f-c8e19a5eb14d"}},{"fullUrl":"https://madie.cms.gov/Condition/10fb5216-573e-48f2-89fc-116e385e40bc","resource":{"resourceType":"Condition","id":"10fb5216-573e-48f2-89fc-116e385e40bc","meta":{"profile":["http://hl7.org/fhir/us/qicore/StructureDefinition/qicore-condition"]},"clinicalStatus":{"coding":[{"system":"http://terminology.hl7.org/CodeSystem/condition-clinical","code":"active"}]},"verificationStatus":{"coding":[{"system":"http://terminology.hl7.org/CodeSystem/condition-ver-status","code":"confirmed"}]},"category":[{"coding":[{"system":"http://terminology.hl7.org/CodeSystem/condition-category","code":"encounter-diagnosis","display":"Encounter Diagnosis"}]}],"code":{"coding":[{"system":"http://snomed.info/sct","version":"2021-09","code":"111297002","display":"Nonparalytic stroke (disorder)","userSelected":true}]},"subject":{"reference":"Patient/e20b4e76-8523-43ab-abc2-a4f4137a84bb"},"recordedDate":"2026-10-13T08:00:00.000+00:00"},"request":{"method":"PUT","url":"Condition/10fb5216-573e-48f2-89fc-116e385e40bc"}},{"fullUrl":"https://madie.cms.gov/Organization/be88bd58-b54f-4394-a966-2483c7895b9e","resource":{"resourceType":"Organization","id":"18ca435c-cae6-4c34-8033-af717477f9fc","meta":{"profile":["http://hl7.org/fhir/us/qicore/StructureDefinition/qicore-organization"]},"identifier":[{"use":"temp","system":"urn:oid:2.16.840.1.113883.4.4","value":"21-3259825"}],"active":true,"type":[{"coding":[{"system":"http://terminology.hl7.org/CodeSystem/organization-type","code":"pay","display":"Payer"}]}],"name":"Blue Cross Blue Shield of Texas","telecom":[{"system":"phone","value":"(+1) 972-766-6900"}],"address":[{"use":"billing","type":"postal","line":["P.O. Box 660044"],"city":"Dallas","state":"TX","postalCode":"75266-0044","country":"USA"}]},"request":{"method":"PUT","url":"Organization/18ca435c-cae6-4c34-8033-af717477f9fc"}},{"fullUrl":"https://madie.cms.gov/MeasureReport/3c694117-5ad8-42fc-8431-9deff60c8588","resource":{"resourceType":"MeasureReport","id":"3c694117-5ad8-42fc-8431-9deff60c8588","meta":{"profile":["http://hl7.org/fhir/us/cqfmeasures/StructureDefinition/test-case-cqfm"]},"contained":[{"resourceType":"Parameters","id":"47d6c828-e052-4ec3-bac7-5e28596ec638-parameters","parameter":[{"name":"subject","valueString":"e20b4e76-8523-43ab-abc2-a4f4137a84bb"}]}],"extension":[{"url":"http://hl7.org/fhir/us/cqfmeasures/StructureDefinition/cqfm-inputParameters","valueReference":{"reference":"#47d6c828-e052-4ec3-bac7-5e28596ec638-parameters"}},{"url":"http://hl7.org/fhir/us/cqfmeasures/StructureDefinition/cqfm-testCaseDescription","valueMarkdown":"Patient did not receive anticoagulant on dc due to medical reason, but start date is eq start of OccurA\n"}],"modifierExtension":[{"url":"http://hl7.org/fhir/us/cqfmeasures/StructureDefinition/cqfm-isTestCase","valueBoolean":true}],"status":"complete","type":"individual","measure":"https://madie.cms.gov/Measure/CMS71FHIRSTKAnticoagAFFlutter","period":{"start":"2026-01-01","end":"2026-12-31"},"group":[{"population":[{"code":{"coding":[{"system":"http://terminology.hl7.org/CodeSystem/measure-population","code":"initial-population","display":"Initial Population"}]},"count":1},{"code":{"coding":[{"system":"http://terminology.hl7.org/CodeSystem/measure-population","code":"denominator","display":"Denominator"}]},"count":1},{"code":{"coding":[{"system":"http://terminology.hl7.org/CodeSystem/measure-population","code":"denominator-exclusion","display":"Denominator Exclusion"}]},"count":0},{"code":{"coding":[{"system":"http://terminology.hl7.org/CodeSystem/measure-population","code":"numerator","display":"Numerator"}]},"count":0},{"code":{"coding":[{"system":"http://terminology.hl7.org/CodeSystem/measure-population","code":"denominator-exception","display":"Denominator Exception"}]},"count":1}]}]},"request":{"method":"PUT","url":"MeasureReport/3c694117-5ad8-42fc-8431-9deff60c8588"}}]}