{"resourceType":"Bundle","id":"tests-d5991213-5237-4eb3-a6e9-61404f836d3b-bundle","type":"transaction","entry":[{"fullUrl":"https://madie.cms.gov/Patient/d5991213-5237-4eb3-a6e9-61404f836d3b","resource":{"resourceType":"Patient","id":"d5991213-5237-4eb3-a6e9-61404f836d3b","meta":{"profile":["http://hl7.org/fhir/us/qicore/StructureDefinition/qicore-patient"]},"text":{"status":"generated","div":"<div xmlns=\"http://www.w3.org/1999/xhtml\"><div class=\"hapiHeaderText\">EncPrinDx=Afib/Flutter Rank2 <b>IPPFAIL </b></div><table class=\"hapiPropertyTable\"><tbody><tr><td>Identifier</td><td>2038d8a42effee0cae92f8c6fde4ebe8</td></tr><tr><td>Date of birth</td><td><span>01 December 1960</span></td></tr></tbody></table></div>"},"extension":[{"url":"http://hl7.org/fhir/us/core/StructureDefinition/us-core-race","extension":[{"url":"ombCategory","valueCoding":{"system":"urn:oid:2.16.840.1.113883.6.238","code":"1002-5","display":"American Indian or Alaska Native","userSelected":true}},{"url":"text","valueString":"American Indian or Alaska Native"}]},{"url":"http://hl7.org/fhir/us/core/StructureDefinition/us-core-ethnicity","extension":[{"url":"ombCategory","valueCoding":{"system":"urn:oid:2.16.840.1.113883.6.238","code":"2135-2","display":"Hispanic or Latino","userSelected":true}},{"url":"text","valueString":"Hispanic or Latino"}]}],"identifier":[{"type":{"coding":[{"system":"http://terminology.hl7.org/CodeSystem/v2-0203","code":"MR"}]},"system":"https://bonnie-fhir.healthit.gov/","value":"633c9d040968f8012250fcab"}],"active":true,"name":[{"use":"usual","family":"IPPFail ","given":["EncPrinDx=Afib/Flutter Rank2"]}],"gender":"male","birthDate":"1961-12-01"},"request":{"method":"PUT","url":"Patient/d5991213-5237-4eb3-a6e9-61404f836d3b"}},{"fullUrl":"https://madie.cms.gov/Encounter/8e3179cd-bca8-4435-b477-691de7903f56","resource":{"resourceType":"Encounter","id":"8e3179cd-bca8-4435-b477-691de7903f56","meta":{"profile":["http://hl7.org/fhir/us/qicore/StructureDefinition/qicore-encounter"]},"status":"finished","class":{"system":"http://terminology.hl7.org/CodeSystem/v3-ActCode","code":"IMP","display":"inpatient encounter"},"type":[{"coding":[{"system":"http://snomed.info/sct","code":"32485007"}]}],"subject":{"reference":"Patient/d5991213-5237-4eb3-a6e9-61404f836d3b"},"period":{"start":"2026-02-08T08:00:00.000Z","end":"2026-02-10T08:15:00.000Z"},"length":{"value":2.0,"unit":"days"},"diagnosis":[{"condition":{"reference":"Condition/e13914b1-7780-46d6-8b43-3d02f018cae2"},"rank":2}]},"request":{"method":"PUT","url":"Encounter/8e3179cd-bca8-4435-b477-691de7903f56"}},{"fullUrl":"https://madie.cms.gov/Coverage/ed023a02-74a3-4416-90ec-eedeb3ae0a41","resource":{"resourceType":"Coverage","id":"ed023a02-74a3-4416-90ec-eedeb3ae0a41","status":"active","beneficiary":{"reference":"Patient/d5991213-5237-4eb3-a6e9-61404f836d3b"},"period":{"start":"1961-12-01T01:00:00.000Z"},"payor":[{"reference":"Organization/f4907415-83c5-4eae-ab0b-cb63a840880d"}]},"request":{"method":"PUT","url":"Coverage/ed023a02-74a3-4416-90ec-eedeb3ae0a41"}},{"fullUrl":"https://madie.cms.gov/Condition/e13914b1-7780-46d6-8b43-3d02f018cae2","resource":{"resourceType":"Condition","id":"e13914b1-7780-46d6-8b43-3d02f018cae2","meta":{"profile":["http://hl7.org/fhir/us/qicore/StructureDefinition/qicore-condition"]},"clinicalStatus":{"coding":[{"system":"http://terminology.hl7.org/CodeSystem/condition-clinical","code":"active"}]},"verificationStatus":{"coding":[{"system":"http://terminology.hl7.org/CodeSystem/condition-ver-status","code":"confirmed"}]},"category":[{"coding":[{"system":"http://terminology.hl7.org/CodeSystem/condition-category","code":"encounter-diagnosis","display":"Encounter Diagnosis"}]}],"code":{"coding":[{"system":"http://snomed.info/sct","version":"2021-09","code":"120041000119109","display":"Atrial fibrillation with rapid ventricular response (disorder)","userSelected":true}]},"subject":{"reference":"Patient/d5991213-5237-4eb3-a6e9-61404f836d3b"},"recordedDate":"2026-10-13T08:00:00.000+00:00"},"request":{"method":"PUT","url":"Condition/e13914b1-7780-46d6-8b43-3d02f018cae2"}},{"fullUrl":"https://madie.cms.gov/Organization/f79e50ea-5d4f-4b04-8aed-29d5511d9be2","resource":{"resourceType":"Organization","id":"f4907415-83c5-4eae-ab0b-cb63a840880d","meta":{"profile":["http://hl7.org/fhir/us/qicore/StructureDefinition/qicore-organization"]},"identifier":[{"use":"temp","system":"urn:oid:2.16.840.1.113883.4.4","value":"21-3259825"}],"active":true,"type":[{"coding":[{"system":"http://terminology.hl7.org/CodeSystem/organization-type","code":"pay","display":"Payer"}]}],"name":"Blue Cross Blue Shield of Texas","telecom":[{"system":"phone","value":"(+1) 972-766-6900"}],"address":[{"use":"billing","type":"postal","line":["P.O. Box 660044"],"city":"Dallas","state":"TX","postalCode":"75266-0044","country":"USA"}]},"request":{"method":"PUT","url":"Organization/f4907415-83c5-4eae-ab0b-cb63a840880d"}},{"fullUrl":"https://madie.cms.gov/Practitioner/a844e9ea-8cc6-4da9-8969-eee63b92da4a","resource":{"resourceType":"Practitioner","id":"a844e9ea-8cc6-4da9-8969-eee63b92da4a","identifier":[{"system":"http://hl7.org/fhir/sid/us-npi","value":"123456"}],"name":[{"family":"Evil","prefix":["Dr"]}]},"request":{"method":"PUT","url":"Practitioner/a844e9ea-8cc6-4da9-8969-eee63b92da4a"}},{"fullUrl":"https://madie.cms.gov/MeasureReport/f5908e0d-bda8-40de-a5d3-dc1f5b6ccbc8","resource":{"resourceType":"MeasureReport","id":"f5908e0d-bda8-40de-a5d3-dc1f5b6ccbc8","meta":{"profile":["http://hl7.org/fhir/us/cqfmeasures/StructureDefinition/test-case-cqfm"]},"contained":[{"resourceType":"Parameters","id":"e86eb948-cdc2-4907-ab7b-f7b8536ea5d4-parameters","parameter":[{"name":"subject","valueString":"d5991213-5237-4eb3-a6e9-61404f836d3b"}]}],"extension":[{"url":"http://hl7.org/fhir/us/cqfmeasures/StructureDefinition/cqfm-inputParameters","valueReference":{"reference":"#e86eb948-cdc2-4907-ab7b-f7b8536ea5d4-parameters"}},{"url":"http://hl7.org/fhir/us/cqfmeasures/StructureDefinition/cqfm-testCaseDescription","valueMarkdown":"Principal diagnosis not in value set\n"}],"modifierExtension":[{"url":"http://hl7.org/fhir/us/cqfmeasures/StructureDefinition/cqfm-isTestCase","valueBoolean":true}],"status":"complete","type":"individual","measure":"https://madie.cms.gov/Measure/CMS71FHIRSTKAnticoagAFFlutter","period":{"start":"2026-01-01","end":"2026-12-31"},"group":[{"population":[{"code":{"coding":[{"system":"http://terminology.hl7.org/CodeSystem/measure-population","code":"initial-population","display":"Initial Population"}]},"count":0},{"code":{"coding":[{"system":"http://terminology.hl7.org/CodeSystem/measure-population","code":"denominator","display":"Denominator"}]},"count":0},{"code":{"coding":[{"system":"http://terminology.hl7.org/CodeSystem/measure-population","code":"denominator-exclusion","display":"Denominator Exclusion"}]},"count":0},{"code":{"coding":[{"system":"http://terminology.hl7.org/CodeSystem/measure-population","code":"numerator","display":"Numerator"}]},"count":0},{"code":{"coding":[{"system":"http://terminology.hl7.org/CodeSystem/measure-population","code":"denominator-exception","display":"Denominator Exception"}]},"count":0}]}]},"request":{"method":"PUT","url":"MeasureReport/f5908e0d-bda8-40de-a5d3-dc1f5b6ccbc8"}}]}