{"resourceType":"Bundle","id":"tests-cc42fc09-d5ed-4ac5-980e-f16279cf0499-bundle","type":"transaction","entry":[{"fullUrl":"https://madie.cms.gov/Patient/cc42fc09-d5ed-4ac5-980e-f16279cf0499","resource":{"resourceType":"Patient","id":"cc42fc09-d5ed-4ac5-980e-f16279cf0499","meta":{"profile":["http://hl7.org/fhir/us/qicore/StructureDefinition/qicore-patient"]},"text":{"status":"generated","div":"<div xmlns=\"http://www.w3.org/1999/xhtml\"><div class=\"hapiHeaderText\">CMOdurED_ED&gt;1hrObs&lt;1hrBFEnc <b>DENEXFAIL </b></div><table class=\"hapiPropertyTable\"><tbody><tr><td>Identifier</td><td>f462825629b56fcd20839ac515dc0513d89bc3fe2bc1172dcd3636bdb9c318c7</td></tr><tr><td>Date of birth</td><td><span>18 September 1985</span></td></tr></tbody></table></div>"},"extension":[{"url":"http://hl7.org/fhir/us/core/StructureDefinition/us-core-race","extension":[{"url":"ombCategory","valueCoding":{"system":"urn:oid:2.16.840.1.113883.6.238","code":"1002-5","display":"American Indian or Alaska Native","userSelected":true}},{"url":"text","valueString":"American Indian or Alaska Native"}]},{"url":"http://hl7.org/fhir/us/core/StructureDefinition/us-core-ethnicity","extension":[{"url":"ombCategory","valueCoding":{"system":"urn:oid:2.16.840.1.113883.6.238","code":"2135-2","display":"Hispanic or Latino","userSelected":true}},{"url":"text","valueString":"Hispanic or Latino"}]}],"identifier":[{"type":{"coding":[{"system":"http://terminology.hl7.org/CodeSystem/v2-0203","code":"MR"}]},"system":"https://bonnie-fhir.healthit.gov/","value":"633c9d040968f8012250fca8"}],"active":true,"name":[{"use":"usual","family":"DENEXFail","given":["CMOdurED_ED>1hrObs<1hrBFEnc"]}],"gender":"female","birthDate":"1986-09-18"},"request":{"method":"PUT","url":"Patient/cc42fc09-d5ed-4ac5-980e-f16279cf0499"}},{"fullUrl":"https://madie.cms.gov/Condition/ab20742d-d124-45fe-a9c3-21a545d6a75f","resource":{"resourceType":"Condition","id":"ab20742d-d124-45fe-a9c3-21a545d6a75f","meta":{"profile":["http://hl7.org/fhir/us/qicore/StructureDefinition/qicore-condition"]},"clinicalStatus":{"coding":[{"system":"http://terminology.hl7.org/CodeSystem/condition-clinical","code":"inactive"}]},"verificationStatus":{"coding":[{"system":"http://terminology.hl7.org/CodeSystem/condition-ver-status","code":"confirmed"}]},"category":[{"coding":[{"system":"http://terminology.hl7.org/CodeSystem/condition-category","code":"encounter-diagnosis","display":"Encounter Diagnosis"}]}],"code":{"coding":[{"system":"http://hl7.org/fhir/sid/icd-9-cm","code":"427.31"},{"system":"http://hl7.org/fhir/sid/icd-10-cm","code":"I48.0"},{"system":"http://snomed.info/sct","code":"5370000"}]},"subject":{"reference":"Patient/cc42fc09-d5ed-4ac5-980e-f16279cf0499"},"onsetDateTime":"2026-10-01T09:00:00.000Z","abatementDateTime":"2026-10-12T00:15:00.000Z"},"request":{"method":"PUT","url":"Condition/ab20742d-d124-45fe-a9c3-21a545d6a75f"}},{"fullUrl":"https://madie.cms.gov/Encounter/e1432f5c-3ecb-49db-aa30-1cf66aa999b7","resource":{"resourceType":"Encounter","id":"e1432f5c-3ecb-49db-aa30-1cf66aa999b7","meta":{"profile":["http://hl7.org/fhir/us/qicore/StructureDefinition/qicore-encounter"]},"status":"finished","class":{"system":"http://terminology.hl7.org/CodeSystem/v3-ActCode","code":"EMER","display":"emergency"},"type":[{"coding":[{"system":"http://snomed.info/sct","code":"4525004"}]}],"subject":{"reference":"Patient/cc42fc09-d5ed-4ac5-980e-f16279cf0499"},"period":{"start":"2026-09-30T07:59:00.000Z","end":"2026-09-30T08:00:00.000Z"},"length":{"value":0,"unit":"days"}},"request":{"method":"PUT","url":"Encounter/e1432f5c-3ecb-49db-aa30-1cf66aa999b7"}},{"fullUrl":"https://madie.cms.gov/Encounter/f3314290-9f7b-4b68-8032-aeeb749f660f","resource":{"resourceType":"Encounter","id":"f3314290-9f7b-4b68-8032-aeeb749f660f","meta":{"profile":["http://hl7.org/fhir/us/qicore/StructureDefinition/qicore-encounter"]},"status":"finished","class":{"system":"http://terminology.hl7.org/CodeSystem/v3-ActCode","code":"OBSENC","display":"observation encounter"},"type":[{"coding":[{"system":"http://snomed.info/sct","code":"448851000124103"}]}],"subject":{"reference":"Patient/cc42fc09-d5ed-4ac5-980e-f16279cf0499"},"period":{"start":"2026-09-30T09:01:00.000Z","end":"2026-09-30T09:05:00.000Z"},"length":{"value":0,"unit":"days"}},"request":{"method":"PUT","url":"Encounter/f3314290-9f7b-4b68-8032-aeeb749f660f"}},{"fullUrl":"https://madie.cms.gov/Encounter/ffad7233-90aa-4673-9d88-ad69dad76e4f","resource":{"resourceType":"Encounter","id":"ffad7233-90aa-4673-9d88-ad69dad76e4f","meta":{"profile":["http://hl7.org/fhir/us/qicore/StructureDefinition/qicore-encounter"]},"status":"finished","class":{"system":"http://terminology.hl7.org/CodeSystem/v3-ActCode","code":"IMP","display":"inpatient encounter"},"type":[{"coding":[{"system":"http://snomed.info/sct","code":"32485007"}]}],"subject":{"reference":"Patient/cc42fc09-d5ed-4ac5-980e-f16279cf0499"},"period":{"start":"2026-09-30T10:05:00.000Z","end":"2026-10-12T00:15:00.000Z"},"length":{"value":12,"unit":"days"},"diagnosis":[{"condition":{"reference":"Condition/fa7a81fe-df26-4594-a91a-e7d361272f77"},"use":{"coding":[{"system":"http://terminology.hl7.org/CodeSystem/diagnosis-role","code":"billing","display":"Billing"}]},"rank":1}]},"request":{"method":"PUT","url":"Encounter/ffad7233-90aa-4673-9d88-ad69dad76e4f"}},{"fullUrl":"https://madie.cms.gov/ServiceRequest/8826cde3-8374-4658-9823-39c9c3a4c383","resource":{"resourceType":"ServiceRequest","id":"8826cde3-8374-4658-9823-39c9c3a4c383","meta":{"profile":["http://hl7.org/fhir/us/qicore/StructureDefinition/qicore-servicerequest"]},"status":"active","intent":"order","code":{"coding":[{"system":"http://snomed.info/sct","code":"133918004"}]},"subject":{"reference":"Patient/cc42fc09-d5ed-4ac5-980e-f16279cf0499"},"authoredOn":"2026-09-30T08:00:00.000+00:00"},"request":{"method":"PUT","url":"ServiceRequest/8826cde3-8374-4658-9823-39c9c3a4c383"}},{"fullUrl":"https://madie.cms.gov/Coverage/e580042b-94c8-4d60-b46f-55dfbcabdf8a","resource":{"resourceType":"Coverage","id":"e580042b-94c8-4d60-b46f-55dfbcabdf8a","status":"active","beneficiary":{"reference":"Patient/cc42fc09-d5ed-4ac5-980e-f16279cf0499"},"period":{"start":"1986-09-18T08:00:00.000Z"},"payor":[{"reference":"Organization/890316dc-a4ad-43b4-ba6f-9fb9e6eca282"}]},"request":{"method":"PUT","url":"Coverage/e580042b-94c8-4d60-b46f-55dfbcabdf8a"}},{"fullUrl":"https://madie.cms.gov/Condition/fa7a81fe-df26-4594-a91a-e7d361272f77","resource":{"resourceType":"Condition","id":"fa7a81fe-df26-4594-a91a-e7d361272f77","meta":{"profile":["http://hl7.org/fhir/us/qicore/StructureDefinition/qicore-condition"]},"clinicalStatus":{"coding":[{"system":"http://terminology.hl7.org/CodeSystem/condition-clinical","code":"active"}]},"verificationStatus":{"coding":[{"system":"http://terminology.hl7.org/CodeSystem/condition-ver-status","code":"confirmed"}]},"category":[{"coding":[{"system":"http://terminology.hl7.org/CodeSystem/condition-category","code":"encounter-diagnosis","display":"Encounter Diagnosis"}]}],"code":{"coding":[{"system":"http://snomed.info/sct","version":"2021-09","code":"111297002","display":"Nonparalytic stroke (disorder)","userSelected":true}]},"subject":{"reference":"Patient/cc42fc09-d5ed-4ac5-980e-f16279cf0499"},"recordedDate":"2026-10-13T08:00:00.000+00:00"},"request":{"method":"PUT","url":"Condition/fa7a81fe-df26-4594-a91a-e7d361272f77"}},{"fullUrl":"https://madie.cms.gov/Organization/e36236db-dc25-42b1-a33f-f804d2189ea8","resource":{"resourceType":"Organization","id":"890316dc-a4ad-43b4-ba6f-9fb9e6eca282","meta":{"profile":["http://hl7.org/fhir/us/qicore/StructureDefinition/qicore-organization"]},"identifier":[{"use":"temp","system":"urn:oid:2.16.840.1.113883.4.4","value":"21-3259825"}],"active":true,"type":[{"coding":[{"system":"http://terminology.hl7.org/CodeSystem/organization-type","code":"pay","display":"Payer"}]}],"name":"Blue Cross Blue Shield of Texas","telecom":[{"system":"phone","value":"(+1) 972-766-6900"}],"address":[{"use":"billing","type":"postal","line":["P.O. Box 660044"],"city":"Dallas","state":"TX","postalCode":"75266-0044","country":"USA"}]},"request":{"method":"PUT","url":"Organization/890316dc-a4ad-43b4-ba6f-9fb9e6eca282"}},{"fullUrl":"https://madie.cms.gov/Practitioner/cbbbb9a8-ff24-4b56-9a23-71cee14098bb","resource":{"resourceType":"Practitioner","id":"cbbbb9a8-ff24-4b56-9a23-71cee14098bb","identifier":[{"system":"http://hl7.org/fhir/sid/us-npi","value":"123456"}],"name":[{"family":"Evil","prefix":["Dr"]}]},"request":{"method":"PUT","url":"Practitioner/cbbbb9a8-ff24-4b56-9a23-71cee14098bb"}},{"fullUrl":"https://madie.cms.gov/MeasureReport/818c6ae5-a9fe-4f92-9131-62887b67ad9a","resource":{"resourceType":"MeasureReport","id":"818c6ae5-a9fe-4f92-9131-62887b67ad9a","meta":{"profile":["http://hl7.org/fhir/us/cqfmeasures/StructureDefinition/test-case-cqfm"]},"contained":[{"resourceType":"Parameters","id":"da90abd8-8db0-4cd8-ab13-9cd5c371f760-parameters","parameter":[{"name":"subject","valueString":"cc42fc09-d5ed-4ac5-980e-f16279cf0499"}]}],"extension":[{"url":"http://hl7.org/fhir/us/cqfmeasures/StructureDefinition/cqfm-inputParameters","valueReference":{"reference":"#da90abd8-8db0-4cd8-ab13-9cd5c371f760-parameters"}},{"url":"http://hl7.org/fhir/us/cqfmeasures/StructureDefinition/cqfm-testCaseDescription","valueMarkdown":"Patient receives CMO during ED. ED ends 60 min before Obs start and Obs ends 60 min before  inpatient start.  Testing HospitalizationWithObservation function\n"}],"modifierExtension":[{"url":"http://hl7.org/fhir/us/cqfmeasures/StructureDefinition/cqfm-isTestCase","valueBoolean":true}],"status":"complete","type":"individual","measure":"https://madie.cms.gov/Measure/CMS71FHIRSTKAnticoagAFFlutter","period":{"start":"2026-01-01","end":"2026-12-31"},"group":[{"population":[{"code":{"coding":[{"system":"http://terminology.hl7.org/CodeSystem/measure-population","code":"initial-population","display":"Initial Population"}]},"count":1},{"code":{"coding":[{"system":"http://terminology.hl7.org/CodeSystem/measure-population","code":"denominator","display":"Denominator"}]},"count":1},{"code":{"coding":[{"system":"http://terminology.hl7.org/CodeSystem/measure-population","code":"denominator-exclusion","display":"Denominator Exclusion"}]},"count":0},{"code":{"coding":[{"system":"http://terminology.hl7.org/CodeSystem/measure-population","code":"numerator","display":"Numerator"}]},"count":0},{"code":{"coding":[{"system":"http://terminology.hl7.org/CodeSystem/measure-population","code":"denominator-exception","display":"Denominator Exception"}]},"count":0}]}]},"request":{"method":"PUT","url":"MeasureReport/818c6ae5-a9fe-4f92-9131-62887b67ad9a"}}]}