{"resourceType":"Bundle","id":"tests-1a19c21b-41f3-4376-9516-529ad9fb466f-bundle","type":"transaction","entry":[{"fullUrl":"https://madie.cms.gov/Patient/1a19c21b-41f3-4376-9516-529ad9fb466f","resource":{"resourceType":"Patient","id":"1a19c21b-41f3-4376-9516-529ad9fb466f","meta":{"profile":["http://hl7.org/fhir/us/qicore/StructureDefinition/qicore-patient"]},"text":{"status":"generated","div":"<div xmlns=\"http://www.w3.org/1999/xhtml\"><div class=\"hapiHeaderText\">MedDCAnticoaStartTmEQEncDischTm <b>NUMERPASS </b></div><table class=\"hapiPropertyTable\"><tbody><tr><td>Identifier</td><td>9128716b0b21eec571089f9d5d345182</td></tr><tr><td>Date of birth</td><td><span>23 May 1954</span></td></tr></tbody></table></div>"},"extension":[{"url":"http://hl7.org/fhir/us/core/StructureDefinition/us-core-race","extension":[{"url":"ombCategory","valueCoding":{"system":"urn:oid:2.16.840.1.113883.6.238","code":"1002-5","display":"American Indian or Alaska Native","userSelected":true}},{"url":"text","valueString":"American Indian or Alaska Native"}]},{"url":"http://hl7.org/fhir/us/core/StructureDefinition/us-core-ethnicity","extension":[{"url":"ombCategory","valueCoding":{"system":"urn:oid:2.16.840.1.113883.6.238","code":"2135-2","display":"Hispanic or Latino","userSelected":true}},{"url":"text","valueString":"Hispanic or Latino"}]}],"identifier":[{"type":{"coding":[{"system":"http://terminology.hl7.org/CodeSystem/v2-0203","code":"MR"}]},"system":"https://bonnie-fhir.healthit.gov/","value":"633c9d030968f8012250fc9d"}],"active":true,"name":[{"use":"usual","family":"NUMERPass","given":["MedDCAnticoaStartTmEQEncDischTm"]}],"gender":"female","birthDate":"1955-05-23"},"request":{"method":"PUT","url":"Patient/1a19c21b-41f3-4376-9516-529ad9fb466f"}},{"fullUrl":"https://madie.cms.gov/Encounter/35d32d0d-97a0-4b02-8cc3-eccace4e0fd2","resource":{"resourceType":"Encounter","id":"35d32d0d-97a0-4b02-8cc3-eccace4e0fd2","meta":{"profile":["http://hl7.org/fhir/us/qicore/StructureDefinition/qicore-encounter"]},"status":"finished","class":{"system":"http://terminology.hl7.org/CodeSystem/v3-ActCode","code":"IMP","display":"inpatient encounter"},"type":[{"coding":[{"system":"http://snomed.info/sct","code":"32485007"}]}],"subject":{"reference":"Patient/1a19c21b-41f3-4376-9516-529ad9fb466f"},"period":{"start":"2026-11-20T08:00:00.000Z","end":"2026-11-24T08:15:00.000Z"},"length":{"value":4,"unit":"days"},"diagnosis":[{"condition":{"reference":"Condition/c13aa137-c1c8-4a01-8839-fe3f2884a2bf"},"use":{"coding":[{"system":"http://terminology.hl7.org/CodeSystem/diagnosis-role","code":"billing","display":"Billing"}]},"rank":1}]},"request":{"method":"PUT","url":"Encounter/35d32d0d-97a0-4b02-8cc3-eccace4e0fd2"}},{"fullUrl":"https://madie.cms.gov/MedicationRequest/bb60ab5d-8e12-46cf-aee6-a433e87b064a","resource":{"resourceType":"MedicationRequest","id":"bb60ab5d-8e12-46cf-aee6-a433e87b064a","meta":{"profile":["http://hl7.org/fhir/us/qicore/StructureDefinition/qicore-medicationrequest"]},"status":"active","intent":"order","category":[{"coding":[{"system":"http://terminology.hl7.org/CodeSystem/medicationrequest-category","code":"community","display":"Community","userSelected":true}]}],"medicationCodeableConcept":{"coding":[{"system":"http://www.nlm.nih.gov/research/umls/rxnorm","code":"308351"}]},"subject":{"reference":"Patient/1a19c21b-41f3-4376-9516-529ad9fb466f"},"authoredOn":"2026-11-24T08:15:00.000+00:00","requester":{"reference":"Practitioner/example"}},"request":{"method":"PUT","url":"MedicationRequest/bb60ab5d-8e12-46cf-aee6-a433e87b064a"}},{"fullUrl":"https://madie.cms.gov/Coverage/84e21755-e6d3-4b15-922c-300c46b29b94","resource":{"resourceType":"Coverage","id":"84e21755-e6d3-4b15-922c-300c46b29b94","status":"active","beneficiary":{"reference":"Patient/1a19c21b-41f3-4376-9516-529ad9fb466f"},"period":{"start":"1955-05-23T08:00:00.000Z"},"payor":[{"reference":"Organization/880a275e-1cf2-4fb9-869b-f1d2173fdc2b"}]},"request":{"method":"PUT","url":"Coverage/84e21755-e6d3-4b15-922c-300c46b29b94"}},{"fullUrl":"https://madie.cms.gov/Procedure/ee5138f3-b851-48ea-9f1e-9f54e436ffd1","resource":{"resourceType":"Procedure","id":"ee5138f3-b851-48ea-9f1e-9f54e436ffd1","meta":{"profile":["http://hl7.org/fhir/us/qicore/StructureDefinition/qicore-procedure"]},"extension":[{"url":"http://hl7.org/fhir/us/qicore/StructureDefinition/qicore-recorded","valueDateTime":"2026-11-19T09:35:00-04:00"}],"status":"completed","code":{"coding":[{"system":"http://www.cms.gov/Medicare/Coding/ICD10","code":"02560ZZ"},{"system":"http://snomed.info/sct","code":"175095005"}]},"subject":{"reference":"Patient/1a19c21b-41f3-4376-9516-529ad9fb466f"},"performedPeriod":{"start":"2026-11-20T06:00:00.000Z","end":"2026-11-20T07:15:00.000Z"}},"request":{"method":"PUT","url":"Procedure/ee5138f3-b851-48ea-9f1e-9f54e436ffd1"}},{"fullUrl":"https://madie.cms.gov/Condition/c13aa137-c1c8-4a01-8839-fe3f2884a2bf","resource":{"resourceType":"Condition","id":"c13aa137-c1c8-4a01-8839-fe3f2884a2bf","meta":{"profile":["http://hl7.org/fhir/us/qicore/StructureDefinition/qicore-condition"]},"clinicalStatus":{"coding":[{"system":"http://terminology.hl7.org/CodeSystem/condition-clinical","code":"active"}]},"verificationStatus":{"coding":[{"system":"http://terminology.hl7.org/CodeSystem/condition-ver-status","code":"confirmed"}]},"category":[{"coding":[{"system":"http://terminology.hl7.org/CodeSystem/condition-category","code":"encounter-diagnosis","display":"Encounter Diagnosis"}]}],"code":{"coding":[{"system":"http://snomed.info/sct","version":"2021-09","code":"111297002","display":"Nonparalytic stroke (disorder)","userSelected":true}]},"subject":{"reference":"Patient/1a19c21b-41f3-4376-9516-529ad9fb466f"},"recordedDate":"2026-10-13T08:00:00.000+00:00"},"request":{"method":"PUT","url":"Condition/c13aa137-c1c8-4a01-8839-fe3f2884a2bf"}},{"fullUrl":"https://madie.cms.gov/Organization/f9e0688e-cf60-4137-9e36-d451ad832faf","resource":{"resourceType":"Organization","id":"880a275e-1cf2-4fb9-869b-f1d2173fdc2b","meta":{"profile":["http://hl7.org/fhir/us/qicore/StructureDefinition/qicore-organization"]},"identifier":[{"use":"temp","system":"urn:oid:2.16.840.1.113883.4.4","value":"21-3259825"}],"active":true,"type":[{"coding":[{"system":"http://terminology.hl7.org/CodeSystem/organization-type","code":"pay","display":"Payer"}]}],"name":"Blue Cross Blue Shield of Texas","telecom":[{"system":"phone","value":"(+1) 972-766-6900"}],"address":[{"use":"billing","type":"postal","line":["P.O. Box 660044"],"city":"Dallas","state":"TX","postalCode":"75266-0044","country":"USA"}]},"request":{"method":"PUT","url":"Organization/880a275e-1cf2-4fb9-869b-f1d2173fdc2b"}},{"fullUrl":"https://madie.cms.gov/Practitioner/fe4f2181-3652-40ba-bfbe-abcfee4c9b16","resource":{"resourceType":"Practitioner","id":"fe4f2181-3652-40ba-bfbe-abcfee4c9b16","identifier":[{"system":"http://hl7.org/fhir/sid/us-npi","value":"123456"}],"name":[{"family":"Evil","prefix":["Dr"]}]},"request":{"method":"PUT","url":"Practitioner/fe4f2181-3652-40ba-bfbe-abcfee4c9b16"}},{"fullUrl":"https://madie.cms.gov/MeasureReport/140813c2-c6fa-4a38-ab40-8f9910f224cd","resource":{"resourceType":"MeasureReport","id":"140813c2-c6fa-4a38-ab40-8f9910f224cd","meta":{"profile":["http://hl7.org/fhir/us/cqfmeasures/StructureDefinition/test-case-cqfm"]},"contained":[{"resourceType":"Parameters","id":"2e59f18b-6d35-478c-81ee-026239076db1-parameters","parameter":[{"name":"subject","valueString":"1a19c21b-41f3-4376-9516-529ad9fb466f"}]}],"extension":[{"url":"http://hl7.org/fhir/us/cqfmeasures/StructureDefinition/cqfm-inputParameters","valueReference":{"reference":"#2e59f18b-6d35-478c-81ee-026239076db1-parameters"}},{"url":"http://hl7.org/fhir/us/cqfmeasures/StructureDefinition/cqfm-testCaseDescription","valueMarkdown":"Pt. discharged on anticoagulant, starts time = OccurA discharge time\n"}],"modifierExtension":[{"url":"http://hl7.org/fhir/us/cqfmeasures/StructureDefinition/cqfm-isTestCase","valueBoolean":true}],"status":"complete","type":"individual","measure":"https://madie.cms.gov/Measure/CMS71FHIRSTKAnticoagAFFlutter","period":{"start":"2026-01-01","end":"2026-12-31"},"group":[{"population":[{"code":{"coding":[{"system":"http://terminology.hl7.org/CodeSystem/measure-population","code":"initial-population","display":"Initial Population"}]},"count":1},{"code":{"coding":[{"system":"http://terminology.hl7.org/CodeSystem/measure-population","code":"denominator","display":"Denominator"}]},"count":1},{"code":{"coding":[{"system":"http://terminology.hl7.org/CodeSystem/measure-population","code":"denominator-exclusion","display":"Denominator Exclusion"}]},"count":0},{"code":{"coding":[{"system":"http://terminology.hl7.org/CodeSystem/measure-population","code":"numerator","display":"Numerator"}]},"count":1},{"code":{"coding":[{"system":"http://terminology.hl7.org/CodeSystem/measure-population","code":"denominator-exception","display":"Denominator Exception"}]},"count":0}]}]},"request":{"method":"PUT","url":"MeasureReport/140813c2-c6fa-4a38-ab40-8f9910f224cd"}}]}