{"resourceType":"Bundle","id":"tests-0fc5a0c1-02c0-4427-87d8-2e58f4be7b07-bundle","type":"transaction","entry":[{"fullUrl":"https://madie.cms.gov/Patient/0fc5a0c1-02c0-4427-87d8-2e58f4be7b07","resource":{"resourceType":"Patient","id":"0fc5a0c1-02c0-4427-87d8-2e58f4be7b07","meta":{"profile":["http://hl7.org/fhir/us/qicore/StructureDefinition/qicore-patient"]},"text":{"status":"generated","div":"<div xmlns=\"http://www.w3.org/1999/xhtml\"><div class=\"hapiHeaderText\">Age&lt;18 <b>IPPFAIL </b></div><table class=\"hapiPropertyTable\"><tbody><tr><td>Identifier</td><td>ca0f0d86cef05422cfb8f64b99a26e8f</td></tr><tr><td>Date of birth</td><td><span>09 February 1994</span></td></tr></tbody></table></div>"},"extension":[{"url":"http://hl7.org/fhir/us/core/StructureDefinition/us-core-race","extension":[{"url":"ombCategory","valueCoding":{"system":"urn:oid:2.16.840.1.113883.6.238","code":"1002-5","display":"American Indian or Alaska Native","userSelected":true}},{"url":"text","valueString":"American Indian or Alaska Native"}]},{"url":"http://hl7.org/fhir/us/core/StructureDefinition/us-core-ethnicity","extension":[{"url":"ombCategory","valueCoding":{"system":"urn:oid:2.16.840.1.113883.6.238","code":"2135-2","display":"Hispanic or Latino","userSelected":true}},{"url":"text","valueString":"Hispanic or Latino"}]}],"identifier":[{"type":{"coding":[{"system":"http://terminology.hl7.org/CodeSystem/v2-0203","code":"MR"}]},"system":"https://bonnie-fhir.healthit.gov/","value":"633c9d030968f8012250fc70"}],"active":true,"name":[{"use":"usual","family":"IPPFail","given":["Age<18"]}],"gender":"male","birthDate":"2008-02-09"},"request":{"method":"PUT","url":"Patient/0fc5a0c1-02c0-4427-87d8-2e58f4be7b07"}},{"fullUrl":"https://madie.cms.gov/Encounter/e30fc3e0-1746-49f1-b0eb-3121f09ce5b9","resource":{"resourceType":"Encounter","id":"e30fc3e0-1746-49f1-b0eb-3121f09ce5b9","meta":{"profile":["http://hl7.org/fhir/us/qicore/StructureDefinition/qicore-encounter"]},"status":"finished","class":{"system":"http://terminology.hl7.org/CodeSystem/v3-ActCode","code":"IMP","display":"inpatient encounter"},"type":[{"coding":[{"system":"http://snomed.info/sct","code":"32485007"}]}],"subject":{"reference":"Patient/0fc5a0c1-02c0-4427-87d8-2e58f4be7b07"},"period":{"start":"2026-02-08T08:00:00.000Z","end":"2026-02-10T08:15:00.000Z"},"length":{"value":2,"unit":"days"},"diagnosis":[{"condition":{"reference":"Condition/d3552e1e-fef5-4e74-b7d4-75eb89ed47d3"},"rank":1}]},"request":{"method":"PUT","url":"Encounter/e30fc3e0-1746-49f1-b0eb-3121f09ce5b9"}},{"fullUrl":"https://madie.cms.gov/Coverage/a0376c0b-7d9b-4893-9d8d-5b795d3619f5","resource":{"resourceType":"Coverage","id":"a0376c0b-7d9b-4893-9d8d-5b795d3619f5","status":"active","beneficiary":{"reference":"Patient/0fc5a0c1-02c0-4427-87d8-2e58f4be7b07"},"period":{"start":"1995-02-09T08:00:00.000Z"},"payor":[{"reference":"Organization/80e3e0d1-b2aa-43a6-b1d2-00bfa3164a0f"}]},"request":{"method":"PUT","url":"Coverage/a0376c0b-7d9b-4893-9d8d-5b795d3619f5"}},{"fullUrl":"https://madie.cms.gov/Condition/d3552e1e-fef5-4e74-b7d4-75eb89ed47d3","resource":{"resourceType":"Condition","id":"d3552e1e-fef5-4e74-b7d4-75eb89ed47d3","meta":{"profile":["http://hl7.org/fhir/us/qicore/StructureDefinition/qicore-condition"]},"clinicalStatus":{"coding":[{"system":"http://terminology.hl7.org/CodeSystem/condition-clinical","code":"active"}]},"verificationStatus":{"coding":[{"system":"http://terminology.hl7.org/CodeSystem/condition-ver-status","code":"confirmed"}]},"category":[{"coding":[{"system":"http://terminology.hl7.org/CodeSystem/condition-category","code":"encounter-diagnosis","display":"Encounter Diagnosis"}]}],"code":{"coding":[{"system":"http://snomed.info/sct","version":"2021-09","code":"111297002","display":"Nonparalytic stroke (disorder)","userSelected":true}]},"subject":{"reference":"Patient/0fc5a0c1-02c0-4427-87d8-2e58f4be7b07"},"recordedDate":"2026-10-13T08:00:00.000+00:00"},"request":{"method":"PUT","url":"Condition/d3552e1e-fef5-4e74-b7d4-75eb89ed47d3"}},{"fullUrl":"https://madie.cms.gov/Organization/1b432536-438b-45e1-9532-1f69df4e5b46","resource":{"resourceType":"Organization","id":"80e3e0d1-b2aa-43a6-b1d2-00bfa3164a0f","meta":{"profile":["http://hl7.org/fhir/us/qicore/StructureDefinition/qicore-organization"]},"identifier":[{"use":"temp","system":"urn:oid:2.16.840.1.113883.4.4","value":"21-3259825"}],"active":true,"type":[{"coding":[{"system":"http://terminology.hl7.org/CodeSystem/organization-type","code":"pay","display":"Payer"}]}],"name":"Blue Cross Blue Shield of Texas","telecom":[{"system":"phone","value":"(+1) 972-766-6900"}],"address":[{"use":"billing","type":"postal","line":["P.O. Box 660044"],"city":"Dallas","state":"TX","postalCode":"75266-0044","country":"USA"}]},"request":{"method":"PUT","url":"Organization/80e3e0d1-b2aa-43a6-b1d2-00bfa3164a0f"}},{"fullUrl":"https://madie.cms.gov/Practitioner/24a3a5d8-9e12-45e6-9028-8262c6e6777f","resource":{"resourceType":"Practitioner","id":"24a3a5d8-9e12-45e6-9028-8262c6e6777f","identifier":[{"system":"http://hl7.org/fhir/sid/us-npi","value":"123456"}],"name":[{"family":"Evil","prefix":["Dr"]}]},"request":{"method":"PUT","url":"Practitioner/24a3a5d8-9e12-45e6-9028-8262c6e6777f"}},{"fullUrl":"https://madie.cms.gov/MeasureReport/6e82b934-0d55-466f-ad81-609a0bddcb3c","resource":{"resourceType":"MeasureReport","id":"6e82b934-0d55-466f-ad81-609a0bddcb3c","meta":{"profile":["http://hl7.org/fhir/us/cqfmeasures/StructureDefinition/test-case-cqfm"]},"contained":[{"resourceType":"Parameters","id":"52e5a058-9874-4b66-9d05-1aaf99eac258-parameters","parameter":[{"name":"subject","valueString":"0fc5a0c1-02c0-4427-87d8-2e58f4be7b07"}]}],"extension":[{"url":"http://hl7.org/fhir/us/cqfmeasures/StructureDefinition/cqfm-inputParameters","valueReference":{"reference":"#52e5a058-9874-4b66-9d05-1aaf99eac258-parameters"}},{"url":"http://hl7.org/fhir/us/cqfmeasures/StructureDefinition/cqfm-testCaseDescription","valueMarkdown":"Principal diagnosis = ischemic stroke, patient turns 18 one day after OccurA starts\n"}],"modifierExtension":[{"url":"http://hl7.org/fhir/us/cqfmeasures/StructureDefinition/cqfm-isTestCase","valueBoolean":true}],"status":"complete","type":"individual","measure":"https://madie.cms.gov/Measure/CMS71FHIRSTKAnticoagAFFlutter","period":{"start":"2026-01-01","end":"2026-12-31"},"group":[{"population":[{"code":{"coding":[{"system":"http://terminology.hl7.org/CodeSystem/measure-population","code":"initial-population","display":"Initial Population"}]},"count":0},{"code":{"coding":[{"system":"http://terminology.hl7.org/CodeSystem/measure-population","code":"denominator","display":"Denominator"}]},"count":0},{"code":{"coding":[{"system":"http://terminology.hl7.org/CodeSystem/measure-population","code":"denominator-exclusion","display":"Denominator Exclusion"}]},"count":0},{"code":{"coding":[{"system":"http://terminology.hl7.org/CodeSystem/measure-population","code":"numerator","display":"Numerator"}]},"count":0},{"code":{"coding":[{"system":"http://terminology.hl7.org/CodeSystem/measure-population","code":"denominator-exception","display":"Denominator Exception"}]},"count":0}]}]},"request":{"method":"PUT","url":"MeasureReport/6e82b934-0d55-466f-ad81-609a0bddcb3c"}}]}