{"resourceType":"Bundle","id":"tests-f0de258a-3358-4f1d-a91d-e1c57a2cb61a-bundle","type":"transaction","entry":[{"fullUrl":"https://madie.cms.gov/Patient/f0de258a-3358-4f1d-a91d-e1c57a2cb61a","resource":{"resourceType":"Patient","id":"f0de258a-3358-4f1d-a91d-e1c57a2cb61a","meta":{"profile":["http://hl7.org/fhir/us/qicore/StructureDefinition/qicore-patient"]},"text":{"status":"generated","div":"<div xmlns=\"http://www.w3.org/1999/xhtml\"><div class=\"hapiHeaderText\">Dx=Afib/flutterStart=EncEnd <b>DENOMPASS </b></div><table class=\"hapiPropertyTable\"><tbody><tr><td>Identifier</td><td>eea63111353acebe4dc924bd86a7bec7</td></tr><tr><td>Date of birth</td><td><span>01 December 1960</span></td></tr></tbody></table></div>"},"extension":[{"url":"http://hl7.org/fhir/us/core/StructureDefinition/us-core-race","extension":[{"url":"ombCategory","valueCoding":{"system":"urn:oid:2.16.840.1.113883.6.238","code":"1002-5","display":"American Indian or Alaska Native","userSelected":true}},{"url":"text","valueString":"American Indian or Alaska Native"}]},{"url":"http://hl7.org/fhir/us/core/StructureDefinition/us-core-ethnicity","extension":[{"url":"ombCategory","valueCoding":{"system":"urn:oid:2.16.840.1.113883.6.238","code":"2135-2","display":"Hispanic or Latino","userSelected":true}},{"url":"text","valueString":"Hispanic or Latino"}]}],"identifier":[{"type":{"coding":[{"system":"http://terminology.hl7.org/CodeSystem/v2-0203","code":"MR"}]},"system":"https://bonnie-fhir.healthit.gov/","value":"633c9d030968f8012250fc99"}],"active":true,"name":[{"use":"usual","family":"DENOMPass","given":["Dx=Afib/flutterStart=EncEnd "]}],"gender":"male","birthDate":"1961-12-01"},"request":{"method":"PUT","url":"Patient/f0de258a-3358-4f1d-a91d-e1c57a2cb61a"}},{"fullUrl":"https://madie.cms.gov/Condition/f7696a7b-d7d0-4b8e-8b2a-735071b1b661","resource":{"resourceType":"Condition","id":"f7696a7b-d7d0-4b8e-8b2a-735071b1b661","meta":{"profile":["http://hl7.org/fhir/us/qicore/StructureDefinition/qicore-condition"]},"clinicalStatus":{"coding":[{"system":"http://terminology.hl7.org/CodeSystem/condition-clinical","code":"active"}]},"verificationStatus":{"coding":[{"system":"http://terminology.hl7.org/CodeSystem/condition-ver-status","code":"confirmed"}]},"category":[{"coding":[{"system":"http://terminology.hl7.org/CodeSystem/condition-category","code":"encounter-diagnosis","display":"Encounter Diagnosis"}]}],"code":{"coding":[{"system":"http://snomed.info/sct","code":"195080001"},{"system":"http://hl7.org/fhir/sid/icd-9-cm","code":"427.31"},{"system":"http://hl7.org/fhir/sid/icd-10-cm","code":"I48.0"}]},"subject":{"reference":"Patient/f0de258a-3358-4f1d-a91d-e1c57a2cb61a"},"onsetDateTime":"2026-02-10T08:15:00.000Z"},"request":{"method":"PUT","url":"Condition/f7696a7b-d7d0-4b8e-8b2a-735071b1b661"}},{"fullUrl":"https://madie.cms.gov/Encounter/d4d987a4-b165-4a34-b973-3bb65366ce4b","resource":{"resourceType":"Encounter","id":"d4d987a4-b165-4a34-b973-3bb65366ce4b","meta":{"profile":["http://hl7.org/fhir/us/qicore/StructureDefinition/qicore-encounter"]},"status":"finished","class":{"system":"http://terminology.hl7.org/CodeSystem/v3-ActCode","code":"IMP","display":"inpatient encounter"},"type":[{"coding":[{"system":"http://snomed.info/sct","code":"183452005"}]}],"subject":{"reference":"Patient/f0de258a-3358-4f1d-a91d-e1c57a2cb61a"},"period":{"start":"2026-02-08T08:00:00.000Z","end":"2026-02-10T08:15:00.000Z"},"length":{"value":2,"unit":"days"},"diagnosis":[{"condition":{"reference":"Condition/5163fb3d-439b-484c-9ca1-e1e002546b58"},"use":{"coding":[{"system":"http://terminology.hl7.org/CodeSystem/diagnosis-role","code":"billing","display":"Billing"}]},"rank":1}]},"request":{"method":"PUT","url":"Encounter/d4d987a4-b165-4a34-b973-3bb65366ce4b"}},{"fullUrl":"https://madie.cms.gov/Coverage/91108290-45db-4f68-99e8-8c9e495a235c","resource":{"resourceType":"Coverage","id":"91108290-45db-4f68-99e8-8c9e495a235c","status":"active","beneficiary":{"reference":"Patient/f0de258a-3358-4f1d-a91d-e1c57a2cb61a"},"period":{"start":"1961-12-01T08:00:00.000Z"},"payor":[{"reference":"Organization/607fdef9-3983-4cef-ab1a-95434d29b463"}]},"request":{"method":"PUT","url":"Coverage/91108290-45db-4f68-99e8-8c9e495a235c"}},{"fullUrl":"https://madie.cms.gov/Condition/5163fb3d-439b-484c-9ca1-e1e002546b58","resource":{"resourceType":"Condition","id":"5163fb3d-439b-484c-9ca1-e1e002546b58","meta":{"profile":["http://hl7.org/fhir/us/qicore/StructureDefinition/qicore-condition"]},"clinicalStatus":{"coding":[{"system":"http://terminology.hl7.org/CodeSystem/condition-clinical","code":"active"}]},"verificationStatus":{"coding":[{"system":"http://terminology.hl7.org/CodeSystem/condition-ver-status","code":"confirmed"}]},"category":[{"coding":[{"system":"http://terminology.hl7.org/CodeSystem/condition-category","code":"encounter-diagnosis","display":"Encounter Diagnosis"}]}],"code":{"coding":[{"system":"http://snomed.info/sct","version":"2021-09","code":"111297002","display":"Nonparalytic stroke (disorder)","userSelected":true}]},"subject":{"reference":"Patient/f0de258a-3358-4f1d-a91d-e1c57a2cb61a"},"recordedDate":"2026-10-13T08:00:00.000+00:00"},"request":{"method":"PUT","url":"Condition/5163fb3d-439b-484c-9ca1-e1e002546b58"}},{"fullUrl":"https://madie.cms.gov/Organization/ea8b5c2a-f683-4536-8d21-2d3a10d300ee","resource":{"resourceType":"Organization","id":"607fdef9-3983-4cef-ab1a-95434d29b463","meta":{"profile":["http://hl7.org/fhir/us/qicore/StructureDefinition/qicore-organization"]},"identifier":[{"use":"temp","system":"urn:oid:2.16.840.1.113883.4.4","value":"21-3259825"}],"active":true,"type":[{"coding":[{"system":"http://terminology.hl7.org/CodeSystem/organization-type","code":"pay","display":"Payer"}]}],"name":"Blue Cross Blue Shield of Texas","telecom":[{"system":"phone","value":"(+1) 972-766-6900"}],"address":[{"use":"billing","type":"postal","line":["P.O. Box 660044"],"city":"Dallas","state":"TX","postalCode":"75266-0044","country":"USA"}]},"request":{"method":"PUT","url":"Organization/607fdef9-3983-4cef-ab1a-95434d29b463"}},{"fullUrl":"https://madie.cms.gov/Practitioner/038ef6fb-45c5-43a2-bcbf-e5f0287103b0","resource":{"resourceType":"Practitioner","id":"038ef6fb-45c5-43a2-bcbf-e5f0287103b0","identifier":[{"system":"http://hl7.org/fhir/sid/us-npi","value":"123456"}],"name":[{"family":"Evil","prefix":["Dr"]}]},"request":{"method":"PUT","url":"Practitioner/038ef6fb-45c5-43a2-bcbf-e5f0287103b0"}},{"fullUrl":"https://madie.cms.gov/MeasureReport/7616eb4a-e2a4-456a-944e-2f7aa182f18a","resource":{"resourceType":"MeasureReport","id":"7616eb4a-e2a4-456a-944e-2f7aa182f18a","meta":{"profile":["http://hl7.org/fhir/us/cqfmeasures/StructureDefinition/test-case-cqfm"]},"contained":[{"resourceType":"Parameters","id":"764789fb-b3f3-41a6-89e0-76680cc11629-parameters","parameter":[{"name":"subject","valueString":"f0de258a-3358-4f1d-a91d-e1c57a2cb61a"}]}],"extension":[{"url":"http://hl7.org/fhir/us/cqfmeasures/StructureDefinition/cqfm-inputParameters","valueReference":{"reference":"#764789fb-b3f3-41a6-89e0-76680cc11629-parameters"}},{"url":"http://hl7.org/fhir/us/cqfmeasures/StructureDefinition/cqfm-testCaseDescription","valueMarkdown":"with active flutter and abatement time removed"}],"modifierExtension":[{"url":"http://hl7.org/fhir/us/cqfmeasures/StructureDefinition/cqfm-isTestCase","valueBoolean":true}],"status":"complete","type":"individual","measure":"https://madie.cms.gov/Measure/CMS71FHIRSTKAnticoagAFFlutter","period":{"start":"2026-01-01","end":"2026-12-31"},"group":[{"population":[{"code":{"coding":[{"system":"http://terminology.hl7.org/CodeSystem/measure-population","code":"initial-population","display":"Initial Population"}]},"count":1},{"code":{"coding":[{"system":"http://terminology.hl7.org/CodeSystem/measure-population","code":"denominator","display":"Denominator"}]},"count":1},{"code":{"coding":[{"system":"http://terminology.hl7.org/CodeSystem/measure-population","code":"denominator-exclusion","display":"Denominator Exclusion"}]},"count":0},{"code":{"coding":[{"system":"http://terminology.hl7.org/CodeSystem/measure-population","code":"numerator","display":"Numerator"}]},"count":0},{"code":{"coding":[{"system":"http://terminology.hl7.org/CodeSystem/measure-population","code":"denominator-exception","display":"Denominator Exception"}]},"count":0}]}]},"request":{"method":"PUT","url":"MeasureReport/7616eb4a-e2a4-456a-944e-2f7aa182f18a"}}]}