{"resourceType":"Bundle","id":"tests-8646b35e-68e3-4932-ae69-0bd7fb4e7a27-bundle","type":"transaction","entry":[{"fullUrl":"https://madie.cms.gov/Patient/8646b35e-68e3-4932-ae69-0bd7fb4e7a27","resource":{"resourceType":"Patient","id":"8646b35e-68e3-4932-ae69-0bd7fb4e7a27","meta":{"profile":["http://hl7.org/fhir/us/qicore/StructureDefinition/qicore-patient"]},"text":{"status":"generated","div":"<div xmlns=\"http://www.w3.org/1999/xhtml\"><div class=\"hapiHeaderText\">MedDCAnticoaStartsLT_EncStart <b>NUMERFAIL </b></div><table class=\"hapiPropertyTable\"><tbody><tr><td>Identifier</td><td>f98585d469325120c7402b7bc8149691</td></tr><tr><td>Date of birth</td><td><span>23 May 1954</span></td></tr></tbody></table></div>"},"extension":[{"url":"http://hl7.org/fhir/us/core/StructureDefinition/us-core-race","extension":[{"url":"ombCategory","valueCoding":{"system":"urn:oid:2.16.840.1.113883.6.238","code":"1002-5","display":"American Indian or Alaska Native","userSelected":true}},{"url":"text","valueString":"American Indian or Alaska Native"}]},{"url":"http://hl7.org/fhir/us/core/StructureDefinition/us-core-ethnicity","extension":[{"url":"ombCategory","valueCoding":{"system":"urn:oid:2.16.840.1.113883.6.238","code":"2135-2","display":"Hispanic or Latino","userSelected":true}},{"url":"text","valueString":"Hispanic or Latino"}]}],"identifier":[{"type":{"coding":[{"system":"http://terminology.hl7.org/CodeSystem/v2-0203","code":"MR"}]},"system":"https://bonnie-fhir.healthit.gov/","value":"633c9d030968f8012250fc8b"}],"active":true,"name":[{"use":"usual","family":"NUMERFail","given":["MedDCAnticoaStartsLT_EncStart"]}],"gender":"female","birthDate":"1955-05-23"},"request":{"method":"PUT","url":"Patient/8646b35e-68e3-4932-ae69-0bd7fb4e7a27"}},{"fullUrl":"https://madie.cms.gov/Encounter/b8917501-a92e-40b1-9e9b-415f8b65f667","resource":{"resourceType":"Encounter","id":"b8917501-a92e-40b1-9e9b-415f8b65f667","meta":{"profile":["http://hl7.org/fhir/us/qicore/StructureDefinition/qicore-encounter"]},"status":"finished","class":{"system":"http://terminology.hl7.org/CodeSystem/v3-ActCode","code":"IMP","display":"inpatient encounter"},"type":[{"coding":[{"system":"http://snomed.info/sct","code":"32485007"}]}],"subject":{"reference":"Patient/8646b35e-68e3-4932-ae69-0bd7fb4e7a27"},"period":{"start":"2026-11-20T08:00:00.000Z","end":"2026-11-24T08:15:00.000Z"},"length":{"value":4,"unit":"days"},"diagnosis":[{"condition":{"reference":"Condition/2ceed0e7-6bbb-44b3-bc36-f8e4f52dadb1"},"use":{"coding":[{"system":"http://terminology.hl7.org/CodeSystem/diagnosis-role","code":"billing","display":"Billing"}]},"rank":1}]},"request":{"method":"PUT","url":"Encounter/b8917501-a92e-40b1-9e9b-415f8b65f667"}},{"fullUrl":"https://madie.cms.gov/MedicationRequest/021b0218-93cd-4303-b41b-717abfe14fc0","resource":{"resourceType":"MedicationRequest","id":"021b0218-93cd-4303-b41b-717abfe14fc0","meta":{"profile":["http://hl7.org/fhir/us/qicore/StructureDefinition/qicore-medicationrequest"]},"status":"active","intent":"order","medicationCodeableConcept":{"coding":[{"system":"http://www.nlm.nih.gov/research/umls/rxnorm","code":"1037045"}]},"subject":{"reference":"Patient/8646b35e-68e3-4932-ae69-0bd7fb4e7a27"},"authoredOn":"2026-11-20T07:59:00.000+00:00","requester":{"reference":"Practitioner/example"}},"request":{"method":"PUT","url":"MedicationRequest/021b0218-93cd-4303-b41b-717abfe14fc0"}},{"fullUrl":"https://madie.cms.gov/Coverage/f615e0ab-2131-43ea-83fe-c9a28eb62b6d","resource":{"resourceType":"Coverage","id":"f615e0ab-2131-43ea-83fe-c9a28eb62b6d","status":"active","beneficiary":{"reference":"Patient/8646b35e-68e3-4932-ae69-0bd7fb4e7a27"},"period":{"start":"1955-05-23T08:00:00.000Z"},"payor":[{"reference":"Organization/e75793c9-fdf6-463a-8c1d-4ee44320dc25"}]},"request":{"method":"PUT","url":"Coverage/f615e0ab-2131-43ea-83fe-c9a28eb62b6d"}},{"fullUrl":"https://madie.cms.gov/Procedure/a03afebe-4509-444c-8b79-8e649e637ed8","resource":{"resourceType":"Procedure","id":"a03afebe-4509-444c-8b79-8e649e637ed8","meta":{"profile":["http://hl7.org/fhir/us/qicore/StructureDefinition/qicore-procedure"]},"extension":[{"url":"http://hl7.org/fhir/us/qicore/StructureDefinition/qicore-recorded","valueDateTime":"2026-11-19T09:35:00-04:00"}],"status":"completed","code":{"coding":[{"system":"http://www.cms.gov/Medicare/Coding/ICD10","code":"02560ZZ"},{"system":"http://snomed.info/sct","code":"175095005"}]},"subject":{"reference":"Patient/8646b35e-68e3-4932-ae69-0bd7fb4e7a27"},"performedPeriod":{"start":"2026-11-20T06:00:00.000Z","end":"2026-11-20T07:15:00.000Z"}},"request":{"method":"PUT","url":"Procedure/a03afebe-4509-444c-8b79-8e649e637ed8"}},{"fullUrl":"https://madie.cms.gov/Condition/2ceed0e7-6bbb-44b3-bc36-f8e4f52dadb1","resource":{"resourceType":"Condition","id":"2ceed0e7-6bbb-44b3-bc36-f8e4f52dadb1","meta":{"profile":["http://hl7.org/fhir/us/qicore/StructureDefinition/qicore-condition"]},"clinicalStatus":{"coding":[{"system":"http://terminology.hl7.org/CodeSystem/condition-clinical","code":"active"}]},"verificationStatus":{"coding":[{"system":"http://terminology.hl7.org/CodeSystem/condition-ver-status","code":"confirmed"}]},"category":[{"coding":[{"system":"http://terminology.hl7.org/CodeSystem/condition-category","code":"encounter-diagnosis","display":"Encounter Diagnosis"}]}],"code":{"coding":[{"system":"http://snomed.info/sct","version":"2021-09","code":"111297002","display":"Nonparalytic stroke (disorder)","userSelected":true}]},"subject":{"reference":"Patient/8646b35e-68e3-4932-ae69-0bd7fb4e7a27"},"recordedDate":"2026-10-13T08:00:00.000+00:00"},"request":{"method":"PUT","url":"Condition/2ceed0e7-6bbb-44b3-bc36-f8e4f52dadb1"}},{"fullUrl":"https://madie.cms.gov/Organization/afd66544-f07b-48ec-a784-815e01b01e19","resource":{"resourceType":"Organization","id":"e75793c9-fdf6-463a-8c1d-4ee44320dc25","meta":{"profile":["http://hl7.org/fhir/us/qicore/StructureDefinition/qicore-organization"]},"identifier":[{"use":"temp","system":"urn:oid:2.16.840.1.113883.4.4","value":"21-3259825"}],"active":true,"type":[{"coding":[{"system":"http://terminology.hl7.org/CodeSystem/organization-type","code":"pay","display":"Payer"}]}],"name":"Blue Cross Blue Shield of Texas","telecom":[{"system":"phone","value":"(+1) 972-766-6900"}],"address":[{"use":"billing","type":"postal","line":["P.O. Box 660044"],"city":"Dallas","state":"TX","postalCode":"75266-0044","country":"USA"}]},"request":{"method":"PUT","url":"Organization/e75793c9-fdf6-463a-8c1d-4ee44320dc25"}},{"fullUrl":"https://madie.cms.gov/Practitioner/7d528cc7-062d-4af1-8f09-86cfffaf6634","resource":{"resourceType":"Practitioner","id":"7d528cc7-062d-4af1-8f09-86cfffaf6634","identifier":[{"system":"http://hl7.org/fhir/sid/us-npi","value":"123456"}],"name":[{"family":"Evil","prefix":["Dr"]}]},"request":{"method":"PUT","url":"Practitioner/7d528cc7-062d-4af1-8f09-86cfffaf6634"}},{"fullUrl":"https://madie.cms.gov/MeasureReport/8129cfb5-0e75-4243-9a1b-4c24109b73c1","resource":{"resourceType":"MeasureReport","id":"8129cfb5-0e75-4243-9a1b-4c24109b73c1","meta":{"profile":["http://hl7.org/fhir/us/cqfmeasures/StructureDefinition/test-case-cqfm"]},"contained":[{"resourceType":"Parameters","id":"703182e0-b9dc-4fce-a808-f699d3a73617-parameters","parameter":[{"name":"subject","valueString":"8646b35e-68e3-4932-ae69-0bd7fb4e7a27"}]}],"extension":[{"url":"http://hl7.org/fhir/us/cqfmeasures/StructureDefinition/cqfm-inputParameters","valueReference":{"reference":"#703182e0-b9dc-4fce-a808-f699d3a73617-parameters"}},{"url":"http://hl7.org/fhir/us/cqfmeasures/StructureDefinition/cqfm-testCaseDescription","valueMarkdown":"Pt. discharged on anticoagulant, starts before OccurA\n"}],"modifierExtension":[{"url":"http://hl7.org/fhir/us/cqfmeasures/StructureDefinition/cqfm-isTestCase","valueBoolean":true}],"status":"complete","type":"individual","measure":"https://madie.cms.gov/Measure/CMS71FHIRSTKAnticoagAFFlutter","period":{"start":"2026-01-01","end":"2026-12-31"},"group":[{"population":[{"code":{"coding":[{"system":"http://terminology.hl7.org/CodeSystem/measure-population","code":"initial-population","display":"Initial Population"}]},"count":1},{"code":{"coding":[{"system":"http://terminology.hl7.org/CodeSystem/measure-population","code":"denominator","display":"Denominator"}]},"count":1},{"code":{"coding":[{"system":"http://terminology.hl7.org/CodeSystem/measure-population","code":"denominator-exclusion","display":"Denominator Exclusion"}]},"count":0},{"code":{"coding":[{"system":"http://terminology.hl7.org/CodeSystem/measure-population","code":"numerator","display":"Numerator"}]},"count":0},{"code":{"coding":[{"system":"http://terminology.hl7.org/CodeSystem/measure-population","code":"denominator-exception","display":"Denominator Exception"}]},"count":0}]}]},"request":{"method":"PUT","url":"MeasureReport/8129cfb5-0e75-4243-9a1b-4c24109b73c1"}}]}