{"resourceType":"Bundle","id":"tests-1dbcccc2-895d-46a7-b28a-bf936fc7978a-bundle","type":"transaction","entry":[{"fullUrl":"https://madie.cms.gov/Patient/1dbcccc2-895d-46a7-b28a-bf936fc7978a","resource":{"resourceType":"Patient","id":"1dbcccc2-895d-46a7-b28a-bf936fc7978a","meta":{"profile":["http://hl7.org/fhir/us/qicore/StructureDefinition/qicore-patient"]},"text":{"status":"generated","div":"<div xmlns=\"http://www.w3.org/1999/xhtml\"><div class=\"hapiHeaderText\">ProcAtrialAblEncStartRelePer <b>DENOMFAIL </b></div><table class=\"hapiPropertyTable\"><tbody><tr><td>Identifier</td><td>1ebc7a8ec0c65913b7018969c7b50ead</td></tr><tr><td>Date of birth</td><td><span>01 December 1960</span></td></tr></tbody></table></div>"},"extension":[{"url":"http://hl7.org/fhir/us/core/StructureDefinition/us-core-race","extension":[{"url":"ombCategory","valueCoding":{"system":"urn:oid:2.16.840.1.113883.6.238","code":"1002-5","display":"American Indian or Alaska Native","userSelected":true}},{"url":"text","valueString":"American Indian or Alaska Native"}]},{"url":"http://hl7.org/fhir/us/core/StructureDefinition/us-core-ethnicity","extension":[{"url":"ombCategory","valueCoding":{"system":"urn:oid:2.16.840.1.113883.6.238","code":"2135-2","display":"Hispanic or Latino","userSelected":true}},{"url":"text","valueString":"Hispanic or Latino"}]}],"identifier":[{"type":{"coding":[{"system":"http://terminology.hl7.org/CodeSystem/v2-0203","code":"MR"}]},"system":"https://bonnie-fhir.healthit.gov/","value":"633c9d030968f8012250fc79"}],"active":true,"name":[{"use":"usual","family":"DENOMFail","given":["ProcAtrialAblEncStartRelePer"]}],"gender":"male","birthDate":"1961-12-01"},"request":{"method":"PUT","url":"Patient/1dbcccc2-895d-46a7-b28a-bf936fc7978a"}},{"fullUrl":"https://madie.cms.gov/Encounter/29f13db2-0afc-48c1-9ac5-c1197dee2c28","resource":{"resourceType":"Encounter","id":"29f13db2-0afc-48c1-9ac5-c1197dee2c28","meta":{"profile":["http://hl7.org/fhir/us/qicore/StructureDefinition/qicore-encounter"]},"status":"finished","class":{"system":"http://terminology.hl7.org/CodeSystem/v3-ActCode","code":"IMP","display":"inpatient encounter"},"type":[{"coding":[{"system":"http://snomed.info/sct","code":"32485007"}]}],"subject":{"reference":"Patient/1dbcccc2-895d-46a7-b28a-bf936fc7978a"},"period":{"start":"2026-02-08T08:00:00.000Z","end":"2026-02-10T08:15:00.000Z"},"length":{"value":2,"unit":"days"},"diagnosis":[{"condition":{"reference":"Condition/9d4a7904-3f49-4000-881a-dd905fc1d78f"},"use":{"coding":[{"system":"http://terminology.hl7.org/CodeSystem/diagnosis-role","code":"billing","display":"Billing"}]},"rank":1}]},"request":{"method":"PUT","url":"Encounter/29f13db2-0afc-48c1-9ac5-c1197dee2c28"}},{"fullUrl":"https://madie.cms.gov/Coverage/fbd0b602-8566-4b6a-a86e-a340774ef668","resource":{"resourceType":"Coverage","id":"fbd0b602-8566-4b6a-a86e-a340774ef668","status":"active","beneficiary":{"reference":"Patient/1dbcccc2-895d-46a7-b28a-bf936fc7978a"},"period":{"start":"1961-12-01T08:00:00.000Z"},"payor":[{"reference":"Organization/3e899f33-84eb-4634-a770-a5a0bd7a80e7"}]},"request":{"method":"PUT","url":"Coverage/fbd0b602-8566-4b6a-a86e-a340774ef668"}},{"fullUrl":"https://madie.cms.gov/Procedure/584e9b4b-dffc-437e-b8bd-1ccd4030aa25","resource":{"resourceType":"Procedure","id":"584e9b4b-dffc-437e-b8bd-1ccd4030aa25","meta":{"profile":["http://hl7.org/fhir/us/qicore/StructureDefinition/qicore-procedure"]},"extension":[{"url":"http://hl7.org/fhir/us/qicore/StructureDefinition/qicore-recorded","valueDateTime":"2026-11-19T09:35:00-04:00"}],"status":"completed","code":{"coding":[{"system":"http://www.cms.gov/Medicare/Coding/ICD10","code":"02560ZZ"},{"system":"http://snomed.info/sct","code":"175095005"}]},"subject":{"reference":"Patient/1dbcccc2-895d-46a7-b28a-bf936fc7978a"},"performedPeriod":{"start":"2026-02-08T08:00:00.000Z","end":"2026-02-10T08:15:00.000Z"}},"request":{"method":"PUT","url":"Procedure/584e9b4b-dffc-437e-b8bd-1ccd4030aa25"}},{"fullUrl":"https://madie.cms.gov/Condition/9d4a7904-3f49-4000-881a-dd905fc1d78f","resource":{"resourceType":"Condition","id":"9d4a7904-3f49-4000-881a-dd905fc1d78f","meta":{"profile":["http://hl7.org/fhir/us/qicore/StructureDefinition/qicore-condition"]},"clinicalStatus":{"coding":[{"system":"http://terminology.hl7.org/CodeSystem/condition-clinical","code":"active"}]},"verificationStatus":{"coding":[{"system":"http://terminology.hl7.org/CodeSystem/condition-ver-status","code":"confirmed"}]},"category":[{"coding":[{"system":"http://terminology.hl7.org/CodeSystem/condition-category","code":"encounter-diagnosis","display":"Encounter Diagnosis"}]}],"code":{"coding":[{"system":"http://snomed.info/sct","version":"2021-09","code":"111297002","display":"Nonparalytic stroke (disorder)","userSelected":true}]},"subject":{"reference":"Patient/1dbcccc2-895d-46a7-b28a-bf936fc7978a"},"recordedDate":"2026-10-13T08:00:00.000+00:00"},"request":{"method":"PUT","url":"Condition/9d4a7904-3f49-4000-881a-dd905fc1d78f"}},{"fullUrl":"https://madie.cms.gov/Organization/28a01d81-d427-4e68-90ca-8aa1b50558d3","resource":{"resourceType":"Organization","id":"3e899f33-84eb-4634-a770-a5a0bd7a80e7","meta":{"profile":["http://hl7.org/fhir/us/qicore/StructureDefinition/qicore-organization"]},"identifier":[{"use":"temp","system":"urn:oid:2.16.840.1.113883.4.4","value":"21-3259825"}],"active":true,"type":[{"coding":[{"system":"http://terminology.hl7.org/CodeSystem/organization-type","code":"pay","display":"Payer"}]}],"name":"Blue Cross Blue Shield of Texas","telecom":[{"system":"phone","value":"(+1) 972-766-6900"}],"address":[{"use":"billing","type":"postal","line":["P.O. Box 660044"],"city":"Dallas","state":"TX","postalCode":"75266-0044","country":"USA"}]},"request":{"method":"PUT","url":"Organization/3e899f33-84eb-4634-a770-a5a0bd7a80e7"}},{"fullUrl":"https://madie.cms.gov/Practitioner/dea5c08d-8939-4fbf-b63b-c7540814bdb4","resource":{"resourceType":"Practitioner","id":"dea5c08d-8939-4fbf-b63b-c7540814bdb4","identifier":[{"system":"http://hl7.org/fhir/sid/us-npi","value":"123456"}],"name":[{"family":"Evil","prefix":["Dr"]}]},"request":{"method":"PUT","url":"Practitioner/dea5c08d-8939-4fbf-b63b-c7540814bdb4"}},{"fullUrl":"https://madie.cms.gov/MeasureReport/2733d754-9440-4c5e-9aae-6a273544a659","resource":{"resourceType":"MeasureReport","id":"2733d754-9440-4c5e-9aae-6a273544a659","meta":{"profile":["http://hl7.org/fhir/us/cqfmeasures/StructureDefinition/test-case-cqfm"]},"contained":[{"resourceType":"Parameters","id":"627cadd9-8cdc-44f7-9759-6fe01a02df7c-parameters","parameter":[{"name":"subject","valueString":"1dbcccc2-895d-46a7-b28a-bf936fc7978a"}]}],"extension":[{"url":"http://hl7.org/fhir/us/cqfmeasures/StructureDefinition/cqfm-inputParameters","valueReference":{"reference":"#627cadd9-8cdc-44f7-9759-6fe01a02df7c-parameters"}},{"url":"http://hl7.org/fhir/us/cqfmeasures/StructureDefinition/cqfm-testCaseDescription","valueMarkdown":"Procedure performed Atrial Ablation starts at the start of the encounter using our relevant period\n"}],"modifierExtension":[{"url":"http://hl7.org/fhir/us/cqfmeasures/StructureDefinition/cqfm-isTestCase","valueBoolean":true}],"status":"complete","type":"individual","measure":"https://madie.cms.gov/Measure/CMS71FHIRSTKAnticoagAFFlutter","period":{"start":"2026-01-01","end":"2026-12-31"},"group":[{"population":[{"code":{"coding":[{"system":"http://terminology.hl7.org/CodeSystem/measure-population","code":"initial-population","display":"Initial Population"}]},"count":1},{"code":{"coding":[{"system":"http://terminology.hl7.org/CodeSystem/measure-population","code":"denominator","display":"Denominator"}]},"count":0},{"code":{"coding":[{"system":"http://terminology.hl7.org/CodeSystem/measure-population","code":"denominator-exclusion","display":"Denominator Exclusion"}]},"count":0},{"code":{"coding":[{"system":"http://terminology.hl7.org/CodeSystem/measure-population","code":"numerator","display":"Numerator"}]},"count":0},{"code":{"coding":[{"system":"http://terminology.hl7.org/CodeSystem/measure-population","code":"denominator-exception","display":"Denominator Exception"}]},"count":0}]}]},"request":{"method":"PUT","url":"MeasureReport/2733d754-9440-4c5e-9aae-6a273544a659"}}]}