{"resourceType":"Bundle","id":"tests-bfa4b097-4c27-4046-a036-d97267e94113-bundle","type":"transaction","entry":[{"fullUrl":"https://madie.cms.gov/Patient/bfa4b097-4c27-4046-a036-d97267e94113","resource":{"resourceType":"Patient","id":"bfa4b097-4c27-4046-a036-d97267e94113","meta":{"profile":["http://hl7.org/fhir/us/qicore/StructureDefinition/qicore-patient"]},"text":{"status":"generated","div":"<div xmlns=\"http://www.w3.org/1999/xhtml\"><div class=\"hapiHeaderText\">CMOdurED_ED&lt;1hrNoObsBFEnc <b>DENEXPASS </b></div><table class=\"hapiPropertyTable\"><tbody><tr><td>Identifier</td><td>cd0066a23b25d0eb7377a3fb55c6a2f4</td></tr><tr><td>Date of birth</td><td><span>18 September 1985</span></td></tr></tbody></table></div>"},"extension":[{"url":"http://hl7.org/fhir/us/core/StructureDefinition/us-core-race","extension":[{"url":"ombCategory","valueCoding":{"system":"urn:oid:2.16.840.1.113883.6.238","code":"1002-5","display":"American Indian or Alaska Native","userSelected":true}},{"url":"text","valueString":"American Indian or Alaska Native"}]},{"url":"http://hl7.org/fhir/us/core/StructureDefinition/us-core-ethnicity","extension":[{"url":"ombCategory","valueCoding":{"system":"urn:oid:2.16.840.1.113883.6.238","code":"2135-2","display":"Hispanic or Latino","userSelected":true}},{"url":"text","valueString":"Hispanic or Latino"}]}],"identifier":[{"type":{"coding":[{"system":"http://terminology.hl7.org/CodeSystem/v2-0203","code":"MR"}]},"system":"https://bonnie-fhir.healthit.gov/","value":"633c9d030968f8012250fc88"}],"active":true,"name":[{"use":"usual","family":"DENEXPass","given":["CMOdurED_ED<1hrNoObsBFEnc"]}],"gender":"female","birthDate":"1986-09-18"},"request":{"method":"PUT","url":"Patient/bfa4b097-4c27-4046-a036-d97267e94113"}},{"fullUrl":"https://madie.cms.gov/Condition/c64f16a0-251b-443b-aeff-6bd097401a77","resource":{"resourceType":"Condition","id":"c64f16a0-251b-443b-aeff-6bd097401a77","meta":{"profile":["http://hl7.org/fhir/us/qicore/StructureDefinition/qicore-condition"]},"clinicalStatus":{"coding":[{"system":"http://terminology.hl7.org/CodeSystem/condition-clinical","code":"inactive"}]},"verificationStatus":{"coding":[{"system":"http://terminology.hl7.org/CodeSystem/condition-ver-status","code":"confirmed"}]},"category":[{"coding":[{"system":"http://terminology.hl7.org/CodeSystem/condition-category","code":"encounter-diagnosis","display":"Encounter Diagnosis"}]}],"code":{"coding":[{"system":"http://hl7.org/fhir/sid/icd-10-cm","code":"I48.20"},{"system":"http://hl7.org/fhir/sid/icd-10-cm","code":"I48.0"},{"system":"http://snomed.info/sct","code":"5370000"}]},"subject":{"reference":"Patient/bfa4b097-4c27-4046-a036-d97267e94113"},"onsetDateTime":"2026-10-01T09:01:00.000Z","abatementDateTime":"2026-10-12T00:15:00.000Z"},"request":{"method":"PUT","url":"Condition/c64f16a0-251b-443b-aeff-6bd097401a77"}},{"fullUrl":"https://madie.cms.gov/Encounter/125ab757-71b3-4d5c-a004-69a3c986af01","resource":{"resourceType":"Encounter","id":"125ab757-71b3-4d5c-a004-69a3c986af01","meta":{"profile":["http://hl7.org/fhir/us/qicore/StructureDefinition/qicore-encounter"]},"status":"finished","class":{"system":"http://terminology.hl7.org/CodeSystem/v3-ActCode","code":"EMER","display":"emergency"},"type":[{"coding":[{"system":"http://snomed.info/sct","code":"4525004"}]}],"subject":{"reference":"Patient/bfa4b097-4c27-4046-a036-d97267e94113"},"period":{"start":"2026-10-01T09:01:00.000Z","end":"2026-10-01T12:15:00.000Z"},"length":{"value":0,"unit":"days"}},"request":{"method":"PUT","url":"Encounter/125ab757-71b3-4d5c-a004-69a3c986af01"}},{"fullUrl":"https://madie.cms.gov/Encounter/fc9f98d4-1ca0-496e-9ba9-13bcdee28cad","resource":{"resourceType":"Encounter","id":"fc9f98d4-1ca0-496e-9ba9-13bcdee28cad","meta":{"profile":["http://hl7.org/fhir/us/qicore/StructureDefinition/qicore-encounter"]},"status":"finished","class":{"system":"http://terminology.hl7.org/CodeSystem/v3-ActCode","code":"IMP","display":"inpatient encounter"},"type":[{"coding":[{"system":"http://snomed.info/sct","code":"32485007"}]}],"subject":{"reference":"Patient/bfa4b097-4c27-4046-a036-d97267e94113"},"period":{"start":"2026-10-01T12:16:00.000Z","end":"2026-10-12T00:15:00.000Z"},"length":{"value":11,"unit":"days"},"diagnosis":[{"condition":{"reference":"Condition/f9e77157-9cd5-4ece-a2df-f98d912130d0"},"use":{"coding":[{"system":"http://terminology.hl7.org/CodeSystem/diagnosis-role","code":"billing","display":"Billing"}]},"rank":1}]},"request":{"method":"PUT","url":"Encounter/fc9f98d4-1ca0-496e-9ba9-13bcdee28cad"}},{"fullUrl":"https://madie.cms.gov/ServiceRequest/ad59052e-b89e-4932-aae9-2c801e1dce9e","resource":{"resourceType":"ServiceRequest","id":"ad59052e-b89e-4932-aae9-2c801e1dce9e","meta":{"profile":["http://hl7.org/fhir/us/qicore/StructureDefinition/qicore-servicerequest"]},"status":"active","intent":"order","code":{"coding":[{"system":"http://snomed.info/sct","code":"133918004"}]},"subject":{"reference":"Patient/bfa4b097-4c27-4046-a036-d97267e94113"},"authoredOn":"2026-10-01T09:15:00.000+00:00"},"request":{"method":"PUT","url":"ServiceRequest/ad59052e-b89e-4932-aae9-2c801e1dce9e"}},{"fullUrl":"https://madie.cms.gov/Coverage/28b0c97f-cbfc-451f-b349-a10924ead926","resource":{"resourceType":"Coverage","id":"28b0c97f-cbfc-451f-b349-a10924ead926","status":"active","beneficiary":{"reference":"Patient/bfa4b097-4c27-4046-a036-d97267e94113"},"period":{"start":"1986-09-18T08:00:00.000Z"},"payor":[{"reference":"Organization/607fdef9-3983-4cef-ab1a-95434d29b463"}]},"request":{"method":"PUT","url":"Coverage/28b0c97f-cbfc-451f-b349-a10924ead926"}},{"fullUrl":"https://madie.cms.gov/Condition/f9e77157-9cd5-4ece-a2df-f98d912130d0","resource":{"resourceType":"Condition","id":"f9e77157-9cd5-4ece-a2df-f98d912130d0","meta":{"profile":["http://hl7.org/fhir/us/qicore/StructureDefinition/qicore-condition"]},"clinicalStatus":{"coding":[{"system":"http://terminology.hl7.org/CodeSystem/condition-clinical","code":"active"}]},"verificationStatus":{"coding":[{"system":"http://terminology.hl7.org/CodeSystem/condition-ver-status","code":"confirmed"}]},"category":[{"coding":[{"system":"http://terminology.hl7.org/CodeSystem/condition-category","code":"encounter-diagnosis","display":"Encounter Diagnosis"}]}],"code":{"coding":[{"system":"http://snomed.info/sct","version":"2021-09","code":"111297002","display":"Nonparalytic stroke (disorder)","userSelected":true}]},"subject":{"reference":"Patient/bfa4b097-4c27-4046-a036-d97267e94113"},"recordedDate":"2026-10-13T08:00:00.000+00:00"},"request":{"method":"PUT","url":"Condition/f9e77157-9cd5-4ece-a2df-f98d912130d0"}},{"fullUrl":"https://madie.cms.gov/Organization/7c478905-33c1-4511-87b5-d5d50d8541b5","resource":{"resourceType":"Organization","id":"607fdef9-3983-4cef-ab1a-95434d29b463","meta":{"profile":["http://hl7.org/fhir/us/qicore/StructureDefinition/qicore-organization"]},"identifier":[{"use":"temp","system":"urn:oid:2.16.840.1.113883.4.4","value":"21-3259825"}],"active":true,"type":[{"coding":[{"system":"http://terminology.hl7.org/CodeSystem/organization-type","code":"pay","display":"Payer"}]}],"name":"Blue Cross Blue Shield of Texas","telecom":[{"system":"phone","value":"(+1) 972-766-6900"}],"address":[{"use":"billing","type":"postal","line":["P.O. Box 660044"],"city":"Dallas","state":"TX","postalCode":"75266-0044","country":"USA"}]},"request":{"method":"PUT","url":"Organization/607fdef9-3983-4cef-ab1a-95434d29b463"}},{"fullUrl":"https://madie.cms.gov/Practitioner/0a63d170-ab84-4665-bf64-e6006220887c","resource":{"resourceType":"Practitioner","id":"0a63d170-ab84-4665-bf64-e6006220887c","identifier":[{"system":"http://hl7.org/fhir/sid/us-npi","value":"123456"}],"name":[{"family":"Evil","prefix":["Dr"]}]},"request":{"method":"PUT","url":"Practitioner/0a63d170-ab84-4665-bf64-e6006220887c"}},{"fullUrl":"https://madie.cms.gov/MeasureReport/1ea05492-2200-4ce8-acbc-91274b8b4d9e","resource":{"resourceType":"MeasureReport","id":"1ea05492-2200-4ce8-acbc-91274b8b4d9e","meta":{"profile":["http://hl7.org/fhir/us/cqfmeasures/StructureDefinition/test-case-cqfm"]},"contained":[{"resourceType":"Parameters","id":"a929285a-9741-4922-b563-5a016a191880-parameters","parameter":[{"name":"subject","valueString":"bfa4b097-4c27-4046-a036-d97267e94113"}]}],"extension":[{"url":"http://hl7.org/fhir/us/cqfmeasures/StructureDefinition/cqfm-inputParameters","valueReference":{"reference":"#a929285a-9741-4922-b563-5a016a191880-parameters"}},{"url":"http://hl7.org/fhir/us/cqfmeasures/StructureDefinition/cqfm-testCaseDescription","valueMarkdown":"Patient receives CMO during ED. ED ends 1 min before Obs start and Obs ends 1 min before inpatient start.  Testing HospitalizationWithObservation function"}],"modifierExtension":[{"url":"http://hl7.org/fhir/us/cqfmeasures/StructureDefinition/cqfm-isTestCase","valueBoolean":true}],"status":"complete","type":"individual","measure":"https://madie.cms.gov/Measure/CMS71FHIRSTKAnticoagAFFlutter","period":{"start":"2026-01-01","end":"2026-12-31"},"group":[{"population":[{"code":{"coding":[{"system":"http://terminology.hl7.org/CodeSystem/measure-population","code":"initial-population","display":"Initial Population"}]},"count":1},{"code":{"coding":[{"system":"http://terminology.hl7.org/CodeSystem/measure-population","code":"denominator","display":"Denominator"}]},"count":1},{"code":{"coding":[{"system":"http://terminology.hl7.org/CodeSystem/measure-population","code":"denominator-exclusion","display":"Denominator Exclusion"}]},"count":1},{"code":{"coding":[{"system":"http://terminology.hl7.org/CodeSystem/measure-population","code":"numerator","display":"Numerator"}]},"count":0},{"code":{"coding":[{"system":"http://terminology.hl7.org/CodeSystem/measure-population","code":"denominator-exception","display":"Denominator Exception"}]},"count":0}]}]},"request":{"method":"PUT","url":"MeasureReport/1ea05492-2200-4ce8-acbc-91274b8b4d9e"}}]}