{"resourceType":"Bundle","id":"tests-c7da5140-b9ed-4122-a159-914963fe387f-bundle","type":"transaction","entry":[{"fullUrl":"https://madie.cms.gov/Patient/c7da5140-b9ed-4122-a159-914963fe387f","resource":{"resourceType":"Patient","id":"c7da5140-b9ed-4122-a159-914963fe387f","meta":{"profile":["http://hl7.org/fhir/us/qicore/StructureDefinition/qicore-patient"]},"text":{"status":"generated","div":"<div xmlns=\"http://www.w3.org/1999/xhtml\"><div class=\"hapiHeaderText\">CMOdurED_ED&gt;1hrNoObsBFEnc <b>DENEXFAIL </b></div><table class=\"hapiPropertyTable\"><tbody><tr><td>Identifier</td><td>9cbedc03548b163b74bc78c7e9738116</td></tr><tr><td>Date of birth</td><td><span>18 September 1985</span></td></tr></tbody></table></div>"},"extension":[{"url":"http://hl7.org/fhir/us/core/StructureDefinition/us-core-race","extension":[{"url":"ombCategory","valueCoding":{"system":"urn:oid:2.16.840.1.113883.6.238","code":"1002-5","display":"American Indian or Alaska Native","userSelected":true}},{"url":"text","valueString":"American Indian or Alaska Native"}]},{"url":"http://hl7.org/fhir/us/core/StructureDefinition/us-core-ethnicity","extension":[{"url":"ombCategory","valueCoding":{"system":"urn:oid:2.16.840.1.113883.6.238","code":"2135-2","display":"Hispanic or Latino","userSelected":true}},{"url":"text","valueString":"Hispanic or Latino"}]}],"identifier":[{"type":{"coding":[{"system":"http://terminology.hl7.org/CodeSystem/v2-0203","code":"MR"}]},"system":"https://bonnie-fhir.healthit.gov/","value":"633c9d030968f8012250fc82"}],"active":true,"name":[{"use":"usual","family":"DENEXFail","given":["CMOdurED_ED>1hrNoObsBFEnc"]}],"gender":"female","birthDate":"1986-09-18"},"request":{"method":"PUT","url":"Patient/c7da5140-b9ed-4122-a159-914963fe387f"}},{"fullUrl":"https://madie.cms.gov/Condition/17c02f91-6d60-4cc8-9b5c-e664a7f7974e","resource":{"resourceType":"Condition","id":"17c02f91-6d60-4cc8-9b5c-e664a7f7974e","meta":{"profile":["http://hl7.org/fhir/us/qicore/StructureDefinition/qicore-condition"]},"clinicalStatus":{"coding":[{"system":"http://terminology.hl7.org/CodeSystem/condition-clinical","code":"inactive"}]},"verificationStatus":{"coding":[{"system":"http://terminology.hl7.org/CodeSystem/condition-ver-status","code":"confirmed"}]},"category":[{"coding":[{"system":"http://terminology.hl7.org/CodeSystem/condition-category","code":"encounter-diagnosis","display":"Encounter Diagnosis"}]}],"code":{"coding":[{"system":"http://hl7.org/fhir/sid/icd-9-cm","code":"427.31"},{"system":"http://hl7.org/fhir/sid/icd-10-cm","code":"I48.0"},{"system":"http://snomed.info/sct","code":"5370000"}]},"subject":{"reference":"Patient/c7da5140-b9ed-4122-a159-914963fe387f"},"onsetDateTime":"2026-10-01T09:00:00.000Z","abatementDateTime":"2026-10-12T00:15:00.000Z"},"request":{"method":"PUT","url":"Condition/17c02f91-6d60-4cc8-9b5c-e664a7f7974e"}},{"fullUrl":"https://madie.cms.gov/Encounter/650b9df9-04f7-4153-a043-f55b1ec52632","resource":{"resourceType":"Encounter","id":"650b9df9-04f7-4153-a043-f55b1ec52632","meta":{"profile":["http://hl7.org/fhir/us/qicore/StructureDefinition/qicore-encounter"]},"status":"finished","class":{"system":"http://terminology.hl7.org/CodeSystem/v3-ActCode","code":"EMER","display":"emergency"},"type":[{"coding":[{"system":"http://snomed.info/sct","code":"4525004"}]}],"subject":{"reference":"Patient/c7da5140-b9ed-4122-a159-914963fe387f"},"period":{"start":"2026-09-30T07:59:00.000Z","end":"2026-09-30T09:00:00.000Z"},"length":{"value":0,"unit":"days"}},"request":{"method":"PUT","url":"Encounter/650b9df9-04f7-4153-a043-f55b1ec52632"}},{"fullUrl":"https://madie.cms.gov/Encounter/98adc4b2-0e17-404d-b8b3-c3a38110740a","resource":{"resourceType":"Encounter","id":"98adc4b2-0e17-404d-b8b3-c3a38110740a","meta":{"profile":["http://hl7.org/fhir/us/qicore/StructureDefinition/qicore-encounter"]},"status":"finished","class":{"system":"http://terminology.hl7.org/CodeSystem/v3-ActCode","code":"IMP","display":"inpatient encounter"},"type":[{"coding":[{"system":"http://snomed.info/sct","code":"32485007"}]}],"subject":{"reference":"Patient/c7da5140-b9ed-4122-a159-914963fe387f"},"period":{"start":"2026-09-30T10:01:00.000Z","end":"2026-10-12T00:15:00.000Z"},"length":{"value":12,"unit":"days"},"diagnosis":[{"condition":{"reference":"Condition/d274ffeb-0293-4d7b-88fb-d0c9e5e4b2ff"},"use":{"coding":[{"system":"http://terminology.hl7.org/CodeSystem/diagnosis-role","code":"billing","display":"Billing"}]},"rank":1}]},"request":{"method":"PUT","url":"Encounter/98adc4b2-0e17-404d-b8b3-c3a38110740a"}},{"fullUrl":"https://madie.cms.gov/ServiceRequest/8ffa0dc9-d041-4e89-874b-129371393a00","resource":{"resourceType":"ServiceRequest","id":"8ffa0dc9-d041-4e89-874b-129371393a00","meta":{"profile":["http://hl7.org/fhir/us/qicore/StructureDefinition/qicore-servicerequest"]},"status":"active","intent":"order","code":{"coding":[{"system":"http://snomed.info/sct","code":"133918004"}]},"subject":{"reference":"Patient/c7da5140-b9ed-4122-a159-914963fe387f"},"authoredOn":"2026-09-30T08:01:00.000+00:00"},"request":{"method":"PUT","url":"ServiceRequest/8ffa0dc9-d041-4e89-874b-129371393a00"}},{"fullUrl":"https://madie.cms.gov/Coverage/b0cd588b-46c9-43ec-b522-799598e41745","resource":{"resourceType":"Coverage","id":"b0cd588b-46c9-43ec-b522-799598e41745","status":"active","beneficiary":{"reference":"Patient/c7da5140-b9ed-4122-a159-914963fe387f"},"period":{"start":"1986-09-18T08:00:00.000Z"},"payor":[{"reference":"Organization/3778262e-e084-4bb5-9a47-1a144735f786"}]},"request":{"method":"PUT","url":"Coverage/b0cd588b-46c9-43ec-b522-799598e41745"}},{"fullUrl":"https://madie.cms.gov/Condition/d274ffeb-0293-4d7b-88fb-d0c9e5e4b2ff","resource":{"resourceType":"Condition","id":"d274ffeb-0293-4d7b-88fb-d0c9e5e4b2ff","meta":{"profile":["http://hl7.org/fhir/us/qicore/StructureDefinition/qicore-condition"]},"clinicalStatus":{"coding":[{"system":"http://terminology.hl7.org/CodeSystem/condition-clinical","code":"active"}]},"verificationStatus":{"coding":[{"system":"http://terminology.hl7.org/CodeSystem/condition-ver-status","code":"confirmed"}]},"category":[{"coding":[{"system":"http://terminology.hl7.org/CodeSystem/condition-category","code":"encounter-diagnosis","display":"Encounter Diagnosis"}]}],"code":{"coding":[{"system":"http://snomed.info/sct","version":"2021-09","code":"111297002","display":"Nonparalytic stroke (disorder)","userSelected":true}]},"subject":{"reference":"Patient/c7da5140-b9ed-4122-a159-914963fe387f"},"recordedDate":"2026-10-13T08:00:00.000+00:00"},"request":{"method":"PUT","url":"Condition/d274ffeb-0293-4d7b-88fb-d0c9e5e4b2ff"}},{"fullUrl":"https://madie.cms.gov/Organization/079177bb-2c0f-408b-9874-122c6a978169","resource":{"resourceType":"Organization","id":"3778262e-e084-4bb5-9a47-1a144735f786","meta":{"profile":["http://hl7.org/fhir/us/qicore/StructureDefinition/qicore-organization"]},"identifier":[{"use":"temp","system":"urn:oid:2.16.840.1.113883.4.4","value":"21-3259825"}],"active":true,"type":[{"coding":[{"system":"http://terminology.hl7.org/CodeSystem/organization-type","code":"pay","display":"Payer"}]}],"name":"Blue Cross Blue Shield of Texas","telecom":[{"system":"phone","value":"(+1) 972-766-6900"}],"address":[{"use":"billing","type":"postal","line":["P.O. Box 660044"],"city":"Dallas","state":"TX","postalCode":"75266-0044","country":"USA"}]},"request":{"method":"PUT","url":"Organization/3778262e-e084-4bb5-9a47-1a144735f786"}},{"fullUrl":"https://madie.cms.gov/MeasureReport/90e008c6-a233-4736-b288-3e58919b9d5a","resource":{"resourceType":"MeasureReport","id":"90e008c6-a233-4736-b288-3e58919b9d5a","meta":{"profile":["http://hl7.org/fhir/us/cqfmeasures/StructureDefinition/test-case-cqfm"]},"contained":[{"resourceType":"Parameters","id":"15b5f5be-be97-42e4-b258-6159d4f1117d-parameters","parameter":[{"name":"subject","valueString":"c7da5140-b9ed-4122-a159-914963fe387f"}]}],"extension":[{"url":"http://hl7.org/fhir/us/cqfmeasures/StructureDefinition/cqfm-inputParameters","valueReference":{"reference":"#15b5f5be-be97-42e4-b258-6159d4f1117d-parameters"}},{"url":"http://hl7.org/fhir/us/cqfmeasures/StructureDefinition/cqfm-testCaseDescription","valueMarkdown":"Patient receives CMO during ED. ED ends 61 min before inaptient start. No Obs. Testing HospitalizationWithObservation function\n"}],"modifierExtension":[{"url":"http://hl7.org/fhir/us/cqfmeasures/StructureDefinition/cqfm-isTestCase","valueBoolean":true}],"status":"complete","type":"individual","measure":"https://madie.cms.gov/Measure/CMS71FHIRSTKAnticoagAFFlutter","period":{"start":"2026-01-01","end":"2026-12-31"},"group":[{"population":[{"code":{"coding":[{"system":"http://terminology.hl7.org/CodeSystem/measure-population","code":"initial-population","display":"Initial Population"}]},"count":1},{"code":{"coding":[{"system":"http://terminology.hl7.org/CodeSystem/measure-population","code":"denominator","display":"Denominator"}]},"count":1},{"code":{"coding":[{"system":"http://terminology.hl7.org/CodeSystem/measure-population","code":"denominator-exclusion","display":"Denominator Exclusion"}]},"count":0},{"code":{"coding":[{"system":"http://terminology.hl7.org/CodeSystem/measure-population","code":"numerator","display":"Numerator"}]},"count":0},{"code":{"coding":[{"system":"http://terminology.hl7.org/CodeSystem/measure-population","code":"denominator-exception","display":"Denominator Exception"}]},"count":0}]}]},"request":{"method":"PUT","url":"MeasureReport/90e008c6-a233-4736-b288-3e58919b9d5a"}}]}