{"resourceType":"Bundle","id":"tests-5370c25e-ca3c-4575-95c2-e23c783ff4c6-bundle","type":"transaction","entry":[{"fullUrl":"https://madie.cms.gov/Patient/5370c25e-ca3c-4575-95c2-e23c783ff4c6","resource":{"resourceType":"Patient","id":"5370c25e-ca3c-4575-95c2-e23c783ff4c6","meta":{"profile":["http://hl7.org/fhir/us/qicore/StructureDefinition/qicore-patient"]},"text":{"status":"generated","div":"<div xmlns=\"http://www.w3.org/1999/xhtml\"><div class=\"hapiHeaderText\">ProcAtrialAblB4EncRelePer <b>DENOMPASS </b></div><table class=\"hapiPropertyTable\"><tbody><tr><td>Identifier</td><td>1ebc7a8ec0c65913b7018969c7b50ead</td></tr><tr><td>Date of birth</td><td><span>01 December 1960</span></td></tr></tbody></table></div>"},"extension":[{"url":"http://hl7.org/fhir/us/core/StructureDefinition/us-core-race","extension":[{"url":"ombCategory","valueCoding":{"system":"urn:oid:2.16.840.1.113883.6.238","code":"1002-5","display":"American Indian or Alaska Native","userSelected":true}},{"url":"text","valueString":"American Indian or Alaska Native"}]},{"url":"http://hl7.org/fhir/us/core/StructureDefinition/us-core-ethnicity","extension":[{"url":"ombCategory","valueCoding":{"system":"urn:oid:2.16.840.1.113883.6.238","code":"2135-2","display":"Hispanic or Latino","userSelected":true}},{"url":"text","valueString":"Hispanic or Latino"}]}],"identifier":[{"type":{"coding":[{"system":"http://terminology.hl7.org/CodeSystem/v2-0203","code":"MR"}]},"system":"https://bonnie-fhir.healthit.gov/","value":"633c9d040968f8012250fcb1"}],"active":true,"name":[{"use":"usual","family":"DENOMPass","given":["ProcAtrialAblB4EncRelePer"]}],"gender":"male","birthDate":"1961-12-01"},"request":{"method":"PUT","url":"Patient/5370c25e-ca3c-4575-95c2-e23c783ff4c6"}},{"fullUrl":"https://madie.cms.gov/Encounter/5ccfcd2a-6bd1-4628-9033-e985c5995ce5","resource":{"resourceType":"Encounter","id":"5ccfcd2a-6bd1-4628-9033-e985c5995ce5","meta":{"profile":["http://hl7.org/fhir/us/qicore/StructureDefinition/qicore-encounter"]},"status":"finished","class":{"system":"http://terminology.hl7.org/CodeSystem/v3-ActCode","code":"IMP","display":"inpatient encounter"},"type":[{"coding":[{"system":"http://snomed.info/sct","code":"32485007"}]}],"subject":{"reference":"Patient/5370c25e-ca3c-4575-95c2-e23c783ff4c6"},"period":{"start":"2026-02-08T08:00:00.000Z","end":"2026-02-10T08:15:00.000Z"},"length":{"value":2,"unit":"days"},"diagnosis":[{"condition":{"reference":"Condition/051ad56b-5a0a-4734-a625-92096ef466aa"},"use":{"coding":[{"system":"http://terminology.hl7.org/CodeSystem/diagnosis-role","code":"billing","display":"Billing"}]},"rank":1}]},"request":{"method":"PUT","url":"Encounter/5ccfcd2a-6bd1-4628-9033-e985c5995ce5"}},{"fullUrl":"https://madie.cms.gov/Coverage/e0a4837c-0b37-4325-ad83-b7cb58e67892","resource":{"resourceType":"Coverage","id":"e0a4837c-0b37-4325-ad83-b7cb58e67892","status":"active","beneficiary":{"reference":"Patient/5370c25e-ca3c-4575-95c2-e23c783ff4c6"},"period":{"start":"1961-12-01T08:00:00.000Z"},"payor":[{"reference":"Organization/e75793c9-fdf6-463a-8c1d-4ee44320dc25"}]},"request":{"method":"PUT","url":"Coverage/e0a4837c-0b37-4325-ad83-b7cb58e67892"}},{"fullUrl":"https://madie.cms.gov/Procedure/5b5bf4a8-dbdc-4c9b-80bd-ade1919f26ef","resource":{"resourceType":"Procedure","id":"5b5bf4a8-dbdc-4c9b-80bd-ade1919f26ef","meta":{"profile":["http://hl7.org/fhir/us/qicore/StructureDefinition/qicore-procedure"]},"extension":[{"url":"http://hl7.org/fhir/us/qicore/StructureDefinition/qicore-recorded","valueDateTime":"2026-11-19T09:35:00-04:00"}],"status":"completed","code":{"coding":[{"system":"http://www.cms.gov/Medicare/Coding/ICD10","code":"02560ZZ"},{"system":"http://snomed.info/sct","code":"175095005"}]},"subject":{"reference":"Patient/5370c25e-ca3c-4575-95c2-e23c783ff4c6"},"performedPeriod":{"start":"2026-02-08T07:59:00.000Z","end":"2026-02-10T08:15:00.000Z"}},"request":{"method":"PUT","url":"Procedure/5b5bf4a8-dbdc-4c9b-80bd-ade1919f26ef"}},{"fullUrl":"https://madie.cms.gov/Condition/051ad56b-5a0a-4734-a625-92096ef466aa","resource":{"resourceType":"Condition","id":"051ad56b-5a0a-4734-a625-92096ef466aa","meta":{"profile":["http://hl7.org/fhir/us/qicore/StructureDefinition/qicore-condition"]},"clinicalStatus":{"coding":[{"system":"http://terminology.hl7.org/CodeSystem/condition-clinical","code":"active"}]},"verificationStatus":{"coding":[{"system":"http://terminology.hl7.org/CodeSystem/condition-ver-status","code":"confirmed"}]},"category":[{"coding":[{"system":"http://terminology.hl7.org/CodeSystem/condition-category","code":"encounter-diagnosis","display":"Encounter Diagnosis"}]}],"code":{"coding":[{"system":"http://snomed.info/sct","version":"2021-09","code":"111297002","display":"Nonparalytic stroke (disorder)","userSelected":true}]},"subject":{"reference":"Patient/5370c25e-ca3c-4575-95c2-e23c783ff4c6"},"recordedDate":"2026-10-13T08:00:00.000+00:00"},"request":{"method":"PUT","url":"Condition/051ad56b-5a0a-4734-a625-92096ef466aa"}},{"fullUrl":"https://madie.cms.gov/Organization/d9d087a2-0241-47f9-9810-6abb94207af2","resource":{"resourceType":"Organization","id":"e75793c9-fdf6-463a-8c1d-4ee44320dc25","meta":{"profile":["http://hl7.org/fhir/us/qicore/StructureDefinition/qicore-organization"]},"identifier":[{"use":"temp","system":"urn:oid:2.16.840.1.113883.4.4","value":"21-3259825"}],"active":true,"type":[{"coding":[{"system":"http://terminology.hl7.org/CodeSystem/organization-type","code":"pay","display":"Payer"}]}],"name":"Blue Cross Blue Shield of Texas","telecom":[{"system":"phone","value":"(+1) 972-766-6900"}],"address":[{"use":"billing","type":"postal","line":["P.O. Box 660044"],"city":"Dallas","state":"TX","postalCode":"75266-0044","country":"USA"}]},"request":{"method":"PUT","url":"Organization/e75793c9-fdf6-463a-8c1d-4ee44320dc25"}},{"fullUrl":"https://madie.cms.gov/Practitioner/05f971b3-ce78-426f-8a73-77cd390ce292","resource":{"resourceType":"Practitioner","id":"05f971b3-ce78-426f-8a73-77cd390ce292","identifier":[{"system":"http://hl7.org/fhir/sid/us-npi","value":"123456"}],"name":[{"family":"Evil","prefix":["Dr"]}]},"request":{"method":"PUT","url":"Practitioner/05f971b3-ce78-426f-8a73-77cd390ce292"}},{"fullUrl":"https://madie.cms.gov/MeasureReport/a2064431-3893-41eb-a03c-d06f39dfd183","resource":{"resourceType":"MeasureReport","id":"a2064431-3893-41eb-a03c-d06f39dfd183","meta":{"profile":["http://hl7.org/fhir/us/cqfmeasures/StructureDefinition/test-case-cqfm"]},"contained":[{"resourceType":"Parameters","id":"ce0ae725-4f58-4eae-ba6b-18e0b2e7feea-parameters","parameter":[{"name":"subject","valueString":"5370c25e-ca3c-4575-95c2-e23c783ff4c6"}]}],"extension":[{"url":"http://hl7.org/fhir/us/cqfmeasures/StructureDefinition/cqfm-inputParameters","valueReference":{"reference":"#ce0ae725-4f58-4eae-ba6b-18e0b2e7feea-parameters"}},{"url":"http://hl7.org/fhir/us/cqfmeasures/StructureDefinition/cqfm-testCaseDescription","valueMarkdown":"Proc performed Atrial Ablation starts before start of OccA by 1 minutes\n"}],"modifierExtension":[{"url":"http://hl7.org/fhir/us/cqfmeasures/StructureDefinition/cqfm-isTestCase","valueBoolean":true}],"status":"complete","type":"individual","measure":"https://madie.cms.gov/Measure/CMS71FHIRSTKAnticoagAFFlutter","period":{"start":"2026-01-01","end":"2026-12-31"},"group":[{"population":[{"code":{"coding":[{"system":"http://terminology.hl7.org/CodeSystem/measure-population","code":"initial-population","display":"Initial Population"}]},"count":1},{"code":{"coding":[{"system":"http://terminology.hl7.org/CodeSystem/measure-population","code":"denominator","display":"Denominator"}]},"count":1},{"code":{"coding":[{"system":"http://terminology.hl7.org/CodeSystem/measure-population","code":"denominator-exclusion","display":"Denominator Exclusion"}]},"count":0},{"code":{"coding":[{"system":"http://terminology.hl7.org/CodeSystem/measure-population","code":"numerator","display":"Numerator"}]},"count":0},{"code":{"coding":[{"system":"http://terminology.hl7.org/CodeSystem/measure-population","code":"denominator-exception","display":"Denominator Exception"}]},"count":0}]}]},"request":{"method":"PUT","url":"MeasureReport/a2064431-3893-41eb-a03c-d06f39dfd183"}}]}