{"resourceType":"Bundle","id":"tests-5704cb0f-a88b-4df3-b3d3-5438d3de4f6d-bundle","type":"transaction","entry":[{"fullUrl":"https://madie.cms.gov/Patient/5704cb0f-a88b-4df3-b3d3-5438d3de4f6d","resource":{"resourceType":"Patient","id":"5704cb0f-a88b-4df3-b3d3-5438d3de4f6d","meta":{"profile":["http://hl7.org/fhir/us/qicore/StructureDefinition/qicore-patient"]},"text":{"status":"generated","div":"<div xmlns=\"http://www.w3.org/1999/xhtml\"><div class=\"hapiHeaderText\"> CMOdurObs_ED&lt;1hrObs&gt;1hrBFEnc <b>DENEXFAIL </b></div><table class=\"hapiPropertyTable\"><tbody><tr><td>Identifier</td><td>0320cf57e9b83d932334af8e2d508abe</td></tr><tr><td>Date of birth</td><td><span>18 September 1985</span></td></tr></tbody></table></div>"},"extension":[{"url":"http://hl7.org/fhir/us/core/StructureDefinition/us-core-race","extension":[{"url":"ombCategory","valueCoding":{"system":"urn:oid:2.16.840.1.113883.6.238","code":"1002-5","display":"American Indian or Alaska Native","userSelected":true}},{"url":"text","valueString":"American Indian or Alaska Native"}]},{"url":"http://hl7.org/fhir/us/core/StructureDefinition/us-core-ethnicity","extension":[{"url":"ombCategory","valueCoding":{"system":"urn:oid:2.16.840.1.113883.6.238","code":"2135-2","display":"Hispanic or Latino","userSelected":true}},{"url":"text","valueString":"Hispanic or Latino"}]}],"identifier":[{"type":{"coding":[{"system":"http://terminology.hl7.org/CodeSystem/v2-0203","code":"MR"}]},"system":"https://bonnie-fhir.healthit.gov/","value":"633c9d030968f8012250fc7e"}],"active":true,"name":[{"use":"usual","family":"DENEXFail","given":["CMOdurObs_ED<1hrObs>1hrBFEnc"]}],"gender":"female","birthDate":"1986-09-18"},"request":{"method":"PUT","url":"Patient/5704cb0f-a88b-4df3-b3d3-5438d3de4f6d"}},{"fullUrl":"https://madie.cms.gov/Condition/dd0c4f3f-c46d-49b9-ab2e-3cd89d215755","resource":{"resourceType":"Condition","id":"dd0c4f3f-c46d-49b9-ab2e-3cd89d215755","meta":{"profile":["http://hl7.org/fhir/us/qicore/StructureDefinition/qicore-condition"]},"clinicalStatus":{"coding":[{"system":"http://terminology.hl7.org/CodeSystem/condition-clinical","code":"inactive","display":"InActive"}]},"verificationStatus":{"coding":[{"system":"http://terminology.hl7.org/CodeSystem/condition-ver-status","code":"confirmed","display":"Confirmed"}]},"category":[{"coding":[{"system":"http://terminology.hl7.org/CodeSystem/condition-category","code":"encounter-diagnosis","display":"Encounter Diagnosis"}]}],"code":{"coding":[{"system":"http://hl7.org/fhir/sid/icd-10-cm","code":"I48.0"},{"system":"http://snomed.info/sct","code":"5370000"}]},"subject":{"reference":"Patient/5704cb0f-a88b-4df3-b3d3-5438d3de4f6d"},"onsetDateTime":"2026-02-11T08:00:00.000Z","abatementDateTime":"2026-02-11T08:15:00.000Z"},"request":{"method":"PUT","url":"Condition/dd0c4f3f-c46d-49b9-ab2e-3cd89d215755"}},{"fullUrl":"https://madie.cms.gov/Condition/117dfcbc-4157-4187-92d5-16b51945aecf","resource":{"resourceType":"Condition","id":"117dfcbc-4157-4187-92d5-16b51945aecf","meta":{"profile":["http://hl7.org/fhir/us/qicore/StructureDefinition/qicore-condition"]},"clinicalStatus":{"coding":[{"system":"http://terminology.hl7.org/CodeSystem/condition-clinical","code":"inactive","display":"Inactive"}]},"verificationStatus":{"coding":[{"system":"http://terminology.hl7.org/CodeSystem/condition-ver-status","code":"confirmed","display":"Confirmed"}]},"category":[{"coding":[{"system":"http://terminology.hl7.org/CodeSystem/condition-category","code":"encounter-diagnosis","display":"Encounter Diagnosis"}]}],"code":{"coding":[{"system":"http://hl7.org/fhir/sid/icd-10-cm","code":"I48.0"},{"system":"http://snomed.info/sct","code":"5370000"}]},"subject":{"reference":"Patient/5704cb0f-a88b-4df3-b3d3-5438d3de4f6d"},"onsetDateTime":"2026-10-01T09:00:00.000Z","abatementDateTime":"2026-10-12T08:15:00.000Z"},"request":{"method":"PUT","url":"Condition/117dfcbc-4157-4187-92d5-16b51945aecf"}},{"fullUrl":"https://madie.cms.gov/Encounter/84059bf6-5499-488f-af35-cef4f4d274d0","resource":{"resourceType":"Encounter","id":"84059bf6-5499-488f-af35-cef4f4d274d0","meta":{"profile":["http://hl7.org/fhir/us/qicore/StructureDefinition/qicore-encounter"]},"status":"finished","class":{"system":"http://terminology.hl7.org/CodeSystem/v3-ActCode","code":"EMER","display":"emergency"},"type":[{"coding":[{"system":"http://snomed.info/sct","code":"4525004"}]}],"subject":{"reference":"Patient/5704cb0f-a88b-4df3-b3d3-5438d3de4f6d"},"period":{"start":"2026-10-01T09:00:00.000Z","end":"2026-10-01T09:15:00.000Z"},"length":{"value":0,"unit":"days"}},"request":{"method":"PUT","url":"Encounter/84059bf6-5499-488f-af35-cef4f4d274d0"}},{"fullUrl":"https://madie.cms.gov/Encounter/6a68254a-dd2d-43eb-aed6-ef45c55c8dc0","resource":{"resourceType":"Encounter","id":"6a68254a-dd2d-43eb-aed6-ef45c55c8dc0","meta":{"profile":["http://hl7.org/fhir/us/qicore/StructureDefinition/qicore-encounter"]},"status":"finished","class":{"system":"http://terminology.hl7.org/CodeSystem/v3-ActCode","code":"OBSENC","display":"observation encounter"},"type":[{"coding":[{"system":"http://snomed.info/sct","code":"448851000124103"}]}],"subject":{"reference":"Patient/5704cb0f-a88b-4df3-b3d3-5438d3de4f6d"},"period":{"start":"2026-10-01T09:16:00.000Z","end":"2026-10-01T09:30:00.000Z"},"length":{"value":0,"unit":"days"}},"request":{"method":"PUT","url":"Encounter/6a68254a-dd2d-43eb-aed6-ef45c55c8dc0"}},{"fullUrl":"https://madie.cms.gov/Encounter/cf9c7145-9b94-4916-80c2-c738f5cb6fc3","resource":{"resourceType":"Encounter","id":"cf9c7145-9b94-4916-80c2-c738f5cb6fc3","meta":{"profile":["http://hl7.org/fhir/us/qicore/StructureDefinition/qicore-encounter"]},"status":"finished","class":{"system":"http://terminology.hl7.org/CodeSystem/v3-ActCode","code":"IMP","display":"inpatient encounter"},"type":[{"coding":[{"system":"http://snomed.info/sct","code":"32485007"}]}],"subject":{"reference":"Patient/5704cb0f-a88b-4df3-b3d3-5438d3de4f6d"},"period":{"start":"2026-10-01T10:31:00.000Z","end":"2026-10-12T08:15:00.000Z"},"length":{"value":11,"unit":"days"},"diagnosis":[{"condition":{"reference":"Condition/c712e9df-3a26-4e7e-9083-de86c6346dea"},"use":{"coding":[{"system":"http://terminology.hl7.org/CodeSystem/diagnosis-role","code":"billing","display":"Billing"}]},"rank":1}]},"request":{"method":"PUT","url":"Encounter/cf9c7145-9b94-4916-80c2-c738f5cb6fc3"}},{"fullUrl":"https://madie.cms.gov/ServiceRequest/786a114f-fdd2-41e7-ae69-78d547ecf2a3","resource":{"resourceType":"ServiceRequest","id":"786a114f-fdd2-41e7-ae69-78d547ecf2a3","meta":{"profile":["http://hl7.org/fhir/us/qicore/StructureDefinition/qicore-servicerequest"]},"status":"active","intent":"order","code":{"coding":[{"system":"http://snomed.info/sct","code":"133918004"}]},"subject":{"reference":"Patient/5704cb0f-a88b-4df3-b3d3-5438d3de4f6d"},"authoredOn":"2026-10-01T09:17:00.000+00:00"},"request":{"method":"PUT","url":"ServiceRequest/786a114f-fdd2-41e7-ae69-78d547ecf2a3"}},{"fullUrl":"https://madie.cms.gov/Coverage/3e27ab04-032f-459e-b996-e6c02d91bfd5","resource":{"resourceType":"Coverage","id":"3e27ab04-032f-459e-b996-e6c02d91bfd5","meta":{"profile":["http://hl7.org/fhir/us/qicore/StructureDefinition/qicore-coverage"]},"status":"active","beneficiary":{"reference":"Patient/5704cb0f-a88b-4df3-b3d3-5438d3de4f6d"},"period":{"start":"1986-09-18T08:00:00.000Z"},"payor":[{"reference":"Organization/18ca435c-cae6-4c34-8033-af717477f9fc"}]},"request":{"method":"PUT","url":"Coverage/3e27ab04-032f-459e-b996-e6c02d91bfd5"}},{"fullUrl":"https://madie.cms.gov/Condition/c712e9df-3a26-4e7e-9083-de86c6346dea","resource":{"resourceType":"Condition","id":"c712e9df-3a26-4e7e-9083-de86c6346dea","meta":{"profile":["http://hl7.org/fhir/us/qicore/StructureDefinition/qicore-condition"]},"clinicalStatus":{"coding":[{"system":"http://terminology.hl7.org/CodeSystem/condition-clinical","code":"active"}]},"verificationStatus":{"coding":[{"system":"http://terminology.hl7.org/CodeSystem/condition-ver-status","code":"confirmed"}]},"category":[{"coding":[{"system":"http://terminology.hl7.org/CodeSystem/condition-category","code":"encounter-diagnosis","display":"Encounter Diagnosis"}]}],"code":{"coding":[{"system":"http://snomed.info/sct","version":"2021-09","code":"111297002","display":"Nonparalytic stroke (disorder)","userSelected":true}]},"subject":{"reference":"Patient/5704cb0f-a88b-4df3-b3d3-5438d3de4f6d"},"recordedDate":"2026-10-13T08:00:00.000+00:00"},"request":{"method":"PUT","url":"Condition/c712e9df-3a26-4e7e-9083-de86c6346dea"}},{"fullUrl":"https://madie.cms.gov/Organization/959f3beb-2182-4024-a0bf-155d6b4a8b81","resource":{"resourceType":"Organization","id":"18ca435c-cae6-4c34-8033-af717477f9fc","meta":{"profile":["http://hl7.org/fhir/us/qicore/StructureDefinition/qicore-organization"]},"identifier":[{"use":"temp","system":"urn:oid:2.16.840.1.113883.4.4","value":"21-3259825"}],"active":true,"type":[{"coding":[{"system":"http://terminology.hl7.org/CodeSystem/organization-type","code":"pay","display":"Payer"}]}],"name":"Blue Cross Blue Shield of Texas","telecom":[{"system":"phone","value":"(+1) 972-766-6900"}],"address":[{"use":"billing","type":"postal","line":["P.O. Box 660044"],"city":"Dallas","state":"TX","postalCode":"75266-0044","country":"USA"}]},"request":{"method":"PUT","url":"Organization/18ca435c-cae6-4c34-8033-af717477f9fc"}},{"fullUrl":"https://madie.cms.gov/MeasureReport/f8b44860-f2b0-41a3-a4ab-5116c405a012","resource":{"resourceType":"MeasureReport","id":"f8b44860-f2b0-41a3-a4ab-5116c405a012","meta":{"profile":["http://hl7.org/fhir/us/cqfmeasures/StructureDefinition/test-case-cqfm"]},"contained":[{"resourceType":"Parameters","id":"f73707ed-56e5-4443-8e93-67e2ebcfb1c3-parameters","parameter":[{"name":"subject","valueString":"5704cb0f-a88b-4df3-b3d3-5438d3de4f6d"}]}],"extension":[{"url":"http://hl7.org/fhir/us/cqfmeasures/StructureDefinition/cqfm-inputParameters","valueReference":{"reference":"#f73707ed-56e5-4443-8e93-67e2ebcfb1c3-parameters"}},{"url":"http://hl7.org/fhir/us/cqfmeasures/StructureDefinition/cqfm-testCaseDescription","valueMarkdown":"Patient receives CMO during Observation. ED ends 1 min before Obs start and Obs ends 61 min before inpatient encounter start. Testing HospitalizationWithObservation function.\n"}],"modifierExtension":[{"url":"http://hl7.org/fhir/us/cqfmeasures/StructureDefinition/cqfm-isTestCase","valueBoolean":true}],"status":"complete","type":"individual","measure":"https://madie.cms.gov/Measure/CMS71FHIRSTKAnticoagAFFlutter","period":{"start":"2026-01-01","end":"2026-12-31"},"group":[{"population":[{"code":{"coding":[{"system":"http://terminology.hl7.org/CodeSystem/measure-population","code":"initial-population","display":"Initial Population"}]},"count":1},{"code":{"coding":[{"system":"http://terminology.hl7.org/CodeSystem/measure-population","code":"denominator","display":"Denominator"}]},"count":1},{"code":{"coding":[{"system":"http://terminology.hl7.org/CodeSystem/measure-population","code":"denominator-exclusion","display":"Denominator Exclusion"}]},"count":0},{"code":{"coding":[{"system":"http://terminology.hl7.org/CodeSystem/measure-population","code":"numerator","display":"Numerator"}]},"count":0},{"code":{"coding":[{"system":"http://terminology.hl7.org/CodeSystem/measure-population","code":"denominator-exception","display":"Denominator Exception"}]},"count":0}]}]},"request":{"method":"PUT","url":"MeasureReport/f8b44860-f2b0-41a3-a4ab-5116c405a012"}}]}