{"resourceType":"Bundle","id":"tests-b1d0c606-661d-44e8-a25f-4e7ca8131f2a-bundle","type":"transaction","entry":[{"fullUrl":"https://madie.cms.gov/Patient/b1d0c606-661d-44e8-a25f-4e7ca8131f2a","resource":{"resourceType":"Patient","id":"b1d0c606-661d-44e8-a25f-4e7ca8131f2a","meta":{"profile":["http://hl7.org/fhir/us/qicore/StructureDefinition/qicore-patient"]},"text":{"status":"generated","div":"<div xmlns=\"http://www.w3.org/1999/xhtml\"><div class=\"hapiHeaderText\">CMOdurEnc_ED&gt;1hrObs&gt;1hrBFEnc <b>DENEXPASS </b></div><table class=\"hapiPropertyTable\"><tbody><tr><td>Identifier</td><td>46dce2b3319988ed781af0093af5d517</td></tr><tr><td>Date of birth</td><td><span>18 September 1985</span></td></tr></tbody></table></div>"},"extension":[{"url":"http://hl7.org/fhir/us/core/StructureDefinition/us-core-race","extension":[{"url":"ombCategory","valueCoding":{"system":"urn:oid:2.16.840.1.113883.6.238","code":"1002-5","display":"American Indian or Alaska Native","userSelected":true}},{"url":"text","valueString":"American Indian or Alaska Native"}]},{"url":"http://hl7.org/fhir/us/core/StructureDefinition/us-core-ethnicity","extension":[{"url":"ombCategory","valueCoding":{"system":"urn:oid:2.16.840.1.113883.6.238","code":"2135-2","display":"Hispanic or Latino","userSelected":true}},{"url":"text","valueString":"Hispanic or Latino"}]}],"identifier":[{"type":{"coding":[{"system":"http://terminology.hl7.org/CodeSystem/v2-0203","code":"MR"}]},"system":"https://bonnie-fhir.healthit.gov/","value":"633c9d030968f8012250fc9b"}],"active":true,"name":[{"use":"usual","family":"DENEXPass","given":["CMOdurEnc_ED>1hrObs>1hrBFEnc"]}],"gender":"female","birthDate":"1986-09-18"},"request":{"method":"PUT","url":"Patient/b1d0c606-661d-44e8-a25f-4e7ca8131f2a"}},{"fullUrl":"https://madie.cms.gov/Condition/6c913948-5091-4329-aeaf-197d8bb0c4af","resource":{"resourceType":"Condition","id":"6c913948-5091-4329-aeaf-197d8bb0c4af","meta":{"profile":["http://hl7.org/fhir/us/qicore/StructureDefinition/qicore-condition"]},"clinicalStatus":{"coding":[{"system":"http://terminology.hl7.org/CodeSystem/condition-clinical","code":"inactive"}]},"verificationStatus":{"coding":[{"system":"http://terminology.hl7.org/CodeSystem/condition-ver-status","code":"confirmed"}]},"category":[{"coding":[{"system":"http://terminology.hl7.org/CodeSystem/condition-category","code":"encounter-diagnosis","display":"Encounter Diagnosis"}]}],"code":{"coding":[{"system":"http://hl7.org/fhir/sid/icd-10-cm","code":"I48.20"},{"system":"http://hl7.org/fhir/sid/icd-10-cm","code":"I48.0"},{"system":"http://snomed.info/sct","code":"5370000"}]},"subject":{"reference":"Patient/b1d0c606-661d-44e8-a25f-4e7ca8131f2a"},"onsetDateTime":"2026-10-01T09:00:00.000Z","abatementDateTime":"2026-10-12T00:15:00.000Z"},"request":{"method":"PUT","url":"Condition/6c913948-5091-4329-aeaf-197d8bb0c4af"}},{"fullUrl":"https://madie.cms.gov/Encounter/79692a93-16ca-467c-aaaa-d00b96f3f288","resource":{"resourceType":"Encounter","id":"79692a93-16ca-467c-aaaa-d00b96f3f288","meta":{"profile":["http://hl7.org/fhir/us/qicore/StructureDefinition/qicore-encounter"]},"status":"finished","class":{"system":"http://terminology.hl7.org/CodeSystem/v3-ActCode","code":"EMER","display":"emergency"},"type":[{"coding":[{"system":"http://snomed.info/sct","code":"4525004"}]}],"subject":{"reference":"Patient/b1d0c606-661d-44e8-a25f-4e7ca8131f2a"},"period":{"start":"2026-10-01T07:59:00.000Z","end":"2026-10-01T08:00:00.000Z"},"length":{"value":0,"unit":"days"}},"request":{"method":"PUT","url":"Encounter/79692a93-16ca-467c-aaaa-d00b96f3f288"}},{"fullUrl":"https://madie.cms.gov/Encounter/c2320b70-71af-48d7-9d14-d0d76dac89a3","resource":{"resourceType":"Encounter","id":"c2320b70-71af-48d7-9d14-d0d76dac89a3","meta":{"profile":["http://hl7.org/fhir/us/qicore/StructureDefinition/qicore-encounter"]},"status":"finished","class":{"system":"http://terminology.hl7.org/CodeSystem/v3-ActCode","code":"OBSENC","display":"observation encounter"},"type":[{"coding":[{"system":"http://snomed.info/sct","code":"448851000124103"}]}],"subject":{"reference":"Patient/b1d0c606-661d-44e8-a25f-4e7ca8131f2a"},"period":{"start":"2026-10-01T09:01:00.000Z","end":"2026-10-01T09:30:00.000Z"},"length":{"value":0,"unit":"days"}},"request":{"method":"PUT","url":"Encounter/c2320b70-71af-48d7-9d14-d0d76dac89a3"}},{"fullUrl":"https://madie.cms.gov/Encounter/e0836c68-3ce5-40ed-aaec-470abdabd8e3","resource":{"resourceType":"Encounter","id":"e0836c68-3ce5-40ed-aaec-470abdabd8e3","meta":{"profile":["http://hl7.org/fhir/us/qicore/StructureDefinition/qicore-encounter"]},"status":"finished","class":{"system":"http://terminology.hl7.org/CodeSystem/v3-ActCode","code":"IMP","display":"inpatient encounter"},"type":[{"coding":[{"system":"http://snomed.info/sct","code":"32485007"}]}],"subject":{"reference":"Patient/b1d0c606-661d-44e8-a25f-4e7ca8131f2a"},"period":{"start":"2026-10-01T10:31:00.000Z","end":"2026-10-12T00:15:00.000Z"},"length":{"value":11,"unit":"days"},"diagnosis":[{"condition":{"reference":"Condition/ab26498c-a990-4657-884a-d9b2e763861c"},"use":{"coding":[{"system":"http://terminology.hl7.org/CodeSystem/diagnosis-role","code":"billing","display":"Billing"}]},"rank":1}]},"request":{"method":"PUT","url":"Encounter/e0836c68-3ce5-40ed-aaec-470abdabd8e3"}},{"fullUrl":"https://madie.cms.gov/ServiceRequest/b1bd9e76-4997-492e-887b-a0316f104f60","resource":{"resourceType":"ServiceRequest","id":"b1bd9e76-4997-492e-887b-a0316f104f60","meta":{"profile":["http://hl7.org/fhir/us/qicore/StructureDefinition/qicore-servicerequest"]},"status":"active","intent":"order","code":{"coding":[{"system":"http://snomed.info/sct","code":"133918004"}]},"subject":{"reference":"Patient/b1d0c606-661d-44e8-a25f-4e7ca8131f2a"},"authoredOn":"2026-10-01T11:30:00.000+00:00"},"request":{"method":"PUT","url":"ServiceRequest/b1bd9e76-4997-492e-887b-a0316f104f60"}},{"fullUrl":"https://madie.cms.gov/Coverage/6fca3908-7a2b-43b1-aa46-499c6512f664","resource":{"resourceType":"Coverage","id":"6fca3908-7a2b-43b1-aa46-499c6512f664","status":"active","beneficiary":{"reference":"Patient/b1d0c606-661d-44e8-a25f-4e7ca8131f2a"},"period":{"start":"1986-09-18T08:00:00.000Z"},"payor":[{"reference":"Organization/80e3e0d1-b2aa-43a6-b1d2-00bfa3164a0f"}]},"request":{"method":"PUT","url":"Coverage/6fca3908-7a2b-43b1-aa46-499c6512f664"}},{"fullUrl":"https://madie.cms.gov/Condition/ab26498c-a990-4657-884a-d9b2e763861c","resource":{"resourceType":"Condition","id":"ab26498c-a990-4657-884a-d9b2e763861c","meta":{"profile":["http://hl7.org/fhir/us/qicore/StructureDefinition/qicore-condition"]},"clinicalStatus":{"coding":[{"system":"http://terminology.hl7.org/CodeSystem/condition-clinical","code":"active"}]},"verificationStatus":{"coding":[{"system":"http://terminology.hl7.org/CodeSystem/condition-ver-status","code":"confirmed"}]},"category":[{"coding":[{"system":"http://terminology.hl7.org/CodeSystem/condition-category","code":"encounter-diagnosis","display":"Encounter Diagnosis"}]}],"code":{"coding":[{"system":"http://snomed.info/sct","version":"2021-09","code":"111297002","display":"Nonparalytic stroke (disorder)","userSelected":true}]},"subject":{"reference":"Patient/b1d0c606-661d-44e8-a25f-4e7ca8131f2a"},"recordedDate":"2026-10-13T08:00:00.000+00:00"},"request":{"method":"PUT","url":"Condition/ab26498c-a990-4657-884a-d9b2e763861c"}},{"fullUrl":"https://madie.cms.gov/Organization/cb38e797-87ff-4080-8a53-b92596d559e3","resource":{"resourceType":"Organization","id":"80e3e0d1-b2aa-43a6-b1d2-00bfa3164a0f","meta":{"profile":["http://hl7.org/fhir/us/qicore/StructureDefinition/qicore-organization"]},"identifier":[{"use":"temp","system":"urn:oid:2.16.840.1.113883.4.4","value":"21-3259825"}],"active":true,"type":[{"coding":[{"system":"http://terminology.hl7.org/CodeSystem/organization-type","code":"pay","display":"Payer"}]}],"name":"Blue Cross Blue Shield of Texas","telecom":[{"system":"phone","value":"(+1) 972-766-6900"}],"address":[{"use":"billing","type":"postal","line":["P.O. Box 660044"],"city":"Dallas","state":"TX","postalCode":"75266-0044","country":"USA"}]},"request":{"method":"PUT","url":"Organization/80e3e0d1-b2aa-43a6-b1d2-00bfa3164a0f"}},{"fullUrl":"https://madie.cms.gov/Practitioner/332873cc-65b5-4680-930d-bda93c5aefc7","resource":{"resourceType":"Practitioner","id":"332873cc-65b5-4680-930d-bda93c5aefc7","identifier":[{"system":"http://hl7.org/fhir/sid/us-npi","value":"123456"}],"name":[{"family":"Evil","prefix":["Dr"]}]},"request":{"method":"PUT","url":"Practitioner/332873cc-65b5-4680-930d-bda93c5aefc7"}},{"fullUrl":"https://madie.cms.gov/MeasureReport/da2f7f62-66be-41de-9f1f-6c35c61c1657","resource":{"resourceType":"MeasureReport","id":"da2f7f62-66be-41de-9f1f-6c35c61c1657","meta":{"profile":["http://hl7.org/fhir/us/cqfmeasures/StructureDefinition/test-case-cqfm"]},"contained":[{"resourceType":"Parameters","id":"fa529f4a-383e-4da6-bdc8-a9f399a4803c-parameters","parameter":[{"name":"subject","valueString":"b1d0c606-661d-44e8-a25f-4e7ca8131f2a"}]}],"extension":[{"url":"http://hl7.org/fhir/us/cqfmeasures/StructureDefinition/cqfm-inputParameters","valueReference":{"reference":"#fa529f4a-383e-4da6-bdc8-a9f399a4803c-parameters"}},{"url":"http://hl7.org/fhir/us/cqfmeasures/StructureDefinition/cqfm-testCaseDescription","valueMarkdown":"Patient receives CMO during inpatient encounter. ED ends 61 minutes before Obs start, Obs ends 61 min before inpatient encounter start. Testing HospitalizationWithObservation function.\n"}],"modifierExtension":[{"url":"http://hl7.org/fhir/us/cqfmeasures/StructureDefinition/cqfm-isTestCase","valueBoolean":true}],"status":"complete","type":"individual","measure":"https://madie.cms.gov/Measure/CMS71FHIRSTKAnticoagAFFlutter","period":{"start":"2026-01-01","end":"2026-12-31"},"group":[{"population":[{"code":{"coding":[{"system":"http://terminology.hl7.org/CodeSystem/measure-population","code":"initial-population","display":"Initial Population"}]},"count":1},{"code":{"coding":[{"system":"http://terminology.hl7.org/CodeSystem/measure-population","code":"denominator","display":"Denominator"}]},"count":1},{"code":{"coding":[{"system":"http://terminology.hl7.org/CodeSystem/measure-population","code":"denominator-exclusion","display":"Denominator Exclusion"}]},"count":1},{"code":{"coding":[{"system":"http://terminology.hl7.org/CodeSystem/measure-population","code":"numerator","display":"Numerator"}]},"count":0},{"code":{"coding":[{"system":"http://terminology.hl7.org/CodeSystem/measure-population","code":"denominator-exception","display":"Denominator Exception"}]},"count":0}]}]},"request":{"method":"PUT","url":"MeasureReport/da2f7f62-66be-41de-9f1f-6c35c61c1657"}}]}