{"resourceType":"Bundle","id":"tests-3ed947b5-9aba-4bed-aa72-f96b6f3f5082-bundle","type":"transaction","entry":[{"fullUrl":"https://madie.cms.gov/Patient/3ed947b5-9aba-4bed-aa72-f96b6f3f5082","resource":{"resourceType":"Patient","id":"3ed947b5-9aba-4bed-aa72-f96b6f3f5082","meta":{"profile":["http://hl7.org/fhir/us/qicore/StructureDefinition/qicore-patient"]},"text":{"status":"generated","div":"<div xmlns=\"http://www.w3.org/1999/xhtml\"><div class=\"hapiHeaderText\">CMOdurEncTM_EDEndTM=ObsTM_ObsEndTM=EncTM <b>DENEXPASS </b></div><table class=\"hapiPropertyTable\"><tbody><tr><td>Identifier</td><td>a33eaee35b35d61ecea21326efe74641</td></tr><tr><td>Date of birth</td><td><span>18 September 1985</span></td></tr></tbody></table></div>"},"extension":[{"url":"http://hl7.org/fhir/us/core/StructureDefinition/us-core-race","extension":[{"url":"ombCategory","valueCoding":{"system":"urn:oid:2.16.840.1.113883.6.238","code":"1002-5","display":"American Indian or Alaska Native","userSelected":true}},{"url":"text","valueString":"American Indian or Alaska Native"}]},{"url":"http://hl7.org/fhir/us/core/StructureDefinition/us-core-ethnicity","extension":[{"url":"ombCategory","valueCoding":{"system":"urn:oid:2.16.840.1.113883.6.238","code":"2135-2","display":"Hispanic or Latino","userSelected":true}},{"url":"text","valueString":"Hispanic or Latino"}]}],"identifier":[{"type":{"coding":[{"system":"http://terminology.hl7.org/CodeSystem/v2-0203","code":"MR"}]},"system":"https://bonnie-fhir.healthit.gov/","value":"633c9d030968f8012250fc9c"}],"active":true,"name":[{"use":"usual","family":"DENEXPass","given":["CMOdurEncTM_EDEndTM=ObsTM_ObsEndTM=EncTM"]}],"gender":"female","birthDate":"1986-09-18"},"request":{"method":"PUT","url":"Patient/3ed947b5-9aba-4bed-aa72-f96b6f3f5082"}},{"fullUrl":"https://madie.cms.gov/Condition/49240fd0-9446-43b0-b2e1-6ed8aa1fa4a7","resource":{"resourceType":"Condition","id":"49240fd0-9446-43b0-b2e1-6ed8aa1fa4a7","meta":{"profile":["http://hl7.org/fhir/us/qicore/StructureDefinition/qicore-condition"]},"clinicalStatus":{"coding":[{"system":"http://terminology.hl7.org/CodeSystem/condition-clinical","code":"inactive"}]},"verificationStatus":{"coding":[{"system":"http://terminology.hl7.org/CodeSystem/condition-ver-status","code":"confirmed"}]},"category":[{"coding":[{"system":"http://terminology.hl7.org/CodeSystem/condition-category","code":"encounter-diagnosis","display":"Encounter Diagnosis"}]}],"code":{"coding":[{"system":"http://hl7.org/fhir/sid/icd-10-cm","code":"I48.20"},{"system":"http://hl7.org/fhir/sid/icd-10-cm","code":"I48.0"},{"system":"http://snomed.info/sct","code":"5370000"}]},"subject":{"reference":"Patient/3ed947b5-9aba-4bed-aa72-f96b6f3f5082"},"onsetDateTime":"2026-10-01T09:00:00.000Z","abatementDateTime":"2026-10-12T00:15:00.000Z"},"request":{"method":"PUT","url":"Condition/49240fd0-9446-43b0-b2e1-6ed8aa1fa4a7"}},{"fullUrl":"https://madie.cms.gov/Encounter/a32636ec-e176-4ff1-a99e-1ba04a4aeda0","resource":{"resourceType":"Encounter","id":"a32636ec-e176-4ff1-a99e-1ba04a4aeda0","meta":{"profile":["http://hl7.org/fhir/us/qicore/StructureDefinition/qicore-encounter"]},"status":"finished","class":{"system":"http://terminology.hl7.org/CodeSystem/v3-ActCode","code":"EMER","display":"emergency"},"type":[{"coding":[{"system":"http://snomed.info/sct","code":"4525004"}]}],"subject":{"reference":"Patient/3ed947b5-9aba-4bed-aa72-f96b6f3f5082"},"period":{"start":"2026-10-01T07:59:00.000Z","end":"2026-10-01T09:00:00.000Z"},"length":{"value":0,"unit":"days"}},"request":{"method":"PUT","url":"Encounter/a32636ec-e176-4ff1-a99e-1ba04a4aeda0"}},{"fullUrl":"https://madie.cms.gov/Encounter/55b1173d-d403-4068-872a-533c579848f4","resource":{"resourceType":"Encounter","id":"55b1173d-d403-4068-872a-533c579848f4","meta":{"profile":["http://hl7.org/fhir/us/qicore/StructureDefinition/qicore-encounter"]},"status":"finished","class":{"system":"http://terminology.hl7.org/CodeSystem/v3-ActCode","code":"OBSENC","display":"observation encounter"},"type":[{"coding":[{"system":"http://snomed.info/sct","code":"448851000124103"}]}],"subject":{"reference":"Patient/3ed947b5-9aba-4bed-aa72-f96b6f3f5082"},"period":{"start":"2026-10-01T09:00:00.000Z","end":"2026-10-01T10:00:00.000Z"},"length":{"value":0,"unit":"days"}},"request":{"method":"PUT","url":"Encounter/55b1173d-d403-4068-872a-533c579848f4"}},{"fullUrl":"https://madie.cms.gov/Encounter/4234c251-2c61-4fb8-89ec-2f52342b7876","resource":{"resourceType":"Encounter","id":"4234c251-2c61-4fb8-89ec-2f52342b7876","meta":{"profile":["http://hl7.org/fhir/us/qicore/StructureDefinition/qicore-encounter"]},"status":"finished","class":{"system":"http://terminology.hl7.org/CodeSystem/v3-ActCode","code":"IMP","display":"inpatient encounter"},"type":[{"coding":[{"system":"http://snomed.info/sct","code":"32485007"}]}],"subject":{"reference":"Patient/3ed947b5-9aba-4bed-aa72-f96b6f3f5082"},"period":{"start":"2026-10-01T10:00:00.000Z","end":"2026-10-12T00:15:00.000Z"},"length":{"value":11,"unit":"days"},"diagnosis":[{"condition":{"reference":"Condition/f8f6b25e-ae56-4b97-8752-6b1f42a884a0"},"use":{"coding":[{"system":"http://terminology.hl7.org/CodeSystem/diagnosis-role","code":"billing","display":"Billing"}]},"rank":1}]},"request":{"method":"PUT","url":"Encounter/4234c251-2c61-4fb8-89ec-2f52342b7876"}},{"fullUrl":"https://madie.cms.gov/ServiceRequest/632f5483-df8c-4d96-a3c7-7df7168d5f13","resource":{"resourceType":"ServiceRequest","id":"632f5483-df8c-4d96-a3c7-7df7168d5f13","meta":{"profile":["http://hl7.org/fhir/us/qicore/StructureDefinition/qicore-servicerequest"]},"status":"active","intent":"order","code":{"coding":[{"system":"http://snomed.info/sct","code":"133918004"}]},"subject":{"reference":"Patient/3ed947b5-9aba-4bed-aa72-f96b6f3f5082"},"authoredOn":"2026-10-01T10:00:00.000+00:00"},"request":{"method":"PUT","url":"ServiceRequest/632f5483-df8c-4d96-a3c7-7df7168d5f13"}},{"fullUrl":"https://madie.cms.gov/Coverage/37d490c3-de3b-46fa-aba2-230216cc4b1d","resource":{"resourceType":"Coverage","id":"37d490c3-de3b-46fa-aba2-230216cc4b1d","status":"active","beneficiary":{"reference":"Patient/3ed947b5-9aba-4bed-aa72-f96b6f3f5082"},"period":{"start":"1986-09-18T08:00:00.000Z"},"payor":[{"reference":"Organization/a6c3e6fa-301e-4714-9d04-3dde9a7e7c49"}]},"request":{"method":"PUT","url":"Coverage/37d490c3-de3b-46fa-aba2-230216cc4b1d"}},{"fullUrl":"https://madie.cms.gov/Condition/f8f6b25e-ae56-4b97-8752-6b1f42a884a0","resource":{"resourceType":"Condition","id":"f8f6b25e-ae56-4b97-8752-6b1f42a884a0","meta":{"profile":["http://hl7.org/fhir/us/qicore/StructureDefinition/qicore-condition"]},"clinicalStatus":{"coding":[{"system":"http://terminology.hl7.org/CodeSystem/condition-clinical","code":"active"}]},"verificationStatus":{"coding":[{"system":"http://terminology.hl7.org/CodeSystem/condition-ver-status","code":"confirmed"}]},"category":[{"coding":[{"system":"http://terminology.hl7.org/CodeSystem/condition-category","code":"encounter-diagnosis","display":"Encounter Diagnosis"}]}],"code":{"coding":[{"system":"http://snomed.info/sct","version":"2021-09","code":"111297002","display":"Nonparalytic stroke (disorder)","userSelected":true}]},"subject":{"reference":"Patient/3ed947b5-9aba-4bed-aa72-f96b6f3f5082"},"recordedDate":"2026-10-13T08:00:00.000+00:00"},"request":{"method":"PUT","url":"Condition/f8f6b25e-ae56-4b97-8752-6b1f42a884a0"}},{"fullUrl":"https://madie.cms.gov/Organization/bc442637-ac1c-401d-ad3f-8d4e0de446c2","resource":{"resourceType":"Organization","id":"a6c3e6fa-301e-4714-9d04-3dde9a7e7c49","meta":{"profile":["http://hl7.org/fhir/us/qicore/StructureDefinition/qicore-organization"]},"identifier":[{"use":"temp","system":"urn:oid:2.16.840.1.113883.4.4","value":"21-3259825"}],"active":true,"type":[{"coding":[{"system":"http://terminology.hl7.org/CodeSystem/organization-type","code":"pay","display":"Payer"}]}],"name":"Blue Cross Blue Shield of Texas","telecom":[{"system":"phone","value":"(+1) 972-766-6900"}],"address":[{"use":"billing","type":"postal","line":["P.O. Box 660044"],"city":"Dallas","state":"TX","postalCode":"75266-0044","country":"USA"}]},"request":{"method":"PUT","url":"Organization/a6c3e6fa-301e-4714-9d04-3dde9a7e7c49"}},{"fullUrl":"https://madie.cms.gov/Practitioner/e7a49398-888a-4e11-bcbc-a1bd853eb90c","resource":{"resourceType":"Practitioner","id":"e7a49398-888a-4e11-bcbc-a1bd853eb90c","identifier":[{"system":"http://hl7.org/fhir/sid/us-npi","value":"123456"}],"name":[{"family":"Evil","prefix":["Dr"]}]},"request":{"method":"PUT","url":"Practitioner/e7a49398-888a-4e11-bcbc-a1bd853eb90c"}},{"fullUrl":"https://madie.cms.gov/MeasureReport/3752eb80-e994-4cca-a77c-8889ea971075","resource":{"resourceType":"MeasureReport","id":"3752eb80-e994-4cca-a77c-8889ea971075","meta":{"profile":["http://hl7.org/fhir/us/cqfmeasures/StructureDefinition/test-case-cqfm"]},"contained":[{"resourceType":"Parameters","id":"16c8b3d5-12cd-4278-b1d4-5a1cfa0bb7c6-parameters","parameter":[{"name":"subject","valueString":"3ed947b5-9aba-4bed-aa72-f96b6f3f5082"}]}],"extension":[{"url":"http://hl7.org/fhir/us/cqfmeasures/StructureDefinition/cqfm-inputParameters","valueReference":{"reference":"#16c8b3d5-12cd-4278-b1d4-5a1cfa0bb7c6-parameters"}},{"url":"http://hl7.org/fhir/us/cqfmeasures/StructureDefinition/cqfm-testCaseDescription","valueMarkdown":"Patient receives CMO during inpatient encounter. ED ends on Observation start and Obs ends on inpatient encounter start. Testing HospitalizationWithObservation function.\n"}],"modifierExtension":[{"url":"http://hl7.org/fhir/us/cqfmeasures/StructureDefinition/cqfm-isTestCase","valueBoolean":true}],"status":"complete","type":"individual","measure":"https://madie.cms.gov/Measure/CMS71FHIRSTKAnticoagAFFlutter","period":{"start":"2026-01-01","end":"2026-12-31"},"group":[{"population":[{"code":{"coding":[{"system":"http://terminology.hl7.org/CodeSystem/measure-population","code":"initial-population","display":"Initial Population"}]},"count":1},{"code":{"coding":[{"system":"http://terminology.hl7.org/CodeSystem/measure-population","code":"denominator","display":"Denominator"}]},"count":1},{"code":{"coding":[{"system":"http://terminology.hl7.org/CodeSystem/measure-population","code":"denominator-exclusion","display":"Denominator Exclusion"}]},"count":1},{"code":{"coding":[{"system":"http://terminology.hl7.org/CodeSystem/measure-population","code":"numerator","display":"Numerator"}]},"count":0},{"code":{"coding":[{"system":"http://terminology.hl7.org/CodeSystem/measure-population","code":"denominator-exception","display":"Denominator Exception"}]},"count":0}]}]},"request":{"method":"PUT","url":"MeasureReport/3752eb80-e994-4cca-a77c-8889ea971075"}}]}