{"resourceType":"Bundle","id":"tests-aedf9576-e1ce-4777-8e3a-5089076b50f4-bundle","type":"transaction","entry":[{"fullUrl":"https://madie.cms.gov/Patient/aedf9576-e1ce-4777-8e3a-5089076b50f4","resource":{"resourceType":"Patient","id":"aedf9576-e1ce-4777-8e3a-5089076b50f4","meta":{"profile":["http://hl7.org/fhir/us/qicore/StructureDefinition/qicore-patient"]},"text":{"status":"generated","div":"<div xmlns=\"http://www.w3.org/1999/xhtml\"><div class=\"hapiHeaderText\">Age=18ondayOfEnc <b>IPPPASS </b></div><table class=\"hapiPropertyTable\"><tbody><tr><td>Identifier</td><td>384b0a61298e7a9ca56a87b5bee0a043</td></tr><tr><td>Date of birth</td><td><span>08 February 1994</span></td></tr></tbody></table></div>"},"extension":[{"url":"http://hl7.org/fhir/us/core/StructureDefinition/us-core-race","extension":[{"url":"ombCategory","valueCoding":{"system":"urn:oid:2.16.840.1.113883.6.238","code":"1002-5","display":"American Indian or Alaska Native","userSelected":true}},{"url":"text","valueString":"American Indian or Alaska Native"}]},{"url":"http://hl7.org/fhir/us/core/StructureDefinition/us-core-ethnicity","extension":[{"url":"ombCategory","valueCoding":{"system":"urn:oid:2.16.840.1.113883.6.238","code":"2135-2","display":"Hispanic or Latino","userSelected":true}},{"url":"text","valueString":"Hispanic or Latino"}]}],"identifier":[{"type":{"coding":[{"system":"http://terminology.hl7.org/CodeSystem/v2-0203","code":"MR"}]},"system":"https://bonnie-fhir.healthit.gov/","value":"633c9d030968f8012250fc71"}],"active":true,"name":[{"use":"usual","family":"IPPPass","given":["Age=18ondayOfEnc"]}],"gender":"male","birthDate":"2007-02-08"},"request":{"method":"PUT","url":"Patient/aedf9576-e1ce-4777-8e3a-5089076b50f4"}},{"fullUrl":"https://madie.cms.gov/Encounter/dbfec18e-570f-4e63-9d52-4a05b963b0e2","resource":{"resourceType":"Encounter","id":"dbfec18e-570f-4e63-9d52-4a05b963b0e2","meta":{"profile":["http://hl7.org/fhir/us/qicore/StructureDefinition/qicore-encounter"]},"status":"finished","class":{"system":"http://terminology.hl7.org/CodeSystem/v3-ActCode","code":"IMP","display":"inpatient encounter"},"type":[{"coding":[{"system":"http://snomed.info/sct","code":"32485007"}]}],"subject":{"reference":"Patient/aedf9576-e1ce-4777-8e3a-5089076b50f4"},"period":{"start":"2026-02-08T08:00:00.000Z","end":"2026-02-10T08:15:00.000Z"},"length":{"value":2,"unit":"days"},"diagnosis":[{"condition":{"reference":"Condition/d3df8b6b-dafd-4877-b362-659a86b6c4d0"},"use":{"coding":[{"system":"http://terminology.hl7.org/CodeSystem/diagnosis-role","code":"billing","display":"Billing"}]},"rank":1}]},"request":{"method":"PUT","url":"Encounter/dbfec18e-570f-4e63-9d52-4a05b963b0e2"}},{"fullUrl":"https://madie.cms.gov/Coverage/ae9669dd-4e8b-4ec9-9e97-69d7ece0cb8e","resource":{"resourceType":"Coverage","id":"ae9669dd-4e8b-4ec9-9e97-69d7ece0cb8e","status":"active","beneficiary":{"reference":"Patient/aedf9576-e1ce-4777-8e3a-5089076b50f4"},"period":{"start":"1995-02-08T08:00:00.000Z"},"payor":[{"reference":"Organization/e75793c9-fdf6-463a-8c1d-4ee44320dc25"}]},"request":{"method":"PUT","url":"Coverage/ae9669dd-4e8b-4ec9-9e97-69d7ece0cb8e"}},{"fullUrl":"https://madie.cms.gov/Condition/d3df8b6b-dafd-4877-b362-659a86b6c4d0","resource":{"resourceType":"Condition","id":"d3df8b6b-dafd-4877-b362-659a86b6c4d0","meta":{"profile":["http://hl7.org/fhir/us/qicore/StructureDefinition/qicore-condition"]},"clinicalStatus":{"coding":[{"system":"http://terminology.hl7.org/CodeSystem/condition-clinical","code":"active"}]},"verificationStatus":{"coding":[{"system":"http://terminology.hl7.org/CodeSystem/condition-ver-status","code":"confirmed"}]},"category":[{"coding":[{"system":"http://terminology.hl7.org/CodeSystem/condition-category","code":"encounter-diagnosis","display":"Encounter Diagnosis"}]}],"code":{"coding":[{"system":"http://snomed.info/sct","version":"2021-09","code":"111297002","display":"Nonparalytic stroke (disorder)","userSelected":true}]},"subject":{"reference":"Patient/aedf9576-e1ce-4777-8e3a-5089076b50f4"},"recordedDate":"2026-10-13T08:00:00.000+00:00"},"request":{"method":"PUT","url":"Condition/d3df8b6b-dafd-4877-b362-659a86b6c4d0"}},{"fullUrl":"https://madie.cms.gov/Organization/3c30db31-cb59-4ee2-91cd-4c48a7e1025a","resource":{"resourceType":"Organization","id":"e75793c9-fdf6-463a-8c1d-4ee44320dc25","meta":{"profile":["http://hl7.org/fhir/us/qicore/StructureDefinition/qicore-organization"]},"identifier":[{"use":"temp","system":"urn:oid:2.16.840.1.113883.4.4","value":"21-3259825"}],"active":true,"type":[{"coding":[{"system":"http://terminology.hl7.org/CodeSystem/organization-type","code":"pay","display":"Payer"}]}],"name":"Blue Cross Blue Shield of Texas","telecom":[{"system":"phone","value":"(+1) 972-766-6900"}],"address":[{"use":"billing","type":"postal","line":["P.O. Box 660044"],"city":"Dallas","state":"TX","postalCode":"75266-0044","country":"USA"}]},"request":{"method":"PUT","url":"Organization/e75793c9-fdf6-463a-8c1d-4ee44320dc25"}},{"fullUrl":"https://madie.cms.gov/Practitioner/3262b0a3-cb48-4c79-a8da-bb33324f19f0","resource":{"resourceType":"Practitioner","id":"3262b0a3-cb48-4c79-a8da-bb33324f19f0","identifier":[{"system":"http://hl7.org/fhir/sid/us-npi","value":"123456"}],"name":[{"family":"Evil","prefix":["Dr"]}]},"request":{"method":"PUT","url":"Practitioner/3262b0a3-cb48-4c79-a8da-bb33324f19f0"}},{"fullUrl":"https://madie.cms.gov/MeasureReport/06e2f8d0-a1b5-4cb0-a93f-1115e9d5d157","resource":{"resourceType":"MeasureReport","id":"06e2f8d0-a1b5-4cb0-a93f-1115e9d5d157","meta":{"profile":["http://hl7.org/fhir/us/cqfmeasures/StructureDefinition/test-case-cqfm"]},"contained":[{"resourceType":"Parameters","id":"6e09e5ad-43ed-4dda-ab90-2c89044b0df3-parameters","parameter":[{"name":"subject","valueString":"aedf9576-e1ce-4777-8e3a-5089076b50f4"}]}],"extension":[{"url":"http://hl7.org/fhir/us/cqfmeasures/StructureDefinition/cqfm-inputParameters","valueReference":{"reference":"#6e09e5ad-43ed-4dda-ab90-2c89044b0df3-parameters"}},{"url":"http://hl7.org/fhir/us/cqfmeasures/StructureDefinition/cqfm-testCaseDescription","valueMarkdown":"Principal diagnosis = ischemic stroke, patient turns 18 on OccurA starts\n"}],"modifierExtension":[{"url":"http://hl7.org/fhir/us/cqfmeasures/StructureDefinition/cqfm-isTestCase","valueBoolean":true}],"status":"complete","type":"individual","measure":"https://madie.cms.gov/Measure/CMS71FHIRSTKAnticoagAFFlutter","period":{"start":"2026-01-01","end":"2026-12-31"},"group":[{"population":[{"code":{"coding":[{"system":"http://terminology.hl7.org/CodeSystem/measure-population","code":"initial-population","display":"Initial Population"}]},"count":1},{"code":{"coding":[{"system":"http://terminology.hl7.org/CodeSystem/measure-population","code":"denominator","display":"Denominator"}]},"count":0},{"code":{"coding":[{"system":"http://terminology.hl7.org/CodeSystem/measure-population","code":"denominator-exclusion","display":"Denominator Exclusion"}]},"count":0},{"code":{"coding":[{"system":"http://terminology.hl7.org/CodeSystem/measure-population","code":"numerator","display":"Numerator"}]},"count":0},{"code":{"coding":[{"system":"http://terminology.hl7.org/CodeSystem/measure-population","code":"denominator-exception","display":"Denominator Exception"}]},"count":0}]}]},"request":{"method":"PUT","url":"MeasureReport/06e2f8d0-a1b5-4cb0-a93f-1115e9d5d157"}}]}