{"resourceType":"Bundle","id":"tests-4580e833-7432-4f02-8742-8beceaac18e8-bundle","type":"transaction","entry":[{"fullUrl":"https://madie.cms.gov/Patient/4580e833-7432-4f02-8742-8beceaac18e8","resource":{"resourceType":"Patient","id":"4580e833-7432-4f02-8742-8beceaac18e8","meta":{"profile":["http://hl7.org/fhir/us/qicore/StructureDefinition/qicore-patient"]},"text":{"status":"generated","div":"<div xmlns=\"http://www.w3.org/1999/xhtml\"><div class=\"hapiHeaderText\">Anticoag@DC <b>NUMERPASS </b></div><table class=\"hapiPropertyTable\"><tbody><tr><td>Identifier</td><td>52c14de634122f39abfbd9ffaa41bc27</td></tr><tr><td>Date of birth</td><td><span>23 May 1954</span></td></tr></tbody></table></div>"},"extension":[{"url":"http://hl7.org/fhir/us/core/StructureDefinition/us-core-race","extension":[{"url":"ombCategory","valueCoding":{"system":"urn:oid:2.16.840.1.113883.6.238","code":"1002-5","display":"American Indian or Alaska Native","userSelected":true}},{"url":"text","valueString":"American Indian or Alaska Native"}]},{"url":"http://hl7.org/fhir/us/core/StructureDefinition/us-core-ethnicity","extension":[{"url":"ombCategory","valueCoding":{"system":"urn:oid:2.16.840.1.113883.6.238","code":"2135-2","display":"Hispanic or Latino","userSelected":true}},{"url":"text","valueString":"Hispanic or Latino"}]}],"identifier":[{"type":{"coding":[{"system":"http://terminology.hl7.org/CodeSystem/v2-0203","code":"MR"}]},"system":"https://bonnie-fhir.healthit.gov/","value":"633c9d020968f8012250fc66"}],"active":true,"name":[{"use":"usual","family":"NUMERPass","given":["Anticoag@DC"]}],"gender":"female","birthDate":"1955-05-23"},"request":{"method":"PUT","url":"Patient/4580e833-7432-4f02-8742-8beceaac18e8"}},{"fullUrl":"https://madie.cms.gov/Encounter/30f8e3ac-94ed-438f-a8e0-772a126d5b05","resource":{"resourceType":"Encounter","id":"30f8e3ac-94ed-438f-a8e0-772a126d5b05","meta":{"profile":["http://hl7.org/fhir/us/qicore/StructureDefinition/qicore-encounter"]},"status":"finished","class":{"system":"http://terminology.hl7.org/CodeSystem/v3-ActCode","code":"IMP","display":"inpatient encounter"},"type":[{"coding":[{"system":"http://snomed.info/sct","code":"32485007"}]}],"subject":{"reference":"Patient/4580e833-7432-4f02-8742-8beceaac18e8"},"period":{"start":"2026-11-20T08:00:00.000Z","end":"2026-11-24T08:15:00.000Z"},"length":{"value":4,"unit":"days"},"diagnosis":[{"condition":{"reference":"Condition/a5a2c90c-6c21-46d6-9689-bf92d081e896"},"use":{"coding":[{"system":"http://terminology.hl7.org/CodeSystem/diagnosis-role","code":"billing","display":"Billing"}]},"rank":1}]},"request":{"method":"PUT","url":"Encounter/30f8e3ac-94ed-438f-a8e0-772a126d5b05"}},{"fullUrl":"https://madie.cms.gov/MedicationRequest/0a4208db-d131-4d16-8539-d6d471efcd35","resource":{"resourceType":"MedicationRequest","id":"0a4208db-d131-4d16-8539-d6d471efcd35","meta":{"profile":["http://hl7.org/fhir/us/qicore/StructureDefinition/qicore-medicationrequest"]},"status":"completed","intent":"order","category":[{"coding":[{"system":"http://terminology.hl7.org/CodeSystem/medicationrequest-category","code":"community","display":"Community","userSelected":true}]}],"doNotPerform":false,"medicationCodeableConcept":{"coding":[{"system":"http://www.nlm.nih.gov/research/umls/rxnorm","version":"2022-01","code":"308351","display":"2.5 ML argatroban 100 MG/ML Injection","userSelected":true}]},"subject":{"reference":"Patient/4580e833-7432-4f02-8742-8beceaac18e8"},"authoredOn":"2026-11-24T08:00:00.000+00:00","requester":{"reference":"Practitioner/example"}},"request":{"method":"PUT","url":"MedicationRequest/0a4208db-d131-4d16-8539-d6d471efcd35"}},{"fullUrl":"https://madie.cms.gov/Coverage/92fd847b-59fd-455a-af80-8995ac550542","resource":{"resourceType":"Coverage","id":"92fd847b-59fd-455a-af80-8995ac550542","status":"active","beneficiary":{"reference":"Patient/4580e833-7432-4f02-8742-8beceaac18e8"},"period":{"start":"1955-05-23T08:00:00.000Z"},"payor":[{"reference":"Organization/5ad6ea38-07e9-4482-9e1b-c09eee595be9"}]},"request":{"method":"PUT","url":"Coverage/92fd847b-59fd-455a-af80-8995ac550542"}},{"fullUrl":"https://madie.cms.gov/Procedure/1b922805-26fd-4029-8a40-6b7f1d9e4928","resource":{"resourceType":"Procedure","id":"1b922805-26fd-4029-8a40-6b7f1d9e4928","meta":{"profile":["http://hl7.org/fhir/us/qicore/StructureDefinition/qicore-procedure"]},"extension":[{"url":"http://hl7.org/fhir/us/qicore/StructureDefinition/qicore-recorded","valueDateTime":"2026-11-19T09:35:00-04:00"}],"status":"completed","code":{"coding":[{"system":"http://www.cms.gov/Medicare/Coding/ICD10","code":"02560ZZ"},{"system":"http://snomed.info/sct","code":"175095005"}]},"subject":{"reference":"Patient/4580e833-7432-4f02-8742-8beceaac18e8"},"performedPeriod":{"start":"2026-11-20T06:00:00.000Z","end":"2026-11-20T07:15:00.000Z"}},"request":{"method":"PUT","url":"Procedure/1b922805-26fd-4029-8a40-6b7f1d9e4928"}},{"fullUrl":"https://madie.cms.gov/Condition/a5a2c90c-6c21-46d6-9689-bf92d081e896","resource":{"resourceType":"Condition","id":"a5a2c90c-6c21-46d6-9689-bf92d081e896","meta":{"profile":["http://hl7.org/fhir/us/qicore/StructureDefinition/qicore-condition"]},"clinicalStatus":{"coding":[{"system":"http://terminology.hl7.org/CodeSystem/condition-clinical","code":"active"}]},"verificationStatus":{"coding":[{"system":"http://terminology.hl7.org/CodeSystem/condition-ver-status","code":"confirmed"}]},"category":[{"coding":[{"system":"http://terminology.hl7.org/CodeSystem/condition-category","code":"encounter-diagnosis","display":"Encounter Diagnosis"}]}],"code":{"coding":[{"system":"http://snomed.info/sct","version":"2021-09","code":"111297002","display":"Nonparalytic stroke (disorder)","userSelected":true}]},"subject":{"reference":"Patient/4580e833-7432-4f02-8742-8beceaac18e8"},"recordedDate":"2026-10-13T08:00:00.000+00:00"},"request":{"method":"PUT","url":"Condition/a5a2c90c-6c21-46d6-9689-bf92d081e896"}},{"fullUrl":"https://madie.cms.gov/Organization/63fc0216-f3b9-41b4-9ec0-cb375b9133f5","resource":{"resourceType":"Organization","id":"5ad6ea38-07e9-4482-9e1b-c09eee595be9","meta":{"profile":["http://hl7.org/fhir/us/qicore/StructureDefinition/qicore-organization"]},"identifier":[{"use":"temp","system":"urn:oid:2.16.840.1.113883.4.4","value":"21-3259825"}],"active":true,"type":[{"coding":[{"system":"http://terminology.hl7.org/CodeSystem/organization-type","code":"pay","display":"Payer"}]}],"name":"Blue Cross Blue Shield of Texas","telecom":[{"system":"phone","value":"(+1) 972-766-6900"}],"address":[{"use":"billing","type":"postal","line":["P.O. Box 660044"],"city":"Dallas","state":"TX","postalCode":"75266-0044","country":"USA"}]},"request":{"method":"PUT","url":"Organization/5ad6ea38-07e9-4482-9e1b-c09eee595be9"}},{"fullUrl":"https://madie.cms.gov/Practitioner/af192f9e-46cc-48eb-9555-1e8c85c142c7","resource":{"resourceType":"Practitioner","id":"af192f9e-46cc-48eb-9555-1e8c85c142c7","identifier":[{"system":"http://hl7.org/fhir/sid/us-npi","value":"123456"}],"name":[{"family":"Evil","prefix":["Dr"]}]},"request":{"method":"PUT","url":"Practitioner/af192f9e-46cc-48eb-9555-1e8c85c142c7"}},{"fullUrl":"https://madie.cms.gov/MeasureReport/b992fb28-b9c8-4afa-9a16-64abfc3c5fb0","resource":{"resourceType":"MeasureReport","id":"b992fb28-b9c8-4afa-9a16-64abfc3c5fb0","meta":{"profile":["http://hl7.org/fhir/us/cqfmeasures/StructureDefinition/test-case-cqfm"]},"contained":[{"resourceType":"Parameters","id":"f3bab080-1d5a-4c0e-8132-b17333fdb8e5-parameters","parameter":[{"name":"subject","valueString":"4580e833-7432-4f02-8742-8beceaac18e8"}]}],"extension":[{"url":"http://hl7.org/fhir/us/cqfmeasures/StructureDefinition/cqfm-inputParameters","valueReference":{"reference":"#f3bab080-1d5a-4c0e-8132-b17333fdb8e5-parameters"}},{"url":"http://hl7.org/fhir/us/cqfmeasures/StructureDefinition/cqfm-testCaseDescription","valueMarkdown":"Testing anticoag do not perform for coverage=False"}],"modifierExtension":[{"url":"http://hl7.org/fhir/us/cqfmeasures/StructureDefinition/cqfm-isTestCase","valueBoolean":true}],"status":"complete","type":"individual","measure":"https://madie.cms.gov/Measure/CMS71FHIRSTKAnticoagAFFlutter","period":{"start":"2026-01-01","end":"2026-12-31"},"group":[{"population":[{"code":{"coding":[{"system":"http://terminology.hl7.org/CodeSystem/measure-population","code":"initial-population","display":"Initial Population"}]},"count":1},{"code":{"coding":[{"system":"http://terminology.hl7.org/CodeSystem/measure-population","code":"denominator","display":"Denominator"}]},"count":1},{"code":{"coding":[{"system":"http://terminology.hl7.org/CodeSystem/measure-population","code":"denominator-exclusion","display":"Denominator Exclusion"}]},"count":0},{"code":{"coding":[{"system":"http://terminology.hl7.org/CodeSystem/measure-population","code":"numerator","display":"Numerator"}]},"count":1},{"code":{"coding":[{"system":"http://terminology.hl7.org/CodeSystem/measure-population","code":"denominator-exception","display":"Denominator Exception"}]},"count":0}]}]},"request":{"method":"PUT","url":"MeasureReport/b992fb28-b9c8-4afa-9a16-64abfc3c5fb0"}}]}