{"resourceType":"Bundle","id":"tests-acdea97f-8a2e-4aa3-b51f-768c5ad5ead8-bundle","type":"transaction","entry":[{"fullUrl":"https://madie.cms.gov/Patient/acdea97f-8a2e-4aa3-b51f-768c5ad5ead8","resource":{"resourceType":"Patient","id":"acdea97f-8a2e-4aa3-b51f-768c5ad5ead8","meta":{"profile":["http://hl7.org/fhir/us/qicore/StructureDefinition/qicore-patient"]},"text":{"status":"generated","div":"<div xmlns=\"http://www.w3.org/1999/xhtml\"><div class=\"hapiHeaderText\">DCtoICU <b>DENEXFAIL </b></div><table class=\"hapiPropertyTable\"><tbody><tr><td>Identifier</td><td>a1386c36da1b287caf9fd1b8d75c10d3</td></tr><tr><td>Date of birth</td><td><span>31 July 1969</span></td></tr></tbody></table></div>"},"extension":[{"url":"http://hl7.org/fhir/us/core/StructureDefinition/us-core-race","extension":[{"url":"ombCategory","valueCoding":{"system":"urn:oid:2.16.840.1.113883.6.238","code":"1002-5","display":"American Indian or Alaska Native","userSelected":true}},{"url":"text","valueString":"American Indian or Alaska Native"}]},{"url":"http://hl7.org/fhir/us/core/StructureDefinition/us-core-ethnicity","extension":[{"url":"ombCategory","valueCoding":{"system":"urn:oid:2.16.840.1.113883.6.238","code":"2135-2","display":"Hispanic or Latino","userSelected":true}},{"url":"text","valueString":"Hispanic or Latino"}]}],"identifier":[{"type":{"coding":[{"system":"http://terminology.hl7.org/CodeSystem/v2-0203","code":"MR"}]},"system":"https://bonnie-fhir.healthit.gov/","value":"633c9d040968f8012250fcac"}],"active":true,"name":[{"use":"usual","family":"DENEXFail","given":["DCtoICU"]}],"gender":"male","birthDate":"1970-07-31"},"request":{"method":"PUT","url":"Patient/acdea97f-8a2e-4aa3-b51f-768c5ad5ead8"}},{"fullUrl":"https://madie.cms.gov/Encounter/09a44a22-72af-4694-a9a6-f48bbfb07579","resource":{"resourceType":"Encounter","id":"09a44a22-72af-4694-a9a6-f48bbfb07579","meta":{"profile":["http://hl7.org/fhir/us/qicore/StructureDefinition/qicore-encounter"]},"status":"finished","class":{"system":"http://terminology.hl7.org/CodeSystem/v3-ActCode","code":"EMER","display":"emergency"},"type":[{"coding":[{"system":"http://snomed.info/sct","code":"4525004"}]}],"subject":{"reference":"Patient/acdea97f-8a2e-4aa3-b51f-768c5ad5ead8"},"period":{"start":"2026-11-20T07:00:00.000Z","end":"2026-11-20T07:45:00.000Z"},"length":{"value":0,"unit":"days"}},"request":{"method":"PUT","url":"Encounter/09a44a22-72af-4694-a9a6-f48bbfb07579"}},{"fullUrl":"https://madie.cms.gov/Encounter/7fcea268-dec1-477d-b5e7-62a4ba108a5d","resource":{"resourceType":"Encounter","id":"7fcea268-dec1-477d-b5e7-62a4ba108a5d","meta":{"profile":["http://hl7.org/fhir/us/qicore/StructureDefinition/qicore-encounter"]},"status":"finished","class":{"system":"http://terminology.hl7.org/CodeSystem/v3-ActCode","code":"IMP","display":"inpatient encounter"},"type":[{"coding":[{"system":"http://snomed.info/sct","code":"32485007"}]}],"subject":{"reference":"Patient/acdea97f-8a2e-4aa3-b51f-768c5ad5ead8"},"period":{"start":"2026-11-20T08:00:00.000Z","end":"2026-11-24T08:15:00.000Z"},"length":{"value":4,"unit":"days"},"diagnosis":[{"condition":{"reference":"Condition/588788c2-e8d1-4054-85c6-3a47d058c69c"},"use":{"coding":[{"system":"http://terminology.hl7.org/CodeSystem/diagnosis-role","code":"billing","display":"Billing"}]},"rank":1}],"hospitalization":{"dischargeDisposition":{"coding":[{"system":"http://cts.nlm.nih.gov/fhir/cs/hsloc","code":"1025-6","display":"Trauma Critical Care"}]}}},"request":{"method":"PUT","url":"Encounter/7fcea268-dec1-477d-b5e7-62a4ba108a5d"}},{"fullUrl":"https://madie.cms.gov/Coverage/e9178a15-c63f-4415-8bc5-93d4d64dbc07","resource":{"resourceType":"Coverage","id":"e9178a15-c63f-4415-8bc5-93d4d64dbc07","status":"active","beneficiary":{"reference":"Patient/acdea97f-8a2e-4aa3-b51f-768c5ad5ead8"},"period":{"start":"1970-07-31T08:00:00.000Z"},"payor":[{"reference":"Organization/db141f66-a1cc-407b-9e95-adac27adee14"}]},"request":{"method":"PUT","url":"Coverage/e9178a15-c63f-4415-8bc5-93d4d64dbc07"}},{"fullUrl":"https://madie.cms.gov/Procedure/090810c2-a988-4755-bed1-ccd8262c74bc","resource":{"resourceType":"Procedure","id":"090810c2-a988-4755-bed1-ccd8262c74bc","meta":{"profile":["http://hl7.org/fhir/us/qicore/StructureDefinition/qicore-procedure"]},"extension":[{"url":"http://hl7.org/fhir/us/qicore/StructureDefinition/qicore-recorded","valueDateTime":"2026-11-19T09:35:00-04:00"}],"status":"completed","code":{"coding":[{"system":"http://www.cms.gov/Medicare/Coding/ICD10","code":"02560ZZ"},{"system":"http://snomed.info/sct","code":"175095005"}]},"subject":{"reference":"Patient/acdea97f-8a2e-4aa3-b51f-768c5ad5ead8"},"performedPeriod":{"start":"2026-11-19T08:00:00.000Z","end":"2026-11-20T08:15:00.000Z"}},"request":{"method":"PUT","url":"Procedure/090810c2-a988-4755-bed1-ccd8262c74bc"}},{"fullUrl":"https://madie.cms.gov/Condition/588788c2-e8d1-4054-85c6-3a47d058c69c","resource":{"resourceType":"Condition","id":"588788c2-e8d1-4054-85c6-3a47d058c69c","meta":{"profile":["http://hl7.org/fhir/us/qicore/StructureDefinition/qicore-condition"]},"clinicalStatus":{"coding":[{"system":"http://terminology.hl7.org/CodeSystem/condition-clinical","code":"active"}]},"verificationStatus":{"coding":[{"system":"http://terminology.hl7.org/CodeSystem/condition-ver-status","code":"confirmed"}]},"category":[{"coding":[{"system":"http://terminology.hl7.org/CodeSystem/condition-category","code":"encounter-diagnosis","display":"Encounter Diagnosis"}]}],"code":{"coding":[{"system":"http://snomed.info/sct","version":"2021-09","code":"111297002","display":"Nonparalytic stroke (disorder)","userSelected":true}]},"subject":{"reference":"Patient/acdea97f-8a2e-4aa3-b51f-768c5ad5ead8"},"recordedDate":"2026-10-13T08:00:00.000+00:00"},"request":{"method":"PUT","url":"Condition/588788c2-e8d1-4054-85c6-3a47d058c69c"}},{"fullUrl":"https://madie.cms.gov/Organization/089932aa-7618-4f11-97f6-e36c3abfa7bd","resource":{"resourceType":"Organization","id":"db141f66-a1cc-407b-9e95-adac27adee14","meta":{"profile":["http://hl7.org/fhir/us/qicore/StructureDefinition/qicore-organization"]},"identifier":[{"use":"temp","system":"urn:oid:2.16.840.1.113883.4.4","value":"21-3259825"}],"active":true,"type":[{"coding":[{"system":"http://terminology.hl7.org/CodeSystem/organization-type","code":"pay","display":"Payer"}]}],"name":"Blue Cross Blue Shield of Texas","telecom":[{"system":"phone","value":"(+1) 972-766-6900"}],"address":[{"use":"billing","type":"postal","line":["P.O. Box 660044"],"city":"Dallas","state":"TX","postalCode":"75266-0044","country":"USA"}]},"request":{"method":"PUT","url":"Organization/db141f66-a1cc-407b-9e95-adac27adee14"}},{"fullUrl":"https://madie.cms.gov/Practitioner/12ffd9cc-72ec-4d66-a6b6-a435842ce01c","resource":{"resourceType":"Practitioner","id":"12ffd9cc-72ec-4d66-a6b6-a435842ce01c","identifier":[{"system":"http://hl7.org/fhir/sid/us-npi","value":"123456"}],"name":[{"family":"Evil","prefix":["Dr"]}]},"request":{"method":"PUT","url":"Practitioner/12ffd9cc-72ec-4d66-a6b6-a435842ce01c"}},{"fullUrl":"https://madie.cms.gov/MeasureReport/c3b7a527-043c-4d78-8a50-468d4d09767a","resource":{"resourceType":"MeasureReport","id":"c3b7a527-043c-4d78-8a50-468d4d09767a","meta":{"profile":["http://hl7.org/fhir/us/cqfmeasures/StructureDefinition/test-case-cqfm"]},"contained":[{"resourceType":"Parameters","id":"8fc5260b-9b30-4581-9d27-3859021d12c7-parameters","parameter":[{"name":"subject","valueString":"acdea97f-8a2e-4aa3-b51f-768c5ad5ead8"}]}],"extension":[{"url":"http://hl7.org/fhir/us/cqfmeasures/StructureDefinition/cqfm-inputParameters","valueReference":{"reference":"#8fc5260b-9b30-4581-9d27-3859021d12c7-parameters"}},{"url":"http://hl7.org/fhir/us/cqfmeasures/StructureDefinition/cqfm-testCaseDescription","valueMarkdown":"No discharge status indicated. Testing DENEX logic (intentional fail) with disposition to ICD\n"}],"modifierExtension":[{"url":"http://hl7.org/fhir/us/cqfmeasures/StructureDefinition/cqfm-isTestCase","valueBoolean":true}],"status":"complete","type":"individual","measure":"https://madie.cms.gov/Measure/CMS71FHIRSTKAnticoagAFFlutter","period":{"start":"2026-01-01","end":"2026-12-31"},"group":[{"population":[{"code":{"coding":[{"system":"http://terminology.hl7.org/CodeSystem/measure-population","code":"initial-population","display":"Initial Population"}]},"count":1},{"code":{"coding":[{"system":"http://terminology.hl7.org/CodeSystem/measure-population","code":"denominator","display":"Denominator"}]},"count":1},{"code":{"coding":[{"system":"http://terminology.hl7.org/CodeSystem/measure-population","code":"denominator-exclusion","display":"Denominator Exclusion"}]},"count":0},{"code":{"coding":[{"system":"http://terminology.hl7.org/CodeSystem/measure-population","code":"numerator","display":"Numerator"}]},"count":0},{"code":{"coding":[{"system":"http://terminology.hl7.org/CodeSystem/measure-population","code":"denominator-exception","display":"Denominator Exception"}]},"count":0}]}]},"request":{"method":"PUT","url":"MeasureReport/c3b7a527-043c-4d78-8a50-468d4d09767a"}}]}