{"resourceType":"Bundle","id":"tests-81386d2f-e6d7-4433-b477-314e658f8cfe-bundle","type":"transaction","entry":[{"fullUrl":"https://madie.cms.gov/Patient/81386d2f-e6d7-4433-b477-314e658f8cfe","resource":{"resourceType":"Patient","id":"81386d2f-e6d7-4433-b477-314e658f8cfe","meta":{"profile":["http://hl7.org/fhir/us/qicore/StructureDefinition/qicore-patient"]},"text":{"status":"generated","div":"<div xmlns=\"http://www.w3.org/1999/xhtml\"><div class=\"hapiHeaderText\">MedDCAnticoaStartTmEQEncAdmTm <b>NUMERPASS </b></div><table class=\"hapiPropertyTable\"><tbody><tr><td>Identifier</td><td>31fcea6cd6f0c1c8b9c40622729fede7</td></tr><tr><td>Date of birth</td><td><span>23 May 1954</span></td></tr></tbody></table></div>"},"extension":[{"url":"http://hl7.org/fhir/us/core/StructureDefinition/us-core-race","extension":[{"url":"ombCategory","valueCoding":{"system":"urn:oid:2.16.840.1.113883.6.238","code":"1002-5","display":"American Indian or Alaska Native","userSelected":true}},{"url":"text","valueString":"American Indian or Alaska Native"}]},{"url":"http://hl7.org/fhir/us/core/StructureDefinition/us-core-ethnicity","extension":[{"url":"ombCategory","valueCoding":{"system":"urn:oid:2.16.840.1.113883.6.238","code":"2135-2","display":"Hispanic or Latino","userSelected":true}},{"url":"text","valueString":"Hispanic or Latino"}]}],"identifier":[{"type":{"coding":[{"system":"http://terminology.hl7.org/CodeSystem/v2-0203","code":"MR"}]},"system":"https://bonnie-fhir.healthit.gov/","value":"633c9d030968f8012250fc93"}],"active":true,"name":[{"use":"usual","family":"NUMERPass","given":["MedDCAnticoaStartTmEQEncAdmTm"]}],"gender":"female","birthDate":"1955-05-23"},"request":{"method":"PUT","url":"Patient/81386d2f-e6d7-4433-b477-314e658f8cfe"}},{"fullUrl":"https://madie.cms.gov/Condition/c985caec-07ea-43fb-b22b-c90e397fd52c","resource":{"resourceType":"Condition","id":"c985caec-07ea-43fb-b22b-c90e397fd52c","meta":{"profile":["http://hl7.org/fhir/us/qicore/StructureDefinition/qicore-condition"]},"clinicalStatus":{"coding":[{"system":"http://terminology.hl7.org/CodeSystem/condition-clinical","code":"inactive"}]},"verificationStatus":{"coding":[{"system":"http://terminology.hl7.org/CodeSystem/condition-ver-status","code":"confirmed"}]},"category":[{"coding":[{"system":"http://terminology.hl7.org/CodeSystem/condition-category","code":"encounter-diagnosis","display":"Encounter Diagnosis"}]}],"code":{"coding":[{"system":"http://snomed.info/sct","code":"195080001"},{"system":"http://hl7.org/fhir/sid/icd-9-cm","code":"427.31"},{"system":"http://hl7.org/fhir/sid/icd-10-cm","code":"I48.0"}]},"subject":{"reference":"Patient/81386d2f-e6d7-4433-b477-314e658f8cfe"},"onsetDateTime":"2026-11-20T06:00:00.000Z","abatementDateTime":"2026-11-20T07:15:00.000Z"},"request":{"method":"PUT","url":"Condition/c985caec-07ea-43fb-b22b-c90e397fd52c"}},{"fullUrl":"https://madie.cms.gov/Encounter/7353b06d-7bf1-4995-93bb-6cd15ee61801","resource":{"resourceType":"Encounter","id":"7353b06d-7bf1-4995-93bb-6cd15ee61801","meta":{"profile":["http://hl7.org/fhir/us/qicore/StructureDefinition/qicore-encounter"]},"status":"finished","class":{"system":"http://terminology.hl7.org/CodeSystem/v3-ActCode","code":"IMP","display":"inpatient encounter"},"type":[{"coding":[{"system":"http://snomed.info/sct","code":"32485007"}]}],"subject":{"reference":"Patient/81386d2f-e6d7-4433-b477-314e658f8cfe"},"period":{"start":"2026-11-20T08:00:00.000Z","end":"2026-11-24T08:15:00.000Z"},"length":{"value":4,"unit":"days"},"diagnosis":[{"condition":{"reference":"Condition/79b546c2-ce6b-45b8-a4e7-0cef75f3c973"},"use":{"coding":[{"system":"http://terminology.hl7.org/CodeSystem/diagnosis-role","code":"billing","display":"Billing"}]},"rank":1}]},"request":{"method":"PUT","url":"Encounter/7353b06d-7bf1-4995-93bb-6cd15ee61801"}},{"fullUrl":"https://madie.cms.gov/MedicationRequest/d4ef58a8-cf13-44c2-86d4-01d365ceed3a","resource":{"resourceType":"MedicationRequest","id":"d4ef58a8-cf13-44c2-86d4-01d365ceed3a","meta":{"profile":["http://hl7.org/fhir/us/qicore/StructureDefinition/qicore-medicationrequest"]},"status":"active","intent":"order","category":[{"coding":[{"system":"http://terminology.hl7.org/CodeSystem/medicationrequest-category","code":"community","display":"Community","userSelected":true}]}],"medicationCodeableConcept":{"coding":[{"system":"http://www.nlm.nih.gov/research/umls/rxnorm","code":"308351"}]},"subject":{"reference":"Patient/81386d2f-e6d7-4433-b477-314e658f8cfe"},"authoredOn":"2026-11-20T08:00:00.000+00:00","requester":{"reference":"Practitioner/example"}},"request":{"method":"PUT","url":"MedicationRequest/d4ef58a8-cf13-44c2-86d4-01d365ceed3a"}},{"fullUrl":"https://madie.cms.gov/Coverage/3b64faeb-dcc5-4a8a-80fc-43f44fd1f5e1","resource":{"resourceType":"Coverage","id":"3b64faeb-dcc5-4a8a-80fc-43f44fd1f5e1","status":"active","beneficiary":{"reference":"Patient/81386d2f-e6d7-4433-b477-314e658f8cfe"},"period":{"start":"1955-05-23T08:00:00.000Z"},"payor":[{"reference":"Organization/e75793c9-fdf6-463a-8c1d-4ee44320dc25"}]},"request":{"method":"PUT","url":"Coverage/3b64faeb-dcc5-4a8a-80fc-43f44fd1f5e1"}},{"fullUrl":"https://madie.cms.gov/Condition/79b546c2-ce6b-45b8-a4e7-0cef75f3c973","resource":{"resourceType":"Condition","id":"79b546c2-ce6b-45b8-a4e7-0cef75f3c973","meta":{"profile":["http://hl7.org/fhir/us/qicore/StructureDefinition/qicore-condition"]},"clinicalStatus":{"coding":[{"system":"http://terminology.hl7.org/CodeSystem/condition-clinical","code":"active"}]},"verificationStatus":{"coding":[{"system":"http://terminology.hl7.org/CodeSystem/condition-ver-status","code":"confirmed"}]},"category":[{"coding":[{"system":"http://terminology.hl7.org/CodeSystem/condition-category","code":"encounter-diagnosis","display":"Encounter Diagnosis"}]}],"code":{"coding":[{"system":"http://snomed.info/sct","version":"2021-09","code":"111297002","display":"Nonparalytic stroke (disorder)","userSelected":true}]},"subject":{"reference":"Patient/81386d2f-e6d7-4433-b477-314e658f8cfe"},"recordedDate":"2026-10-13T08:00:00.000+00:00"},"request":{"method":"PUT","url":"Condition/79b546c2-ce6b-45b8-a4e7-0cef75f3c973"}},{"fullUrl":"https://madie.cms.gov/Organization/1942379e-6df8-43dc-b4c3-fdd79912fbb8","resource":{"resourceType":"Organization","id":"e75793c9-fdf6-463a-8c1d-4ee44320dc25","meta":{"profile":["http://hl7.org/fhir/us/qicore/StructureDefinition/qicore-organization"]},"identifier":[{"use":"temp","system":"urn:oid:2.16.840.1.113883.4.4","value":"21-3259825"}],"active":true,"type":[{"coding":[{"system":"http://terminology.hl7.org/CodeSystem/organization-type","code":"pay","display":"Payer"}]}],"name":"Blue Cross Blue Shield of Texas","telecom":[{"system":"phone","value":"(+1) 972-766-6900"}],"address":[{"use":"billing","type":"postal","line":["P.O. Box 660044"],"city":"Dallas","state":"TX","postalCode":"75266-0044","country":"USA"}]},"request":{"method":"PUT","url":"Organization/e75793c9-fdf6-463a-8c1d-4ee44320dc25"}},{"fullUrl":"https://madie.cms.gov/Practitioner/a62ba9fa-3c0d-473c-b075-c5e1d5a84174","resource":{"resourceType":"Practitioner","id":"a62ba9fa-3c0d-473c-b075-c5e1d5a84174","identifier":[{"system":"http://hl7.org/fhir/sid/us-npi","value":"123456"}],"name":[{"family":"Evil","prefix":["Dr"]}]},"request":{"method":"PUT","url":"Practitioner/a62ba9fa-3c0d-473c-b075-c5e1d5a84174"}},{"fullUrl":"https://madie.cms.gov/MeasureReport/8dc18386-a442-4fa8-92e5-21266151e561","resource":{"resourceType":"MeasureReport","id":"8dc18386-a442-4fa8-92e5-21266151e561","meta":{"profile":["http://hl7.org/fhir/us/cqfmeasures/StructureDefinition/test-case-cqfm"]},"contained":[{"resourceType":"Parameters","id":"74a002e3-463b-48d2-b60b-1b315fc7016c-parameters","parameter":[{"name":"subject","valueString":"81386d2f-e6d7-4433-b477-314e658f8cfe"}]}],"extension":[{"url":"http://hl7.org/fhir/us/cqfmeasures/StructureDefinition/cqfm-inputParameters","valueReference":{"reference":"#74a002e3-463b-48d2-b60b-1b315fc7016c-parameters"}},{"url":"http://hl7.org/fhir/us/cqfmeasures/StructureDefinition/cqfm-testCaseDescription","valueMarkdown":"Pt. discharged on anticoagulant, starts same time as OccurA, patient has a history of atrial fibrillation\n"}],"modifierExtension":[{"url":"http://hl7.org/fhir/us/cqfmeasures/StructureDefinition/cqfm-isTestCase","valueBoolean":true}],"status":"complete","type":"individual","measure":"https://madie.cms.gov/Measure/CMS71FHIRSTKAnticoagAFFlutter","period":{"start":"2026-01-01","end":"2026-12-31"},"group":[{"population":[{"code":{"coding":[{"system":"http://terminology.hl7.org/CodeSystem/measure-population","code":"initial-population","display":"Initial Population"}]},"count":1},{"code":{"coding":[{"system":"http://terminology.hl7.org/CodeSystem/measure-population","code":"denominator","display":"Denominator"}]},"count":1},{"code":{"coding":[{"system":"http://terminology.hl7.org/CodeSystem/measure-population","code":"denominator-exclusion","display":"Denominator Exclusion"}]},"count":0},{"code":{"coding":[{"system":"http://terminology.hl7.org/CodeSystem/measure-population","code":"numerator","display":"Numerator"}]},"count":1},{"code":{"coding":[{"system":"http://terminology.hl7.org/CodeSystem/measure-population","code":"denominator-exception","display":"Denominator Exception"}]},"count":0}]}]},"request":{"method":"PUT","url":"MeasureReport/8dc18386-a442-4fa8-92e5-21266151e561"}}]}