{"resourceType":"Bundle","id":"tests-93e2d9e6-00b4-4dfc-a404-f0bd5e73fa7b-bundle","type":"transaction","entry":[{"fullUrl":"https://madie.cms.gov/Patient/93e2d9e6-00b4-4dfc-a404-f0bd5e73fa7b","resource":{"resourceType":"Patient","id":"93e2d9e6-00b4-4dfc-a404-f0bd5e73fa7b","meta":{"profile":["http://hl7.org/fhir/us/qicore/StructureDefinition/qicore-patient"]},"text":{"status":"generated","div":"<div xmlns=\"http://www.w3.org/1999/xhtml\"><div class=\"hapiHeaderText\">CMOdurEnc_NoEDNoObsBFEncDayOf <b>DENEXPASS </b></div><table class=\"hapiPropertyTable\"><tbody><tr><td>Identifier</td><td>9aa695fb8ef01380aee71e782330c899</td></tr><tr><td>Date of birth</td><td><span>18 September 1985</span></td></tr></tbody></table></div>"},"extension":[{"url":"http://hl7.org/fhir/us/core/StructureDefinition/us-core-race","extension":[{"url":"ombCategory","valueCoding":{"system":"urn:oid:2.16.840.1.113883.6.238","code":"1002-5","display":"American Indian or Alaska Native","userSelected":true}},{"url":"text","valueString":"American Indian or Alaska Native"}]},{"url":"http://hl7.org/fhir/us/core/StructureDefinition/us-core-ethnicity","extension":[{"url":"ombCategory","valueCoding":{"system":"urn:oid:2.16.840.1.113883.6.238","code":"2135-2","display":"Hispanic or Latino","userSelected":true}},{"url":"text","valueString":"Hispanic or Latino"}]}],"identifier":[{"type":{"coding":[{"system":"http://terminology.hl7.org/CodeSystem/v2-0203","code":"MR"}]},"system":"https://bonnie-fhir.healthit.gov/","value":"633c9d030968f8012250fc89"}],"active":true,"name":[{"use":"usual","family":"DENEXPass","given":["CMOdurEnc_NoEDNoObsBFEncDayOf"]}],"gender":"female","birthDate":"1986-09-18"},"request":{"method":"PUT","url":"Patient/93e2d9e6-00b4-4dfc-a404-f0bd5e73fa7b"}},{"fullUrl":"https://madie.cms.gov/Condition/33996087-1c07-4b79-b76d-c0cc724a828b","resource":{"resourceType":"Condition","id":"33996087-1c07-4b79-b76d-c0cc724a828b","meta":{"profile":["http://hl7.org/fhir/us/qicore/StructureDefinition/qicore-condition"]},"clinicalStatus":{"coding":[{"system":"http://terminology.hl7.org/CodeSystem/condition-clinical","code":"inactive"}]},"verificationStatus":{"coding":[{"system":"http://terminology.hl7.org/CodeSystem/condition-ver-status","code":"confirmed"}]},"category":[{"coding":[{"system":"http://terminology.hl7.org/CodeSystem/condition-category","code":"encounter-diagnosis","display":"Encounter Diagnosis"}]}],"code":{"coding":[{"system":"http://hl7.org/fhir/sid/icd-10-cm","code":"I48.20"},{"system":"http://hl7.org/fhir/sid/icd-10-cm","code":"I48.0"},{"system":"http://snomed.info/sct","code":"5370000"}]},"subject":{"reference":"Patient/93e2d9e6-00b4-4dfc-a404-f0bd5e73fa7b"},"onsetDateTime":"2026-10-01T09:00:00.000Z","abatementDateTime":"2026-10-12T00:15:00.000Z"},"request":{"method":"PUT","url":"Condition/33996087-1c07-4b79-b76d-c0cc724a828b"}},{"fullUrl":"https://madie.cms.gov/Encounter/973ae5df-2410-40c1-bc5d-1eeee447a44c","resource":{"resourceType":"Encounter","id":"973ae5df-2410-40c1-bc5d-1eeee447a44c","meta":{"profile":["http://hl7.org/fhir/us/qicore/StructureDefinition/qicore-encounter"]},"status":"finished","class":{"system":"http://terminology.hl7.org/CodeSystem/v3-ActCode","code":"IMP","display":"inpatient encounter"},"type":[{"coding":[{"system":"http://snomed.info/sct","code":"32485007"}]}],"subject":{"reference":"Patient/93e2d9e6-00b4-4dfc-a404-f0bd5e73fa7b"},"period":{"start":"2026-10-01T09:00:00.000Z","end":"2026-10-12T00:15:00.000Z"},"length":{"value":11,"unit":"days"},"diagnosis":[{"condition":{"reference":"Condition/e5c882d5-1732-4171-a669-fb48e5db0c9f"},"use":{"coding":[{"system":"http://terminology.hl7.org/CodeSystem/diagnosis-role","code":"billing","display":"Billing"}]},"rank":1}]},"request":{"method":"PUT","url":"Encounter/973ae5df-2410-40c1-bc5d-1eeee447a44c"}},{"fullUrl":"https://madie.cms.gov/ServiceRequest/5ee4f457-6c07-4097-94bf-9f1e6ebebe0f","resource":{"resourceType":"ServiceRequest","id":"5ee4f457-6c07-4097-94bf-9f1e6ebebe0f","meta":{"profile":["http://hl7.org/fhir/us/qicore/StructureDefinition/qicore-servicerequest"]},"status":"active","intent":"order","code":{"coding":[{"system":"http://snomed.info/sct","code":"133918004"}]},"subject":{"reference":"Patient/93e2d9e6-00b4-4dfc-a404-f0bd5e73fa7b"},"authoredOn":"2026-10-01T09:01:00.000+00:00"},"request":{"method":"PUT","url":"ServiceRequest/5ee4f457-6c07-4097-94bf-9f1e6ebebe0f"}},{"fullUrl":"https://madie.cms.gov/Coverage/7b4ca0b4-0426-449e-9220-e7df961a25b3","resource":{"resourceType":"Coverage","id":"7b4ca0b4-0426-449e-9220-e7df961a25b3","status":"active","beneficiary":{"reference":"Patient/93e2d9e6-00b4-4dfc-a404-f0bd5e73fa7b"},"period":{"start":"1986-09-18T08:00:00.000Z"},"payor":[{"reference":"Organization/18ca435c-cae6-4c34-8033-af717477f9fc"}]},"request":{"method":"PUT","url":"Coverage/7b4ca0b4-0426-449e-9220-e7df961a25b3"}},{"fullUrl":"https://madie.cms.gov/Condition/e5c882d5-1732-4171-a669-fb48e5db0c9f","resource":{"resourceType":"Condition","id":"e5c882d5-1732-4171-a669-fb48e5db0c9f","meta":{"profile":["http://hl7.org/fhir/us/qicore/StructureDefinition/qicore-condition"]},"clinicalStatus":{"coding":[{"system":"http://terminology.hl7.org/CodeSystem/condition-clinical","code":"active"}]},"verificationStatus":{"coding":[{"system":"http://terminology.hl7.org/CodeSystem/condition-ver-status","code":"confirmed"}]},"category":[{"coding":[{"system":"http://terminology.hl7.org/CodeSystem/condition-category","code":"encounter-diagnosis","display":"Encounter Diagnosis"}]}],"code":{"coding":[{"system":"http://snomed.info/sct","version":"2021-09","code":"111297002","display":"Nonparalytic stroke (disorder)","userSelected":true}]},"subject":{"reference":"Patient/93e2d9e6-00b4-4dfc-a404-f0bd5e73fa7b"},"recordedDate":"2026-10-13T08:00:00.000+00:00"},"request":{"method":"PUT","url":"Condition/e5c882d5-1732-4171-a669-fb48e5db0c9f"}},{"fullUrl":"https://madie.cms.gov/Organization/365336d7-aed9-400c-873d-98067634ec37","resource":{"resourceType":"Organization","id":"18ca435c-cae6-4c34-8033-af717477f9fc","meta":{"profile":["http://hl7.org/fhir/us/qicore/StructureDefinition/qicore-organization"]},"identifier":[{"use":"temp","system":"urn:oid:2.16.840.1.113883.4.4","value":"21-3259825"}],"active":true,"type":[{"coding":[{"system":"http://terminology.hl7.org/CodeSystem/organization-type","code":"pay","display":"Payer"}]}],"name":"Blue Cross Blue Shield of Texas","telecom":[{"system":"phone","value":"(+1) 972-766-6900"}],"address":[{"use":"billing","type":"postal","line":["P.O. Box 660044"],"city":"Dallas","state":"TX","postalCode":"75266-0044","country":"USA"}]},"request":{"method":"PUT","url":"Organization/18ca435c-cae6-4c34-8033-af717477f9fc"}},{"fullUrl":"https://madie.cms.gov/Practitioner/c9a47aa9-b362-4b43-a181-eb4d52542be4","resource":{"resourceType":"Practitioner","id":"c9a47aa9-b362-4b43-a181-eb4d52542be4","identifier":[{"system":"http://hl7.org/fhir/sid/us-npi","value":"123456"}],"name":[{"family":"Evil","prefix":["Dr"]}]},"request":{"method":"PUT","url":"Practitioner/c9a47aa9-b362-4b43-a181-eb4d52542be4"}},{"fullUrl":"https://madie.cms.gov/MeasureReport/931e994c-fc3a-49b5-96db-39586b34c4af","resource":{"resourceType":"MeasureReport","id":"931e994c-fc3a-49b5-96db-39586b34c4af","meta":{"profile":["http://hl7.org/fhir/us/cqfmeasures/StructureDefinition/test-case-cqfm"]},"contained":[{"resourceType":"Parameters","id":"88cde761-a1f5-4be5-af5e-8338ee01eef3-parameters","parameter":[{"name":"subject","valueString":"93e2d9e6-00b4-4dfc-a404-f0bd5e73fa7b"}]}],"extension":[{"url":"http://hl7.org/fhir/us/cqfmeasures/StructureDefinition/cqfm-inputParameters","valueReference":{"reference":"#88cde761-a1f5-4be5-af5e-8338ee01eef3-parameters"}},{"url":"http://hl7.org/fhir/us/cqfmeasures/StructureDefinition/cqfm-testCaseDescription","valueMarkdown":"Patient receives CMO during inpatient encounter. No ED. No Obs. Testing day of operator with HospitalizationWithObservation function.\n"}],"modifierExtension":[{"url":"http://hl7.org/fhir/us/cqfmeasures/StructureDefinition/cqfm-isTestCase","valueBoolean":true}],"status":"complete","type":"individual","measure":"https://madie.cms.gov/Measure/CMS71FHIRSTKAnticoagAFFlutter","period":{"start":"2026-01-01","end":"2026-12-31"},"group":[{"population":[{"code":{"coding":[{"system":"http://terminology.hl7.org/CodeSystem/measure-population","code":"initial-population","display":"Initial Population"}]},"count":1},{"code":{"coding":[{"system":"http://terminology.hl7.org/CodeSystem/measure-population","code":"denominator","display":"Denominator"}]},"count":1},{"code":{"coding":[{"system":"http://terminology.hl7.org/CodeSystem/measure-population","code":"denominator-exclusion","display":"Denominator Exclusion"}]},"count":1},{"code":{"coding":[{"system":"http://terminology.hl7.org/CodeSystem/measure-population","code":"numerator","display":"Numerator"}]},"count":0},{"code":{"coding":[{"system":"http://terminology.hl7.org/CodeSystem/measure-population","code":"denominator-exception","display":"Denominator Exception"}]},"count":0}]}]},"request":{"method":"PUT","url":"MeasureReport/931e994c-fc3a-49b5-96db-39586b34c4af"}}]}