{"resourceType":"Bundle","id":"tests-f07b7d1a-b0da-4d44-acc6-eb2a6dfa0da3-bundle","type":"transaction","entry":[{"fullUrl":"https://madie.cms.gov/Patient/f07b7d1a-b0da-4d44-acc6-eb2a6dfa0da3","resource":{"resourceType":"Patient","id":"f07b7d1a-b0da-4d44-acc6-eb2a6dfa0da3","meta":{"profile":["http://hl7.org/fhir/us/qicore/StructureDefinition/qicore-patient"]},"text":{"status":"generated","div":"<div xmlns=\"http://www.w3.org/1999/xhtml\"><div class=\"hapiHeaderText\">Anticoag@DC <b>NUMERPASS </b></div><table class=\"hapiPropertyTable\"><tbody><tr><td>Identifier</td><td>52c14de634122f39abfbd9ffaa41bc27</td></tr><tr><td>Date of birth</td><td><span>23 May 1954</span></td></tr></tbody></table></div>"},"extension":[{"url":"http://hl7.org/fhir/us/core/StructureDefinition/us-core-race","extension":[{"url":"ombCategory","valueCoding":{"system":"urn:oid:2.16.840.1.113883.6.238","code":"1002-5","display":"American Indian or Alaska Native","userSelected":true}},{"url":"text","valueString":"American Indian or Alaska Native"}]},{"url":"http://hl7.org/fhir/us/core/StructureDefinition/us-core-ethnicity","extension":[{"url":"ombCategory","valueCoding":{"system":"urn:oid:2.16.840.1.113883.6.238","code":"2135-2","display":"Hispanic or Latino","userSelected":true}},{"url":"text","valueString":"Hispanic or Latino"}]}],"identifier":[{"type":{"coding":[{"system":"http://terminology.hl7.org/CodeSystem/v2-0203","code":"MR"}]},"system":"https://bonnie-fhir.healthit.gov/","value":"633c9d020968f8012250fc66"}],"active":true,"name":[{"use":"usual","family":"NUMERPass","given":["Anticoag@DC"]}],"gender":"female","birthDate":"1955-05-23"},"request":{"method":"PUT","url":"Patient/f07b7d1a-b0da-4d44-acc6-eb2a6dfa0da3"}},{"fullUrl":"https://madie.cms.gov/Encounter/53b5cfaa-8caa-4cbe-a5f5-7c1efdef1366","resource":{"resourceType":"Encounter","id":"53b5cfaa-8caa-4cbe-a5f5-7c1efdef1366","meta":{"profile":["http://hl7.org/fhir/us/qicore/StructureDefinition/qicore-encounter"]},"status":"finished","class":{"system":"http://terminology.hl7.org/CodeSystem/v3-ActCode","code":"IMP","display":"inpatient encounter"},"type":[{"coding":[{"system":"http://snomed.info/sct","code":"32485007"}]}],"subject":{"reference":"Patient/f07b7d1a-b0da-4d44-acc6-eb2a6dfa0da3"},"period":{"start":"2026-11-20T08:00:00.000Z","end":"2026-11-24T08:15:00.000Z"},"length":{"value":4,"unit":"days"},"diagnosis":[{"condition":{"reference":"Condition/7ef3d907-21cb-408d-8981-a9a29cd412bb"},"use":{"coding":[{"system":"http://terminology.hl7.org/CodeSystem/diagnosis-role","code":"billing","display":"Billing"}]},"rank":1}]},"request":{"method":"PUT","url":"Encounter/53b5cfaa-8caa-4cbe-a5f5-7c1efdef1366"}},{"fullUrl":"https://madie.cms.gov/MedicationRequest/1c014037-9e83-4999-afee-7c07e9e6a553","resource":{"resourceType":"MedicationRequest","id":"1c014037-9e83-4999-afee-7c07e9e6a553","meta":{"profile":["http://hl7.org/fhir/us/qicore/StructureDefinition/qicore-medicationrequest"]},"status":"completed","intent":"order","category":[{"coding":[{"system":"http://terminology.hl7.org/CodeSystem/medicationrequest-category","code":"community","display":"Community","userSelected":true}]}],"medicationCodeableConcept":{"coding":[{"system":"http://www.nlm.nih.gov/research/umls/rxnorm","version":"2022-01","code":"308351","display":"2.5 ML argatroban 100 MG/ML Injection","userSelected":true}]},"subject":{"reference":"Patient/f07b7d1a-b0da-4d44-acc6-eb2a6dfa0da3"},"authoredOn":"2026-11-24T08:00:00.000+00:00","requester":{"reference":"Practitioner/example"}},"request":{"method":"PUT","url":"MedicationRequest/1c014037-9e83-4999-afee-7c07e9e6a553"}},{"fullUrl":"https://madie.cms.gov/Coverage/550f868d-c618-4707-8675-4705ce17757f","resource":{"resourceType":"Coverage","id":"550f868d-c618-4707-8675-4705ce17757f","status":"active","beneficiary":{"reference":"Patient/f07b7d1a-b0da-4d44-acc6-eb2a6dfa0da3"},"period":{"start":"1955-05-23T08:00:00.000Z"},"payor":[{"reference":"Organization/4da248b0-6e59-49b7-b80e-338aa21d299f"}]},"request":{"method":"PUT","url":"Coverage/550f868d-c618-4707-8675-4705ce17757f"}},{"fullUrl":"https://madie.cms.gov/Procedure/460817f0-f323-4833-a8f4-b385f2b6394a","resource":{"resourceType":"Procedure","id":"460817f0-f323-4833-a8f4-b385f2b6394a","meta":{"profile":["http://hl7.org/fhir/us/qicore/StructureDefinition/qicore-procedure"]},"extension":[{"url":"http://hl7.org/fhir/us/qicore/StructureDefinition/qicore-recorded","valueDateTime":"2026-11-19T09:35:00-04:00"}],"status":"completed","code":{"coding":[{"system":"http://www.cms.gov/Medicare/Coding/ICD10","code":"02560ZZ"},{"system":"http://snomed.info/sct","code":"175095005"}]},"subject":{"reference":"Patient/f07b7d1a-b0da-4d44-acc6-eb2a6dfa0da3"},"performedPeriod":{"start":"2026-11-20T06:00:00.000Z","end":"2026-11-20T07:15:00.000Z"}},"request":{"method":"PUT","url":"Procedure/460817f0-f323-4833-a8f4-b385f2b6394a"}},{"fullUrl":"https://madie.cms.gov/Condition/7ef3d907-21cb-408d-8981-a9a29cd412bb","resource":{"resourceType":"Condition","id":"7ef3d907-21cb-408d-8981-a9a29cd412bb","meta":{"profile":["http://hl7.org/fhir/us/qicore/StructureDefinition/qicore-condition"]},"clinicalStatus":{"coding":[{"system":"http://terminology.hl7.org/CodeSystem/condition-clinical","code":"active"}]},"verificationStatus":{"coding":[{"system":"http://terminology.hl7.org/CodeSystem/condition-ver-status","code":"confirmed"}]},"category":[{"coding":[{"system":"http://terminology.hl7.org/CodeSystem/condition-category","code":"encounter-diagnosis","display":"Encounter Diagnosis"}]}],"code":{"coding":[{"system":"http://snomed.info/sct","version":"2021-09","code":"111297002","display":"Nonparalytic stroke (disorder)","userSelected":true}]},"subject":{"reference":"Patient/f07b7d1a-b0da-4d44-acc6-eb2a6dfa0da3"},"recordedDate":"2026-10-13T08:00:00.000+00:00"},"request":{"method":"PUT","url":"Condition/7ef3d907-21cb-408d-8981-a9a29cd412bb"}},{"fullUrl":"https://madie.cms.gov/Organization/84dc8ff1-d116-46e6-84c4-78d71dca1423","resource":{"resourceType":"Organization","id":"4da248b0-6e59-49b7-b80e-338aa21d299f","meta":{"profile":["http://hl7.org/fhir/us/qicore/StructureDefinition/qicore-organization"]},"identifier":[{"use":"temp","system":"urn:oid:2.16.840.1.113883.4.4","value":"21-3259825"}],"active":true,"type":[{"coding":[{"system":"http://terminology.hl7.org/CodeSystem/organization-type","code":"pay","display":"Payer"}]}],"name":"Blue Cross Blue Shield of Texas","telecom":[{"system":"phone","value":"(+1) 972-766-6900"}],"address":[{"use":"billing","type":"postal","line":["P.O. Box 660044"],"city":"Dallas","state":"TX","postalCode":"75266-0044","country":"USA"}]},"request":{"method":"PUT","url":"Organization/4da248b0-6e59-49b7-b80e-338aa21d299f"}},{"fullUrl":"https://madie.cms.gov/Practitioner/9e269ae7-3c66-40c0-b3a2-3be8ef0710c9","resource":{"resourceType":"Practitioner","id":"9e269ae7-3c66-40c0-b3a2-3be8ef0710c9","identifier":[{"system":"http://hl7.org/fhir/sid/us-npi","value":"123456"}],"name":[{"family":"Evil","prefix":["Dr"]}]},"request":{"method":"PUT","url":"Practitioner/9e269ae7-3c66-40c0-b3a2-3be8ef0710c9"}},{"fullUrl":"https://madie.cms.gov/MeasureReport/b7c1cbf8-0e4d-460e-9eee-3fe56ee6824e","resource":{"resourceType":"MeasureReport","id":"b7c1cbf8-0e4d-460e-9eee-3fe56ee6824e","meta":{"profile":["http://hl7.org/fhir/us/cqfmeasures/StructureDefinition/test-case-cqfm"]},"contained":[{"resourceType":"Parameters","id":"18e60fb6-dc1f-4896-8477-2096f2bc1d85-parameters","parameter":[{"name":"subject","valueString":"f07b7d1a-b0da-4d44-acc6-eb2a6dfa0da3"}]}],"extension":[{"url":"http://hl7.org/fhir/us/cqfmeasures/StructureDefinition/cqfm-inputParameters","valueReference":{"reference":"#18e60fb6-dc1f-4896-8477-2096f2bc1d85-parameters"}},{"url":"http://hl7.org/fhir/us/cqfmeasures/StructureDefinition/cqfm-testCaseDescription","valueMarkdown":"Pt. discharged on anticoagulant, starts during OccurA\n"}],"modifierExtension":[{"url":"http://hl7.org/fhir/us/cqfmeasures/StructureDefinition/cqfm-isTestCase","valueBoolean":true}],"status":"complete","type":"individual","measure":"https://madie.cms.gov/Measure/CMS71FHIRSTKAnticoagAFFlutter","period":{"start":"2026-01-01","end":"2026-12-31"},"group":[{"population":[{"code":{"coding":[{"system":"http://terminology.hl7.org/CodeSystem/measure-population","code":"initial-population","display":"Initial Population"}]},"count":1},{"code":{"coding":[{"system":"http://terminology.hl7.org/CodeSystem/measure-population","code":"denominator","display":"Denominator"}]},"count":1},{"code":{"coding":[{"system":"http://terminology.hl7.org/CodeSystem/measure-population","code":"denominator-exclusion","display":"Denominator Exclusion"}]},"count":0},{"code":{"coding":[{"system":"http://terminology.hl7.org/CodeSystem/measure-population","code":"numerator","display":"Numerator"}]},"count":1},{"code":{"coding":[{"system":"http://terminology.hl7.org/CodeSystem/measure-population","code":"denominator-exception","display":"Denominator Exception"}]},"count":0}]}]},"request":{"method":"PUT","url":"MeasureReport/b7c1cbf8-0e4d-460e-9eee-3fe56ee6824e"}}]}