{"resourceType":"Bundle","id":"tests-e73134ce-ad08-430e-b85e-d61e2d28d709-bundle","type":"transaction","entry":[{"fullUrl":"https://madie.cms.gov/Patient/e73134ce-ad08-430e-b85e-d61e2d28d709","resource":{"resourceType":"Patient","id":"e73134ce-ad08-430e-b85e-d61e2d28d709","meta":{"profile":["http://hl7.org/fhir/us/qicore/StructureDefinition/qicore-patient"]},"text":{"status":"generated","div":"<div xmlns=\"http://www.w3.org/1999/xhtml\"><div class=\"hapiHeaderText\">MedDCAnticoaStartsGT_EncEnd <b>NUMERFAIL </b></div><table class=\"hapiPropertyTable\"><tbody><tr><td>Identifier</td><td>6d1b15cdbf79b36506189ad344ceb30d</td></tr><tr><td>Date of birth</td><td><span>23 May 1954</span></td></tr></tbody></table></div>"},"extension":[{"url":"http://hl7.org/fhir/us/core/StructureDefinition/us-core-race","extension":[{"url":"ombCategory","valueCoding":{"system":"urn:oid:2.16.840.1.113883.6.238","code":"1002-5","display":"American Indian or Alaska Native","userSelected":true}},{"url":"text","valueString":"American Indian or Alaska Native"}]},{"url":"http://hl7.org/fhir/us/core/StructureDefinition/us-core-ethnicity","extension":[{"url":"ombCategory","valueCoding":{"system":"urn:oid:2.16.840.1.113883.6.238","code":"2135-2","display":"Hispanic or Latino","userSelected":true}},{"url":"text","valueString":"Hispanic or Latino"}]}],"identifier":[{"type":{"coding":[{"system":"http://terminology.hl7.org/CodeSystem/v2-0203","code":"MR"}]},"system":"https://bonnie-fhir.healthit.gov/","value":"633c9d030968f8012250fc8d"}],"active":true,"name":[{"use":"usual","family":"NUMERFail","given":["MedDCAnticoaStartsGT_EncEnd"]}],"gender":"female","birthDate":"1955-05-23"},"request":{"method":"PUT","url":"Patient/e73134ce-ad08-430e-b85e-d61e2d28d709"}},{"fullUrl":"https://madie.cms.gov/Encounter/cdb49d5a-b254-447b-947c-1991282ee2d3","resource":{"resourceType":"Encounter","id":"cdb49d5a-b254-447b-947c-1991282ee2d3","meta":{"profile":["http://hl7.org/fhir/us/qicore/StructureDefinition/qicore-encounter"]},"status":"finished","class":{"system":"http://terminology.hl7.org/CodeSystem/v3-ActCode","code":"IMP","display":"inpatient encounter"},"type":[{"coding":[{"system":"http://snomed.info/sct","code":"32485007"}]}],"subject":{"reference":"Patient/e73134ce-ad08-430e-b85e-d61e2d28d709"},"period":{"start":"2026-11-20T08:00:00.000Z","end":"2026-11-24T08:15:00.000Z"},"length":{"value":4,"unit":"days"},"diagnosis":[{"condition":{"reference":"Condition/4fec6503-95de-4660-a935-d31192b2316c"},"use":{"coding":[{"system":"http://terminology.hl7.org/CodeSystem/diagnosis-role","code":"billing","display":"Billing"}]},"rank":1}]},"request":{"method":"PUT","url":"Encounter/cdb49d5a-b254-447b-947c-1991282ee2d3"}},{"fullUrl":"https://madie.cms.gov/MedicationRequest/51045262-fcf8-44d9-81ac-8c1e6407f115","resource":{"resourceType":"MedicationRequest","id":"51045262-fcf8-44d9-81ac-8c1e6407f115","meta":{"profile":["http://hl7.org/fhir/us/qicore/StructureDefinition/qicore-medicationrequest"]},"status":"active","intent":"order","medicationCodeableConcept":{"coding":[{"system":"http://www.nlm.nih.gov/research/umls/rxnorm","code":"1037045"}]},"subject":{"reference":"Patient/e73134ce-ad08-430e-b85e-d61e2d28d709"},"authoredOn":"2026-11-24T08:16:00.000+00:00","requester":{"reference":"Practitioner/example"}},"request":{"method":"PUT","url":"MedicationRequest/51045262-fcf8-44d9-81ac-8c1e6407f115"}},{"fullUrl":"https://madie.cms.gov/Coverage/dbb7dde7-5c79-4295-8556-9cb3235b051c","resource":{"resourceType":"Coverage","id":"dbb7dde7-5c79-4295-8556-9cb3235b051c","status":"active","beneficiary":{"reference":"Patient/e73134ce-ad08-430e-b85e-d61e2d28d709"},"period":{"start":"1955-05-23T08:00:00.000Z"},"payor":[{"reference":"Organization/607fdef9-3983-4cef-ab1a-95434d29b463"}]},"request":{"method":"PUT","url":"Coverage/dbb7dde7-5c79-4295-8556-9cb3235b051c"}},{"fullUrl":"https://madie.cms.gov/Procedure/d02f7ff8-efa7-4423-9fa6-5c6afb9073a1","resource":{"resourceType":"Procedure","id":"d02f7ff8-efa7-4423-9fa6-5c6afb9073a1","meta":{"profile":["http://hl7.org/fhir/us/qicore/StructureDefinition/qicore-procedure"]},"extension":[{"url":"http://hl7.org/fhir/us/qicore/StructureDefinition/qicore-recorded","valueDateTime":"2026-11-19T09:35:00-04:00"}],"status":"completed","code":{"coding":[{"system":"http://www.cms.gov/Medicare/Coding/ICD10","code":"02560ZZ"},{"system":"http://snomed.info/sct","code":"175095005"}]},"subject":{"reference":"Patient/e73134ce-ad08-430e-b85e-d61e2d28d709"},"performedPeriod":{"start":"2026-11-20T06:00:00.000Z","end":"2026-11-20T07:15:00.000Z"}},"request":{"method":"PUT","url":"Procedure/d02f7ff8-efa7-4423-9fa6-5c6afb9073a1"}},{"fullUrl":"https://madie.cms.gov/Condition/4fec6503-95de-4660-a935-d31192b2316c","resource":{"resourceType":"Condition","id":"4fec6503-95de-4660-a935-d31192b2316c","meta":{"profile":["http://hl7.org/fhir/us/qicore/StructureDefinition/qicore-condition"]},"clinicalStatus":{"coding":[{"system":"http://terminology.hl7.org/CodeSystem/condition-clinical","code":"active"}]},"verificationStatus":{"coding":[{"system":"http://terminology.hl7.org/CodeSystem/condition-ver-status","code":"confirmed"}]},"category":[{"coding":[{"system":"http://terminology.hl7.org/CodeSystem/condition-category","code":"encounter-diagnosis","display":"Encounter Diagnosis"}]}],"code":{"coding":[{"system":"http://snomed.info/sct","version":"2021-09","code":"111297002","display":"Nonparalytic stroke (disorder)","userSelected":true}]},"subject":{"reference":"Patient/e73134ce-ad08-430e-b85e-d61e2d28d709"},"recordedDate":"2026-10-13T08:00:00.000+00:00"},"request":{"method":"PUT","url":"Condition/4fec6503-95de-4660-a935-d31192b2316c"}},{"fullUrl":"https://madie.cms.gov/Organization/165bec7b-19b9-49e6-adb8-627f794238df","resource":{"resourceType":"Organization","id":"607fdef9-3983-4cef-ab1a-95434d29b463","meta":{"profile":["http://hl7.org/fhir/us/qicore/StructureDefinition/qicore-organization"]},"identifier":[{"use":"temp","system":"urn:oid:2.16.840.1.113883.4.4","value":"21-3259825"}],"active":true,"type":[{"coding":[{"system":"http://terminology.hl7.org/CodeSystem/organization-type","code":"pay","display":"Payer"}]}],"name":"Blue Cross Blue Shield of Texas","telecom":[{"system":"phone","value":"(+1) 972-766-6900"}],"address":[{"use":"billing","type":"postal","line":["P.O. Box 660044"],"city":"Dallas","state":"TX","postalCode":"75266-0044","country":"USA"}]},"request":{"method":"PUT","url":"Organization/607fdef9-3983-4cef-ab1a-95434d29b463"}},{"fullUrl":"https://madie.cms.gov/Practitioner/f05173b3-e3a8-4e25-8db7-66e8067e18ea","resource":{"resourceType":"Practitioner","id":"f05173b3-e3a8-4e25-8db7-66e8067e18ea","identifier":[{"system":"http://hl7.org/fhir/sid/us-npi","value":"123456"}],"name":[{"family":"Evil","prefix":["Dr"]}]},"request":{"method":"PUT","url":"Practitioner/f05173b3-e3a8-4e25-8db7-66e8067e18ea"}},{"fullUrl":"https://madie.cms.gov/MeasureReport/554f704d-3c28-4f0b-9545-e89c36f0bcfe","resource":{"resourceType":"MeasureReport","id":"554f704d-3c28-4f0b-9545-e89c36f0bcfe","meta":{"profile":["http://hl7.org/fhir/us/cqfmeasures/StructureDefinition/test-case-cqfm"]},"contained":[{"resourceType":"Parameters","id":"0a9c822a-77d5-4066-9094-d4d941d19ea2-parameters","parameter":[{"name":"subject","valueString":"e73134ce-ad08-430e-b85e-d61e2d28d709"}]}],"extension":[{"url":"http://hl7.org/fhir/us/cqfmeasures/StructureDefinition/cqfm-inputParameters","valueReference":{"reference":"#0a9c822a-77d5-4066-9094-d4d941d19ea2-parameters"}},{"url":"http://hl7.org/fhir/us/cqfmeasures/StructureDefinition/cqfm-testCaseDescription","valueMarkdown":"Pt. discharged on anticoagulant, starts after OccurA\n"}],"modifierExtension":[{"url":"http://hl7.org/fhir/us/cqfmeasures/StructureDefinition/cqfm-isTestCase","valueBoolean":true}],"status":"complete","type":"individual","measure":"https://madie.cms.gov/Measure/CMS71FHIRSTKAnticoagAFFlutter","period":{"start":"2026-01-01","end":"2026-12-31"},"group":[{"population":[{"code":{"coding":[{"system":"http://terminology.hl7.org/CodeSystem/measure-population","code":"initial-population","display":"Initial Population"}]},"count":1},{"code":{"coding":[{"system":"http://terminology.hl7.org/CodeSystem/measure-population","code":"denominator","display":"Denominator"}]},"count":1},{"code":{"coding":[{"system":"http://terminology.hl7.org/CodeSystem/measure-population","code":"denominator-exclusion","display":"Denominator Exclusion"}]},"count":0},{"code":{"coding":[{"system":"http://terminology.hl7.org/CodeSystem/measure-population","code":"numerator","display":"Numerator"}]},"count":0},{"code":{"coding":[{"system":"http://terminology.hl7.org/CodeSystem/measure-population","code":"denominator-exception","display":"Denominator Exception"}]},"count":0}]}]},"request":{"method":"PUT","url":"MeasureReport/554f704d-3c28-4f0b-9545-e89c36f0bcfe"}}]}