{"resourceType":"Bundle","id":"tests-c5eb810c-2abd-41ac-9838-81ab77532845-bundle","type":"transaction","entry":[{"fullUrl":"https://madie.cms.gov/Patient/c5eb810c-2abd-41ac-9838-81ab77532845","resource":{"resourceType":"Patient","id":"c5eb810c-2abd-41ac-9838-81ab77532845","meta":{"profile":["http://hl7.org/fhir/us/qicore/StructureDefinition/qicore-patient"]},"text":{"status":"generated","div":"<div xmlns=\"http://www.w3.org/1999/xhtml\"><div class=\"hapiHeaderText\">Anticoag@DC_TestOccurance <b>NUMERPASS </b></div><table class=\"hapiPropertyTable\"><tbody><tr><td>Identifier</td><td>b33e5c40a8266630a8099906ba9c4a7fec43a1f608aad75439f44c686ae32b2a</td></tr><tr><td>Date of birth</td><td><span>23 May 1954</span></td></tr></tbody></table></div>"},"extension":[{"url":"http://hl7.org/fhir/us/core/StructureDefinition/us-core-race","extension":[{"url":"ombCategory","valueCoding":{"system":"urn:oid:2.16.840.1.113883.6.238","code":"1002-5","display":"American Indian or Alaska Native","userSelected":true}},{"url":"text","valueString":"American Indian or Alaska Native"}]},{"url":"http://hl7.org/fhir/us/core/StructureDefinition/us-core-ethnicity","extension":[{"url":"ombCategory","valueCoding":{"system":"urn:oid:2.16.840.1.113883.6.238","code":"2135-2","display":"Hispanic or Latino","userSelected":true}},{"url":"text","valueString":"Hispanic or Latino"}]}],"identifier":[{"type":{"coding":[{"system":"http://terminology.hl7.org/CodeSystem/v2-0203","code":"MR"}]},"system":"https://bonnie-fhir.healthit.gov/","value":"633c9d040968f8012250fcaa"}],"active":true,"name":[{"use":"usual","family":"NUMERPass","given":["Anticoag@DC_TestOccurance"]}],"gender":"female","birthDate":"1955-05-23"},"request":{"method":"PUT","url":"Patient/c5eb810c-2abd-41ac-9838-81ab77532845"}},{"fullUrl":"https://madie.cms.gov/Encounter/85a66a3f-1ecb-4275-b24a-6592d4810e89","resource":{"resourceType":"Encounter","id":"85a66a3f-1ecb-4275-b24a-6592d4810e89","meta":{"profile":["http://hl7.org/fhir/us/qicore/StructureDefinition/qicore-encounter"]},"status":"finished","class":{"system":"http://terminology.hl7.org/CodeSystem/v3-ActCode","code":"IMP","display":"inpatient encounter"},"type":[{"coding":[{"system":"http://snomed.info/sct","code":"183452005"}]}],"subject":{"reference":"Patient/c5eb810c-2abd-41ac-9838-81ab77532845"},"period":{"start":"2026-11-18T08:00:00.000Z","end":"2026-11-19T08:15:00.000Z"},"length":{"value":1,"unit":"days"}},"request":{"method":"PUT","url":"Encounter/85a66a3f-1ecb-4275-b24a-6592d4810e89"}},{"fullUrl":"https://madie.cms.gov/Encounter/d0ca7ed9-07f6-469a-b320-7af61f08b73c","resource":{"resourceType":"Encounter","id":"d0ca7ed9-07f6-469a-b320-7af61f08b73c","meta":{"profile":["http://hl7.org/fhir/us/qicore/StructureDefinition/qicore-encounter"]},"status":"finished","class":{"system":"http://terminology.hl7.org/CodeSystem/v3-ActCode","code":"IMP","display":"inpatient encounter"},"type":[{"coding":[{"system":"http://snomed.info/sct","code":"32485007"}]}],"subject":{"reference":"Patient/c5eb810c-2abd-41ac-9838-81ab77532845"},"period":{"start":"2026-11-20T08:00:00.000Z","end":"2026-11-24T08:15:00.000Z"},"length":{"value":4,"unit":"days"},"diagnosis":[{"condition":{"reference":"Condition/a009fd39-1c8c-4ad5-ad44-5b01e9679a36"},"use":{"coding":[{"system":"http://terminology.hl7.org/CodeSystem/diagnosis-role","code":"billing","display":"Billing"}]},"rank":1}]},"request":{"method":"PUT","url":"Encounter/d0ca7ed9-07f6-469a-b320-7af61f08b73c"}},{"fullUrl":"https://madie.cms.gov/MedicationRequest/93f9f370-3868-4ef0-8af5-e130367da7e1","resource":{"resourceType":"MedicationRequest","id":"93f9f370-3868-4ef0-8af5-e130367da7e1","meta":{"profile":["http://hl7.org/fhir/us/qicore/StructureDefinition/qicore-medicationrequest"]},"status":"active","intent":"order","category":[{"coding":[{"system":"http://terminology.hl7.org/CodeSystem/medicationrequest-category","code":"discharge","display":"Discharge","userSelected":true}]}],"medicationCodeableConcept":{"coding":[{"system":"http://www.nlm.nih.gov/research/umls/rxnorm","code":"308351"}]},"subject":{"reference":"Patient/c5eb810c-2abd-41ac-9838-81ab77532845"},"authoredOn":"2026-11-24T08:00:00.000+00:00","requester":{"reference":"Practitioner/example"}},"request":{"method":"PUT","url":"MedicationRequest/93f9f370-3868-4ef0-8af5-e130367da7e1"}},{"fullUrl":"https://madie.cms.gov/Coverage/b4ebd7ab-bcb2-4dfd-acc0-85cf3cbecb4a","resource":{"resourceType":"Coverage","id":"b4ebd7ab-bcb2-4dfd-acc0-85cf3cbecb4a","status":"active","beneficiary":{"reference":"Patient/c5eb810c-2abd-41ac-9838-81ab77532845"},"period":{"start":"1955-05-23T08:00:00.000Z"},"payor":[{"reference":"Organization/890316dc-a4ad-43b4-ba6f-9fb9e6eca282"}]},"request":{"method":"PUT","url":"Coverage/b4ebd7ab-bcb2-4dfd-acc0-85cf3cbecb4a"}},{"fullUrl":"https://madie.cms.gov/Procedure/bb9fe532-ab52-4053-9e4d-55a85c0c9158","resource":{"resourceType":"Procedure","id":"bb9fe532-ab52-4053-9e4d-55a85c0c9158","meta":{"profile":["http://hl7.org/fhir/us/qicore/StructureDefinition/qicore-procedure"]},"extension":[{"url":"http://hl7.org/fhir/us/qicore/StructureDefinition/qicore-recorded","valueDateTime":"2026-11-19T09:35:00-04:00"}],"status":"completed","code":{"coding":[{"system":"http://www.cms.gov/Medicare/Coding/ICD10","code":"02560ZZ"},{"system":"http://snomed.info/sct","code":"175095005"}]},"subject":{"reference":"Patient/c5eb810c-2abd-41ac-9838-81ab77532845"},"performedPeriod":{"start":"2026-11-20T06:00:00.000Z","end":"2026-11-20T07:15:00.000Z"}},"request":{"method":"PUT","url":"Procedure/bb9fe532-ab52-4053-9e4d-55a85c0c9158"}},{"fullUrl":"https://madie.cms.gov/Condition/a009fd39-1c8c-4ad5-ad44-5b01e9679a36","resource":{"resourceType":"Condition","id":"a009fd39-1c8c-4ad5-ad44-5b01e9679a36","meta":{"profile":["http://hl7.org/fhir/us/qicore/StructureDefinition/qicore-condition"]},"clinicalStatus":{"coding":[{"system":"http://terminology.hl7.org/CodeSystem/condition-clinical","code":"active"}]},"verificationStatus":{"coding":[{"system":"http://terminology.hl7.org/CodeSystem/condition-ver-status","code":"confirmed"}]},"category":[{"coding":[{"system":"http://terminology.hl7.org/CodeSystem/condition-category","code":"encounter-diagnosis","display":"Encounter Diagnosis"}]}],"code":{"coding":[{"system":"http://snomed.info/sct","version":"2021-09","code":"111297002","display":"Nonparalytic stroke (disorder)","userSelected":true}]},"subject":{"reference":"Patient/c5eb810c-2abd-41ac-9838-81ab77532845"},"recordedDate":"2026-10-13T08:00:00.000+00:00"},"request":{"method":"PUT","url":"Condition/a009fd39-1c8c-4ad5-ad44-5b01e9679a36"}},{"fullUrl":"https://madie.cms.gov/Organization/cab58780-82b0-4c83-9478-cf9cbac49917","resource":{"resourceType":"Organization","id":"890316dc-a4ad-43b4-ba6f-9fb9e6eca282","meta":{"profile":["http://hl7.org/fhir/us/qicore/StructureDefinition/qicore-organization"]},"identifier":[{"use":"temp","system":"urn:oid:2.16.840.1.113883.4.4","value":"21-3259825"}],"active":true,"type":[{"coding":[{"system":"http://terminology.hl7.org/CodeSystem/organization-type","code":"pay","display":"Payer"}]}],"name":"Blue Cross Blue Shield of Texas","telecom":[{"system":"phone","value":"(+1) 972-766-6900"}],"address":[{"use":"billing","type":"postal","line":["P.O. Box 660044"],"city":"Dallas","state":"TX","postalCode":"75266-0044","country":"USA"}]},"request":{"method":"PUT","url":"Organization/890316dc-a4ad-43b4-ba6f-9fb9e6eca282"}},{"fullUrl":"https://madie.cms.gov/Practitioner/8010fa1f-79a6-4347-92b5-48602deda702","resource":{"resourceType":"Practitioner","id":"8010fa1f-79a6-4347-92b5-48602deda702","identifier":[{"system":"http://hl7.org/fhir/sid/us-npi","value":"123456"}],"name":[{"family":"Evil","prefix":["Dr"]}]},"request":{"method":"PUT","url":"Practitioner/8010fa1f-79a6-4347-92b5-48602deda702"}},{"fullUrl":"https://madie.cms.gov/MeasureReport/0bf08408-90d6-4fae-9bc9-cb15714634e4","resource":{"resourceType":"MeasureReport","id":"0bf08408-90d6-4fae-9bc9-cb15714634e4","meta":{"profile":["http://hl7.org/fhir/us/cqfmeasures/StructureDefinition/test-case-cqfm"]},"contained":[{"resourceType":"Parameters","id":"02b1617c-10d9-449e-bb0f-72564c08bd3c-parameters","parameter":[{"name":"subject","valueString":"c5eb810c-2abd-41ac-9838-81ab77532845"}]}],"extension":[{"url":"http://hl7.org/fhir/us/cqfmeasures/StructureDefinition/cqfm-inputParameters","valueReference":{"reference":"#02b1617c-10d9-449e-bb0f-72564c08bd3c-parameters"}},{"url":"http://hl7.org/fhir/us/cqfmeasures/StructureDefinition/cqfm-testCaseDescription","valueMarkdown":"Pt. discharged on anticoagulant, starts during OccurA not OccurB\n"}],"modifierExtension":[{"url":"http://hl7.org/fhir/us/cqfmeasures/StructureDefinition/cqfm-isTestCase","valueBoolean":true}],"status":"complete","type":"individual","measure":"https://madie.cms.gov/Measure/CMS71FHIRSTKAnticoagAFFlutter","period":{"start":"2026-01-01","end":"2026-12-31"},"group":[{"population":[{"code":{"coding":[{"system":"http://terminology.hl7.org/CodeSystem/measure-population","code":"initial-population","display":"Initial Population"}]},"count":1},{"code":{"coding":[{"system":"http://terminology.hl7.org/CodeSystem/measure-population","code":"denominator","display":"Denominator"}]},"count":1},{"code":{"coding":[{"system":"http://terminology.hl7.org/CodeSystem/measure-population","code":"denominator-exclusion","display":"Denominator Exclusion"}]},"count":0},{"code":{"coding":[{"system":"http://terminology.hl7.org/CodeSystem/measure-population","code":"numerator","display":"Numerator"}]},"count":1},{"code":{"coding":[{"system":"http://terminology.hl7.org/CodeSystem/measure-population","code":"denominator-exception","display":"Denominator Exception"}]},"count":0}]}]},"request":{"method":"PUT","url":"MeasureReport/0bf08408-90d6-4fae-9bc9-cb15714634e4"}}]}