{
  "resourceType": "Bundle",
  "id": "sf044ef3e654daa9111",
  "type": "transaction",
  "entry": [ {
    "fullUrl": "https://madie.cms.gov/Patient/765db4ae-8924-4673-87f6-03924b0fe23d",
    "resource": {
      "resourceType": "Patient",
      "id": "765db4ae-8924-4673-87f6-03924b0fe23d",
      "meta": {
        "profile": [ "http://hl7.org/fhir/us/qicore/StructureDefinition/qicore-patient" ]
      },
      "extension": [ {
        "url": "http://hl7.org/fhir/us/core/StructureDefinition/us-core-race",
        "extension": [ {
          "url": "ombCategory",
          "valueCoding": {
            "system": "urn:oid:2.16.840.1.113883.6.238",
            "code": "1002-5",
            "display": "American Indian or Alaska Native",
            "userSelected": true
          }
        }, {
          "url": "text",
          "valueString": "American Indian or Alaska Native"
        } ]
      }, {
        "url": "http://hl7.org/fhir/us/core/StructureDefinition/us-core-ethnicity",
        "extension": [ {
          "url": "ombCategory",
          "valueCoding": {
            "system": "urn:oid:2.16.840.1.113883.6.238",
            "code": "2135-2",
            "display": "Hispanic or Latino",
            "userSelected": true
          }
        }, {
          "url": "text",
          "valueString": "Hispanic or Latino"
        } ]
      } ],
      "identifier": [ {
        "type": {
          "coding": [ {
            "system": "http://terminology.hl7.org/CodeSystem/v2-0203",
            "code": "MR"
          } ]
        },
        "system": "https://bonnie-fhir.healthit.gov/",
        "value": "43cffbba-c31b-4cbb-a8d8-c1e046a878c3"
      } ],
      "name": [ {
        "family": "DENEXCL6PASS",
        "given": [ "LongTermAnticoagulantUseStartsDuringED" ]
      } ],
      "gender": "male",
      "birthDate": "1976-08-25"
    },
    "request": {
      "method": "PUT",
      "url": "Patient/765db4ae-8924-4673-87f6-03924b0fe23d"
    }
  }, {
    "fullUrl": "https://madie.cms.gov/Encounter/0e6e2abb-7d7f-4b2e-9702-f0f62a3cf05d",
    "resource": {
      "resourceType": "Encounter",
      "id": "0e6e2abb-7d7f-4b2e-9702-f0f62a3cf05d",
      "meta": {
        "profile": [ "http://hl7.org/fhir/us/qicore/StructureDefinition/qicore-encounter" ]
      },
      "status": "finished",
      "class": {
        "system": "http://terminology.hl7.org/CodeSystem/v3-ActCode",
        "code": "EMER",
        "display": "emergency",
        "userSelected": true
      },
      "type": [ {
        "coding": [ {
          "system": "http://snomed.info/sct",
          "version": "2020-09",
          "code": "4525004",
          "display": "Emergency department patient visit",
          "userSelected": true
        } ]
      } ],
      "subject": {
        "reference": "Patient/765db4ae-8924-4673-87f6-03924b0fe23d"
      },
      "period": {
        "start": "2026-10-09T05:00:00.000+00:00",
        "end": "2026-10-13T17:00:00.000+00:00"
      },
      "reasonCode": [ {
        "coding": [ {
          "system": "http://hl7.org/fhir/sid/icd-10-cm",
          "code": "I21.21",
          "display": "ST elevation (STEMI) myocardial infarction involving left circumflex coronary artery",
          "userSelected": true
        } ]
      } ]
    },
    "request": {
      "method": "PUT",
      "url": "Encounter/0e6e2abb-7d7f-4b2e-9702-f0f62a3cf05d"
    }
  }, {
    "fullUrl": "https://madie.cms.gov/Condition/ba701c53-034a-4bdd-9535-8df567f298a2",
    "resource": {
      "resourceType": "Condition",
      "id": "ba701c53-034a-4bdd-9535-8df567f298a2",
      "meta": {
        "profile": [ "http://hl7.org/fhir/us/qicore/StructureDefinition/qicore-condition" ]
      },
      "clinicalStatus": {
        "coding": [ {
          "system": "http://terminology.hl7.org/CodeSystem/condition-clinical",
          "code": "active",
          "display": "Active",
          "userSelected": true
        } ]
      },
      "category": [ {
        "coding": [ {
          "system": "http://terminology.hl7.org/CodeSystem/condition-category",
          "code": "problem-list-item",
          "display": "Problem List Item",
          "userSelected": true
        } ]
      } ],
      "code": {
        "coding": [ {
          "system": "http://hl7.org/fhir/sid/icd-10-cm",
          "code": "Z79.01",
          "display": "Long term (current) use of anticoagulants",
          "userSelected": true
        } ]
      },
      "subject": {
        "reference": "Patient/765db4ae-8924-4673-87f6-03924b0fe23d"
      },
      "onsetDateTime": "2026-10-08T05:00:00.000+00:00"
    },
    "request": {
      "method": "PUT",
      "url": "Condition/ba701c53-034a-4bdd-9535-8df567f298a2"
    }
  }, {
    "fullUrl": "https://madie.cms.gov/MeasureReport/1e41370b-4a9b-4343-9d05-f3fe5dd301db",
    "resource": {
      "resourceType": "MeasureReport",
      "id": "1e41370b-4a9b-4343-9d05-f3fe5dd301db",
      "meta": {
        "profile": [ "http://hl7.org/fhir/us/cqfmeasures/StructureDefinition/test-case-cqfm" ]
      },
      "contained": [ {
        "resourceType": "Parameters",
        "id": "e642d023-6472-4bf0-9e05-f15a2260ca35-parameters",
        "parameter": [ {
          "name": "subject",
          "valueString": "765db4ae-8924-4673-87f6-03924b0fe23d"
        } ]
      } ],
      "extension": [ {
        "url": "http://hl7.org/fhir/us/cqfmeasures/StructureDefinition/cqfm-inputParameters",
        "valueReference": {
          "reference": "#e642d023-6472-4bf0-9e05-f15a2260ca35-parameters"
        }
      }, {
        "url": "http://hl7.org/fhir/us/cqfmeasures/StructureDefinition/cqfm-testCaseDescription",
        "valueMarkdown": "Patient has long term anticoagulant use that starts at the same time as ED encounter\n"
      } ],
      "modifierExtension": [ {
        "url": "http://hl7.org/fhir/us/cqfmeasures/StructureDefinition/cqfm-isTestCase",
        "valueBoolean": true
      } ],
      "status": "complete",
      "type": "individual",
      "measure": "https://madie.cms.gov/Measure/CMS996FHIRAptTxforSTEMI",
      "period": {
        "start": "2026-01-01",
        "end": "2026-12-31"
      },
      "group": [ {
        "population": [ {
          "code": {
            "coding": [ {
              "system": "http://terminology.hl7.org/CodeSystem/measure-population",
              "code": "initial-population",
              "display": "Initial Population"
            } ]
          },
          "count": 1
        }, {
          "code": {
            "coding": [ {
              "system": "http://terminology.hl7.org/CodeSystem/measure-population",
              "code": "denominator",
              "display": "Denominator"
            } ]
          },
          "count": 1
        }, {
          "code": {
            "coding": [ {
              "system": "http://terminology.hl7.org/CodeSystem/measure-population",
              "code": "denominator-exclusion",
              "display": "Denominator Exclusion"
            } ]
          },
          "count": 1
        }, {
          "code": {
            "coding": [ {
              "system": "http://terminology.hl7.org/CodeSystem/measure-population",
              "code": "numerator",
              "display": "Numerator"
            } ]
          },
          "count": 0
        }, {
          "code": {
            "coding": [ {
              "system": "http://terminology.hl7.org/CodeSystem/measure-population",
              "code": "denominator-exception",
              "display": "Denominator Exception"
            } ]
          },
          "count": 0
        } ]
      } ],
      "evaluatedResource": [ {
        "reference": "Patient/765db4ae-8924-4673-87f6-03924b0fe23d"
      }, {
        "reference": "Encounter/0e6e2abb-7d7f-4b2e-9702-f0f62a3cf05d"
      }, {
        "reference": "Condition/ba701c53-034a-4bdd-9535-8df567f298a2"
      } ]
    },
    "request": {
      "method": "PUT",
      "url": "MeasureReport/1e41370b-4a9b-4343-9d05-f3fe5dd301db"
    }
  } ]
}