{
  "resourceType": "Bundle",
  "id": "l1f044ef3e654daa9123",
  "type": "transaction",
  "entry": [ {
    "fullUrl": "https://madie.cms.gov/Patient/784a8b22-d1df-478c-9474-a65f050f7a4f",
    "resource": {
      "resourceType": "Patient",
      "id": "784a8b22-d1df-478c-9474-a65f050f7a4f",
      "meta": {
        "profile": [ "http://hl7.org/fhir/us/qicore/StructureDefinition/qicore-patient" ]
      },
      "extension": [ {
        "url": "http://hl7.org/fhir/us/core/StructureDefinition/us-core-race",
        "extension": [ {
          "url": "ombCategory",
          "valueCoding": {
            "system": "urn:oid:2.16.840.1.113883.6.238",
            "code": "2028-9",
            "display": "Asian",
            "userSelected": true
          }
        }, {
          "url": "text",
          "valueString": "Asian"
        } ]
      }, {
        "url": "http://hl7.org/fhir/us/core/StructureDefinition/us-core-ethnicity",
        "extension": [ {
          "url": "ombCategory",
          "valueCoding": {
            "system": "urn:oid:2.16.840.1.113883.6.238",
            "code": "2186-5",
            "display": "Non Hispanic or Latino",
            "userSelected": true
          }
        }, {
          "url": "text",
          "valueString": "Non Hispanic or Latino"
        } ]
      } ],
      "identifier": [ {
        "type": {
          "coding": [ {
            "system": "http://terminology.hl7.org/CodeSystem/v2-0203",
            "code": "MR"
          } ]
        },
        "system": "https://bonnie-fhir.healthit.gov/",
        "value": "d61e4278-5ea7-41f9-8ad1-e5a8bc4d238d"
      } ],
      "name": [ {
        "family": "DENEXCL11PASS",
        "given": [ "HospiceHomeDischargeDispositionOverlapED" ]
      } ],
      "gender": "female",
      "birthDate": "1915-06-06"
    },
    "request": {
      "method": "PUT",
      "url": "Patient/784a8b22-d1df-478c-9474-a65f050f7a4f"
    }
  }, {
    "fullUrl": "https://madie.cms.gov/Encounter/8b7847cf-c069-47f9-b907-d8b4f046cd48",
    "resource": {
      "resourceType": "Encounter",
      "id": "8b7847cf-c069-47f9-b907-d8b4f046cd48",
      "meta": {
        "profile": [ "http://hl7.org/fhir/us/qicore/StructureDefinition/qicore-encounter" ]
      },
      "status": "finished",
      "class": {
        "system": "http://terminology.hl7.org/CodeSystem/v3-ActCode",
        "code": "EMER",
        "display": "emergency",
        "userSelected": true
      },
      "type": [ {
        "coding": [ {
          "system": "http://snomed.info/sct",
          "version": "2020-09",
          "code": "4525004",
          "display": "Emergency department patient visit",
          "userSelected": true
        } ]
      } ],
      "subject": {
        "reference": "Patient/784a8b22-d1df-478c-9474-a65f050f7a4f"
      },
      "period": {
        "start": "2026-10-09T05:00:00.000+00:00",
        "end": "2026-10-13T17:00:00.000+00:00"
      },
      "diagnosis": [ {
        "condition": {
          "reference": "Condition/34b1b914-01e0-4227-808d-6d440d86819e"
        }
      } ]
    },
    "request": {
      "method": "PUT",
      "url": "Encounter/8b7847cf-c069-47f9-b907-d8b4f046cd48"
    }
  }, {
    "fullUrl": "https://madie.cms.gov/Encounter/a34759d3-f4ac-4401-a48d-bffc0ae8854d",
    "resource": {
      "resourceType": "Encounter",
      "id": "a34759d3-f4ac-4401-a48d-bffc0ae8854d",
      "meta": {
        "profile": [ "http://hl7.org/fhir/us/qicore/StructureDefinition/qicore-encounter" ]
      },
      "status": "finished",
      "class": {
        "system": "http://terminology.hl7.org/CodeSystem/v3-ActCode",
        "code": "EMER",
        "display": "emergency",
        "userSelected": true
      },
      "type": [ {
        "coding": [ {
          "system": "http://snomed.info/sct",
          "code": "32485007",
          "display": "Hospital admission (procedure)",
          "userSelected": true
        } ]
      } ],
      "subject": {
        "reference": "Patient/784a8b22-d1df-478c-9474-a65f050f7a4f"
      },
      "period": {
        "start": "2026-08-12T05:00:00.000+00:00",
        "end": "2026-10-19T12:00:00.000+00:00"
      },
      "hospitalization": {
        "dischargeDisposition": {
          "coding": [ {
            "system": "http://snomed.info/sct",
            "code": "428361000124107",
            "display": "Discharge to home for hospice care (procedure)",
            "userSelected": true
          } ]
        }
      }
    },
    "request": {
      "method": "PUT",
      "url": "Encounter/a34759d3-f4ac-4401-a48d-bffc0ae8854d"
    }
  }, {
    "fullUrl": "https://madie.cms.gov/Condition/34b1b914-01e0-4227-808d-6d440d86819e",
    "resource": {
      "resourceType": "Condition",
      "id": "34b1b914-01e0-4227-808d-6d440d86819e",
      "meta": {
        "profile": [ "http://hl7.org/fhir/us/qicore/StructureDefinition/qicore-condition" ]
      },
      "clinicalStatus": {
        "coding": [ {
          "system": "http://terminology.hl7.org/CodeSystem/condition-clinical",
          "code": "active",
          "display": "Active",
          "userSelected": true
        } ]
      },
      "category": [ {
        "coding": [ {
          "system": "http://terminology.hl7.org/CodeSystem/condition-category",
          "code": "encounter-diagnosis",
          "display": "Encounter Diagnosis",
          "userSelected": true
        } ]
      } ],
      "code": {
        "coding": [ {
          "system": "http://hl7.org/fhir/sid/icd-10-cm",
          "code": "I21.21",
          "display": "ST elevation (STEMI) myocardial infarction involving left circumflex coronary artery",
          "userSelected": true
        } ]
      },
      "subject": {
        "reference": "Patient/784a8b22-d1df-478c-9474-a65f050f7a4f"
      },
      "encounter": {
        "reference": "Encounter/d1b164f6e-e76a-4f42-a4c4-87e4c4b4953d"
      },
      "onsetPeriod": {
        "start": "2026-10-09T05:00:00.000+00:00",
        "end": "2026-10-09T17:00:00.000+00:00"
      }
    },
    "request": {
      "method": "PUT",
      "url": "Condition/34b1b914-01e0-4227-808d-6d440d86819e"
    }
  }, {
    "fullUrl": "https://madie.cms.gov/MeasureReport/08872465-b8b8-47ea-9500-4c0c114aea5a",
    "resource": {
      "resourceType": "MeasureReport",
      "id": "08872465-b8b8-47ea-9500-4c0c114aea5a",
      "meta": {
        "profile": [ "http://hl7.org/fhir/us/cqfmeasures/StructureDefinition/test-case-cqfm" ]
      },
      "contained": [ {
        "resourceType": "Parameters",
        "id": "c91a803c-c1a3-4d1b-8191-698167f0e6ba-parameters",
        "parameter": [ {
          "name": "subject",
          "valueString": "784a8b22-d1df-478c-9474-a65f050f7a4f"
        } ]
      } ],
      "extension": [ {
        "url": "http://hl7.org/fhir/us/cqfmeasures/StructureDefinition/cqfm-inputParameters",
        "valueReference": {
          "reference": "#c91a803c-c1a3-4d1b-8191-698167f0e6ba-parameters"
        }
      }, {
        "url": "http://hl7.org/fhir/us/cqfmeasures/StructureDefinition/cqfm-testCaseDescription",
        "valueMarkdown": "Patients has hospice discharge disposition (home) before and overlaps ED"
      } ],
      "modifierExtension": [ {
        "url": "http://hl7.org/fhir/us/cqfmeasures/StructureDefinition/cqfm-isTestCase",
        "valueBoolean": true
      } ],
      "status": "complete",
      "type": "individual",
      "measure": "https://madie.cms.gov/Measure/CMS996FHIRAptTxforSTEMI",
      "period": {
        "start": "2026-01-01",
        "end": "2026-12-31"
      },
      "group": [ {
        "population": [ {
          "code": {
            "coding": [ {
              "system": "http://terminology.hl7.org/CodeSystem/measure-population",
              "code": "initial-population",
              "display": "Initial Population"
            } ]
          },
          "count": 1
        }, {
          "code": {
            "coding": [ {
              "system": "http://terminology.hl7.org/CodeSystem/measure-population",
              "code": "denominator",
              "display": "Denominator"
            } ]
          },
          "count": 1
        }, {
          "code": {
            "coding": [ {
              "system": "http://terminology.hl7.org/CodeSystem/measure-population",
              "code": "denominator-exclusion",
              "display": "Denominator Exclusion"
            } ]
          },
          "count": 1
        }, {
          "code": {
            "coding": [ {
              "system": "http://terminology.hl7.org/CodeSystem/measure-population",
              "code": "numerator",
              "display": "Numerator"
            } ]
          },
          "count": 0
        }, {
          "code": {
            "coding": [ {
              "system": "http://terminology.hl7.org/CodeSystem/measure-population",
              "code": "denominator-exception",
              "display": "Denominator Exception"
            } ]
          },
          "count": 0
        } ]
      } ],
      "evaluatedResource": [ {
        "reference": "Patient/784a8b22-d1df-478c-9474-a65f050f7a4f"
      }, {
        "reference": "Encounter/8b7847cf-c069-47f9-b907-d8b4f046cd48"
      }, {
        "reference": "Encounter/a34759d3-f4ac-4401-a48d-bffc0ae8854d"
      }, {
        "reference": "Condition/34b1b914-01e0-4227-808d-6d440d86819e"
      } ]
    },
    "request": {
      "method": "PUT",
      "url": "MeasureReport/08872465-b8b8-47ea-9500-4c0c114aea5a"
    }
  } ]
}