{"resourceType":"Bundle","id":"tests-b9a0c3ab-10ba-42b1-a1c0-104e1651896d-bundle","type":"transaction","entry":[{"fullUrl":"https://madie.cms.gov/Encounter/c3cae472-505c-43c9-a6c9-42a14834d2b3","resource":{"resourceType":"Encounter","id":"c3cae472-505c-43c9-a6c9-42a14834d2b3","meta":{"profile":["http://hl7.org/fhir/us/qicore/StructureDefinition/qicore-encounter"]},"status":"finished","class":{"system":"http://terminology.hl7.org/CodeSystem/v3-ActCode","code":"IMP","display":"inpatient encounter"},"type":[{"coding":[{"system":"http://snomed.info/sct","code":"112689000","display":"Hospital admission, elective, with complete pre-admission work-up"}],"text":"Hospital admission, elective, with complete pre-admission work-up"}],"priority":{"coding":[{"system":"http://snomed.info/sct","code":"103390000"}]},"subject":{"reference":"Patient/b9a0c3ab-10ba-42b1-a1c0-104e1651896d"},"period":{"start":"2026-04-10T08:00:00+00:00","end":"2026-04-18T08:15:00+00:00"}},"request":{"method":"PUT","url":"Encounter/c3cae472-505c-43c9-a6c9-42a14834d2b3"}},{"fullUrl":"https://madie.cms.gov/Patient/b9a0c3ab-10ba-42b1-a1c0-104e1651896d","resource":{"resourceType":"Patient","id":"b9a0c3ab-10ba-42b1-a1c0-104e1651896d","meta":{"profile":["http://hl7.org/fhir/us/qicore/StructureDefinition/qicore-patient"]},"extension":[{"url":"http://hl7.org/fhir/us/core/StructureDefinition/us-core-race","extension":[{"url":"ombCategory","valueCoding":{"system":"urn:oid:2.16.840.1.113883.6.238","code":"2054-5","display":"Black or African American","userSelected":true}},{"url":"text","valueString":"Black or African American"}]},{"url":"http://hl7.org/fhir/us/core/StructureDefinition/us-core-ethnicity","extension":[{"url":"ombCategory","valueCoding":{"system":"urn:oid:2.16.840.1.113883.6.238","code":"2186-5","display":"Not Hispanic or Latino","userSelected":true}},{"url":"text","valueString":"Not Hispanic or Latino"}]}],"identifier":[{"type":{"coding":[{"system":"http://terminology.hl7.org/CodeSystem/v2-0203","code":"MR"}]},"system":"https://bonnie-fhir.healthit.gov/","value":"61152a3b98086b7a79cbd7c1"}],"active":true,"name":[{"use":"usual","family":"NUMER4Pass","given":["Num2FailsNum4Pass"]}],"gender":"female","birthDate":"1966-07-12"},"request":{"method":"PUT","url":"Patient/b9a0c3ab-10ba-42b1-a1c0-104e1651896d"}},{"fullUrl":"https://madie.cms.gov/Procedure/53465f8c-e1cd-45df-969a-7d171c347d23","resource":{"resourceType":"Procedure","id":"53465f8c-e1cd-45df-969a-7d171c347d23","meta":{"profile":["http://hl7.org/fhir/us/qicore/StructureDefinition/qicore-procedure"]},"extension":[{"url":"http://hl7.org/fhir/us/qicore/StructureDefinition/qicore-recorded","valueDateTime":"2026-04-11T08:10:00+00:00"}],"status":"completed","category":{"coding":[{"system":"http://snomed.info/sct","code":"18286008","display":"General or neuraxial anesthesia"}]},"code":{"coding":[{"system":"http://snomed.info/sct","code":"112943005","display":"Epidural injection of anesthetic substance, diagnostic, caudal, continuous"}]},"subject":{"reference":"Patient/b9a0c3ab-10ba-42b1-a1c0-104e1651896d"},"performedPeriod":{"start":"2026-04-11T08:00:00+00:00","end":"2026-04-11T10:15:00+00:00"}},"request":{"method":"PUT","url":"Procedure/53465f8c-e1cd-45df-969a-7d171c347d23"}},{"fullUrl":"https://madie.cms.gov/Procedure/b2fd2ac9-7d6f-4f0b-8d37-0caeeb8f7384","resource":{"resourceType":"Procedure","id":"b2fd2ac9-7d6f-4f0b-8d37-0caeeb8f7384","meta":{"profile":["http://hl7.org/fhir/us/qicore/StructureDefinition/qicore-procedure"]},"extension":[{"url":"http://hl7.org/fhir/us/qicore/StructureDefinition/qicore-recorded","valueDateTime":"2026-04-13T14:20:30+00:00"}],"status":"completed","code":{"coding":[{"system":"http://snomed.info/sct","code":"243141005","display":"Mechanically assisted spontaneous ventilation"}],"text":"Mechanically assisted spontaneous ventilation"},"subject":{"reference":"Patient/b9a0c3ab-10ba-42b1-a1c0-104e1651896d"},"performedPeriod":{"start":"2026-04-13T11:15:00+00:00","end":"2026-04-13T14:16:00+00:00"}},"request":{"method":"PUT","url":"Procedure/b2fd2ac9-7d6f-4f0b-8d37-0caeeb8f7384"}},{"fullUrl":"https://madie.cms.gov/Procedure/4116b97a-ff77-4d25-a0af-fc6bc91fa64b","resource":{"resourceType":"Procedure","id":"4116b97a-ff77-4d25-a0af-fc6bc91fa64b","meta":{"profile":["http://hl7.org/fhir/us/qicore/StructureDefinition/qicore-procedure"]},"extension":[{"url":"http://hl7.org/fhir/us/qicore/StructureDefinition/qicore-recorded","valueDateTime":"2026-04-11T09:20:00+00:00"}],"status":"completed","category":{"coding":[{"system":"http://snomed.info/sct","code":"18286008","display":"General or neuraxial anesthesia"}]},"code":{"coding":[{"system":"http://snomed.info/sct","code":"112943005","display":"Epidural injection of anesthetic substance, diagnostic, caudal, continuous"}]},"subject":{"reference":"Patient/b9a0c3ab-10ba-42b1-a1c0-104e1651896d"},"performedPeriod":{"start":"2026-04-14T08:00:00+00:00","end":"2026-04-14T09:15:00+00:00"}},"request":{"method":"PUT","url":"Procedure/4116b97a-ff77-4d25-a0af-fc6bc91fa64b"}},{"fullUrl":"https://madie.cms.gov/MeasureReport/da8a1b50-6b82-4a55-9f68-837ee554dac0","resource":{"resourceType":"MeasureReport","id":"da8a1b50-6b82-4a55-9f68-837ee554dac0","meta":{"profile":["http://hl7.org/fhir/us/cqfmeasures/StructureDefinition/test-case-cqfm"]},"contained":[{"resourceType":"Parameters","id":"7d3cc616-8379-4c94-ba2b-8c04ab1e80bb-parameters","parameter":[{"name":"subject","valueString":"b9a0c3ab-10ba-42b1-a1c0-104e1651896d"}]}],"extension":[{"url":"http://hl7.org/fhir/us/cqfmeasures/StructureDefinition/cqfm-inputParameters","valueReference":{"reference":"#7d3cc616-8379-4c94-ba2b-8c04ab1e80bb-parameters"}},{"url":"http://hl7.org/fhir/us/cqfmeasures/StructureDefinition/cqfm-testCaseDescription","valueMarkdown":"Elective hospitalization with two procs, MV after both but no preceding O2 so does not meet Num2. MV starts between 48-72 hrs after first proc so meets Num4. O2 therapy but it is after MV, not before."}],"modifierExtension":[{"url":"http://hl7.org/fhir/us/cqfmeasures/StructureDefinition/cqfm-isTestCase","valueBoolean":true}],"status":"complete","type":"individual","measure":"https://madie.cms.gov/Measure/CMS1218HHRFFHIR","period":{"start":"2026-01-01","end":"2026-12-31"},"group":[{"population":[{"code":{"coding":[{"system":"http://terminology.hl7.org/CodeSystem/measure-population","code":"initial-population","display":"Initial Population"}]},"count":1},{"code":{"coding":[{"system":"http://terminology.hl7.org/CodeSystem/measure-population","code":"denominator","display":"Denominator"}]},"count":1},{"code":{"coding":[{"system":"http://terminology.hl7.org/CodeSystem/measure-population","code":"denominator-exclusion","display":"Denominator Exclusion"}]},"count":0},{"code":{"coding":[{"system":"http://terminology.hl7.org/CodeSystem/measure-population","code":"numerator","display":"Numerator"}]},"count":1}]}]},"request":{"method":"PUT","url":"MeasureReport/da8a1b50-6b82-4a55-9f68-837ee554dac0"}}]}