{"resourceType":"Bundle","id":"tests-9d196de1-92ff-42f7-88a5-b0dfdfa36e57-bundle","type":"transaction","entry":[{"fullUrl":"https://madie.cms.gov/Encounter/452a9205-0e95-403f-92af-04b55409050d","resource":{"resourceType":"Encounter","id":"452a9205-0e95-403f-92af-04b55409050d","meta":{"profile":["http://hl7.org/fhir/us/qicore/StructureDefinition/qicore-encounter"]},"status":"finished","class":{"system":"http://terminology.hl7.org/CodeSystem/v3-ActCode","code":"IMP","display":"inpatient encounter"},"type":[{"coding":[{"system":"http://snomed.info/sct","code":"112689000","display":"Hospital admission, elective, with complete pre-admission work-up"}],"text":"Hospital admission, elective, with complete pre-admission work-up"}],"priority":{"coding":[{"system":"http://snomed.info/sct","code":"103390000"}]},"subject":{"reference":"Patient/9d196de1-92ff-42f7-88a5-b0dfdfa36e57"},"period":{"start":"2026-04-10T08:00:00+00:00","end":"2026-04-14T08:15:00+00:00"},"diagnosis":[{"condition":{"reference":"Procedure/01ab739e-f3d9-4473-b3bd-0a60b1b34f5f"},"rank":1}]},"request":{"method":"PUT","url":"Encounter/452a9205-0e95-403f-92af-04b55409050d"}},{"fullUrl":"https://madie.cms.gov/Patient/9d196de1-92ff-42f7-88a5-b0dfdfa36e57","resource":{"resourceType":"Patient","id":"9d196de1-92ff-42f7-88a5-b0dfdfa36e57","meta":{"profile":["http://hl7.org/fhir/us/qicore/StructureDefinition/qicore-patient"]},"extension":[{"url":"http://hl7.org/fhir/us/core/StructureDefinition/us-core-race","extension":[{"url":"ombCategory","valueCoding":{"system":"urn:oid:2.16.840.1.113883.6.238","code":"2054-5","display":"Black or African American","userSelected":true}},{"url":"text","valueString":"Black or African American"}]},{"url":"http://hl7.org/fhir/us/core/StructureDefinition/us-core-ethnicity","extension":[{"url":"ombCategory","valueCoding":{"system":"urn:oid:2.16.840.1.113883.6.238","code":"2186-5","display":"Not Hispanic or Latino","userSelected":true}},{"url":"text","valueString":"Not Hispanic or Latino"}]}],"identifier":[{"type":{"coding":[{"system":"http://terminology.hl7.org/CodeSystem/v2-0203","code":"MR"}]},"system":"https://bonnie-fhir.healthit.gov/","value":"61152a3b98086b7a79cbd7c1"}],"active":true,"name":[{"use":"usual","family":"DENEXFail","given":["TracheostomyAfterFirstProcedure"]}],"gender":"female","birthDate":"1966-07-12"},"request":{"method":"PUT","url":"Patient/9d196de1-92ff-42f7-88a5-b0dfdfa36e57"}},{"fullUrl":"https://madie.cms.gov/Procedure/01ab739e-f3d9-4473-b3bd-0a60b1b34f5f","resource":{"resourceType":"Procedure","id":"01ab739e-f3d9-4473-b3bd-0a60b1b34f5f","meta":{"profile":["http://hl7.org/fhir/us/qicore/StructureDefinition/qicore-procedure"]},"extension":[{"url":"http://hl7.org/fhir/us/qicore/StructureDefinition/qicore-recorded","valueDateTime":"2026-04-11T10:30:00+00:00"}],"status":"completed","category":{"coding":[{"system":"http://snomed.info/sct","code":"18286008","display":"General or neuraxial anesthesia"}]},"code":{"coding":[{"system":"http://snomed.info/sct","code":"112943005","display":"Epidural injection of anesthetic substance, diagnostic, caudal, continuous"}]},"subject":{"reference":"Patient/9d196de1-92ff-42f7-88a5-b0dfdfa36e57"},"performedPeriod":{"start":"2026-04-11T08:00:00+00:00","end":"2026-04-11T10:15:00+00:00"}},"request":{"method":"PUT","url":"Procedure/01ab739e-f3d9-4473-b3bd-0a60b1b34f5f"}},{"fullUrl":"https://madie.cms.gov/Procedure/3440e335-ce6e-44a7-95ec-4637026a31be","resource":{"resourceType":"Procedure","id":"3440e335-ce6e-44a7-95ec-4637026a31be","meta":{"profile":["http://hl7.org/fhir/us/qicore/StructureDefinition/qicore-procedure"]},"extension":[{"url":"http://hl7.org/fhir/us/qicore/StructureDefinition/qicore-recorded","valueDateTime":"2026-04-12T08:20:00+00:00"}],"status":"completed","code":{"coding":[{"system":"http://www.cms.gov/Medicare/Coding/ICD10","code":"0BW10FZ","display":"Revision of Tracheostomy Device in Trachea, Open Approach"}],"text":"Revision of Tracheostomy Device in Trachea, Open Approach"},"subject":{"reference":"Patient/9d196de1-92ff-42f7-88a5-b0dfdfa36e57"},"performedPeriod":{"start":"2026-04-12T08:00:00+00:00","end":"2026-04-12T08:15:00+00:00"}},"request":{"method":"PUT","url":"Procedure/3440e335-ce6e-44a7-95ec-4637026a31be"}},{"fullUrl":"https://madie.cms.gov/MeasureReport/723eed2c-babe-42ad-9f1a-224e27f8aab9","resource":{"resourceType":"MeasureReport","id":"723eed2c-babe-42ad-9f1a-224e27f8aab9","meta":{"profile":["http://hl7.org/fhir/us/cqfmeasures/StructureDefinition/test-case-cqfm"]},"contained":[{"resourceType":"Parameters","id":"40472faf-b06d-4741-8a7b-8241b4a0426f-parameters","parameter":[{"name":"subject","valueString":"9d196de1-92ff-42f7-88a5-b0dfdfa36e57"}]}],"extension":[{"url":"http://hl7.org/fhir/us/cqfmeasures/StructureDefinition/cqfm-inputParameters","valueReference":{"reference":"#40472faf-b06d-4741-8a7b-8241b4a0426f-parameters"}},{"url":"http://hl7.org/fhir/us/cqfmeasures/StructureDefinition/cqfm-testCaseDescription","valueMarkdown":"Elective hospitalization with procedure (general anesthesia) within first 3 days of encounter. Tracheostomy procedure also done, but done after the first instance of anesthesia. Does not meet exclusion.\n"}],"modifierExtension":[{"url":"http://hl7.org/fhir/us/cqfmeasures/StructureDefinition/cqfm-isTestCase","valueBoolean":true}],"status":"complete","type":"individual","measure":"https://madie.cms.gov/Measure/CMS1218HHRFFHIR","period":{"start":"2026-01-01","end":"2026-12-31"},"group":[{"population":[{"code":{"coding":[{"system":"http://terminology.hl7.org/CodeSystem/measure-population","code":"initial-population","display":"Initial Population"}]},"count":1},{"code":{"coding":[{"system":"http://terminology.hl7.org/CodeSystem/measure-population","code":"denominator","display":"Denominator"}]},"count":1},{"code":{"coding":[{"system":"http://terminology.hl7.org/CodeSystem/measure-population","code":"denominator-exclusion","display":"Denominator Exclusion"}]},"count":0},{"code":{"coding":[{"system":"http://terminology.hl7.org/CodeSystem/measure-population","code":"numerator","display":"Numerator"}]},"count":0}]}]},"request":{"method":"PUT","url":"MeasureReport/723eed2c-babe-42ad-9f1a-224e27f8aab9"}}]}