{"resourceType":"Bundle","id":"tests-fe79603f-2876-45eb-a9d0-0be56d3d29a1-bundle","type":"transaction","entry":[{"fullUrl":"https://madie.cms.gov/Encounter/326f5fe1-2b23-437b-a66a-45717daca9e6","resource":{"resourceType":"Encounter","id":"326f5fe1-2b23-437b-a66a-45717daca9e6","meta":{"profile":["http://hl7.org/fhir/us/qicore/StructureDefinition/qicore-encounter"]},"status":"finished","class":{"system":"http://terminology.hl7.org/CodeSystem/v3-ActCode","code":"IMP","display":"inpatient encounter"},"type":[{"coding":[{"system":"http://snomed.info/sct","code":"112689000","display":"Hospital admission, elective, with complete pre-admission work-up"}],"text":"Hospital admission, elective, with complete pre-admission work-up"}],"priority":{"coding":[{"system":"http://snomed.info/sct","code":"103390000"}]},"subject":{"reference":"Patient/fe79603f-2876-45eb-a9d0-0be56d3d29a1"},"period":{"start":"2026-04-10T08:00:00+00:00","end":"2026-04-14T08:15:00+00:00"},"diagnosis":[{"condition":{"reference":"Procedure/ebd1ec4a-4c6b-40fd-899a-c1b23570af86"},"rank":1}]},"request":{"method":"PUT","url":"Encounter/326f5fe1-2b23-437b-a66a-45717daca9e6"}},{"fullUrl":"https://madie.cms.gov/Encounter/d003c952-dea5-4f83-83cd-52d9165aeb12","resource":{"resourceType":"Encounter","id":"d003c952-dea5-4f83-83cd-52d9165aeb12","meta":{"profile":["http://hl7.org/fhir/us/qicore/StructureDefinition/qicore-encounter"]},"status":"finished","class":{"system":"http://terminology.hl7.org/CodeSystem/v3-ActCode","code":"IMP","display":"inpatient encounter"},"type":[{"coding":[{"system":"http://snomed.info/sct","code":"112689000","display":"Hospital admission, elective, with complete pre-admission work-up"}],"text":"Hospital admission, elective, with complete pre-admission work-up"}],"priority":{"coding":[{"system":"http://snomed.info/sct","code":"103390000"}]},"subject":{"reference":"Patient/fe79603f-2876-45eb-a9d0-0be56d3d29a1"},"period":{"start":"2026-04-18T08:00:00+00:00","end":"2026-04-25T08:15:00+00:00"},"diagnosis":[{"condition":{"reference":"Procedure/32f4eef0-a447-48bd-b05f-305c12525873"},"rank":1}]},"request":{"method":"PUT","url":"Encounter/d003c952-dea5-4f83-83cd-52d9165aeb12"}},{"fullUrl":"https://madie.cms.gov/Observation/3d5c4939-5310-437f-811a-fb80977da458","resource":{"resourceType":"Observation","id":"3d5c4939-5310-437f-811a-fb80977da458","meta":{"profile":["http://hl7.org/fhir/us/qicore/StructureDefinition/qicore-observation"]},"status":"final","category":[{"coding":[{"system":"http://terminology.hl7.org/CodeSystem/observation-category","code":"laboratory","display":"Laboratory"}],"text":"Laboratory"}],"code":{"coding":[{"system":"http://loinc.org","code":"2703-7","display":"Oxygen [Partial pressure] in Arterial blood"}],"text":"Oxygen [Partial pressure] in Arterial blood"},"subject":{"reference":"Patient/fe79603f-2876-45eb-a9d0-0be56d3d29a1"},"encounter":{"reference":"Encounter/326f5fe1-2b23-437b-a66a-45717daca9e6"},"effectiveDateTime":"2026-04-11T07:59:00+00:00","valueQuantity":{"value":48,"unit":"mmHg","system":"http://unitsofmeasure.org","code":"mm[Hg]"}},"request":{"method":"PUT","url":"Observation/3d5c4939-5310-437f-811a-fb80977da458"}},{"fullUrl":"https://madie.cms.gov/Patient/fe79603f-2876-45eb-a9d0-0be56d3d29a1","resource":{"resourceType":"Patient","id":"fe79603f-2876-45eb-a9d0-0be56d3d29a1","meta":{"profile":["http://hl7.org/fhir/us/qicore/StructureDefinition/qicore-patient"]},"extension":[{"url":"http://hl7.org/fhir/us/core/StructureDefinition/us-core-race","extension":[{"url":"ombCategory","valueCoding":{"system":"urn:oid:2.16.840.1.113883.6.238","code":"2054-5","display":"Black or African American","userSelected":true}},{"url":"text","valueString":"Black or African American"}]},{"url":"http://hl7.org/fhir/us/core/StructureDefinition/us-core-ethnicity","extension":[{"url":"ombCategory","valueCoding":{"system":"urn:oid:2.16.840.1.113883.6.238","code":"2186-5","display":"Not Hispanic or Latino","userSelected":true}},{"url":"text","valueString":"Not Hispanic or Latino"}]}],"identifier":[{"type":{"coding":[{"system":"http://terminology.hl7.org/CodeSystem/v2-0203","code":"MR"}]},"system":"https://bonnie-fhir.healthit.gov/","value":"61152a3b98086b7a79cbd7c1"}],"active":true,"name":[{"use":"usual","family":"DENEXFail","given":["1EncPaO2Exc2EncNum"]}],"gender":"female","birthDate":"1966-07-12"},"request":{"method":"PUT","url":"Patient/fe79603f-2876-45eb-a9d0-0be56d3d29a1"}},{"fullUrl":"https://madie.cms.gov/Procedure/ebd1ec4a-4c6b-40fd-899a-c1b23570af86","resource":{"resourceType":"Procedure","id":"ebd1ec4a-4c6b-40fd-899a-c1b23570af86","meta":{"profile":["http://hl7.org/fhir/us/qicore/StructureDefinition/qicore-procedure"]},"extension":[{"url":"http://hl7.org/fhir/us/qicore/StructureDefinition/qicore-recorded","valueDateTime":"2026-04-11T10:30:00+00:00"}],"status":"completed","category":{"coding":[{"system":"http://snomed.info/sct","code":"18286008","display":"General or neuraxial anesthesia"}]},"code":{"coding":[{"system":"http://snomed.info/sct","code":"112943005","display":"Epidural injection of anesthetic substance, diagnostic, caudal, continuous"}]},"subject":{"reference":"Patient/fe79603f-2876-45eb-a9d0-0be56d3d29a1"},"performedPeriod":{"start":"2026-04-11T08:00:00+00:00","end":"2026-04-11T10:15:00+00:00"}},"request":{"method":"PUT","url":"Procedure/ebd1ec4a-4c6b-40fd-899a-c1b23570af86"}},{"fullUrl":"https://madie.cms.gov/Procedure/32f4eef0-a447-48bd-b05f-305c12525873","resource":{"resourceType":"Procedure","id":"32f4eef0-a447-48bd-b05f-305c12525873","meta":{"profile":["http://hl7.org/fhir/us/qicore/StructureDefinition/qicore-procedure"]},"extension":[{"url":"http://hl7.org/fhir/us/qicore/StructureDefinition/qicore-recorded","valueDateTime":"2026-04-19T10:30:00+00:00"}],"status":"completed","category":{"coding":[{"system":"http://snomed.info/sct","code":"18286008","display":"General or neuraxial anesthesia"}]},"code":{"coding":[{"system":"http://snomed.info/sct","code":"112943005","display":"Epidural injection of anesthetic substance, diagnostic, caudal, continuous"}]},"subject":{"reference":"Patient/fe79603f-2876-45eb-a9d0-0be56d3d29a1"},"performedPeriod":{"start":"2026-04-19T08:00:00+00:00","end":"2026-04-19T10:15:00+00:00"}},"request":{"method":"PUT","url":"Procedure/32f4eef0-a447-48bd-b05f-305c12525873"}},{"fullUrl":"https://madie.cms.gov/Procedure/46c8b28f-3bf1-4ef9-bf45-82c36d43a834","resource":{"resourceType":"Procedure","id":"46c8b28f-3bf1-4ef9-bf45-82c36d43a834","meta":{"profile":["http://hl7.org/fhir/us/qicore/StructureDefinition/qicore-procedure"]},"extension":[{"url":"http://hl7.org/fhir/us/qicore/StructureDefinition/qicore-recorded","valueDateTime":"2026-04-20T08:10:00+00:00"}],"status":"completed","code":{"coding":[{"system":"http://www.cms.gov/Medicare/Coding/ICD10","code":"0BH13EZ","display":"Insertion of Endotracheal Airway into Trachea, Percutaneous Approach"}],"text":"Insertion of Endotracheal Airway into Trachea, Percutaneous Approach"},"subject":{"reference":"Patient/fe79603f-2876-45eb-a9d0-0be56d3d29a1"},"performedDateTime":"2026-04-20T08:00:00+00:00"},"request":{"method":"PUT","url":"Procedure/46c8b28f-3bf1-4ef9-bf45-82c36d43a834"}},{"fullUrl":"https://madie.cms.gov/MeasureReport/5ae716b2-9aab-46d3-8775-e40682f0abbf","resource":{"resourceType":"MeasureReport","id":"5ae716b2-9aab-46d3-8775-e40682f0abbf","meta":{"profile":["http://hl7.org/fhir/us/cqfmeasures/StructureDefinition/test-case-cqfm"]},"contained":[{"resourceType":"Parameters","id":"7f043c15-5126-41d7-a6fe-dd95db1fd449-parameters","parameter":[{"name":"subject","valueString":"fe79603f-2876-45eb-a9d0-0be56d3d29a1"}]}],"extension":[{"url":"http://hl7.org/fhir/us/cqfmeasures/StructureDefinition/cqfm-inputParameters","valueReference":{"reference":"#7f043c15-5126-41d7-a6fe-dd95db1fd449-parameters"}},{"url":"http://hl7.org/fhir/us/cqfmeasures/StructureDefinition/cqfm-testCaseDescription","valueMarkdown":"Enc 1: Elective hosp with proc (anesthesia) within first 3 days of encounter. PaO2 <50 and within 48 hours of start of procedure. Meets Exc.\nEnc 2: Intubated outside of OR after first procedure. Meets Num 1. \nExc from enc 1 does not impact enc 2."}],"modifierExtension":[{"url":"http://hl7.org/fhir/us/cqfmeasures/StructureDefinition/cqfm-isTestCase","valueBoolean":true}],"status":"complete","type":"individual","measure":"https://madie.cms.gov/Measure/CMS1218HHRFFHIR","period":{"start":"2026-01-01","end":"2026-12-31"},"group":[{"population":[{"code":{"coding":[{"system":"http://terminology.hl7.org/CodeSystem/measure-population","code":"initial-population","display":"Initial Population"}]},"count":2},{"code":{"coding":[{"system":"http://terminology.hl7.org/CodeSystem/measure-population","code":"denominator","display":"Denominator"}]},"count":2},{"code":{"coding":[{"system":"http://terminology.hl7.org/CodeSystem/measure-population","code":"denominator-exclusion","display":"Denominator Exclusion"}]},"count":1},{"code":{"coding":[{"system":"http://terminology.hl7.org/CodeSystem/measure-population","code":"numerator","display":"Numerator"}]},"count":1}]}]},"request":{"method":"PUT","url":"MeasureReport/5ae716b2-9aab-46d3-8775-e40682f0abbf"}}]}