{"resourceType":"Bundle","id":"tests-7c224175-f689-4b7e-82ad-22175d5238b7-bundle","type":"transaction","entry":[{"fullUrl":"https://madie.cms.gov/Condition/cc005e21-3f5b-4dc1-8fba-b26693ac1b66","resource":{"resourceType":"Condition","id":"cc005e21-3f5b-4dc1-8fba-b26693ac1b66","meta":{"profile":["http://hl7.org/fhir/us/qicore/StructureDefinition/qicore-condition"]},"clinicalStatus":{"coding":[{"system":"http://terminology.hl7.org/CodeSystem/condition-clinical","code":"active","display":"Active","userSelected":true}]},"verificationStatus":{"coding":[{"system":"http://terminology.hl7.org/CodeSystem/condition-ver-status","code":"confirmed","display":"Confirmed","userSelected":true}]},"category":[{"coding":[{"system":"http://terminology.hl7.org/CodeSystem/condition-category","code":"encounter-diagnosis","display":"Encounter Diagnosis","userSelected":true}]}],"code":{"coding":[{"system":"http://hl7.org/fhir/sid/icd-10-cm","code":"G61.0","display":"Guillain-Barré syndrome","userSelected":true}]},"subject":{"reference":"Patient/7c224175-f689-4b7e-82ad-22175d5238b7"},"onsetPeriod":{"start":"2026-04-10T08:00:00.000+00:00"},"recordedDate":"2026-04-10T08:05:00.000+00:00"},"request":{"method":"PUT","url":"Condition/cc005e21-3f5b-4dc1-8fba-b26693ac1b66"}},{"fullUrl":"https://madie.cms.gov/Encounter/856ccdab-6862-4726-8f61-cc666ead6fbb","resource":{"resourceType":"Encounter","id":"856ccdab-6862-4726-8f61-cc666ead6fbb","meta":{"profile":["http://hl7.org/fhir/us/qicore/StructureDefinition/qicore-encounter"]},"status":"finished","class":{"system":"http://terminology.hl7.org/CodeSystem/v3-ActCode","code":"IMP","display":"inpatient encounter"},"type":[{"coding":[{"system":"http://snomed.info/sct","code":"112689000","display":"Hospital admission, elective, with complete pre-admission work-up"}],"text":"Hospital admission, elective, with complete pre-admission work-up"}],"priority":{"coding":[{"system":"http://snomed.info/sct","code":"103390000"}]},"subject":{"reference":"Patient/7c224175-f689-4b7e-82ad-22175d5238b7"},"period":{"start":"2026-04-10T08:00:00+00:00","end":"2026-04-14T08:15:00+00:00"},"diagnosis":[{"condition":{"reference":"Condition/cc005e21-3f5b-4dc1-8fba-b26693ac1b66"}}]},"request":{"method":"PUT","url":"Encounter/856ccdab-6862-4726-8f61-cc666ead6fbb"}},{"fullUrl":"https://madie.cms.gov/Patient/7c224175-f689-4b7e-82ad-22175d5238b7","resource":{"resourceType":"Patient","id":"7c224175-f689-4b7e-82ad-22175d5238b7","meta":{"profile":["http://hl7.org/fhir/us/qicore/StructureDefinition/qicore-patient"]},"extension":[{"url":"http://hl7.org/fhir/us/core/StructureDefinition/us-core-race","extension":[{"url":"ombCategory","valueCoding":{"system":"urn:oid:2.16.840.1.113883.6.238","code":"2054-5","display":"Black or African American","userSelected":true}},{"url":"text","valueString":"Black or African American"}]},{"url":"http://hl7.org/fhir/us/core/StructureDefinition/us-core-ethnicity","extension":[{"url":"ombCategory","valueCoding":{"system":"urn:oid:2.16.840.1.113883.6.238","code":"2186-5","display":"Not Hispanic or Latino","userSelected":true}},{"url":"text","valueString":"Not Hispanic or Latino"}]}],"identifier":[{"type":{"coding":[{"system":"http://terminology.hl7.org/CodeSystem/v2-0203","code":"MR"}]},"system":"https://bonnie-fhir.healthit.gov/","value":"61152a3b98086b7a79cbd7c1"}],"active":true,"name":[{"use":"usual","family":"DENEXPass","given":["NeuromuscularDisorder"]}],"gender":"female","birthDate":"1966-07-12"},"request":{"method":"PUT","url":"Patient/7c224175-f689-4b7e-82ad-22175d5238b7"}},{"fullUrl":"https://madie.cms.gov/Procedure/a1984f3d-2741-422b-9798-5f306a25431c","resource":{"resourceType":"Procedure","id":"a1984f3d-2741-422b-9798-5f306a25431c","meta":{"profile":["http://hl7.org/fhir/us/qicore/StructureDefinition/qicore-procedure"]},"extension":[{"url":"http://hl7.org/fhir/us/qicore/StructureDefinition/qicore-recorded","valueDateTime":"2026-04-11T10:20:00+00:00"}],"status":"completed","category":{"coding":[{"system":"http://snomed.info/sct","code":"18286008","display":"General or neuraxial anesthesia"}]},"code":{"coding":[{"system":"http://snomed.info/sct","code":"112943005","display":"Epidural injection of anesthetic substance, diagnostic, caudal, continuous"}]},"subject":{"reference":"Patient/7c224175-f689-4b7e-82ad-22175d5238b7"},"performedPeriod":{"start":"2026-04-11T08:00:00+00:00","end":"2026-04-11T10:15:00+00:00"}},"request":{"method":"PUT","url":"Procedure/a1984f3d-2741-422b-9798-5f306a25431c"}},{"fullUrl":"https://madie.cms.gov/MeasureReport/87d50dfa-4680-40c2-b901-6db239b599f1","resource":{"resourceType":"MeasureReport","id":"87d50dfa-4680-40c2-b901-6db239b599f1","meta":{"profile":["http://hl7.org/fhir/us/cqfmeasures/StructureDefinition/test-case-cqfm"]},"contained":[{"resourceType":"Parameters","id":"a3091616-1c0d-48ee-a18a-9490b3c26192-parameters","parameter":[{"name":"subject","valueString":"7c224175-f689-4b7e-82ad-22175d5238b7"}]}],"extension":[{"url":"http://hl7.org/fhir/us/cqfmeasures/StructureDefinition/cqfm-inputParameters","valueReference":{"reference":"#a3091616-1c0d-48ee-a18a-9490b3c26192-parameters"}},{"url":"http://hl7.org/fhir/us/cqfmeasures/StructureDefinition/cqfm-testCaseDescription","valueMarkdown":"Elective hospitalization with procedure (general anesthesia) within first 3 days of encounter. But has encounter diagnosis of neuromuscular disorder so meets denom exclusion. \n"}],"modifierExtension":[{"url":"http://hl7.org/fhir/us/cqfmeasures/StructureDefinition/cqfm-isTestCase","valueBoolean":true}],"status":"complete","type":"individual","measure":"https://madie.cms.gov/Measure/CMS1218HHRFFHIR","period":{"start":"2026-01-01","end":"2026-12-31"},"group":[{"population":[{"code":{"coding":[{"system":"http://terminology.hl7.org/CodeSystem/measure-population","code":"initial-population","display":"Initial Population"}]},"count":1},{"code":{"coding":[{"system":"http://terminology.hl7.org/CodeSystem/measure-population","code":"denominator","display":"Denominator"}]},"count":1},{"code":{"coding":[{"system":"http://terminology.hl7.org/CodeSystem/measure-population","code":"denominator-exclusion","display":"Denominator Exclusion"}]},"count":1},{"code":{"coding":[{"system":"http://terminology.hl7.org/CodeSystem/measure-population","code":"numerator","display":"Numerator"}]},"count":0}]}]},"request":{"method":"PUT","url":"MeasureReport/87d50dfa-4680-40c2-b901-6db239b599f1"}}]}