{"resourceType":"Bundle","id":"tests-6fcf2c8a-e316-4cb3-b9c8-cae8f52b8a84-bundle","type":"transaction","entry":[{"fullUrl":"https://madie.cms.gov/Condition/1baa765c-595d-4433-b1a7-f43f0278f7df","resource":{"resourceType":"Condition","id":"1baa765c-595d-4433-b1a7-f43f0278f7df","meta":{"profile":["http://hl7.org/fhir/us/qicore/StructureDefinition/qicore-condition"]},"clinicalStatus":{"coding":[{"system":"http://terminology.hl7.org/CodeSystem/condition-clinical","code":"active","display":"Active","userSelected":true}]},"verificationStatus":{"coding":[{"system":"http://terminology.hl7.org/CodeSystem/condition-ver-status","code":"confirmed","display":"Confirmed","userSelected":true}]},"category":[{"coding":[{"system":"http://terminology.hl7.org/CodeSystem/condition-category","code":"encounter-diagnosis","display":"Encounter Diagnosis","userSelected":true}]}],"code":{"coding":[{"system":"http://hl7.org/fhir/sid/icd-10-cm","version":"2023","code":"J95.821","display":"Acute postprocedural respiratory failure","userSelected":true}]},"subject":{"reference":"Patient/6fcf2c8a-e316-4cb3-b9c8-cae8f52b8a84"},"onsetPeriod":{"start":"2026-04-10T08:00:00.000+00:00"},"recordedDate":"2026-04-10T08:05:00.000+00:00"},"request":{"method":"PUT","url":"Condition/1baa765c-595d-4433-b1a7-f43f0278f7df"}},{"fullUrl":"https://madie.cms.gov/Encounter/7df30189-04f5-497d-970c-9a118792e3e0","resource":{"resourceType":"Encounter","id":"7df30189-04f5-497d-970c-9a118792e3e0","meta":{"profile":["http://hl7.org/fhir/us/qicore/StructureDefinition/qicore-encounter"]},"status":"finished","class":{"system":"http://terminology.hl7.org/CodeSystem/v3-ActCode","code":"IMP","display":"inpatient encounter"},"type":[{"coding":[{"system":"http://snomed.info/sct","code":"112689000","display":"Hospital admission, elective, with complete pre-admission work-up"}],"text":"Hospital admission, elective, with complete pre-admission work-up"}],"priority":{"coding":[{"system":"http://snomed.info/sct","code":"103390000"}]},"subject":{"reference":"Patient/6fcf2c8a-e316-4cb3-b9c8-cae8f52b8a84"},"period":{"start":"2026-04-10T08:00:00+00:00","end":"2026-04-14T08:15:00+00:00"},"diagnosis":[{"extension":[{"url":"http://hl7.org/fhir/us/qicore/StructureDefinition/qicore-encounter-diagnosisPresentOnAdmission","valueCodeableConcept":{"coding":[{"system":"https://www.cms.gov/Medicare/Medicare-Fee-for-Service-Payment/HospitalAcqCond/Coding","code":"Y"}]}}],"condition":{"reference":"Condition/1baa765c-595d-4433-b1a7-f43f0278f7df"},"rank":2}]},"request":{"method":"PUT","url":"Encounter/7df30189-04f5-497d-970c-9a118792e3e0"}},{"fullUrl":"https://madie.cms.gov/Patient/6fcf2c8a-e316-4cb3-b9c8-cae8f52b8a84","resource":{"resourceType":"Patient","id":"6fcf2c8a-e316-4cb3-b9c8-cae8f52b8a84","meta":{"profile":["http://hl7.org/fhir/us/qicore/StructureDefinition/qicore-patient"]},"extension":[{"url":"http://hl7.org/fhir/us/core/StructureDefinition/us-core-race","extension":[{"url":"ombCategory","valueCoding":{"system":"urn:oid:2.16.840.1.113883.6.238","code":"2054-5","display":"Black or African American","userSelected":true}},{"url":"text","valueString":"Black or African American"}]},{"url":"http://hl7.org/fhir/us/core/StructureDefinition/us-core-ethnicity","extension":[{"url":"ombCategory","valueCoding":{"system":"urn:oid:2.16.840.1.113883.6.238","code":"2186-5","display":"Not Hispanic or Latino","userSelected":true}},{"url":"text","valueString":"Not Hispanic or Latino"}]}],"identifier":[{"type":{"coding":[{"system":"http://terminology.hl7.org/CodeSystem/v2-0203","code":"MR"}]},"system":"https://bonnie-fhir.healthit.gov/","value":"61152a3b98086b7a79cbd7c1"}],"active":true,"name":[{"use":"usual","family":"DENEXPass","given":["SecondaryDxAcuteRespFailurePOA"]}],"gender":"female","birthDate":"1966-07-12"},"request":{"method":"PUT","url":"Patient/6fcf2c8a-e316-4cb3-b9c8-cae8f52b8a84"}},{"fullUrl":"https://madie.cms.gov/Procedure/1e6a8c78-fc23-4eaa-abee-ee2d7599faed","resource":{"resourceType":"Procedure","id":"1e6a8c78-fc23-4eaa-abee-ee2d7599faed","meta":{"profile":["http://hl7.org/fhir/us/qicore/StructureDefinition/qicore-procedure"]},"extension":[{"url":"http://hl7.org/fhir/us/qicore/StructureDefinition/qicore-recorded","valueDateTime":"2026-04-11T10:20:00+00:00"}],"status":"completed","category":{"coding":[{"system":"http://snomed.info/sct","code":"18286008","display":"General or neuraxial anesthesia"}]},"code":{"coding":[{"system":"http://snomed.info/sct","code":"112943005","display":"Epidural injection of anesthetic substance, diagnostic, caudal, continuous"}]},"subject":{"reference":"Patient/6fcf2c8a-e316-4cb3-b9c8-cae8f52b8a84"},"performedPeriod":{"start":"2026-04-11T08:00:00+00:00","end":"2026-04-11T10:15:00+00:00"}},"request":{"method":"PUT","url":"Procedure/1e6a8c78-fc23-4eaa-abee-ee2d7599faed"}},{"fullUrl":"https://madie.cms.gov/MeasureReport/9f8ed38e-cf62-49cc-b948-7aa93e3c4196","resource":{"resourceType":"MeasureReport","id":"9f8ed38e-cf62-49cc-b948-7aa93e3c4196","meta":{"profile":["http://hl7.org/fhir/us/cqfmeasures/StructureDefinition/test-case-cqfm"]},"contained":[{"resourceType":"Parameters","id":"941ea508-d521-4dd9-9371-d9931e7912ad-parameters","parameter":[{"name":"subject","valueString":"6fcf2c8a-e316-4cb3-b9c8-cae8f52b8a84"}]}],"extension":[{"url":"http://hl7.org/fhir/us/cqfmeasures/StructureDefinition/cqfm-inputParameters","valueReference":{"reference":"#941ea508-d521-4dd9-9371-d9931e7912ad-parameters"}},{"url":"http://hl7.org/fhir/us/cqfmeasures/StructureDefinition/cqfm-testCaseDescription","valueMarkdown":"Elective hospitalization with procedure (general anesthesia) within first 3 days of encounter but has a secondary (rank => 2) encounter diagnosis of acute respiratory failure. \nPOA indicator = Y. \nMeets denom exclusion"}],"modifierExtension":[{"url":"http://hl7.org/fhir/us/cqfmeasures/StructureDefinition/cqfm-isTestCase","valueBoolean":true}],"status":"complete","type":"individual","measure":"https://madie.cms.gov/Measure/CMS1218HHRFFHIR","period":{"start":"2026-01-01","end":"2026-12-31"},"group":[{"population":[{"code":{"coding":[{"system":"http://terminology.hl7.org/CodeSystem/measure-population","code":"initial-population","display":"Initial Population"}]},"count":1},{"code":{"coding":[{"system":"http://terminology.hl7.org/CodeSystem/measure-population","code":"denominator","display":"Denominator"}]},"count":1},{"code":{"coding":[{"system":"http://terminology.hl7.org/CodeSystem/measure-population","code":"denominator-exclusion","display":"Denominator Exclusion"}]},"count":1},{"code":{"coding":[{"system":"http://terminology.hl7.org/CodeSystem/measure-population","code":"numerator","display":"Numerator"}]},"count":0}]}]},"request":{"method":"PUT","url":"MeasureReport/9f8ed38e-cf62-49cc-b948-7aa93e3c4196"}}]}