{"resourceType":"Bundle","id":"tests-bf37ac0a-db5f-4276-8048-8667477a57e9-bundle","type":"transaction","entry":[{"fullUrl":"https://madie.cms.gov/Condition/b20d94cb-8352-4725-83fd-c478b72e36f1","resource":{"resourceType":"Condition","id":"b20d94cb-8352-4725-83fd-c478b72e36f1","meta":{"profile":["http://hl7.org/fhir/us/qicore/StructureDefinition/qicore-condition"]},"clinicalStatus":{"coding":[{"system":"http://terminology.hl7.org/CodeSystem/condition-clinical","code":"active","display":"Active"}]},"verificationStatus":{"coding":[{"system":"http://terminology.hl7.org/CodeSystem/condition-ver-status","code":"confirmed","display":"Confirmed"}]},"category":[{"coding":[{"system":"http://terminology.hl7.org/CodeSystem/condition-category","code":"encounter-diagnosis","display":"Encounter Diagnosis"}]}],"code":{"coding":[{"system":"http://hl7.org/fhir/sid/icd-10-cm","code":"J95.01"}]},"subject":{"reference":"Patient/bf37ac0a-db5f-4276-8048-8667477a57e9"},"encounter":{"reference":"Encounter/79ef1fdf-5c99-4cdb-9499-48353f88034c"}},"request":{"method":"PUT","url":"Condition/b20d94cb-8352-4725-83fd-c478b72e36f1"}},{"fullUrl":"https://madie.cms.gov/Encounter/79ef1fdf-5c99-4cdb-9499-48353f88034c","resource":{"resourceType":"Encounter","id":"79ef1fdf-5c99-4cdb-9499-48353f88034c","meta":{"profile":["http://hl7.org/fhir/us/qicore/StructureDefinition/qicore-encounter"]},"status":"finished","class":{"system":"http://terminology.hl7.org/CodeSystem/v3-ActCode","code":"IMP","display":"inpatient encounter"},"type":[{"coding":[{"system":"http://snomed.info/sct","code":"112689000","display":"Hospital admission, elective, with complete pre-admission work-up"}],"text":"Hospital admission, elective, with complete pre-admission work-up"}],"priority":{"coding":[{"system":"http://snomed.info/sct","code":"103390000"}]},"subject":{"reference":"Patient/bf37ac0a-db5f-4276-8048-8667477a57e9"},"period":{"start":"2026-04-10T08:00:00+00:00","end":"2026-04-14T08:15:00+00:00"},"diagnosis":[{"extension":[{"url":"http://hl7.org/fhir/us/qicore/StructureDefinition/qicore-encounter-diagnosisPresentOnAdmission","valueCodeableConcept":{"coding":[{"system":"https://www.cms.gov/Medicare/Medicare-Fee-for-Service-Payment/HospitalAcqCond/Coding","code":"W"}]}}],"condition":{"reference":"Condition/b20d94cb-8352-4725-83fd-c478b72e36f1"}}]},"request":{"method":"PUT","url":"Encounter/79ef1fdf-5c99-4cdb-9499-48353f88034c"}},{"fullUrl":"https://madie.cms.gov/Patient/bf37ac0a-db5f-4276-8048-8667477a57e9","resource":{"resourceType":"Patient","id":"bf37ac0a-db5f-4276-8048-8667477a57e9","meta":{"profile":["http://hl7.org/fhir/us/qicore/StructureDefinition/qicore-patient"]},"extension":[{"url":"http://hl7.org/fhir/us/core/StructureDefinition/us-core-race","extension":[{"url":"ombCategory","valueCoding":{"system":"urn:oid:2.16.840.1.113883.6.238","code":"2054-5","display":"Black or African American","userSelected":true}},{"url":"text","valueString":"Black or African American"}]},{"url":"http://hl7.org/fhir/us/core/StructureDefinition/us-core-ethnicity","extension":[{"url":"ombCategory","valueCoding":{"system":"urn:oid:2.16.840.1.113883.6.238","code":"2186-5","display":"Not Hispanic or Latino","userSelected":true}},{"url":"text","valueString":"Not Hispanic or Latino"}]}],"identifier":[{"type":{"coding":[{"system":"http://terminology.hl7.org/CodeSystem/v2-0203","code":"MR"}]},"system":"https://bonnie-fhir.healthit.gov/","value":"61152a3b98086b7a79cbd7c1"}],"active":true,"name":[{"use":"usual","family":"DENEXPass","given":["TracheostomyDxPOA"]}],"gender":"female","birthDate":"1966-07-12"},"request":{"method":"PUT","url":"Patient/bf37ac0a-db5f-4276-8048-8667477a57e9"}},{"fullUrl":"https://madie.cms.gov/Procedure/c1bd6233-048e-42ad-acec-8d71dab707f6","resource":{"resourceType":"Procedure","id":"c1bd6233-048e-42ad-acec-8d71dab707f6","meta":{"profile":["http://hl7.org/fhir/us/qicore/StructureDefinition/qicore-procedure"]},"extension":[{"url":"http://hl7.org/fhir/us/qicore/StructureDefinition/qicore-recorded","valueDateTime":"2026-04-11T10:30:00+00:00"}],"status":"completed","category":{"coding":[{"system":"http://snomed.info/sct","code":"18286008","display":"General or neuraxial anesthesia"}]},"code":{"coding":[{"system":"http://snomed.info/sct","code":"112943005","display":"Epidural injection of anesthetic substance, diagnostic, caudal, continuous"}]},"subject":{"reference":"Patient/bf37ac0a-db5f-4276-8048-8667477a57e9"},"performedPeriod":{"start":"2026-04-11T08:00:00+00:00","end":"2026-04-11T10:15:00+00:00"}},"request":{"method":"PUT","url":"Procedure/c1bd6233-048e-42ad-acec-8d71dab707f6"}},{"fullUrl":"https://madie.cms.gov/MeasureReport/b80238b6-755e-46aa-8caf-4f6b36f86acd","resource":{"resourceType":"MeasureReport","id":"b80238b6-755e-46aa-8caf-4f6b36f86acd","meta":{"profile":["http://hl7.org/fhir/us/cqfmeasures/StructureDefinition/test-case-cqfm"]},"contained":[{"resourceType":"Parameters","id":"a3d40339-54fd-4102-b910-d1c26b506605-parameters","parameter":[{"name":"subject","valueString":"bf37ac0a-db5f-4276-8048-8667477a57e9"}]}],"extension":[{"url":"http://hl7.org/fhir/us/cqfmeasures/StructureDefinition/cqfm-inputParameters","valueReference":{"reference":"#a3d40339-54fd-4102-b910-d1c26b506605-parameters"}},{"url":"http://hl7.org/fhir/us/cqfmeasures/StructureDefinition/cqfm-testCaseDescription","valueMarkdown":"Elective hospitalization with procedure (general anesthesia) within first 3 days of encounter but has a tracheostomy diagnosis POA,  indicator = W. \nMeets denom exclusion."}],"modifierExtension":[{"url":"http://hl7.org/fhir/us/cqfmeasures/StructureDefinition/cqfm-isTestCase","valueBoolean":true}],"status":"complete","type":"individual","measure":"https://madie.cms.gov/Measure/CMS1218HHRFFHIR","period":{"start":"2026-01-01","end":"2026-12-31"},"group":[{"population":[{"code":{"coding":[{"system":"http://terminology.hl7.org/CodeSystem/measure-population","code":"initial-population","display":"Initial Population"}]},"count":1},{"code":{"coding":[{"system":"http://terminology.hl7.org/CodeSystem/measure-population","code":"denominator","display":"Denominator"}]},"count":1},{"code":{"coding":[{"system":"http://terminology.hl7.org/CodeSystem/measure-population","code":"denominator-exclusion","display":"Denominator Exclusion"}]},"count":1},{"code":{"coding":[{"system":"http://terminology.hl7.org/CodeSystem/measure-population","code":"numerator","display":"Numerator"}]},"count":0}]}]},"request":{"method":"PUT","url":"MeasureReport/b80238b6-755e-46aa-8caf-4f6b36f86acd"}}]}