{"resourceType":"Bundle","id":"tests-35b12f5c-3630-462c-b094-69e91c702b71-bundle","type":"transaction","entry":[{"fullUrl":"https://madie.cms.gov/Encounter/f6588598-9ccf-455e-b817-e3c230699040","resource":{"resourceType":"Encounter","id":"f6588598-9ccf-455e-b817-e3c230699040","meta":{"profile":["http://hl7.org/fhir/us/qicore/StructureDefinition/qicore-encounter"]},"status":"finished","class":{"system":"http://terminology.hl7.org/CodeSystem/v3-ActCode","code":"IMP","display":"inpatient encounter"},"type":[{"coding":[{"system":"http://snomed.info/sct","code":"112689000","display":"Hospital admission, elective, with complete pre-admission work-up"}],"text":"Hospital admission, elective, with complete pre-admission work-up"}],"priority":{"coding":[{"system":"http://snomed.info/sct","code":"103390000"}]},"subject":{"reference":"Patient/35b12f5c-3630-462c-b094-69e91c702b71"},"period":{"start":"2026-04-10T08:00:00+00:00","end":"2026-04-14T08:15:00+00:00"},"diagnosis":[{"condition":{"reference":"Procedure/42378c4e-8eee-4b22-87d6-503ea21e85df"},"rank":1}]},"request":{"method":"PUT","url":"Encounter/f6588598-9ccf-455e-b817-e3c230699040"}},{"fullUrl":"https://madie.cms.gov/Patient/35b12f5c-3630-462c-b094-69e91c702b71","resource":{"resourceType":"Patient","id":"35b12f5c-3630-462c-b094-69e91c702b71","meta":{"profile":["http://hl7.org/fhir/us/qicore/StructureDefinition/qicore-patient"]},"extension":[{"url":"http://hl7.org/fhir/us/core/StructureDefinition/us-core-race","extension":[{"url":"ombCategory","valueCoding":{"system":"urn:oid:2.16.840.1.113883.6.238","code":"2054-5","display":"Black or African American","userSelected":true}},{"url":"text","valueString":"Black or African American"}]},{"url":"http://hl7.org/fhir/us/core/StructureDefinition/us-core-ethnicity","extension":[{"url":"ombCategory","valueCoding":{"system":"urn:oid:2.16.840.1.113883.6.238","code":"2186-5","display":"Not Hispanic or Latino","userSelected":true}},{"url":"text","valueString":"Not Hispanic or Latino"}]}],"identifier":[{"type":{"coding":[{"system":"http://terminology.hl7.org/CodeSystem/v2-0203","code":"MR"}]},"system":"https://bonnie-fhir.healthit.gov/","value":"61152a3b98086b7a79cbd7c1"}],"active":true,"name":[{"use":"usual","family":"DENOMPass","given":["EncWithSurgeryWithin3Days"]}],"gender":"female","birthDate":"1966-07-12"},"request":{"method":"PUT","url":"Patient/35b12f5c-3630-462c-b094-69e91c702b71"}},{"fullUrl":"https://madie.cms.gov/Procedure/42378c4e-8eee-4b22-87d6-503ea21e85df","resource":{"resourceType":"Procedure","id":"42378c4e-8eee-4b22-87d6-503ea21e85df","meta":{"profile":["http://hl7.org/fhir/us/qicore/StructureDefinition/qicore-procedure"]},"extension":[{"url":"http://hl7.org/fhir/us/qicore/StructureDefinition/qicore-recorded","valueDateTime":"2026-04-11T10:30:00+00:00"}],"status":"completed","category":{"coding":[{"system":"http://snomed.info/sct","code":"18286008","display":"General or neuraxial anesthesia"}]},"code":{"coding":[{"system":"http://snomed.info/sct","code":"112943005","display":"Epidural injection of anesthetic substance, diagnostic, caudal, continuous"}]},"subject":{"reference":"Patient/35b12f5c-3630-462c-b094-69e91c702b71"},"performedPeriod":{"start":"2026-04-11T08:00:00+00:00","end":"2026-04-11T10:15:00+00:00"}},"request":{"method":"PUT","url":"Procedure/42378c4e-8eee-4b22-87d6-503ea21e85df"}},{"fullUrl":"https://madie.cms.gov/MeasureReport/9033146b-d6dd-4518-8786-d97d8d29286c","resource":{"resourceType":"MeasureReport","id":"9033146b-d6dd-4518-8786-d97d8d29286c","meta":{"profile":["http://hl7.org/fhir/us/cqfmeasures/StructureDefinition/test-case-cqfm"]},"contained":[{"resourceType":"Parameters","id":"539e4dcd-8257-4463-810b-be4b24f45bb2-parameters","parameter":[{"name":"subject","valueString":"35b12f5c-3630-462c-b094-69e91c702b71"}]}],"extension":[{"url":"http://hl7.org/fhir/us/cqfmeasures/StructureDefinition/cqfm-inputParameters","valueReference":{"reference":"#539e4dcd-8257-4463-810b-be4b24f45bb2-parameters"}},{"url":"http://hl7.org/fhir/us/cqfmeasures/StructureDefinition/cqfm-testCaseDescription","valueMarkdown":"Elective hospitalization with procedure (general anesthesia) within first 3 days of encounter. Meets IPP/Denom"}],"modifierExtension":[{"url":"http://hl7.org/fhir/us/cqfmeasures/StructureDefinition/cqfm-isTestCase","valueBoolean":true}],"status":"complete","type":"individual","measure":"https://madie.cms.gov/Measure/CMS1218HHRFFHIR","period":{"start":"2026-01-01","end":"2026-12-31"},"group":[{"population":[{"code":{"coding":[{"system":"http://terminology.hl7.org/CodeSystem/measure-population","code":"initial-population","display":"Initial Population"}]},"count":1},{"code":{"coding":[{"system":"http://terminology.hl7.org/CodeSystem/measure-population","code":"denominator","display":"Denominator"}]},"count":1},{"code":{"coding":[{"system":"http://terminology.hl7.org/CodeSystem/measure-population","code":"denominator-exclusion","display":"Denominator Exclusion"}]},"count":0},{"code":{"coding":[{"system":"http://terminology.hl7.org/CodeSystem/measure-population","code":"numerator","display":"Numerator"}]},"count":0}]}]},"request":{"method":"PUT","url":"MeasureReport/9033146b-d6dd-4518-8786-d97d8d29286c"}}]}