{"resourceType":"Bundle","id":"tests-23191b54-f639-47a2-88ad-dc7fabaec98a-bundle","type":"transaction","entry":[{"fullUrl":"https://madie.cms.gov/Encounter/65331f3c-7156-4baa-96cc-e37282bb3fe9","resource":{"resourceType":"Encounter","id":"65331f3c-7156-4baa-96cc-e37282bb3fe9","meta":{"profile":["http://hl7.org/fhir/us/qicore/StructureDefinition/qicore-encounter"]},"status":"finished","class":{"system":"http://terminology.hl7.org/CodeSystem/v3-ActCode","code":"IMP","display":"inpatient encounter"},"type":[{"coding":[{"system":"http://snomed.info/sct","code":"112689000","display":"Hospital admission, elective, with complete pre-admission work-up"}],"text":"Hospital admission, elective, with complete pre-admission work-up"}],"priority":{"coding":[{"system":"http://snomed.info/sct","code":"103390000"}]},"subject":{"reference":"Patient/23191b54-f639-47a2-88ad-dc7fabaec98a"},"period":{"start":"2026-05-04T11:00:00+00:00","end":"2026-05-13T08:15:00+00:00"}},"request":{"method":"PUT","url":"Encounter/65331f3c-7156-4baa-96cc-e37282bb3fe9"}},{"fullUrl":"https://madie.cms.gov/Encounter/f30c3f65-4d54-496a-bdfd-b77ba1b95593","resource":{"resourceType":"Encounter","id":"f30c3f65-4d54-496a-bdfd-b77ba1b95593","meta":{"profile":["http://hl7.org/fhir/us/qicore/StructureDefinition/qicore-encounter"]},"status":"finished","class":{"system":"http://terminology.hl7.org/CodeSystem/v3-ActCode","code":"IMP","display":"inpatient encounter"},"type":[{"coding":[{"system":"http://snomed.info/sct","code":"112689000","display":"Hospital admission, elective, with complete pre-admission work-up"}],"text":"Hospital admission, elective, with complete pre-admission work-up"}],"priority":{"coding":[{"system":"http://snomed.info/sct","code":"103390000"}]},"subject":{"reference":"Patient/23191b54-f639-47a2-88ad-dc7fabaec98a"},"period":{"start":"2026-05-14T11:00:00+00:00","end":"2026-05-20T08:15:00+00:00"}},"request":{"method":"PUT","url":"Encounter/f30c3f65-4d54-496a-bdfd-b77ba1b95593"}},{"fullUrl":"https://madie.cms.gov/Patient/23191b54-f639-47a2-88ad-dc7fabaec98a","resource":{"resourceType":"Patient","id":"23191b54-f639-47a2-88ad-dc7fabaec98a","meta":{"profile":["http://hl7.org/fhir/us/qicore/StructureDefinition/qicore-patient"]},"extension":[{"url":"http://hl7.org/fhir/us/core/StructureDefinition/us-core-race","extension":[{"url":"ombCategory","valueCoding":{"system":"urn:oid:2.16.840.1.113883.6.238","code":"2054-5","display":"Black or African American","userSelected":true}},{"url":"text","valueString":"Black or African American"}]},{"url":"http://hl7.org/fhir/us/core/StructureDefinition/us-core-ethnicity","extension":[{"url":"ombCategory","valueCoding":{"system":"urn:oid:2.16.840.1.113883.6.238","code":"2186-5","display":"Not Hispanic or Latino","userSelected":true}},{"url":"text","valueString":"Not Hispanic or Latino"}]}],"identifier":[{"type":{"coding":[{"system":"http://terminology.hl7.org/CodeSystem/v2-0203","code":"MR"}]},"system":"https://bonnie-fhir.healthit.gov/","value":"61152a3b98086b7a79cbd7c1"}],"active":true,"name":[{"use":"usual","family":"NUMERPass","given":["Num2TwoEncO2DurEnc1andMVDDurEnc2"]}],"gender":"female","birthDate":"1966-07-12"},"request":{"method":"PUT","url":"Patient/23191b54-f639-47a2-88ad-dc7fabaec98a"}},{"fullUrl":"https://madie.cms.gov/Procedure/a0382559-d934-46e5-a5bb-f138eece1f58","resource":{"resourceType":"Procedure","id":"a0382559-d934-46e5-a5bb-f138eece1f58","meta":{"profile":["http://hl7.org/fhir/us/qicore/StructureDefinition/qicore-procedure"]},"extension":[{"url":"http://hl7.org/fhir/us/qicore/StructureDefinition/qicore-recorded","valueDateTime":"2026-05-15T10:20:00+00:00"}],"status":"completed","category":{"coding":[{"system":"http://snomed.info/sct","code":"18286008","display":"General or neuraxial anesthesia"}]},"code":{"coding":[{"system":"http://snomed.info/sct","code":"112943005","display":"Epidural injection of anesthetic substance, diagnostic, caudal, continuous"}]},"subject":{"reference":"Patient/23191b54-f639-47a2-88ad-dc7fabaec98a"},"performedPeriod":{"start":"2026-05-05T09:00:00+00:00","end":"2026-05-05T10:15:00+00:00"}},"request":{"method":"PUT","url":"Procedure/a0382559-d934-46e5-a5bb-f138eece1f58"}},{"fullUrl":"https://madie.cms.gov/Procedure/20c5173a-bdef-4c3d-8db0-2c9aefb9396f","resource":{"resourceType":"Procedure","id":"20c5173a-bdef-4c3d-8db0-2c9aefb9396f","meta":{"profile":["http://hl7.org/fhir/us/qicore/StructureDefinition/qicore-procedure"]},"extension":[{"url":"http://hl7.org/fhir/us/qicore/StructureDefinition/qicore-recorded","valueDateTime":"2026-05-06T08:15:30+00:00"}],"status":"completed","code":{"coding":[{"system":"http://snomed.info/sct","version":"2023-09","code":"304577004","display":"Humidified oxygen therapy (procedure)"}],"text":"Humidified oxygen therapy (procedure)"},"subject":{"reference":"Patient/23191b54-f639-47a2-88ad-dc7fabaec98a"},"performedDateTime":"2026-05-06T08:10:00+00:00"},"request":{"method":"PUT","url":"Procedure/20c5173a-bdef-4c3d-8db0-2c9aefb9396f"}},{"fullUrl":"https://madie.cms.gov/Procedure/f5aabc92-2a7c-41c5-b42e-c0aeb0ed201b","resource":{"resourceType":"Procedure","id":"f5aabc92-2a7c-41c5-b42e-c0aeb0ed201b","meta":{"profile":["http://hl7.org/fhir/us/qicore/StructureDefinition/qicore-procedure"]},"extension":[{"url":"http://hl7.org/fhir/us/qicore/StructureDefinition/qicore-recorded","valueDateTime":"2026-05-15T12:20:00+00:00"}],"status":"completed","category":{"coding":[{"system":"http://snomed.info/sct","code":"18286008","display":"General or neuraxial anesthesia"}]},"code":{"coding":[{"system":"http://snomed.info/sct","code":"112943005","display":"Epidural injection of anesthetic substance, diagnostic, caudal, continuous"}]},"subject":{"reference":"Patient/23191b54-f639-47a2-88ad-dc7fabaec98a"},"performedPeriod":{"start":"2026-05-15T11:00:00+00:00","end":"2026-05-15T12:15:00+00:00"}},"request":{"method":"PUT","url":"Procedure/f5aabc92-2a7c-41c5-b42e-c0aeb0ed201b"}},{"fullUrl":"https://madie.cms.gov/Procedure/beb970a7-c75a-4bb0-a30f-626dd55144ad","resource":{"resourceType":"Procedure","id":"beb970a7-c75a-4bb0-a30f-626dd55144ad","meta":{"profile":["http://hl7.org/fhir/us/qicore/StructureDefinition/qicore-procedure"]},"extension":[{"url":"http://hl7.org/fhir/us/qicore/StructureDefinition/qicore-recorded","valueDateTime":"2026-05-15T13:20:30+00:00"}],"status":"completed","code":{"coding":[{"system":"http://snomed.info/sct","code":"1258985005","display":"Invasive Mechanical Ventilation"}],"text":"Invasive Mechanical Ventilation"},"subject":{"reference":"Patient/23191b54-f639-47a2-88ad-dc7fabaec98a"},"performedPeriod":{"start":"2026-05-15T13:04:00+00:00","end":"2026-05-15T13:19:00+00:00"}},"request":{"method":"PUT","url":"Procedure/beb970a7-c75a-4bb0-a30f-626dd55144ad"}},{"fullUrl":"https://madie.cms.gov/MeasureReport/875e8cd3-0bd4-40d8-92db-1d05e5763d6f","resource":{"resourceType":"MeasureReport","id":"875e8cd3-0bd4-40d8-92db-1d05e5763d6f","meta":{"profile":["http://hl7.org/fhir/us/cqfmeasures/StructureDefinition/test-case-cqfm"]},"contained":[{"resourceType":"Parameters","id":"d3fdd289-de05-4305-92dd-4f02941ffaa8-parameters","parameter":[{"name":"subject","valueString":"23191b54-f639-47a2-88ad-dc7fabaec98a"}]}],"extension":[{"url":"http://hl7.org/fhir/us/cqfmeasures/StructureDefinition/cqfm-inputParameters","valueReference":{"reference":"#d3fdd289-de05-4305-92dd-4f02941ffaa8-parameters"}},{"url":"http://hl7.org/fhir/us/cqfmeasures/StructureDefinition/cqfm-testCaseDescription","valueMarkdown":"2 encounters. Enc1: O2 after procedure Enc2: MV after end of procedure  Fails numerator because enc1 has no MV, and enc2 has no O2"}],"modifierExtension":[{"url":"http://hl7.org/fhir/us/cqfmeasures/StructureDefinition/cqfm-isTestCase","valueBoolean":true}],"status":"complete","type":"individual","measure":"https://madie.cms.gov/Measure/CMS1218HHRFFHIR","period":{"start":"2026-01-01","end":"2026-12-31"},"group":[{"population":[{"code":{"coding":[{"system":"http://terminology.hl7.org/CodeSystem/measure-population","code":"initial-population","display":"Initial Population"}]},"count":2},{"code":{"coding":[{"system":"http://terminology.hl7.org/CodeSystem/measure-population","code":"denominator","display":"Denominator"}]},"count":2},{"code":{"coding":[{"system":"http://terminology.hl7.org/CodeSystem/measure-population","code":"denominator-exclusion","display":"Denominator Exclusion"}]},"count":0},{"code":{"coding":[{"system":"http://terminology.hl7.org/CodeSystem/measure-population","code":"numerator","display":"Numerator"}]},"count":0}]}]},"request":{"method":"PUT","url":"MeasureReport/875e8cd3-0bd4-40d8-92db-1d05e5763d6f"}}]}