{"resourceType":"Bundle","id":"tests-a82b589d-d741-4bc8-941c-9546a2b787e8-bundle","type":"transaction","entry":[{"fullUrl":"https://madie.cms.gov/Procedure/0749813c-9463-4a75-9c1c-46fd7d4b2c35","resource":{"resourceType":"Procedure","id":"0749813c-9463-4a75-9c1c-46fd7d4b2c35","meta":{"profile":["http://hl7.org/fhir/us/qicore/StructureDefinition/qicore-procedure"]},"extension":[{"url":"http://hl7.org/fhir/us/qicore/StructureDefinition/qicore-recorded","valueDateTime":"2026-04-11T10:30:00+00:00"}],"status":"completed","category":{"coding":[{"system":"http://snomed.info/sct","code":"18286008","display":"General or neuraxial anesthesia"}]},"code":{"coding":[{"system":"http://snomed.info/sct","code":"112943005","display":"Epidural injection of anesthetic substance, diagnostic, caudal, continuous"}]},"subject":{"reference":"Patient/a82b589d-d741-4bc8-941c-9546a2b787e8"},"performedPeriod":{"start":"2026-04-11T08:00:00+00:00","end":"2026-04-11T10:15:00+00:00"}},"request":{"method":"PUT","url":"Procedure/0749813c-9463-4a75-9c1c-46fd7d4b2c35"}},{"fullUrl":"https://madie.cms.gov/Encounter/f47e2a4c-85fb-4401-8801-019b7ff0d09d","resource":{"resourceType":"Encounter","id":"f47e2a4c-85fb-4401-8801-019b7ff0d09d","meta":{"profile":["http://hl7.org/fhir/us/qicore/StructureDefinition/qicore-encounter"]},"status":"finished","class":{"system":"http://terminology.hl7.org/CodeSystem/v3-ActCode","code":"IMP","display":"inpatient encounter"},"type":[{"coding":[{"system":"http://snomed.info/sct","code":"112689000"}]}],"priority":{"coding":[{"system":"http://snomed.info/sct","code":"103390000"}]},"subject":{"reference":"Patient/a82b589d-d741-4bc8-941c-9546a2b787e8"},"period":{"start":"2026-04-10T08:00:00+00:00","end":"2026-04-14T08:15:00+00:00"},"diagnosis":[{"condition":{"reference":"Procedure/0749813c-9463-4a75-9c1c-46fd7d4b2c35"}}]},"request":{"method":"PUT","url":"Encounter/f47e2a4c-85fb-4401-8801-019b7ff0d09d"}},{"fullUrl":"https://madie.cms.gov/Encounter/786c1222-4872-4763-bdde-3a613736e5ef","resource":{"resourceType":"Encounter","id":"786c1222-4872-4763-bdde-3a613736e5ef","meta":{"profile":["http://hl7.org/fhir/us/qicore/StructureDefinition/qicore-encounter"]},"status":"finished","class":{"system":"http://terminology.hl7.org/CodeSystem/v3-ActCode","code":"EMER","display":"emergency"},"type":[{"coding":[{"system":"http://snomed.info/sct","code":"4525004"}]}],"subject":{"reference":"Patient/a82b589d-d741-4bc8-941c-9546a2b787e8"},"period":{"start":"2026-04-09T08:00:00+00:00","end":"2026-04-10T08:00:00+00:00"}},"request":{"method":"PUT","url":"Encounter/786c1222-4872-4763-bdde-3a613736e5ef"}},{"fullUrl":"https://madie.cms.gov/Patient/a82b589d-d741-4bc8-941c-9546a2b787e8","resource":{"resourceType":"Patient","id":"a82b589d-d741-4bc8-941c-9546a2b787e8","meta":{"profile":["http://hl7.org/fhir/us/qicore/StructureDefinition/qicore-patient"]},"extension":[{"url":"http://hl7.org/fhir/us/core/StructureDefinition/us-core-race","extension":[{"url":"ombCategory","valueCoding":{"system":"urn:oid:2.16.840.1.113883.6.238","code":"2028-9","display":"Asian","userSelected":true}},{"url":"text","valueString":"Asian"}]},{"url":"http://hl7.org/fhir/us/core/StructureDefinition/us-core-ethnicity","extension":[{"url":"ombCategory","valueCoding":{"system":"urn:oid:2.16.840.1.113883.6.238","code":"2186-5","display":"Not Hispanic or Latino","userSelected":true}},{"url":"text","valueString":"Not Hispanic or Latino"}]}],"identifier":[{"type":{"coding":[{"system":"http://terminology.hl7.org/CodeSystem/v2-0203","code":"MR"}]},"system":"https://bonnie-fhir.healthit.gov/","value":"61152a3b98086b7a79cbd7c1"}],"active":true,"name":[{"use":"usual","family":"IPPFail","given":["ElecEncWithEDVisitEndDTSameAsIPStartDT"]}],"gender":"female","birthDate":"1966-04-09"},"request":{"method":"PUT","url":"Patient/a82b589d-d741-4bc8-941c-9546a2b787e8"}},{"fullUrl":"https://madie.cms.gov/MeasureReport/65e65fce-cdf1-4c4d-94d5-874402fc2491","resource":{"resourceType":"MeasureReport","id":"65e65fce-cdf1-4c4d-94d5-874402fc2491","meta":{"profile":["http://hl7.org/fhir/us/cqfmeasures/StructureDefinition/test-case-cqfm"]},"contained":[{"resourceType":"Parameters","id":"1d010b18-a0e4-4b4c-994c-a177efc34314-parameters","parameter":[{"name":"subject","valueString":"a82b589d-d741-4bc8-941c-9546a2b787e8"}]}],"extension":[{"url":"http://hl7.org/fhir/us/cqfmeasures/StructureDefinition/cqfm-inputParameters","valueReference":{"reference":"#1d010b18-a0e4-4b4c-994c-a177efc34314-parameters"}},{"url":"http://hl7.org/fhir/us/cqfmeasures/StructureDefinition/cqfm-testCaseDescription","valueMarkdown":"Hospitalization (has 'elective' class) with procedure (general anesthesia) within first 3 days of encounter. ED visit ends same time as start of IP visit so Fails IPP. "}],"modifierExtension":[{"url":"http://hl7.org/fhir/us/cqfmeasures/StructureDefinition/cqfm-isTestCase","valueBoolean":true}],"status":"complete","type":"individual","measure":"https://madie.cms.gov/Measure/CMS1218HHRFFHIR","period":{"start":"2026-01-01","end":"2026-12-31"},"group":[{"population":[{"code":{"coding":[{"system":"http://terminology.hl7.org/CodeSystem/measure-population","code":"initial-population","display":"Initial Population"}]},"count":0},{"code":{"coding":[{"system":"http://terminology.hl7.org/CodeSystem/measure-population","code":"denominator","display":"Denominator"}]},"count":0},{"code":{"coding":[{"system":"http://terminology.hl7.org/CodeSystem/measure-population","code":"denominator-exclusion","display":"Denominator Exclusion"}]},"count":0},{"code":{"coding":[{"system":"http://terminology.hl7.org/CodeSystem/measure-population","code":"numerator","display":"Numerator"}]},"count":0}]}]},"request":{"method":"PUT","url":"MeasureReport/65e65fce-cdf1-4c4d-94d5-874402fc2491"}}]}