{"resourceType":"Bundle","id":"tests-077e122d-ed4d-4cf0-b665-1bf87710171d-bundle","type":"transaction","entry":[{"fullUrl":"https://madie.cms.gov/Encounter/60633e29-fc63-422f-a6ba-d2b71774f1dd","resource":{"resourceType":"Encounter","id":"60633e29-fc63-422f-a6ba-d2b71774f1dd","meta":{"profile":["http://hl7.org/fhir/us/qicore/StructureDefinition/qicore-encounter"]},"status":"finished","class":{"system":"http://terminology.hl7.org/CodeSystem/v3-ActCode","code":"IMP","display":"inpatient encounter"},"type":[{"coding":[{"system":"http://snomed.info/sct","code":"112689000","display":"Hospital admission, elective, with complete pre-admission work-up"}],"text":"Hospital admission, elective, with complete pre-admission work-up"}],"priority":{"coding":[{"system":"http://snomed.info/sct","code":"103390000"}]},"subject":{"reference":"Patient/077e122d-ed4d-4cf0-b665-1bf87710171d"},"period":{"start":"2026-04-10T08:00:00+00:00","end":"2026-04-14T08:15:00+00:00"},"diagnosis":[{"condition":{"reference":"Procedure/4e8ad390-de7f-4167-9251-ff0c6e23d273"},"rank":1}]},"request":{"method":"PUT","url":"Encounter/60633e29-fc63-422f-a6ba-d2b71774f1dd"}},{"fullUrl":"https://madie.cms.gov/Encounter/96c820be-106b-4b3b-9bf2-0d52137c0140","resource":{"resourceType":"Encounter","id":"96c820be-106b-4b3b-9bf2-0d52137c0140","meta":{"profile":["http://hl7.org/fhir/us/qicore/StructureDefinition/qicore-encounter"]},"status":"finished","class":{"system":"http://terminology.hl7.org/CodeSystem/v3-ActCode","code":"IMP","display":"inpatient encounter"},"type":[{"coding":[{"system":"http://snomed.info/sct","code":"4525004","display":"Emergency department patient visit"}],"text":"Emergency department patient visit"}],"subject":{"reference":"Patient/077e122d-ed4d-4cf0-b665-1bf87710171d"},"period":{"start":"2026-04-09T08:00:00+00:00","end":"2026-04-10T06:59:00+00:00"},"diagnosis":[{"condition":{"reference":"Procedure/4e8ad390-de7f-4167-9251-ff0c6e23d273"},"rank":1}]},"request":{"method":"PUT","url":"Encounter/96c820be-106b-4b3b-9bf2-0d52137c0140"}},{"fullUrl":"https://madie.cms.gov/Patient/077e122d-ed4d-4cf0-b665-1bf87710171d","resource":{"resourceType":"Patient","id":"077e122d-ed4d-4cf0-b665-1bf87710171d","meta":{"profile":["http://hl7.org/fhir/us/qicore/StructureDefinition/qicore-patient"]},"extension":[{"url":"http://hl7.org/fhir/us/core/StructureDefinition/us-core-race","extension":[{"url":"ombCategory","valueCoding":{"system":"urn:oid:2.16.840.1.113883.6.238","code":"2054-5","display":"Black or African American","userSelected":true}},{"url":"text","valueString":"Black or African American"}]},{"url":"http://hl7.org/fhir/us/core/StructureDefinition/us-core-ethnicity","extension":[{"url":"ombCategory","valueCoding":{"system":"urn:oid:2.16.840.1.113883.6.238","code":"2186-5","display":"Not Hispanic or Latino","userSelected":true}},{"url":"text","valueString":"Not Hispanic or Latino"}]}],"identifier":[{"type":{"coding":[{"system":"http://terminology.hl7.org/CodeSystem/v2-0203","code":"MR"}]},"system":"https://bonnie-fhir.healthit.gov/","value":"61152a3b98086b7a79cbd7c1"}],"active":true,"name":[{"use":"usual","family":"DENOMPass","given":["EncWithEDVisitGTOneHrPrior"]}],"gender":"female","birthDate":"1966-07-12"},"request":{"method":"PUT","url":"Patient/077e122d-ed4d-4cf0-b665-1bf87710171d"}},{"fullUrl":"https://madie.cms.gov/Procedure/4e8ad390-de7f-4167-9251-ff0c6e23d273","resource":{"resourceType":"Procedure","id":"4e8ad390-de7f-4167-9251-ff0c6e23d273","meta":{"profile":["http://hl7.org/fhir/us/qicore/StructureDefinition/qicore-procedure"]},"extension":[{"url":"http://hl7.org/fhir/us/qicore/StructureDefinition/qicore-recorded","valueDateTime":"2026-04-11T10:30:00+00:00"}],"status":"completed","category":{"coding":[{"system":"http://snomed.info/sct","code":"18286008","display":"General or neuraxial anesthesia"}]},"code":{"coding":[{"system":"http://snomed.info/sct","code":"112943005","display":"Epidural injection of anesthetic substance, diagnostic, caudal, continuous"}]},"subject":{"reference":"Patient/077e122d-ed4d-4cf0-b665-1bf87710171d"},"performedPeriod":{"start":"2026-04-11T08:00:00+00:00","end":"2026-04-11T10:15:00+00:00"}},"request":{"method":"PUT","url":"Procedure/4e8ad390-de7f-4167-9251-ff0c6e23d273"}},{"fullUrl":"https://madie.cms.gov/MeasureReport/5479bff6-20fc-4296-b722-6437eb691fd7","resource":{"resourceType":"MeasureReport","id":"5479bff6-20fc-4296-b722-6437eb691fd7","meta":{"profile":["http://hl7.org/fhir/us/cqfmeasures/StructureDefinition/test-case-cqfm"]},"contained":[{"resourceType":"Parameters","id":"54eee0a2-df37-4fe5-8599-145f4325850c-parameters","parameter":[{"name":"subject","valueString":"077e122d-ed4d-4cf0-b665-1bf87710171d"}]}],"extension":[{"url":"http://hl7.org/fhir/us/cqfmeasures/StructureDefinition/cqfm-inputParameters","valueReference":{"reference":"#54eee0a2-df37-4fe5-8599-145f4325850c-parameters"}},{"url":"http://hl7.org/fhir/us/cqfmeasures/StructureDefinition/cqfm-testCaseDescription","valueMarkdown":"Elective hospitalization with procedure (general anesthesia) within first 3 days of encounter. Has ED visit which ends > 1 hour before start of IP encounter. IPP/Denom pass."}],"modifierExtension":[{"url":"http://hl7.org/fhir/us/cqfmeasures/StructureDefinition/cqfm-isTestCase","valueBoolean":true}],"status":"complete","type":"individual","measure":"https://madie.cms.gov/Measure/CMS1218HHRFFHIR","period":{"start":"2026-01-01","end":"2026-12-31"},"group":[{"population":[{"code":{"coding":[{"system":"http://terminology.hl7.org/CodeSystem/measure-population","code":"initial-population","display":"Initial Population"}]},"count":1},{"code":{"coding":[{"system":"http://terminology.hl7.org/CodeSystem/measure-population","code":"denominator","display":"Denominator"}]},"count":1},{"code":{"coding":[{"system":"http://terminology.hl7.org/CodeSystem/measure-population","code":"denominator-exclusion","display":"Denominator Exclusion"}]},"count":0},{"code":{"coding":[{"system":"http://terminology.hl7.org/CodeSystem/measure-population","code":"numerator","display":"Numerator"}]},"count":0}]}]},"request":{"method":"PUT","url":"MeasureReport/5479bff6-20fc-4296-b722-6437eb691fd7"}}]}