{"resourceType":"Bundle","id":"tests-ae2f56d6-c3ee-4ed4-a425-365e532dafa8-bundle","type":"transaction","entry":[{"fullUrl":"https://madie.cms.gov/Encounter/9a464f17-1260-4ba1-a165-9615be72354a","resource":{"resourceType":"Encounter","id":"9a464f17-1260-4ba1-a165-9615be72354a","meta":{"profile":["http://hl7.org/fhir/us/qicore/StructureDefinition/qicore-encounter"]},"status":"finished","class":{"system":"http://terminology.hl7.org/CodeSystem/v3-ActCode","code":"IMP","display":"inpatient encounter"},"type":[{"coding":[{"system":"http://snomed.info/sct","code":"112689000","display":"Hospital admission, elective, with complete pre-admission work-up"}],"text":"Hospital admission, elective, with complete pre-admission work-up"}],"priority":{"coding":[{"system":"http://snomed.info/sct","code":"103390000"}]},"subject":{"reference":"Patient/ae2f56d6-c3ee-4ed4-a425-365e532dafa8"},"period":{"start":"2026-04-10T08:00:00+00:00","end":"2026-04-14T08:15:00+00:00"},"diagnosis":[{"condition":{"reference":"Procedure/a854c7f7-3510-42b7-b132-2bafbe8686b0"},"rank":1}]},"request":{"method":"PUT","url":"Encounter/9a464f17-1260-4ba1-a165-9615be72354a"}},{"fullUrl":"https://madie.cms.gov/Observation/66f86561-cb0a-44dd-a5e5-6be5589edb67","resource":{"resourceType":"Observation","id":"66f86561-cb0a-44dd-a5e5-6be5589edb67","meta":{"profile":["http://hl7.org/fhir/us/qicore/StructureDefinition/qicore-observation"]},"status":"final","category":[{"coding":[{"system":"http://terminology.hl7.org/CodeSystem/observation-category","code":"laboratory","display":"Laboratory"}],"text":"Laboratory"}],"code":{"coding":[{"system":"http://loinc.org","code":"2019-8","display":"Carbon dioxide [Partial pressure] in Arterial blood"}],"text":"Carbon dioxide [Partial pressure] in Arterial blood"},"subject":{"reference":"Patient/ae2f56d6-c3ee-4ed4-a425-365e532dafa8"},"encounter":{"reference":"Encounter/9a464f17-1260-4ba1-a165-9615be72354a"},"effectiveDateTime":"2026-04-09T08:00:00+00:00","valueQuantity":{"value":50.1,"unit":"mmHg","system":"http://unitsofmeasure.org","code":"mm[Hg]"}},"request":{"method":"PUT","url":"Observation/66f86561-cb0a-44dd-a5e5-6be5589edb67"}},{"fullUrl":"https://madie.cms.gov/Observation/34b6a4a6-bdc0-499d-9629-b4a5a5547f48","resource":{"resourceType":"Observation","id":"34b6a4a6-bdc0-499d-9629-b4a5a5547f48","meta":{"profile":["http://hl7.org/fhir/us/qicore/StructureDefinition/qicore-observation"]},"status":"final","category":[{"coding":[{"system":"http://terminology.hl7.org/CodeSystem/observation-category","code":"laboratory","display":"Laboratory"}],"text":"Laboratory"}],"code":{"coding":[{"system":"http://loinc.org","code":"2744-1","display":"pH of Arterial blood"}],"text":"pH of Arterial blood"},"subject":{"reference":"Patient/ae2f56d6-c3ee-4ed4-a425-365e532dafa8"},"encounter":{"reference":"Encounter/9a464f17-1260-4ba1-a165-9615be72354a"},"effectiveDateTime":"2026-04-11T07:59:00+00:00","valueQuantity":{"value":7.29,"unit":"pH","system":"http://unitsofmeasure.org","code":"[pH]"}},"request":{"method":"PUT","url":"Observation/34b6a4a6-bdc0-499d-9629-b4a5a5547f48"}},{"fullUrl":"https://madie.cms.gov/Patient/ae2f56d6-c3ee-4ed4-a425-365e532dafa8","resource":{"resourceType":"Patient","id":"ae2f56d6-c3ee-4ed4-a425-365e532dafa8","meta":{"profile":["http://hl7.org/fhir/us/qicore/StructureDefinition/qicore-patient"]},"extension":[{"url":"http://hl7.org/fhir/us/core/StructureDefinition/us-core-race","extension":[{"url":"ombCategory","valueCoding":{"system":"urn:oid:2.16.840.1.113883.6.238","code":"2054-5","display":"Black or African American","userSelected":true}},{"url":"text","valueString":"Black or African American"}]},{"url":"http://hl7.org/fhir/us/core/StructureDefinition/us-core-ethnicity","extension":[{"url":"ombCategory","valueCoding":{"system":"urn:oid:2.16.840.1.113883.6.238","code":"2186-5","display":"Not Hispanic or Latino","userSelected":true}},{"url":"text","valueString":"Not Hispanic or Latino"}]}],"identifier":[{"type":{"coding":[{"system":"http://terminology.hl7.org/CodeSystem/v2-0203","code":"MR"}]},"system":"https://bonnie-fhir.healthit.gov/","value":"61152a3b98086b7a79cbd7c1"}],"active":true,"name":[{"use":"usual","family":"DENEXPass","given":["PaCO2GT50andpHLT70EQ48HrsOfFirstProc"]}],"gender":"female","birthDate":"1966-07-12"},"request":{"method":"PUT","url":"Patient/ae2f56d6-c3ee-4ed4-a425-365e532dafa8"}},{"fullUrl":"https://madie.cms.gov/Procedure/dd838c42-598f-43f4-b718-06e6ec407650","resource":{"resourceType":"Procedure","id":"dd838c42-598f-43f4-b718-06e6ec407650","meta":{"profile":["http://hl7.org/fhir/us/qicore/StructureDefinition/qicore-procedure"]},"extension":[{"url":"http://hl7.org/fhir/us/qicore/StructureDefinition/qicore-recorded","valueDateTime":"2026-04-11T10:30:00+00:00"}],"status":"completed","category":{"coding":[{"system":"http://snomed.info/sct","code":"18286008","display":"General or neuraxial anesthesia"}]},"code":{"coding":[{"system":"http://snomed.info/sct","code":"112943005","display":"Epidural injection of anesthetic substance, diagnostic, caudal, continuous"}]},"subject":{"reference":"Patient/ae2f56d6-c3ee-4ed4-a425-365e532dafa8"},"performedPeriod":{"start":"2026-04-11T08:00:00+00:00","end":"2026-04-11T10:15:00+00:00"}},"request":{"method":"PUT","url":"Procedure/dd838c42-598f-43f4-b718-06e6ec407650"}},{"fullUrl":"https://madie.cms.gov/MeasureReport/f470b76c-457f-4959-81bc-4ecaef04abb5","resource":{"resourceType":"MeasureReport","id":"f470b76c-457f-4959-81bc-4ecaef04abb5","meta":{"profile":["http://hl7.org/fhir/us/cqfmeasures/StructureDefinition/test-case-cqfm"]},"contained":[{"resourceType":"Parameters","id":"a3629bdc-a109-45ce-baf2-30daa4101bb5-parameters","parameter":[{"name":"subject","valueString":"ae2f56d6-c3ee-4ed4-a425-365e532dafa8"}]}],"extension":[{"url":"http://hl7.org/fhir/us/cqfmeasures/StructureDefinition/cqfm-inputParameters","valueReference":{"reference":"#a3629bdc-a109-45ce-baf2-30daa4101bb5-parameters"}},{"url":"http://hl7.org/fhir/us/cqfmeasures/StructureDefinition/cqfm-testCaseDescription","valueMarkdown":"Elective hospitalization with procedure (general anesthesia) within first 3 days of encounter. PaCO2 >50 and pH <7.30 at 48 hours of start of procedure. Meets Denom Exclusion.\n"}],"modifierExtension":[{"url":"http://hl7.org/fhir/us/cqfmeasures/StructureDefinition/cqfm-isTestCase","valueBoolean":true}],"status":"complete","type":"individual","measure":"https://madie.cms.gov/Measure/CMS1218HHRFFHIR","period":{"start":"2026-01-01","end":"2026-12-31"},"group":[{"population":[{"code":{"coding":[{"system":"http://terminology.hl7.org/CodeSystem/measure-population","code":"initial-population","display":"Initial Population"}]},"count":1},{"code":{"coding":[{"system":"http://terminology.hl7.org/CodeSystem/measure-population","code":"denominator","display":"Denominator"}]},"count":1},{"code":{"coding":[{"system":"http://terminology.hl7.org/CodeSystem/measure-population","code":"denominator-exclusion","display":"Denominator Exclusion"}]},"count":1},{"code":{"coding":[{"system":"http://terminology.hl7.org/CodeSystem/measure-population","code":"numerator","display":"Numerator"}]},"count":0}]}]},"request":{"method":"PUT","url":"MeasureReport/f470b76c-457f-4959-81bc-4ecaef04abb5"}}]}