{"resourceType":"Bundle","id":"tests-03fae2d5-3bb7-4730-98fc-98a419a5e555-bundle","type":"transaction","entry":[{"fullUrl":"https://madie.cms.gov/Encounter/82893a3c-0935-4e2a-8e71-5b07351d24fb","resource":{"resourceType":"Encounter","id":"82893a3c-0935-4e2a-8e71-5b07351d24fb","meta":{"profile":["http://hl7.org/fhir/us/qicore/StructureDefinition/qicore-encounter"]},"status":"finished","class":{"system":"http://terminology.hl7.org/CodeSystem/v3-ActCode","code":"IMP","display":"inpatient encounter"},"type":[{"coding":[{"system":"http://snomed.info/sct","code":"112689000","display":"Hospital admission, elective, with complete pre-admission work-up"}],"text":"Hospital admission, elective, with complete pre-admission work-up"}],"priority":{"coding":[{"system":"http://snomed.info/sct","code":"103390000"}]},"subject":{"reference":"Patient/03fae2d5-3bb7-4730-98fc-98a419a5e555"},"period":{"start":"2026-04-10T08:00:00+00:00","end":"2026-04-14T08:15:00+00:00"}},"request":{"method":"PUT","url":"Encounter/82893a3c-0935-4e2a-8e71-5b07351d24fb"}},{"fullUrl":"https://madie.cms.gov/Encounter/51c8b8be-a42a-433f-bec4-c0c9e8abd03f","resource":{"resourceType":"Encounter","id":"51c8b8be-a42a-433f-bec4-c0c9e8abd03f","meta":{"profile":["http://hl7.org/fhir/us/qicore/StructureDefinition/qicore-encounter"]},"status":"finished","class":{"system":"http://terminology.hl7.org/CodeSystem/v3-ActCode","code":"IMP","display":"inpatient encounter"},"type":[{"coding":[{"system":"http://snomed.info/sct","code":"112689000","display":"Hospital admission, elective, with complete pre-admission work-up"}],"text":"Hospital admission, elective, with complete pre-admission work-up"}],"priority":{"coding":[{"system":"http://snomed.info/sct","code":"103390000"}]},"subject":{"reference":"Patient/03fae2d5-3bb7-4730-98fc-98a419a5e555"},"period":{"start":"2026-04-18T08:00:00+00:00","end":"2026-04-22T08:15:00+00:00"}},"request":{"method":"PUT","url":"Encounter/51c8b8be-a42a-433f-bec4-c0c9e8abd03f"}},{"fullUrl":"https://madie.cms.gov/Patient/03fae2d5-3bb7-4730-98fc-98a419a5e555","resource":{"resourceType":"Patient","id":"03fae2d5-3bb7-4730-98fc-98a419a5e555","meta":{"profile":["http://hl7.org/fhir/us/qicore/StructureDefinition/qicore-patient"]},"extension":[{"url":"http://hl7.org/fhir/us/core/StructureDefinition/us-core-race","extension":[{"url":"ombCategory","valueCoding":{"system":"urn:oid:2.16.840.1.113883.6.238","code":"1002-5","display":"American Indian or Alaska Native","userSelected":true}},{"url":"text","valueString":"American Indian or Alaska Native"}]},{"url":"http://hl7.org/fhir/us/core/StructureDefinition/us-core-ethnicity","extension":[{"url":"ombCategory","valueCoding":{"system":"urn:oid:2.16.840.1.113883.6.238","code":"2186-5","display":"Not Hispanic or Latino","userSelected":true}},{"url":"text","valueString":"Not Hispanic or Latino"}]}],"identifier":[{"type":{"coding":[{"system":"http://terminology.hl7.org/CodeSystem/v2-0203","code":"MR"}]},"system":"https://bonnie-fhir.healthit.gov/","value":"61152a3b98086b7a79cbd7c1"}],"active":true,"name":[{"use":"usual","family":"DENEXFail","given":["Enc1HiRiskSurgExcEnc2meetsNum"]}],"gender":"male","birthDate":"1966-07-12"},"request":{"method":"PUT","url":"Patient/03fae2d5-3bb7-4730-98fc-98a419a5e555"}},{"fullUrl":"https://madie.cms.gov/Procedure/d2741e46-1a59-43a0-b1c0-d8aab6407cfb","resource":{"resourceType":"Procedure","id":"d2741e46-1a59-43a0-b1c0-d8aab6407cfb","meta":{"profile":["http://hl7.org/fhir/us/qicore/StructureDefinition/qicore-procedure"]},"extension":[{"url":"http://hl7.org/fhir/us/qicore/StructureDefinition/qicore-recorded","valueDateTime":"2026-04-11T10:30:00+00:00"}],"status":"completed","category":{"coding":[{"system":"http://snomed.info/sct","code":"18286008","display":"General or neuraxial anesthesia"}]},"code":{"coding":[{"system":"http://snomed.info/sct","code":"112943005","display":"Epidural injection of anesthetic substance, diagnostic, caudal, continuous"}]},"subject":{"reference":"Patient/03fae2d5-3bb7-4730-98fc-98a419a5e555"},"performedPeriod":{"start":"2026-04-11T08:00:00+00:00","end":"2026-04-11T10:15:00+00:00"}},"request":{"method":"PUT","url":"Procedure/d2741e46-1a59-43a0-b1c0-d8aab6407cfb"}},{"fullUrl":"https://madie.cms.gov/Procedure/1135d0eb-d556-4da2-b258-661f804cba84","resource":{"resourceType":"Procedure","id":"1135d0eb-d556-4da2-b258-661f804cba84","meta":{"profile":["http://hl7.org/fhir/us/qicore/StructureDefinition/qicore-procedure"]},"extension":[{"url":"http://hl7.org/fhir/us/qicore/StructureDefinition/qicore-recorded","valueDateTime":"2026-04-11T10:10:00+00:00"}],"status":"completed","code":{"coding":[{"system":"http://www.cms.gov/Medicare/Coding/ICD10","code":"008P0ZZ","display":"Head and Neck Surgeries with High Risk Airway Compromise"}],"text":"Head and Neck Surgeries with High Risk Airway Compromise"},"subject":{"reference":"Patient/03fae2d5-3bb7-4730-98fc-98a419a5e555"},"performedDateTime":"2026-04-12T08:00:00+00:00"},"request":{"method":"PUT","url":"Procedure/1135d0eb-d556-4da2-b258-661f804cba84"}},{"fullUrl":"https://madie.cms.gov/Procedure/52902e36-c6d9-4fab-9991-509219656815","resource":{"resourceType":"Procedure","id":"52902e36-c6d9-4fab-9991-509219656815","meta":{"profile":["http://hl7.org/fhir/us/qicore/StructureDefinition/qicore-procedure"]},"extension":[{"url":"http://hl7.org/fhir/us/qicore/StructureDefinition/qicore-recorded","valueDateTime":"2026-04-19T11:30:00+00:00"}],"status":"completed","category":{"coding":[{"system":"http://snomed.info/sct","code":"18286008","display":"General or neuraxial anesthesia"}]},"code":{"coding":[{"system":"http://snomed.info/sct","code":"112943005","display":"Epidural injection of anesthetic substance, diagnostic, caudal, continuous"}]},"subject":{"reference":"Patient/03fae2d5-3bb7-4730-98fc-98a419a5e555"},"performedPeriod":{"start":"2026-04-19T08:00:00+00:00","end":"2026-04-19T11:15:00+00:00"}},"request":{"method":"PUT","url":"Procedure/52902e36-c6d9-4fab-9991-509219656815"}},{"fullUrl":"https://madie.cms.gov/Procedure/7e970385-93d7-42c7-915a-6aff730fbd64","resource":{"resourceType":"Procedure","id":"7e970385-93d7-42c7-915a-6aff730fbd64","meta":{"profile":["http://hl7.org/fhir/us/qicore/StructureDefinition/qicore-procedure"]},"extension":[{"url":"http://hl7.org/fhir/us/qicore/StructureDefinition/qicore-recorded","valueDateTime":"2026-04-20T08:10:00+00:00"}],"status":"completed","code":{"coding":[{"system":"http://www.cms.gov/Medicare/Coding/ICD10","code":"0BH13EZ","display":"Insertion of Endotracheal Airway into Trachea, Percutaneous Approach"}],"text":"Insertion of Endotracheal Airway into Trachea, Percutaneous Approach"},"subject":{"reference":"Patient/03fae2d5-3bb7-4730-98fc-98a419a5e555"},"performedDateTime":"2026-04-20T08:00:00+00:00"},"request":{"method":"PUT","url":"Procedure/7e970385-93d7-42c7-915a-6aff730fbd64"}},{"fullUrl":"https://madie.cms.gov/MeasureReport/0843fcee-f8ce-4c9b-bd84-a00a19dc00e4","resource":{"resourceType":"MeasureReport","id":"0843fcee-f8ce-4c9b-bd84-a00a19dc00e4","meta":{"profile":["http://hl7.org/fhir/us/cqfmeasures/StructureDefinition/test-case-cqfm"]},"contained":[{"resourceType":"Parameters","id":"7f4c6b43-148e-4563-8dca-902e65fa7822-parameters","parameter":[{"name":"subject","valueString":"03fae2d5-3bb7-4730-98fc-98a419a5e555"}]}],"extension":[{"url":"http://hl7.org/fhir/us/cqfmeasures/StructureDefinition/cqfm-inputParameters","valueReference":{"reference":"#7f4c6b43-148e-4563-8dca-902e65fa7822-parameters"}},{"url":"http://hl7.org/fhir/us/cqfmeasures/StructureDefinition/cqfm-testCaseDescription","valueMarkdown":"Enc1: Elective hosp with hi-risk to airway head/neck surgery during encounter so meets denom exclusion. \nEnc2: Elective hosp with intubation after first proc. Meets Num1. \nExclusion from Enc1 does not impact Enc 2. "}],"modifierExtension":[{"url":"http://hl7.org/fhir/us/cqfmeasures/StructureDefinition/cqfm-isTestCase","valueBoolean":true}],"status":"complete","type":"individual","measure":"https://madie.cms.gov/Measure/CMS1218HHRFFHIR","period":{"start":"2026-01-01","end":"2026-12-31"},"group":[{"population":[{"code":{"coding":[{"system":"http://terminology.hl7.org/CodeSystem/measure-population","code":"initial-population","display":"Initial Population"}]},"count":2},{"code":{"coding":[{"system":"http://terminology.hl7.org/CodeSystem/measure-population","code":"denominator","display":"Denominator"}]},"count":2},{"code":{"coding":[{"system":"http://terminology.hl7.org/CodeSystem/measure-population","code":"denominator-exclusion","display":"Denominator Exclusion"}]},"count":1},{"code":{"coding":[{"system":"http://terminology.hl7.org/CodeSystem/measure-population","code":"numerator","display":"Numerator"}]},"count":1}]}]},"request":{"method":"PUT","url":"MeasureReport/0843fcee-f8ce-4c9b-bd84-a00a19dc00e4"}}]}