{
  "resourceType": "Bundle",
  "id": "6129132102c62a011f2e5e77",
  "type": "transaction",
  "entry": [ {
    "fullUrl": "https://madie.cms.gov/Patient/a9c3e62b-fd84-4701-8024-7e3e60af9ed1",
    "resource": {
      "resourceType": "Patient",
      "id": "a9c3e62b-fd84-4701-8024-7e3e60af9ed1",
      "meta": {
        "profile": [ "http://hl7.org/fhir/us/qicore/StructureDefinition/qicore-patient" ]
      },
      "text": {
        "status": "generated",
        "div": "<div xmlns=\"http://www.w3.org/1999/xhtml\"><div class=\"hapiHeaderText\">AntithromboticDuringIP <b>NUMERPASS </b></div><table class=\"hapiPropertyTable\"><tbody><tr><td>Identifier</td><td>ce3fc639833ed1b27db2cfcc7b5bf51d</td></tr><tr><td>Date of birth</td><td><span>31 May 1990</span></td></tr></tbody></table></div>"
      },
      "extension": [ {
        "url": "http://hl7.org/fhir/us/core/StructureDefinition/us-core-race",
        "extension": [ {
          "url": "ombCategory",
          "valueCoding": {
            "system": "urn:oid:2.16.840.1.113883.6.238",
            "code": "1002-5",
            "display": "American Indian or Alaska Native",
            "userSelected": true
          }
        }, {
          "url": "text",
          "valueString": "American Indian or Alaska Native"
        } ]
      }, {
        "url": "http://hl7.org/fhir/us/core/StructureDefinition/us-core-ethnicity",
        "extension": [ {
          "url": "ombCategory",
          "valueCoding": {
            "system": "urn:oid:2.16.840.1.113883.6.238",
            "code": "2135-2",
            "display": "Hispanic or Latino",
            "userSelected": true
          }
        }, {
          "url": "text",
          "valueString": "Hispanic or Latino"
        } ]
      } ],
      "identifier": [ {
        "type": {
          "coding": [ {
            "system": "http://terminology.hl7.org/CodeSystem/v2-0203",
            "code": "MR"
          } ]
        },
        "system": "https://bonnie-fhir.healthit.gov/",
        "value": "6129132102c62a011f2e5e77"
      } ],
      "active": true,
      "name": [ {
        "use": "usual",
        "family": "NUMERPass",
        "given": [ "AntithromboticDuringIP" ]
      } ],
      "gender": "male",
      "birthDate": "2000-05-31"
    },
    "request": {
      "method": "PUT",
      "url": "Patient/a9c3e62b-fd84-4701-8024-7e3e60af9ed1"
    }
  }, {
    "fullUrl": "https://madie.cms.gov/Encounter/61497f9e-fa28-44c8-89c7-c16fc0353e14",
    "resource": {
      "resourceType": "Encounter",
      "id": "61497f9e-fa28-44c8-89c7-c16fc0353e14",
      "meta": {
        "profile": [ "http://hl7.org/fhir/us/qicore/StructureDefinition/qicore-encounter" ]
      },
      "status": "finished",
      "class": {
        "system": "http://terminology.hl7.org/CodeSystem/v3-ActCode",
        "code": "IMP",
        "display": "inpatient encounter",
        "userSelected": true
      },
      "type": [ {
        "coding": [ {
          "system": "http://snomed.info/sct",
          "code": "32485007"
        } ]
      } ],
      "subject": {
        "reference": "Patient/a9c3e62b-fd84-4701-8024-7e3e60af9ed1"
      },
      "period": {
        "start": "2026-06-15T09:30:00.000+00:00",
        "end": "2026-10-12T10:30:00.000+00:00"
      },
      "length": {
        "value": 119,
        "unit": "days"
      },
      "diagnosis": [ {
        "condition": {
          "reference": "Condition/ac55b0b1-b34f-4941-8b6a-a52ac6417e83"
        },
        "use": {
          "coding": [ {
            "system": "http://terminology.hl7.org/CodeSystem/diagnosis-role",
            "code": "billing",
            "display": "Billing"
          } ]
        },
        "rank": 1
      } ]
    },
    "request": {
      "method": "PUT",
      "url": "Encounter/61497f9e-fa28-44c8-89c7-c16fc0353e14"
    }
  }, {
    "fullUrl": "https://madie.cms.gov/MedicationRequest/d19476f1-b8b4-46fc-8380-06b61f20c407",
    "resource": {
      "resourceType": "MedicationRequest",
      "id": "d19476f1-b8b4-46fc-8380-06b61f20c407",
      "meta": {
        "profile": [ "http://hl7.org/fhir/us/qicore/StructureDefinition/qicore-medicationrequest" ]
      },
      "status": "active",
      "intent": "order",
      "category": [ {
        "coding": [ {
          "system": "http://terminology.hl7.org/CodeSystem/medicationrequest-category",
          "code": "discharge",
          "display": "Discharge",
          "userSelected": true
        } ]
      } ],
      "medicationCodeableConcept": {
        "coding": [ {
          "system": "http://www.nlm.nih.gov/research/umls/rxnorm",
          "code": "1037045"
        } ]
      },
      "subject": {
        "reference": "Patient/a9c3e62b-fd84-4701-8024-7e3e60af9ed1"
      },
      "authoredOn": "2026-10-10T10:00:00.000+00:00",
      "requester": {
        "reference": "Practitioner/example"
      }
    },
    "request": {
      "method": "PUT",
      "url": "MedicationRequest/d19476f1-b8b4-46fc-8380-06b61f20c407"
    }
  }, {
    "fullUrl": "https://madie.cms.gov/Condition/ac55b0b1-b34f-4941-8b6a-a52ac6417e83",
    "resource": {
      "resourceType": "Condition",
      "id": "ac55b0b1-b34f-4941-8b6a-a52ac6417e83",
      "meta": {
        "profile": [ "http://hl7.org/fhir/us/qicore/StructureDefinition/qicore-condition" ]
      },
      "clinicalStatus": {
        "coding": [ {
          "system": "http://terminology.hl7.org/CodeSystem/condition-clinical",
          "code": "active"
        } ]
      },
      "verificationStatus": {
        "coding": [ {
          "system": "http://terminology.hl7.org/CodeSystem/condition-ver-status",
          "code": "confirmed"
        } ]
      },
      "category": [ {
        "coding": [ {
          "system": "http://terminology.hl7.org/CodeSystem/condition-category",
          "code": "encounter-diagnosis",
          "display": "Encounter Diagnosis"
        } ]
      } ],
      "code": {
        "coding": [ {
          "system": "http://snomed.info/sct",
          "version": "2020-09",
          "code": "111297002",
          "display": "Nonparalytic stroke (disorder)",
          "userSelected": true
        } ]
      },
      "subject": {
        "reference": "Patient/a9c3e62b-fd84-4701-8024-7e3e60af9ed1"
      },
      "recordedDate": "2026-07-15T08:00:00.000+00:00"
    },
    "request": {
      "method": "PUT",
      "url": "Condition/ac55b0b1-b34f-4941-8b6a-a52ac6417e83"
    }
  }, {
    "fullUrl": "https://madie.cms.gov/Coverage/cc8f9048-fffc-4446-8ef0-93e43de4772b",
    "resource": {
      "resourceType": "Coverage",
      "id": "cc8f9048-fffc-4446-8ef0-93e43de4772b",
      "meta": {
        "profile": [ "http://hl7.org/fhir/us/qicore/StructureDefinition/qicore-coverage" ]
      },
      "status": "active",
      "beneficiary": {
        "reference": "Patient/a9c3e62b-fd84-4701-8024-7e3e60af9ed1"
      },
      "payor": [ {
        "reference": "Organization/8cb714e3-5a66-45e8-9870-8450b8dcf80b"
      } ]
    },
    "request": {
      "method": "PUT",
      "url": "Coverage/cc8f9048-fffc-4446-8ef0-93e43de4772b"
    }
  }, {
    "fullUrl": "https://madie.cms.gov/Organization/8cb714e3-5a66-45e8-9870-8450b8dcf80b",
    "resource": {
      "resourceType": "Organization",
      "id": "8cb714e3-5a66-45e8-9870-8450b8dcf80b",
      "meta": {
        "profile": [ "http://hl7.org/fhir/us/qicore/StructureDefinition/qicore-organization" ]
      },
      "identifier": [ {
        "use": "temp",
        "system": "urn:oid:2.16.840.1.113883.4.4",
        "value": "21-3259825"
      } ],
      "active": true,
      "type": [ {
        "coding": [ {
          "system": "http://terminology.hl7.org/CodeSystem/organization-type",
          "code": "pay",
          "display": "Payer"
        } ]
      } ],
      "name": "Blue Cross Blue Shield of Texas",
      "telecom": [ {
        "system": "phone",
        "value": "(+1) 972-766-6900"
      } ],
      "address": [ {
        "use": "billing",
        "type": "postal",
        "line": [ "P.O. Box 660044" ],
        "city": "Dallas",
        "state": "TX",
        "postalCode": "75266-0044",
        "country": "USA"
      } ]
    },
    "request": {
      "method": "PUT",
      "url": "Organization/8cb714e3-5a66-45e8-9870-8450b8dcf80b"
    }
  }, {
    "fullUrl": "https://madie.cms.gov/MeasureReport/ae544b96-6f70-4d19-acc9-087c14ee62c6",
    "resource": {
      "resourceType": "MeasureReport",
      "id": "ae544b96-6f70-4d19-acc9-087c14ee62c6",
      "meta": {
        "profile": [ "http://hl7.org/fhir/us/cqfmeasures/StructureDefinition/test-case-cqfm" ]
      },
      "contained": [ {
        "resourceType": "Parameters",
        "id": "5da5f7c2-f4f8-42d3-aa57-207254de86b8-parameters",
        "parameter": [ {
          "name": "subject",
          "valueString": "a9c3e62b-fd84-4701-8024-7e3e60af9ed1"
        } ]
      } ],
      "extension": [ {
        "url": "http://hl7.org/fhir/us/cqfmeasures/StructureDefinition/cqfm-inputParameters",
        "valueReference": {
          "reference": "#5da5f7c2-f4f8-42d3-aa57-207254de86b8-parameters"
        }
      }, {
        "url": "http://hl7.org/fhir/us/cqfmeasures/StructureDefinition/cqfm-testCaseDescription",
        "valueMarkdown": "Patient is GT 18 with Non-Elective Inpatient Encounter (LOS 120 days) with principal diagnosis of ischemic stroke ends during MP received antithrombotic during IP encounter\n"
      } ],
      "modifierExtension": [ {
        "url": "http://hl7.org/fhir/us/cqfmeasures/StructureDefinition/cqfm-isTestCase",
        "valueBoolean": true
      } ],
      "status": "complete",
      "type": "individual",
      "measure": "https://madie.cms.gov/Measure/CMS104FHIRSTKDCAntithrombotic",
      "period": {
        "start": "2026-01-01",
        "end": "2026-12-31"
      },
      "group": [ {
        "population": [ {
          "code": {
            "coding": [ {
              "system": "http://terminology.hl7.org/CodeSystem/measure-population",
              "code": "initial-population",
              "display": "Initial Population"
            } ]
          },
          "count": 1
        }, {
          "code": {
            "coding": [ {
              "system": "http://terminology.hl7.org/CodeSystem/measure-population",
              "code": "denominator",
              "display": "Denominator"
            } ]
          },
          "count": 1
        }, {
          "code": {
            "coding": [ {
              "system": "http://terminology.hl7.org/CodeSystem/measure-population",
              "code": "denominator-exclusion",
              "display": "Denominator Exclusion"
            } ]
          },
          "count": 0
        }, {
          "code": {
            "coding": [ {
              "system": "http://terminology.hl7.org/CodeSystem/measure-population",
              "code": "numerator",
              "display": "Numerator"
            } ]
          },
          "count": 1
        }, {
          "code": {
            "coding": [ {
              "system": "http://terminology.hl7.org/CodeSystem/measure-population",
              "code": "denominator-exception",
              "display": "Denominator Exception"
            } ]
          },
          "count": 0
        } ]
      } ],
      "evaluatedResource": [ {
        "reference": "Patient/a9c3e62b-fd84-4701-8024-7e3e60af9ed1"
      }, {
        "reference": "Encounter/61497f9e-fa28-44c8-89c7-c16fc0353e14"
      }, {
        "reference": "MedicationRequest/d19476f1-b8b4-46fc-8380-06b61f20c407"
      }, {
        "reference": "Condition/ac55b0b1-b34f-4941-8b6a-a52ac6417e83"
      }, {
        "reference": "Coverage/cc8f9048-fffc-4446-8ef0-93e43de4772b"
      }, {
        "reference": "Organization/8cb714e3-5a66-45e8-9870-8450b8dcf80b"
      } ]
    },
    "request": {
      "method": "PUT",
      "url": "MeasureReport/ae544b96-6f70-4d19-acc9-087c14ee62c6"
    }
  } ]
}