{
  "resourceType": "Bundle",
  "id": "g1f044ef3e654daa9107",
  "type": "transaction",
  "entry": [ {
    "fullUrl": "https://madie.cms.gov/Patient/28e5e607-d5a9-41a4-8f71-88cfe4f5d6bc",
    "resource": {
      "resourceType": "Patient",
      "id": "28e5e607-d5a9-41a4-8f71-88cfe4f5d6bc",
      "meta": {
        "profile": [ "http://hl7.org/fhir/us/qicore/StructureDefinition/qicore-patient" ]
      },
      "extension": [ {
        "url": "http://hl7.org/fhir/us/core/StructureDefinition/us-core-race",
        "extension": [ {
          "url": "ombCategory",
          "valueCoding": {
            "system": "urn:oid:2.16.840.1.113883.6.238",
            "code": "1002-5",
            "display": "American Indian or Alaska Native",
            "userSelected": true
          }
        }, {
          "url": "text",
          "valueString": "American Indian or Alaska Native"
        } ]
      }, {
        "url": "http://hl7.org/fhir/us/core/StructureDefinition/us-core-ethnicity",
        "extension": [ {
          "url": "ombCategory",
          "valueCoding": {
            "system": "urn:oid:2.16.840.1.113883.6.238",
            "code": "2135-2",
            "display": "Hispanic or Latino",
            "userSelected": true
          }
        }, {
          "url": "text",
          "valueString": "Hispanic or Latino"
        } ]
      } ],
      "identifier": [ {
        "type": {
          "coding": [ {
            "system": "http://terminology.hl7.org/CodeSystem/v2-0203",
            "code": "MR"
          } ]
        },
        "system": "https://bonnie-fhir.healthit.gov/",
        "value": "f4c048cb-0b23-4b1f-9fe5-0ac53c104cb0"
      } ],
      "name": [ {
        "family": "DENEXCL1PASS",
        "given": [ "TakotsuboCardiomyopathyDisorderWithin24HoursBeforeED" ]
      } ],
      "gender": "male",
      "birthDate": "1971-07-10"
    },
    "request": {
      "method": "PUT",
      "url": "Patient/28e5e607-d5a9-41a4-8f71-88cfe4f5d6bc"
    }
  }, {
    "fullUrl": "https://madie.cms.gov/Encounter/c778e10d-dae4-4fb5-9eb0-d9190a7e8daf",
    "resource": {
      "resourceType": "Encounter",
      "id": "c778e10d-dae4-4fb5-9eb0-d9190a7e8daf",
      "meta": {
        "profile": [ "http://hl7.org/fhir/us/qicore/StructureDefinition/qicore-encounter" ]
      },
      "status": "finished",
      "class": {
        "system": "http://terminology.hl7.org/CodeSystem/v3-ActCode",
        "code": "EMER",
        "display": "emergency",
        "userSelected": true
      },
      "type": [ {
        "coding": [ {
          "system": "http://snomed.info/sct",
          "version": "2020-09",
          "code": "4525004",
          "display": "Emergency department patient visit",
          "userSelected": true
        } ]
      } ],
      "subject": {
        "reference": "Patient/28e5e607-d5a9-41a4-8f71-88cfe4f5d6bc"
      },
      "period": {
        "start": "2026-10-09T05:00:00.000+00:00",
        "end": "2026-10-13T17:00:00.000+00:00"
      },
      "reasonCode": [ {
        "coding": [ {
          "system": "http://hl7.org/fhir/sid/icd-10-cm",
          "code": "I21.21",
          "display": "ST elevation (STEMI) myocardial infarction involving left circumflex coronary artery",
          "userSelected": true
        } ]
      } ]
    },
    "request": {
      "method": "PUT",
      "url": "Encounter/c778e10d-dae4-4fb5-9eb0-d9190a7e8daf"
    }
  }, {
    "fullUrl": "https://madie.cms.gov/Condition/12c37ed6-29a6-44a7-b06a-e2f4153662e1",
    "resource": {
      "resourceType": "Condition",
      "id": "12c37ed6-29a6-44a7-b06a-e2f4153662e1",
      "meta": {
        "profile": [ "http://hl7.org/fhir/us/qicore/StructureDefinition/qicore-condition" ]
      },
      "clinicalStatus": {
        "coding": [ {
          "system": "http://terminology.hl7.org/CodeSystem/condition-clinical",
          "code": "active",
          "display": "Active",
          "userSelected": true
        } ]
      },
      "category": [ {
        "coding": [ {
          "system": "http://terminology.hl7.org/CodeSystem/condition-category",
          "code": "problem-list-item",
          "display": "Problem List Item",
          "userSelected": true
        } ]
      } ],
      "code": {
        "coding": [ {
          "system": "http://snomed.info/sct",
          "code": "441541008",
          "display": "Takotsubo cardiomyopathy (disorder)",
          "userSelected": true
        } ]
      },
      "subject": {
        "reference": "Patient/28e5e607-d5a9-41a4-8f71-88cfe4f5d6bc"
      },
      "onsetDateTime": "2026-10-08T05:00:00.000+00:00"
    },
    "request": {
      "method": "PUT",
      "url": "Condition/12c37ed6-29a6-44a7-b06a-e2f4153662e1"
    }
  }, {
    "fullUrl": "https://madie.cms.gov/MeasureReport/769b8e61-c177-4b11-ace4-a483d5dda6de",
    "resource": {
      "resourceType": "MeasureReport",
      "id": "769b8e61-c177-4b11-ace4-a483d5dda6de",
      "meta": {
        "profile": [ "http://hl7.org/fhir/us/cqfmeasures/StructureDefinition/test-case-cqfm" ]
      },
      "contained": [ {
        "resourceType": "Parameters",
        "id": "09af6cfd-38f7-4c95-8502-2e7427334652-parameters",
        "parameter": [ {
          "name": "subject",
          "valueString": "28e5e607-d5a9-41a4-8f71-88cfe4f5d6bc"
        } ]
      } ],
      "extension": [ {
        "url": "http://hl7.org/fhir/us/cqfmeasures/StructureDefinition/cqfm-inputParameters",
        "valueReference": {
          "reference": "#09af6cfd-38f7-4c95-8502-2e7427334652-parameters"
        }
      }, {
        "url": "http://hl7.org/fhir/us/cqfmeasures/StructureDefinition/cqfm-testCaseDescription",
        "valueMarkdown": "Patient has Takotsubo cardiomyopathy (disorder) that started within 24 hours before start of ED encounter"
      } ],
      "modifierExtension": [ {
        "url": "http://hl7.org/fhir/us/cqfmeasures/StructureDefinition/cqfm-isTestCase",
        "valueBoolean": true
      } ],
      "status": "complete",
      "type": "individual",
      "measure": "https://madie.cms.gov/Measure/CMS996FHIRAptTxforSTEMI",
      "period": {
        "start": "2026-01-01",
        "end": "2026-12-31"
      },
      "group": [ {
        "population": [ {
          "code": {
            "coding": [ {
              "system": "http://terminology.hl7.org/CodeSystem/measure-population",
              "code": "initial-population",
              "display": "Initial Population"
            } ]
          },
          "count": 1
        }, {
          "code": {
            "coding": [ {
              "system": "http://terminology.hl7.org/CodeSystem/measure-population",
              "code": "denominator",
              "display": "Denominator"
            } ]
          },
          "count": 1
        }, {
          "code": {
            "coding": [ {
              "system": "http://terminology.hl7.org/CodeSystem/measure-population",
              "code": "denominator-exclusion",
              "display": "Denominator Exclusion"
            } ]
          },
          "count": 1
        }, {
          "code": {
            "coding": [ {
              "system": "http://terminology.hl7.org/CodeSystem/measure-population",
              "code": "numerator",
              "display": "Numerator"
            } ]
          },
          "count": 0
        }, {
          "code": {
            "coding": [ {
              "system": "http://terminology.hl7.org/CodeSystem/measure-population",
              "code": "denominator-exception",
              "display": "Denominator Exception"
            } ]
          },
          "count": 0
        } ]
      } ],
      "evaluatedResource": [ {
        "reference": "Patient/28e5e607-d5a9-41a4-8f71-88cfe4f5d6bc"
      }, {
        "reference": "Encounter/c778e10d-dae4-4fb5-9eb0-d9190a7e8daf"
      }, {
        "reference": "Condition/12c37ed6-29a6-44a7-b06a-e2f4153662e1"
      } ]
    },
    "request": {
      "method": "PUT",
      "url": "MeasureReport/769b8e61-c177-4b11-ace4-a483d5dda6de"
    }
  } ]
}