{
  "resourceType": "Bundle",
  "id": "633b3f9e0968f80122503cd8",
  "type": "transaction",
  "entry": [ {
    "fullUrl": "https://madie.cms.gov/Patient/4e9a1928-a33f-4be3-aa05-c69e9fc4bff7",
    "resource": {
      "resourceType": "Patient",
      "id": "4e9a1928-a33f-4be3-aa05-c69e9fc4bff7",
      "meta": {
        "profile": [ "http://hl7.org/fhir/us/qicore/StructureDefinition/qicore-patient" ]
      },
      "text": {
        "status": "generated",
        "div": "<div xmlns=\"http://www.w3.org/1999/xhtml\"><div class=\"hapiHeaderText\">DELEncCalEGAEQ20 <b>DENOMPASS </b></div><table class=\"hapiPropertyTable\"><tbody><tr><td>Date of birth</td><td><span>01 February 1958</span></td></tr></tbody></table></div>"
      },
      "extension": [ {
        "url": "http://hl7.org/fhir/us/core/StructureDefinition/us-core-race",
        "extension": [ {
          "url": "ombCategory",
          "valueCoding": {
            "system": "urn:oid:2.16.840.1.113883.6.238",
            "code": "1002-5",
            "display": "American Indian or Alaska Native",
            "userSelected": true
          }
        }, {
          "url": "text",
          "valueString": "American Indian or Alaska Native"
        } ]
      }, {
        "url": "http://hl7.org/fhir/us/core/StructureDefinition/us-core-ethnicity",
        "extension": [ {
          "url": "ombCategory",
          "valueCoding": {
            "system": "urn:oid:2.16.840.1.113883.6.238",
            "code": "2135-2",
            "display": "Hispanic or Latino",
            "userSelected": true
          }
        }, {
          "url": "text",
          "valueString": "Hispanic or Latino"
        } ]
      } ],
      "identifier": [ {
        "type": {
          "coding": [ {
            "system": "http://terminology.hl7.org/CodeSystem/v2-0203",
            "code": "MR"
          } ]
        },
        "system": "https://bonnie-fhir.healthit.gov/",
        "value": "633b3f9e0968f80122503cd8"
      } ],
      "active": true,
      "name": [ {
        "use": "usual",
        "family": "DENOMPass",
        "given": [ "DELEncCalEGAEQ20" ]
      } ],
      "gender": "female",
      "birthDate": "1970-02-01"
    },
    "request": {
      "method": "PUT",
      "url": "Patient/4e9a1928-a33f-4be3-aa05-c69e9fc4bff7"
    }
  }, {
    "fullUrl": "https://madie.cms.gov/Observation/8abb3693-aeaa-4824-9f11-75a34ca799a5",
    "resource": {
      "resourceType": "Observation",
      "id": "8abb3693-aeaa-4824-9f11-75a34ca799a5",
      "meta": {
        "profile": [ "http://hl7.org/fhir/us/qicore/StructureDefinition/qicore-observation" ]
      },
      "status": "final",
      "category": [ {
        "coding": [ {
          "system": "http://terminology.hl7.org/CodeSystem/observation-category",
          "code": "exam",
          "display": "exam",
          "userSelected": true
        } ]
      } ],
      "code": {
        "coding": [ {
          "system": "http://loinc.org",
          "code": "93857-1"
        } ]
      },
      "subject": {
        "reference": "Patient/4e9a1928-a33f-4be3-aa05-c69e9fc4bff7"
      },
      "effectiveDateTime": "2025-01-15T08:00:00.000+00:00",
      "valueDateTime": "2025-01-15T08:00:00+00:00"
    },
    "request": {
      "method": "PUT",
      "url": "Observation/8abb3693-aeaa-4824-9f11-75a34ca799a5"
    }
  }, {
    "fullUrl": "https://madie.cms.gov/Observation/d8f8aea7-8855-421b-9b00-22045a5af4c2",
    "resource": {
      "resourceType": "Observation",
      "id": "d8f8aea7-8855-421b-9b00-22045a5af4c2",
      "meta": {
        "profile": [ "http://hl7.org/fhir/us/qicore/StructureDefinition/qicore-observation" ]
      },
      "status": "final",
      "category": [ {
        "coding": [ {
          "system": "http://terminology.hl7.org/CodeSystem/observation-category",
          "code": "exam",
          "display": "exam",
          "userSelected": true
        } ]
      } ],
      "code": {
        "coding": [ {
          "system": "http://loinc.org",
          "code": "11778-8"
        } ]
      },
      "subject": {
        "reference": "Patient/4e9a1928-a33f-4be3-aa05-c69e9fc4bff7"
      },
      "effectiveDateTime": "2025-01-15T08:00:00.000+00:00",
      "valueDateTime": "2025-06-03T08:00:00.000+00:00"
    },
    "request": {
      "method": "PUT",
      "url": "Observation/d8f8aea7-8855-421b-9b00-22045a5af4c2"
    }
  }, {
    "fullUrl": "https://madie.cms.gov/Encounter/a14233c4-ab41-4dfe-bfb5-f7267ac5578c",
    "resource": {
      "resourceType": "Encounter",
      "id": "a14233c4-ab41-4dfe-bfb5-f7267ac5578c",
      "meta": {
        "profile": [ "http://hl7.org/fhir/us/qicore/StructureDefinition/qicore-encounter" ]
      },
      "status": "finished",
      "class": {
        "system": "http://terminology.hl7.org/CodeSystem/v3-ActCode",
        "code": "IMP",
        "display": "inpatient encounter"
      },
      "type": [ {
        "coding": [ {
          "system": "http://snomed.info/sct",
          "code": "183452005"
        } ]
      } ],
      "subject": {
        "reference": "Patient/4e9a1928-a33f-4be3-aa05-c69e9fc4bff7"
      },
      "period": {
        "start": "2025-01-01T08:00:00.000Z",
        "end": "2025-02-05T08:15:00.000Z"
      }
    },
    "request": {
      "method": "PUT",
      "url": "Encounter/a14233c4-ab41-4dfe-bfb5-f7267ac5578c"
    }
  }, {
    "fullUrl": "https://madie.cms.gov/Procedure/e827189d-7533-4d1c-b9ee-b38d134429cc",
    "resource": {
      "resourceType": "Procedure",
      "id": "e827189d-7533-4d1c-b9ee-b38d134429cc",
      "meta": {
        "profile": [ "http://hl7.org/fhir/us/qicore/StructureDefinition/qicore-procedure" ]
      },
      "extension": [ {
        "url": "http://hl7.org/fhir/us/qicore/StructureDefinition/qicore-recorded",
        "valueDateTime": "2013-04-05T09:35:00-04:00"
      } ],
      "status": "completed",
      "code": {
        "coding": [ {
          "system": "http://snomed.info/sct",
          "code": "10745001"
        } ]
      },
      "subject": {
        "reference": "Patient/4e9a1928-a33f-4be3-aa05-c69e9fc4bff7"
      },
      "performedPeriod": {
        "start": "2025-01-01T08:00:00.000Z"
      }
    },
    "request": {
      "method": "PUT",
      "url": "Procedure/e827189d-7533-4d1c-b9ee-b38d134429cc"
    }
  }, {
    "fullUrl": "https://madie.cms.gov/Coverage/f5ed9805-4986-4247-8473-2409d55b849a",
    "resource": {
      "resourceType": "Coverage",
      "id": "f5ed9805-4986-4247-8473-2409d55b849a",
      "meta": {
        "profile": [ "http://hl7.org/fhir/us/qicore/StructureDefinition/qicore-coverage" ]
      },
      "status": "active",
      "beneficiary": {
        "reference": "Patient/4e9a1928-a33f-4be3-aa05-c69e9fc4bff7"
      },
      "payor": [ {
        "reference": "Organization/c15b4a20-1987-4e44-af18-ab7a21d7bf22"
      } ]
    },
    "request": {
      "method": "PUT",
      "url": "Coverage/f5ed9805-4986-4247-8473-2409d55b849a"
    }
  }, {
    "fullUrl": "https://madie.cms.gov/Organization/c15b4a20-1987-4e44-af18-ab7a21d7bf22",
    "resource": {
      "resourceType": "Organization",
      "id": "c15b4a20-1987-4e44-af18-ab7a21d7bf22",
      "meta": {
        "profile": [ "http://hl7.org/fhir/us/qicore/StructureDefinition/qicore-organization" ]
      },
      "identifier": [ {
        "use": "temp",
        "system": "urn:oid:2.16.840.1.113883.4.4",
        "value": "21-3259825"
      } ],
      "active": true,
      "type": [ {
        "coding": [ {
          "system": "http://terminology.hl7.org/CodeSystem/organization-type",
          "code": "pay",
          "display": "Payer"
        } ]
      } ],
      "name": "Blue Cross Blue Shield of Texas",
      "telecom": [ {
        "system": "phone",
        "value": "(+1) 972-766-6900"
      } ],
      "address": [ {
        "use": "billing",
        "type": "postal",
        "line": [ "P.O. Box 660044" ],
        "city": "Dallas",
        "state": "TX",
        "postalCode": "75266-0044",
        "country": "USA"
      } ]
    },
    "request": {
      "method": "PUT",
      "url": "Organization/c15b4a20-1987-4e44-af18-ab7a21d7bf22"
    }
  }, {
    "fullUrl": "https://madie.cms.gov/Practitioner/8ba57c35-b442-4cb0-bb29-309eef9adf83",
    "resource": {
      "resourceType": "Practitioner",
      "id": "8ba57c35-b442-4cb0-bb29-309eef9adf83",
      "identifier": [ {
        "system": "http://hl7.org/fhir/sid/us-npi",
        "value": "123456"
      } ],
      "name": [ {
        "family": "Evil",
        "prefix": [ "Dr" ]
      } ]
    },
    "request": {
      "method": "PUT",
      "url": "Practitioner/8ba57c35-b442-4cb0-bb29-309eef9adf83"
    }
  }, {
    "fullUrl": "https://madie.cms.gov/MeasureReport/0a2a23c0-21d3-4958-8f18-264c78ee57d8",
    "resource": {
      "resourceType": "MeasureReport",
      "id": "0a2a23c0-21d3-4958-8f18-264c78ee57d8",
      "meta": {
        "profile": [ "http://hl7.org/fhir/us/cqfmeasures/StructureDefinition/test-case-cqfm" ]
      },
      "contained": [ {
        "resourceType": "Parameters",
        "id": "ab822d65-bba5-41b0-b3dd-ae694ea9332f-parameters",
        "parameter": [ {
          "name": "subject",
          "valueString": "4e9a1928-a33f-4be3-aa05-c69e9fc4bff7"
        } ]
      } ],
      "extension": [ {
        "url": "http://hl7.org/fhir/us/cqfmeasures/StructureDefinition/cqfm-inputParameters",
        "valueReference": {
          "reference": "#ab822d65-bba5-41b0-b3dd-ae694ea9332f-parameters"
        }
      }, {
        "url": "http://hl7.org/fhir/us/cqfmeasures/StructureDefinition/cqfm-testCaseDescription",
        "valueMarkdown": "Calculated EGA = 20 weeks.\n"
      } ],
      "modifierExtension": [ {
        "url": "http://hl7.org/fhir/us/cqfmeasures/StructureDefinition/cqfm-isTestCase",
        "valueBoolean": true
      } ],
      "status": "complete",
      "type": "individual",
      "measure": "https://madie.cms.gov/Measure/CMS1028FHIRPCSevereOBComps",
      "period": {
        "start": "2025-01-01",
        "end": "2025-12-31"
      },
      "group": [ {
        "population": [ {
          "code": {
            "coding": [ {
              "system": "http://terminology.hl7.org/CodeSystem/measure-population",
              "code": "initial-population",
              "display": "Initial Population"
            } ]
          },
          "count": 1
        }, {
          "code": {
            "coding": [ {
              "system": "http://terminology.hl7.org/CodeSystem/measure-population",
              "code": "denominator",
              "display": "Denominator"
            } ]
          },
          "count": 1
        }, {
          "code": {
            "coding": [ {
              "system": "http://terminology.hl7.org/CodeSystem/measure-population",
              "code": "numerator",
              "display": "Numerator"
            } ]
          },
          "count": 0
        }, {
          "code": {
            "coding": [ {
              "system": "http://terminology.hl7.org/CodeSystem/measure-population",
              "code": "numerator-exclusion",
              "display": "Numerator Exclusion"
            } ]
          },
          "count": 0
        } ]
      }, {
        "population": [ {
          "code": {
            "coding": [ {
              "system": "http://terminology.hl7.org/CodeSystem/measure-population",
              "code": "initial-population",
              "display": "Initial Population"
            } ]
          },
          "count": 1
        }, {
          "code": {
            "coding": [ {
              "system": "http://terminology.hl7.org/CodeSystem/measure-population",
              "code": "denominator",
              "display": "Denominator"
            } ]
          },
          "count": 1
        }, {
          "code": {
            "coding": [ {
              "system": "http://terminology.hl7.org/CodeSystem/measure-population",
              "code": "numerator",
              "display": "Numerator"
            } ]
          },
          "count": 0
        }, {
          "code": {
            "coding": [ {
              "system": "http://terminology.hl7.org/CodeSystem/measure-population",
              "code": "numerator-exclusion",
              "display": "Numerator Exclusion"
            } ]
          },
          "count": 0
        } ]
      } ],
      "evaluatedResource": [ {
        "reference": "Patient/4e9a1928-a33f-4be3-aa05-c69e9fc4bff7"
      }, {
        "reference": "Observation/8abb3693-aeaa-4824-9f11-75a34ca799a5"
      }, {
        "reference": "Observation/d8f8aea7-8855-421b-9b00-22045a5af4c2"
      }, {
        "reference": "Encounter/a14233c4-ab41-4dfe-bfb5-f7267ac5578c"
      }, {
        "reference": "Procedure/e827189d-7533-4d1c-b9ee-b38d134429cc"
      }, {
        "reference": "Coverage/f5ed9805-4986-4247-8473-2409d55b849a"
      }, {
        "reference": "Organization/c15b4a20-1987-4e44-af18-ab7a21d7bf22"
      }, {
        "reference": "Practitioner/8ba57c35-b442-4cb0-bb29-309eef9adf83"
      } ]
    },
    "request": {
      "method": "PUT",
      "url": "MeasureReport/0a2a23c0-21d3-4958-8f18-264c78ee57d8"
    }
  } ]
}