{
  "resourceType": "Bundle",
  "id": "63594c7a6aee9629c82981df",
  "type": "transaction",
  "entry": [ {
    "fullUrl": "https://madie.cms.gov/Patient/fc72e188-1ab1-4ac5-beeb-284d02dd8e0c",
    "resource": {
      "resourceType": "Patient",
      "id": "fc72e188-1ab1-4ac5-beeb-284d02dd8e0c",
      "meta": {
        "profile": [ "http://hl7.org/fhir/us/qicore/StructureDefinition/qicore-patient" ]
      },
      "text": {
        "status": "generated",
        "div": "<div xmlns=\"http://www.w3.org/1999/xhtml\"><div class=\"hapiHeaderText\">AssPrfDelRelvDtEQIPEnd <b>RISK=ASTHMA </b></div><table class=\"hapiPropertyTable\"><tbody><tr><td>Date of birth</td><td><span>01 February 2004</span></td></tr></tbody></table></div>"
      },
      "extension": [ {
        "url": "http://hl7.org/fhir/us/core/StructureDefinition/us-core-race",
        "extension": [ {
          "url": "ombCategory",
          "valueCoding": {
            "system": "urn:oid:2.16.840.1.113883.6.238",
            "code": "1002-5",
            "display": "American Indian or Alaska Native",
            "userSelected": true
          }
        }, {
          "url": "text",
          "valueString": "American Indian or Alaska Native"
        } ]
      }, {
        "url": "http://hl7.org/fhir/us/core/StructureDefinition/us-core-ethnicity",
        "extension": [ {
          "url": "ombCategory",
          "valueCoding": {
            "system": "urn:oid:2.16.840.1.113883.6.238",
            "code": "2135-2",
            "display": "Hispanic or Latino",
            "userSelected": true
          }
        }, {
          "url": "text",
          "valueString": "Hispanic or Latino"
        } ]
      } ],
      "identifier": [ {
        "type": {
          "coding": [ {
            "system": "http://terminology.hl7.org/CodeSystem/v2-0203",
            "code": "MR"
          } ]
        },
        "system": "https://bonnie-fhir.healthit.gov/",
        "value": "63594c7a6aee9629c82981df"
      } ],
      "active": true,
      "name": [ {
        "use": "usual",
        "family": "RiskFail",
        "given": [ "Risk_Anemia_RiskVariablePOAisNo" ]
      } ],
      "gender": "female",
      "birthDate": "2004-02-01"
    },
    "request": {
      "method": "PUT",
      "url": "Patient/fc72e188-1ab1-4ac5-beeb-284d02dd8e0c"
    }
  }, {
    "fullUrl": "https://madie.cms.gov/Observation/7daa5299-7c34-4ba8-ba42-f540d70f3656",
    "resource": {
      "resourceType": "Observation",
      "id": "7daa5299-7c34-4ba8-ba42-f540d70f3656",
      "meta": {
        "profile": [ "http://hl7.org/fhir/us/qicore/StructureDefinition/qicore-observation" ]
      },
      "status": "final",
      "category": [ {
        "coding": [ {
          "system": "http://terminology.hl7.org/CodeSystem/observation-category",
          "code": "exam",
          "display": "exam",
          "userSelected": true
        } ]
      } ],
      "code": {
        "coding": [ {
          "system": "http://loinc.org",
          "code": "93857-1"
        } ]
      },
      "subject": {
        "reference": "Patient/fc72e188-1ab1-4ac5-beeb-284d02dd8e0c"
      },
      "effectiveDateTime": "2025-02-01T08:00:00.000+00:00",
      "valueDateTime": "2025-02-01T08:00:00+00:00"
    },
    "request": {
      "method": "PUT",
      "url": "Observation/7daa5299-7c34-4ba8-ba42-f540d70f3656"
    }
  }, {
    "fullUrl": "https://madie.cms.gov/Observation/dd8e40e1-d921-4204-8374-7ee0def0edfa",
    "resource": {
      "resourceType": "Observation",
      "id": "dd8e40e1-d921-4204-8374-7ee0def0edfa",
      "meta": {
        "profile": [ "http://hl7.org/fhir/us/qicore/StructureDefinition/qicore-observation" ]
      },
      "status": "final",
      "category": [ {
        "coding": [ {
          "system": "http://terminology.hl7.org/CodeSystem/observation-category",
          "code": "exam",
          "display": "exam",
          "userSelected": true
        } ]
      } ],
      "code": {
        "coding": [ {
          "system": "http://loinc.org",
          "code": "11778-8"
        } ]
      },
      "subject": {
        "reference": "Patient/fc72e188-1ab1-4ac5-beeb-284d02dd8e0c"
      },
      "effectiveDateTime": "2025-02-01T08:00:00.000+00:00",
      "valueDateTime": "2025-02-01T00:00:00.000+00:00"
    },
    "request": {
      "method": "PUT",
      "url": "Observation/dd8e40e1-d921-4204-8374-7ee0def0edfa"
    }
  }, {
    "fullUrl": "https://madie.cms.gov/Encounter/b5dac52e-ed05-42b7-b9be-628abf78312d",
    "resource": {
      "resourceType": "Encounter",
      "id": "b5dac52e-ed05-42b7-b9be-628abf78312d",
      "meta": {
        "profile": [ "http://hl7.org/fhir/us/qicore/StructureDefinition/qicore-encounter" ]
      },
      "status": "finished",
      "class": {
        "system": "http://terminology.hl7.org/CodeSystem/v3-ActCode",
        "code": "IMP",
        "display": "inpatient encounter"
      },
      "type": [ {
        "coding": [ {
          "system": "http://snomed.info/sct",
          "code": "183452005"
        } ]
      } ],
      "subject": {
        "reference": "Patient/fc72e188-1ab1-4ac5-beeb-284d02dd8e0c"
      },
      "period": {
        "start": "2025-02-01T08:00:00.000Z",
        "end": "2025-02-05T08:15:00.000Z"
      },
      "diagnosis": [ {
        "extension": [ {
          "url": "http://hl7.org/fhir/us/qicore/StructureDefinition/qicore-encounter-diagnosisPresentOnAdmission",
          "valueCodeableConcept": {
            "coding": [ {
              "system": "https://www.cms.gov/Medicare/Medicare-Fee-for-Service-Payment/HospitalAcqCond/Coding",
              "code": "N"
            } ]
          }
        } ],
        "condition": {
          "reference": "Condition/60e137ec-e584-4197-b94c-8f8f321f140e"
        }
      }, {
        "extension": [ {
          "url": "http://hl7.org/fhir/us/qicore/StructureDefinition/qicore-encounter-diagnosisPresentOnAdmission",
          "valueCodeableConcept": {
            "coding": [ {
              "system": "https://www.cms.gov/Medicare/Medicare-Fee-for-Service-Payment/HospitalAcqCond/Coding",
              "code": "N"
            } ]
          }
        } ],
        "condition": {
          "reference": "Condition/e3a421f9-d303-4d2a-9cb0-f5750bcff251"
        }
      } ]
    },
    "request": {
      "method": "PUT",
      "url": "Encounter/b5dac52e-ed05-42b7-b9be-628abf78312d"
    }
  }, {
    "fullUrl": "https://madie.cms.gov/Procedure/4fdcc03f-c499-427b-b949-f0be5b016ca7",
    "resource": {
      "resourceType": "Procedure",
      "id": "4fdcc03f-c499-427b-b949-f0be5b016ca7",
      "meta": {
        "profile": [ "http://hl7.org/fhir/us/qicore/StructureDefinition/qicore-procedure" ]
      },
      "extension": [ {
        "url": "http://hl7.org/fhir/us/qicore/StructureDefinition/qicore-recorded",
        "valueDateTime": "2013-04-05T09:35:00-04:00"
      } ],
      "status": "completed",
      "code": {
        "coding": [ {
          "system": "http://snomed.info/sct",
          "code": "10745001"
        } ]
      },
      "subject": {
        "reference": "Patient/fc72e188-1ab1-4ac5-beeb-284d02dd8e0c"
      },
      "performedDateTime": "2025-02-01T08:00:00.000+00:00"
    },
    "request": {
      "method": "PUT",
      "url": "Procedure/4fdcc03f-c499-427b-b949-f0be5b016ca7"
    }
  }, {
    "fullUrl": "https://madie.cms.gov/Condition/e3a421f9-d303-4d2a-9cb0-f5750bcff251",
    "resource": {
      "resourceType": "Condition",
      "id": "e3a421f9-d303-4d2a-9cb0-f5750bcff251",
      "meta": {
        "profile": [ "http://hl7.org/fhir/us/qicore/StructureDefinition/qicore-condition" ]
      },
      "category": [ {
        "coding": [ {
          "system": "http://terminology.hl7.org/CodeSystem/condition-category",
          "code": "encounter-diagnosis",
          "display": "Encounter Diagnosis"
        } ]
      } ],
      "code": {
        "coding": [ {
          "system": "http://hl7.org/fhir/sid/icd-10-cm",
          "version": "2023",
          "code": "A32.7",
          "display": "Listerial sepsis",
          "userSelected": true
        } ]
      },
      "subject": {
        "reference": "Patient/fc72e188-1ab1-4ac5-beeb-284d02dd8e0c"
      },
      "recordedDate": "2025-10-26T08:00:00.000+00:00"
    },
    "request": {
      "method": "PUT",
      "url": "Condition/e3a421f9-d303-4d2a-9cb0-f5750bcff251"
    }
  }, {
    "fullUrl": "https://madie.cms.gov/Condition/60e137ec-e584-4197-b94c-8f8f321f140e",
    "resource": {
      "resourceType": "Condition",
      "id": "60e137ec-e584-4197-b94c-8f8f321f140e",
      "meta": {
        "profile": [ "http://hl7.org/fhir/us/qicore/StructureDefinition/qicore-condition" ]
      },
      "category": [ {
        "coding": [ {
          "system": "http://terminology.hl7.org/CodeSystem/condition-category",
          "code": "encounter-diagnosis",
          "display": "Encounter Diagnosis"
        } ]
      } ],
      "code": {
        "coding": [ {
          "system": "http://hl7.org/fhir/sid/icd-10-cm",
          "version": "2023",
          "code": "D50.1",
          "display": "Anemia",
          "userSelected": true
        } ]
      },
      "subject": {
        "reference": "Patient/fc72e188-1ab1-4ac5-beeb-284d02dd8e0c"
      },
      "recordedDate": "2025-10-26T08:00:00.000+00:00"
    },
    "request": {
      "method": "PUT",
      "url": "Condition/60e137ec-e584-4197-b94c-8f8f321f140e"
    }
  }, {
    "fullUrl": "https://madie.cms.gov/MeasureReport/5e795024-8523-46ce-b675-6b3ba6f3292d",
    "resource": {
      "resourceType": "MeasureReport",
      "id": "5e795024-8523-46ce-b675-6b3ba6f3292d",
      "meta": {
        "profile": [ "http://hl7.org/fhir/us/cqfmeasures/StructureDefinition/test-case-cqfm" ]
      },
      "contained": [ {
        "resourceType": "Parameters",
        "id": "904030e2-dce5-4246-a7a2-ef9f03f19b4d-parameters",
        "parameter": [ {
          "name": "subject",
          "valueString": "fc72e188-1ab1-4ac5-beeb-284d02dd8e0c"
        } ]
      } ],
      "extension": [ {
        "url": "http://hl7.org/fhir/us/cqfmeasures/StructureDefinition/cqfm-inputParameters",
        "valueReference": {
          "reference": "#904030e2-dce5-4246-a7a2-ef9f03f19b4d-parameters"
        }
      }, {
        "url": "http://hl7.org/fhir/us/cqfmeasures/StructureDefinition/cqfm-testCaseDescription",
        "valueMarkdown": "Risk variable of anemia.  POA is No."
      } ],
      "modifierExtension": [ {
        "url": "http://hl7.org/fhir/us/cqfmeasures/StructureDefinition/cqfm-isTestCase",
        "valueBoolean": true
      } ],
      "status": "complete",
      "type": "individual",
      "measure": "https://madie.cms.gov/Measure/CMS1028FHIRPCSevereOBComps",
      "period": {
        "start": "2025-01-01",
        "end": "2025-12-31"
      },
      "group": [ {
        "population": [ {
          "code": {
            "coding": [ {
              "system": "http://terminology.hl7.org/CodeSystem/measure-population",
              "code": "initial-population",
              "display": "Initial Population"
            } ]
          },
          "count": 1
        }, {
          "code": {
            "coding": [ {
              "system": "http://terminology.hl7.org/CodeSystem/measure-population",
              "code": "denominator",
              "display": "Denominator"
            } ]
          },
          "count": 1
        }, {
          "code": {
            "coding": [ {
              "system": "http://terminology.hl7.org/CodeSystem/measure-population",
              "code": "numerator",
              "display": "Numerator"
            } ]
          },
          "count": 1
        }, {
          "code": {
            "coding": [ {
              "system": "http://terminology.hl7.org/CodeSystem/measure-population",
              "code": "numerator-exclusion",
              "display": "Numerator Exclusion"
            } ]
          },
          "count": 0
        } ]
      }, {
        "population": [ {
          "code": {
            "coding": [ {
              "system": "http://terminology.hl7.org/CodeSystem/measure-population",
              "code": "initial-population",
              "display": "Initial Population"
            } ]
          },
          "count": 1
        }, {
          "code": {
            "coding": [ {
              "system": "http://terminology.hl7.org/CodeSystem/measure-population",
              "code": "denominator",
              "display": "Denominator"
            } ]
          },
          "count": 1
        }, {
          "code": {
            "coding": [ {
              "system": "http://terminology.hl7.org/CodeSystem/measure-population",
              "code": "numerator",
              "display": "Numerator"
            } ]
          },
          "count": 1
        }, {
          "code": {
            "coding": [ {
              "system": "http://terminology.hl7.org/CodeSystem/measure-population",
              "code": "numerator-exclusion",
              "display": "Numerator Exclusion"
            } ]
          },
          "count": 0
        } ]
      } ],
      "evaluatedResource": [ {
        "reference": "Patient/fc72e188-1ab1-4ac5-beeb-284d02dd8e0c"
      }, {
        "reference": "Observation/7daa5299-7c34-4ba8-ba42-f540d70f3656"
      }, {
        "reference": "Observation/dd8e40e1-d921-4204-8374-7ee0def0edfa"
      }, {
        "reference": "Encounter/b5dac52e-ed05-42b7-b9be-628abf78312d"
      }, {
        "reference": "Procedure/4fdcc03f-c499-427b-b949-f0be5b016ca7"
      }, {
        "reference": "Condition/e3a421f9-d303-4d2a-9cb0-f5750bcff251"
      }, {
        "reference": "Condition/60e137ec-e584-4197-b94c-8f8f321f140e"
      } ]
    },
    "request": {
      "method": "PUT",
      "url": "MeasureReport/5e795024-8523-46ce-b675-6b3ba6f3292d"
    }
  } ]
}