{"resourceType":"Bundle","id":"tests-e81d7c10-0f3d-44fb-bfe4-f4437000bca9-bundle","type":"transaction","entry":[{"fullUrl":"https://madie.cms.gov/Patient/e81d7c10-0f3d-44fb-bfe4-f4437000bca9","resource":{"resourceType":"Patient","id":"e81d7c10-0f3d-44fb-bfe4-f4437000bca9","meta":{"profile":["http://hl7.org/fhir/us/qicore/StructureDefinition/qicore-patient"]},"extension":[{"url":"http://hl7.org/fhir/us/core/StructureDefinition/us-core-race","extension":[{"url":"ombCategory","valueCoding":{"system":"urn:oid:2.16.840.1.113883.6.238","code":"1002-5","display":"American Indian or Alaska Native","userSelected":true}},{"url":"text","valueString":"American Indian or Alaska Native"}]},{"url":"http://hl7.org/fhir/us/core/StructureDefinition/us-core-ethnicity","extension":[{"url":"ombCategory","valueCoding":{"system":"urn:oid:2.16.840.1.113883.6.238","code":"2135-2","display":"Hispanic or Latino","userSelected":true}},{"url":"text","valueString":"Hispanic or Latino"}]}],"identifier":[{"type":{"coding":[{"system":"http://terminology.hl7.org/CodeSystem/v2-0203","code":"MR"}]},"system":"https://bonnie-fhir.healthit.gov/","value":"62fd4b6a0968f8012246b316"}],"name":[{"family":"NUMERPass","given":["2Referrals1MinApart1stClosed"]}],"gender":"female","birthDate":"1989-12-31"},"request":{"method":"PUT","url":"Patient/e81d7c10-0f3d-44fb-bfe4-f4437000bca9"}},{"fullUrl":"https://madie.cms.gov/Task/consultant-report-070e","resource":{"resourceType":"Task","id":"f06f7aeb-6d9d-423c-9289-c5d1ab7eebee","meta":{"profile":["http://hl7.org/fhir/us/qicore/StructureDefinition/qicore-task"]},"identifier":[{"use":"official","system":"http:/goodhealth.org/identifiers","value":"20170201-002"}],"basedOn":[{"reference":"ServiceRequest/referral-070f"}],"status":"completed","intent":"order","priority":"routine","code":{"coding":[{"system":"http://loinc.org","version":"2.72","code":"11488-4","display":"Consult note","userSelected":true}]},"for":{"reference":"Patient/e81d7c10-0f3d-44fb-bfe4-f4437000bca9"},"executionPeriod":{"start":"2025-07-06T08:00:00.000+00:00","end":"2025-07-06T08:10:00.000+00:00"}},"request":{"method":"PUT","url":"Task/f06f7aeb-6d9d-423c-9289-c5d1ab7eebee"}},{"fullUrl":"https://madie.cms.gov/ServiceRequest/referral-070f","resource":{"resourceType":"ServiceRequest","id":"67732c8f-9e9b-4f63-beff-b4f0142e667a","meta":{"profile":["http://hl7.org/fhir/us/qicore/StructureDefinition/qicore-servicerequest"]},"status":"active","intent":"order","code":{"coding":[{"system":"http://snomed.info/sct","version":"2022-03","code":"103696004","display":"Patient referral to specialist (procedure)","userSelected":true}]},"subject":{"reference":"Patient/e81d7c10-0f3d-44fb-bfe4-f4437000bca9"},"authoredOn":"2025-06-06T08:00:00.000+00:00"},"request":{"method":"PUT","url":"ServiceRequest/67732c8f-9e9b-4f63-beff-b4f0142e667a"}},{"fullUrl":"https://madie.cms.gov/Task/consultant-report-d99e","resource":{"resourceType":"Task","id":"4841ac7d-6a0d-4068-a28a-2856d871b8e6","meta":{"profile":["http://hl7.org/fhir/us/qicore/StructureDefinition/qicore-task"]},"identifier":[{"use":"official","system":"http:/goodhealth.org/identifiers","value":"20170201-002"}],"basedOn":[{"reference":"ServiceRequest/referral-d99f"}],"status":"failed","intent":"order","priority":"routine","code":{"coding":[{"system":"http://loinc.org","version":"2.72","code":"11488-4","display":"Consult note","userSelected":true}]},"for":{"reference":"Patient/e81d7c10-0f3d-44fb-bfe4-f4437000bca9"},"executionPeriod":{"start":"2025-07-06T08:01:00.000+00:00","end":"2025-07-06T08:15:00.000+00:00"}},"request":{"method":"PUT","url":"Task/4841ac7d-6a0d-4068-a28a-2856d871b8e6"}},{"fullUrl":"https://madie.cms.gov/ServiceRequest/referral-d99f","resource":{"resourceType":"ServiceRequest","id":"efd1668e-cefd-4dfe-8d0a-1b150dd95f74","meta":{"profile":["http://hl7.org/fhir/us/qicore/StructureDefinition/qicore-servicerequest"]},"status":"active","intent":"order","code":{"coding":[{"system":"http://snomed.info/sct","version":"2022-03","code":"103696004","display":"Patient referral to specialist (procedure)","userSelected":true}]},"subject":{"reference":"Patient/e81d7c10-0f3d-44fb-bfe4-f4437000bca9"},"authoredOn":"2025-06-06T08:01:00.000+00:00"},"request":{"method":"PUT","url":"ServiceRequest/efd1668e-cefd-4dfe-8d0a-1b150dd95f74"}},{"fullUrl":"https://madie.cms.gov/Encounter/ophthalmological-services-1ea9","resource":{"resourceType":"Encounter","id":"ddfaf52a-2c08-467d-93bb-6e814e12a960","meta":{"profile":["http://hl7.org/fhir/us/qicore/StructureDefinition/qicore-encounter"]},"status":"finished","class":{"system":"http://terminology.hl7.org/CodeSystem/v3-ActCode","code":"AMB","display":"ambulatory"},"type":[{"coding":[{"system":"http://snomed.info/sct","version":"2022-03","code":"359960003","display":"Ophthalmologic examination and evaluation under general anesthesia, limited (procedure)","userSelected":true}]}],"subject":{"reference":"Patient/e81d7c10-0f3d-44fb-bfe4-f4437000bca9"},"period":{"start":"2025-05-27T08:00:00.000+00:00","end":"2025-05-27T09:15:00.000+00:00"}},"request":{"method":"PUT","url":"Encounter/ddfaf52a-2c08-467d-93bb-6e814e12a960"}},{"fullUrl":"https://madie.cms.gov/Coverage/1","resource":{"resourceType":"Coverage","id":"5a073aad-1190-43a3-b01f-7ead59ec5f6b","meta":{"profile":["http://hl7.org/fhir/us/qicore/StructureDefinition/qicore-coverage"]},"status":"active","beneficiary":{"reference":"Patient/e81d7c10-0f3d-44fb-bfe4-f4437000bca9"},"payor":[{"reference":"Organization/e75793c9-fdf6-463a-8c1d-4ee44320dc25"}]},"request":{"method":"PUT","url":"Coverage/5a073aad-1190-43a3-b01f-7ead59ec5f6b"}},{"fullUrl":"https://madie.cms.gov/Organization/123456","resource":{"resourceType":"Organization","id":"e75793c9-fdf6-463a-8c1d-4ee44320dc25","meta":{"profile":["http://hl7.org/fhir/us/qicore/StructureDefinition/qicore-organization"]},"identifier":[{"use":"temp","system":"urn:oid:2.16.840.1.113883.4.4","value":"21-3259825"}],"active":true,"type":[{"coding":[{"system":"http://terminology.hl7.org/CodeSystem/organization-type","code":"pay","display":"Payer"}]}],"name":"Blue Cross Blue Shield of Texas","telecom":[{"system":"phone","value":"(+1) 972-766-6900"}],"address":[{"use":"billing","type":"postal","line":["P.O. Box 660044"],"city":"Dallas","state":"TX","postalCode":"75266-0044","country":"USA"}]},"request":{"method":"PUT","url":"Organization/e75793c9-fdf6-463a-8c1d-4ee44320dc25"}},{"fullUrl":"https://madie.cms.gov/Practitioner/practitioner-123456","resource":{"resourceType":"Practitioner","id":"3d08c842-15fc-4e59-a3fe-dedcf31bb91f","meta":{"profile":["http://hl7.org/fhir/us/qicore/StructureDefinition/qicore-practitioner"]},"identifier":[{"system":"http://hl7.org/fhir/sid/us-npi","value":"123456"}],"name":[{"family":"Evil","prefix":["Dr"]}]},"request":{"method":"PUT","url":"Practitioner/3d08c842-15fc-4e59-a3fe-dedcf31bb91f"}},{"fullUrl":"https://madie.cms.gov/MeasureReport/be22559a-60cb-4958-9b01-26215ed88cb3","resource":{"resourceType":"MeasureReport","id":"be22559a-60cb-4958-9b01-26215ed88cb3","meta":{"profile":["http://hl7.org/fhir/us/cqfmeasures/StructureDefinition/test-case-cqfm"]},"contained":[{"resourceType":"Parameters","id":"1c6c9bae-70d0-4acf-a44c-8f59fa340ca8-parameters","parameter":[{"name":"subject","valueString":"e81d7c10-0f3d-44fb-bfe4-f4437000bca9"}]}],"extension":[{"url":"http://hl7.org/fhir/us/cqfmeasures/StructureDefinition/cqfm-inputParameters","valueReference":{"reference":"#1c6c9bae-70d0-4acf-a44c-8f59fa340ca8-parameters"}},{"url":"http://hl7.org/fhir/us/cqfmeasures/StructureDefinition/cqfm-testCaseDescription","valueMarkdown":" 2 referrals 1 minute apart with 1st referral receiving a consultant report. 2nd consultant report with failed status "}],"modifierExtension":[{"url":"http://hl7.org/fhir/us/cqfmeasures/StructureDefinition/cqfm-isTestCase","valueBoolean":true}],"status":"complete","type":"individual","measure":"https://madie.cms.gov/Measure/CRLReceiptofSpecialistReportFHIR","period":{"start":"2025-01-01","end":"2025-12-31"},"group":[{"population":[{"code":{"coding":[{"system":"http://terminology.hl7.org/CodeSystem/measure-population","code":"initial-population","display":"Initial Population"}]},"count":1},{"code":{"coding":[{"system":"http://terminology.hl7.org/CodeSystem/measure-population","code":"denominator","display":"Denominator"}]},"count":1},{"code":{"coding":[{"system":"http://terminology.hl7.org/CodeSystem/measure-population","code":"numerator","display":"Numerator"}]},"count":1}]}]},"request":{"method":"PUT","url":"MeasureReport/be22559a-60cb-4958-9b01-26215ed88cb3"}}]}