{"resourceType":"Bundle","id":"tests-81302ea5-17ee-420c-ab50-e000bdc61662-bundle","type":"transaction","entry":[{"fullUrl":"https://madie.cms.gov/Patient/81302ea5-17ee-420c-ab50-e000bdc61662","resource":{"resourceType":"Patient","id":"81302ea5-17ee-420c-ab50-e000bdc61662","meta":{"profile":["http://hl7.org/fhir/us/qicore/StructureDefinition/qicore-patient"]},"extension":[{"url":"http://hl7.org/fhir/us/core/StructureDefinition/us-core-race","extension":[{"url":"ombCategory","valueCoding":{"system":"urn:oid:2.16.840.1.113883.6.238","code":"1002-5","display":"American Indian or Alaska Native","userSelected":true}},{"url":"text","valueString":"American Indian or Alaska Native"}]},{"url":"http://hl7.org/fhir/us/core/StructureDefinition/us-core-ethnicity","extension":[{"url":"ombCategory","valueCoding":{"system":"urn:oid:2.16.840.1.113883.6.238","code":"2135-2","display":"Hispanic or Latino","userSelected":true}},{"url":"text","valueString":"Hispanic or Latino"}]}],"identifier":[{"type":{"coding":[{"system":"http://terminology.hl7.org/CodeSystem/v2-0203","code":"MR"}]},"system":"https://bonnie-fhir.healthit.gov/","value":"62fd4b6a0968f8012246b316"}],"name":[{"family":"NUMERPass","given":["1stof2ReferralWithConsultantReport"]}],"gender":"female","birthDate":"1989-12-31"},"request":{"method":"PUT","url":"Patient/81302ea5-17ee-420c-ab50-e000bdc61662"}},{"fullUrl":"https://madie.cms.gov/Task/consultant-report-070e","resource":{"resourceType":"Task","id":"186017ed-b241-40ed-9292-5a22a722bf39","meta":{"profile":["http://hl7.org/fhir/us/qicore/StructureDefinition/qicore-task"]},"identifier":[{"use":"official","system":"http:/goodhealth.org/identifiers","value":"20170201-002"}],"basedOn":[{"reference":"ServiceRequest/referral-070f"}],"status":"failed","intent":"order","priority":"routine","code":{"coding":[{"system":"http://loinc.org","version":"2.72","code":"11488-4","display":"Consult note","userSelected":true}]},"for":{"reference":"Patient/8f9f3df4-60f6-4c9a-855f-1e3fa9b30f96"},"executionPeriod":{"start":"2025-06-06T08:00:00.000+00:00","end":"2025-06-06T08:15:00.000+00:00"}},"request":{"method":"PUT","url":"Task/186017ed-b241-40ed-9292-5a22a722bf39"}},{"fullUrl":"https://madie.cms.gov/ServiceRequest/referral-070f","resource":{"resourceType":"ServiceRequest","id":"f6e8c158-edbf-49ef-a13f-007eec89563e","meta":{"profile":["http://hl7.org/fhir/us/qicore/StructureDefinition/qicore-servicerequest"]},"status":"active","intent":"order","code":{"coding":[{"system":"http://snomed.info/sct","version":"2022-03","code":"103696004","display":"Patient referral to specialist (procedure)","userSelected":true}]},"subject":{"reference":"Patient/8f9f3df4-60f6-4c9a-855f-1e3fa9b30f96"},"authoredOn":"2025-06-06T08:00:00.000+00:00"},"request":{"method":"PUT","url":"ServiceRequest/f6e8c158-edbf-49ef-a13f-007eec89563e"}},{"fullUrl":"https://madie.cms.gov/Task/consultant-report-d99e","resource":{"resourceType":"Task","id":"f8e8b909-0e1c-4c48-832b-394e80b490ef","meta":{"profile":["http://hl7.org/fhir/us/qicore/StructureDefinition/qicore-task"]},"identifier":[{"use":"official","system":"http:/goodhealth.org/identifiers","value":"20170201-002"}],"basedOn":[{"reference":"ServiceRequest/referral-d99f"}],"status":"completed","intent":"order","priority":"routine","code":{"coding":[{"system":"http://loinc.org","version":"2.72","code":"11488-4","display":"Consult note","userSelected":true}]},"for":{"reference":"Patient/8f9f3df4-60f6-4c9a-855f-1e3fa9b30f96"},"executionPeriod":{"start":"2025-06-09T08:00:00.000+00:00","end":"2025-06-09T08:15:00.000+00:00"}},"request":{"method":"PUT","url":"Task/f8e8b909-0e1c-4c48-832b-394e80b490ef"}},{"fullUrl":"https://madie.cms.gov/ServiceRequest/referral-d99f","resource":{"resourceType":"ServiceRequest","id":"2ee56019-1f1f-4a0f-893d-271350a4f77a","meta":{"profile":["http://hl7.org/fhir/us/qicore/StructureDefinition/qicore-servicerequest"]},"status":"active","intent":"order","code":{"coding":[{"system":"http://snomed.info/sct","version":"2022-03","code":"103696004","display":"Patient referral to specialist (procedure)","userSelected":true}]},"subject":{"reference":"Patient/8f9f3df4-60f6-4c9a-855f-1e3fa9b30f96"},"authoredOn":"2025-01-09T08:00:00.000+00:00"},"request":{"method":"PUT","url":"ServiceRequest/2ee56019-1f1f-4a0f-893d-271350a4f77a"}},{"fullUrl":"https://madie.cms.gov/Encounter/ophthalmological-services-1ea9","resource":{"resourceType":"Encounter","id":"8b806dc1-fc55-46d9-9ede-b4c6214edc86","meta":{"profile":["http://hl7.org/fhir/us/qicore/StructureDefinition/qicore-encounter"]},"status":"finished","class":{"system":"http://terminology.hl7.org/CodeSystem/v3-ActCode","code":"AMB","display":"ambulatory"},"type":[{"coding":[{"system":"http://snomed.info/sct","version":"2022-03","code":"359960003","display":"Ophthalmologic examination and evaluation under general anesthesia, limited (procedure)","userSelected":true}]}],"subject":{"reference":"Patient/8f9f3df4-60f6-4c9a-855f-1e3fa9b30f96"},"period":{"start":"2025-05-27T08:00:00.000+00:00","end":"2025-05-27T09:15:00.000+00:00"}},"request":{"method":"PUT","url":"Encounter/8b806dc1-fc55-46d9-9ede-b4c6214edc86"}},{"fullUrl":"https://madie.cms.gov/Coverage/1","resource":{"resourceType":"Coverage","id":"2d7c1b32-5974-4f01-be8a-01b115b6b56c","meta":{"profile":["http://hl7.org/fhir/us/qicore/StructureDefinition/qicore-coverage"]},"status":"active","beneficiary":{"reference":"Patient/8f9f3df4-60f6-4c9a-855f-1e3fa9b30f96"},"payor":[{"reference":"Organization/e75793c9-fdf6-463a-8c1d-4ee44320dc25"}]},"request":{"method":"PUT","url":"Coverage/2d7c1b32-5974-4f01-be8a-01b115b6b56c"}},{"fullUrl":"https://madie.cms.gov/Organization/123456","resource":{"resourceType":"Organization","id":"e75793c9-fdf6-463a-8c1d-4ee44320dc25","meta":{"profile":["http://hl7.org/fhir/us/qicore/StructureDefinition/qicore-organization"]},"identifier":[{"use":"temp","system":"urn:oid:2.16.840.1.113883.4.4","value":"21-3259825"}],"active":true,"type":[{"coding":[{"system":"http://terminology.hl7.org/CodeSystem/organization-type","code":"pay","display":"Payer"}]}],"name":"Blue Cross Blue Shield of Texas","telecom":[{"system":"phone","value":"(+1) 972-766-6900"}],"address":[{"use":"billing","type":"postal","line":["P.O. Box 660044"],"city":"Dallas","state":"TX","postalCode":"75266-0044","country":"USA"}]},"request":{"method":"PUT","url":"Organization/e75793c9-fdf6-463a-8c1d-4ee44320dc25"}},{"fullUrl":"https://madie.cms.gov/Practitioner/practitioner-123456","resource":{"resourceType":"Practitioner","id":"8b60e545-6ec3-469b-9e7c-196673e22720","meta":{"profile":["http://hl7.org/fhir/us/qicore/StructureDefinition/qicore-practitioner"]},"identifier":[{"system":"http://hl7.org/fhir/sid/us-npi","value":"123456"}],"name":[{"family":"Evil","prefix":["Dr"]}]},"request":{"method":"PUT","url":"Practitioner/8b60e545-6ec3-469b-9e7c-196673e22720"}},{"fullUrl":"https://madie.cms.gov/MeasureReport/dd04f1a6-071f-400c-98fd-8f47c630aa22","resource":{"resourceType":"MeasureReport","id":"dd04f1a6-071f-400c-98fd-8f47c630aa22","meta":{"profile":["http://hl7.org/fhir/us/cqfmeasures/StructureDefinition/test-case-cqfm"]},"contained":[{"resourceType":"Parameters","id":"0253cf87-2239-4eee-9f8b-b46cca48e72a-parameters","parameter":[{"name":"subject","valueString":"81302ea5-17ee-420c-ab50-e000bdc61662"}]}],"extension":[{"url":"http://hl7.org/fhir/us/cqfmeasures/StructureDefinition/cqfm-inputParameters","valueReference":{"reference":"#0253cf87-2239-4eee-9f8b-b46cca48e72a-parameters"}},{"url":"http://hl7.org/fhir/us/cqfmeasures/StructureDefinition/cqfm-testCaseDescription","valueMarkdown":"2 referrals. 1st one closed with an associated consultant report. 2nd referral with a consultant report with status of failed. "}],"modifierExtension":[{"url":"http://hl7.org/fhir/us/cqfmeasures/StructureDefinition/cqfm-isTestCase","valueBoolean":true}],"status":"complete","type":"individual","measure":"https://madie.cms.gov/Measure/CRLReceiptofSpecialistReportFHIR","period":{"start":"2025-01-01","end":"2025-12-31"},"group":[{"population":[{"code":{"coding":[{"system":"http://terminology.hl7.org/CodeSystem/measure-population","code":"initial-population","display":"Initial Population"}]},"count":1},{"code":{"coding":[{"system":"http://terminology.hl7.org/CodeSystem/measure-population","code":"denominator","display":"Denominator"}]},"count":1},{"code":{"coding":[{"system":"http://terminology.hl7.org/CodeSystem/measure-population","code":"numerator","display":"Numerator"}]},"count":1}]}]},"request":{"method":"PUT","url":"MeasureReport/dd04f1a6-071f-400c-98fd-8f47c630aa22"}}]}