{"resourceType":"Bundle","id":"tests-5cbe2b23-6637-451d-8fa3-dc42f485adb7-bundle","type":"transaction","entry":[{"fullUrl":"https://madie.cms.gov/Patient/5cbe2b23-6637-451d-8fa3-dc42f485adb7","resource":{"resourceType":"Patient","id":"5cbe2b23-6637-451d-8fa3-dc42f485adb7","meta":{"profile":["http://hl7.org/fhir/us/qicore/StructureDefinition/qicore-patient"]},"extension":[{"url":"http://hl7.org/fhir/us/core/StructureDefinition/us-core-race","extension":[{"url":"ombCategory","valueCoding":{"system":"urn:oid:2.16.840.1.113883.6.238","code":"2028-9","display":"Asian","userSelected":true}},{"url":"text","valueString":"Asian"}]},{"url":"http://hl7.org/fhir/us/core/StructureDefinition/us-core-ethnicity","extension":[{"url":"ombCategory","valueCoding":{"system":"urn:oid:2.16.840.1.113883.6.238","code":"2186-5","display":"Not Hispanic or Latino","userSelected":true}},{"url":"text","valueString":"Not Hispanic or Latino"}]}],"identifier":[{"type":{"coding":[{"system":"http://terminology.hl7.org/CodeSystem/v2-0203","code":"MR"}]},"system":"https://bonnie-fhir.healthit.gov/","value":"62fd4b660968f8012246b012"}],"name":[{"family":"DenomPass","given":["EncRefNewPsychDRC"]}],"gender":"female","birthDate":"1988-11-29"},"request":{"method":"PUT","url":"Patient/5cbe2b23-6637-451d-8fa3-dc42f485adb7"}},{"fullUrl":"https://madie.cms.gov/ServiceRequest/referral-a544","resource":{"resourceType":"ServiceRequest","id":"e50f5120-edc2-48c3-a036-e83bfa18e121","meta":{"profile":["http://hl7.org/fhir/us/qicore/StructureDefinition/qicore-servicerequest"]},"status":"completed","intent":"order","code":{"coding":[{"system":"http://snomed.info/sct","version":"2022-03","code":"103696004","display":"Patient referral to specialist (procedure)","userSelected":true}]},"subject":{"reference":"Patient/5cbe2b23-6637-451d-8fa3-dc42f485adb7"},"authoredOn":"2025-01-01T00:00:00.000+00:00"},"request":{"method":"PUT","url":"ServiceRequest/e50f5120-edc2-48c3-a036-e83bfa18e121"}},{"fullUrl":"https://madie.cms.gov/Encounter/Psychotherapy-for-crisis-first-60-minutes","resource":{"resourceType":"Encounter","id":"157123e3-585c-4088-b556-49f5e80717d6","meta":{"profile":["http://hl7.org/fhir/us/qicore/StructureDefinition/qicore-encounter"]},"status":"finished","class":{"system":"http://terminology.hl7.org/CodeSystem/v3-ActCode","code":"AMB","display":"ambulatory"},"type":[{"coding":[{"system":"http://www.ama-assn.org/go/cpt","version":"2021","code":"90839","display":"Psychotherapy for crisis; first 60 minutes","userSelected":true}]}],"subject":{"reference":"Patient/5cbe2b23-6637-451d-8fa3-dc42f485adb7"},"period":{"start":"2025-01-01T00:00:00.000+00:00","end":"2025-01-01T00:59:00.000+00:00"}},"request":{"method":"PUT","url":"Encounter/157123e3-585c-4088-b556-49f5e80717d6"}},{"fullUrl":"https://madie.cms.gov/Coverage/1","resource":{"resourceType":"Coverage","id":"0fdc7ede-e12f-4946-95f5-e6f4b2085a5f","meta":{"profile":["http://hl7.org/fhir/us/qicore/StructureDefinition/qicore-coverage"]},"status":"active","beneficiary":{"reference":"Patient/5cbe2b23-6637-451d-8fa3-dc42f485adb7"},"payor":[{"reference":"Organization/77e4d06f-5e3c-436a-a598-80cefcca5028"}]},"request":{"method":"PUT","url":"Coverage/0fdc7ede-e12f-4946-95f5-e6f4b2085a5f"}},{"fullUrl":"https://madie.cms.gov/Organization/123456","resource":{"resourceType":"Organization","id":"77e4d06f-5e3c-436a-a598-80cefcca5028","meta":{"profile":["http://hl7.org/fhir/us/qicore/StructureDefinition/qicore-organization"]},"identifier":[{"use":"temp","system":"urn:oid:2.16.840.1.113883.4.4","value":"21-3259825"}],"active":true,"type":[{"coding":[{"system":"http://terminology.hl7.org/CodeSystem/organization-type","code":"pay","display":"Payer"}]}],"name":"Blue Cross Blue Shield of Texas","telecom":[{"system":"phone","value":"(+1) 972-766-6900"}],"address":[{"use":"billing","type":"postal","line":["P.O. Box 660044"],"city":"Dallas","state":"TX","postalCode":"75266-0044","country":"USA"}]},"request":{"method":"PUT","url":"Organization/77e4d06f-5e3c-436a-a598-80cefcca5028"}},{"fullUrl":"https://madie.cms.gov/Practitioner/practitioner-123456","resource":{"resourceType":"Practitioner","id":"86fc9179-d757-4a14-8f19-bc9cc6be9760","meta":{"profile":["http://hl7.org/fhir/us/qicore/StructureDefinition/qicore-practitioner"]},"identifier":[{"system":"http://hl7.org/fhir/sid/us-npi","value":"123456"}],"name":[{"family":"Evil","prefix":["Dr"]}]},"request":{"method":"PUT","url":"Practitioner/86fc9179-d757-4a14-8f19-bc9cc6be9760"}},{"fullUrl":"https://madie.cms.gov/MeasureReport/3843d928-616e-4f84-8235-393e0c0919f7","resource":{"resourceType":"MeasureReport","id":"3843d928-616e-4f84-8235-393e0c0919f7","meta":{"profile":["http://hl7.org/fhir/us/cqfmeasures/StructureDefinition/test-case-cqfm"]},"contained":[{"resourceType":"Parameters","id":"ace22cd4-065e-4323-bf19-67c2ed8b58df-parameters","parameter":[{"name":"subject","valueString":"5cbe2b23-6637-451d-8fa3-dc42f485adb7"}]}],"extension":[{"url":"http://hl7.org/fhir/us/cqfmeasures/StructureDefinition/cqfm-inputParameters","valueReference":{"reference":"#ace22cd4-065e-4323-bf19-67c2ed8b58df-parameters"}},{"url":"http://hl7.org/fhir/us/cqfmeasures/StructureDefinition/cqfm-testCaseDescription","valueMarkdown":"Psychotherapy enc first hour of MP with a referral. "}],"modifierExtension":[{"url":"http://hl7.org/fhir/us/cqfmeasures/StructureDefinition/cqfm-isTestCase","valueBoolean":true}],"status":"complete","type":"individual","measure":"https://madie.cms.gov/Measure/CRLReceiptofSpecialistReportFHIR","period":{"start":"2025-01-01","end":"2025-12-31"},"group":[{"population":[{"code":{"coding":[{"system":"http://terminology.hl7.org/CodeSystem/measure-population","code":"initial-population","display":"Initial Population"}]},"count":1},{"code":{"coding":[{"system":"http://terminology.hl7.org/CodeSystem/measure-population","code":"denominator","display":"Denominator"}]},"count":1},{"code":{"coding":[{"system":"http://terminology.hl7.org/CodeSystem/measure-population","code":"numerator","display":"Numerator"}]},"count":0}]}]},"request":{"method":"PUT","url":"MeasureReport/3843d928-616e-4f84-8235-393e0c0919f7"}}]}