{"resourceType":"Bundle","id":"tests-0d811cb9-c7e3-4f91-9f95-996f3adcefcb-bundle","type":"transaction","entry":[{"fullUrl":"https://madie.cms.gov/Patient/0d811cb9-c7e3-4f91-9f95-996f3adcefcb","resource":{"resourceType":"Patient","id":"0d811cb9-c7e3-4f91-9f95-996f3adcefcb","meta":{"profile":["http://hl7.org/fhir/us/qicore/StructureDefinition/qicore-patient"]},"extension":[{"url":"http://hl7.org/fhir/us/core/StructureDefinition/us-core-race","extension":[{"url":"ombCategory","valueCoding":{"system":"urn:oid:2.16.840.1.113883.6.238","code":"1002-5","display":"American Indian or Alaska Native","userSelected":true}},{"url":"text","valueString":"American Indian or Alaska Native"}]},{"url":"http://hl7.org/fhir/us/core/StructureDefinition/us-core-ethnicity","extension":[{"url":"ombCategory","valueCoding":{"system":"urn:oid:2.16.840.1.113883.6.238","code":"2186-5","display":"Not Hispanic or Latino","userSelected":true}},{"url":"text","valueString":"Not Hispanic or Latino"}]}],"identifier":[{"type":{"coding":[{"system":"http://terminology.hl7.org/CodeSystem/v2-0203","code":"MR"}]},"system":"https://bonnie-fhir.healthit.gov/","value":"62fd4b670968f8012246b0ba"}],"name":[{"family":"IPFail","given":["ReferralIntentNotOrder"]}],"gender":"male","birthDate":"1966-01-19"},"request":{"method":"PUT","url":"Patient/0d811cb9-c7e3-4f91-9f95-996f3adcefcb"}},{"fullUrl":"https://madie.cms.gov/Encounter/office-visit-f4a1","resource":{"resourceType":"Encounter","id":"e9bae057-7ec7-422b-9dc8-65a56fbbf1a4","meta":{"profile":["http://hl7.org/fhir/us/qicore/StructureDefinition/qicore-encounter"]},"status":"finished","class":{"system":"http://terminology.hl7.org/CodeSystem/v3-ActCode","code":"AMB","display":"ambulatory"},"type":[{"coding":[{"system":"http://snomed.info/sct","version":"2022-03","code":"185463005","display":"Visit out of hours (procedure)","userSelected":true}]}],"subject":{"reference":"Patient/0d811cb9-c7e3-4f91-9f95-996f3adcefcb"},"period":{"start":"2025-01-01T00:00:00.000+00:00","end":"2025-01-01T01:15:00.000+00:00"}},"request":{"method":"PUT","url":"Encounter/e9bae057-7ec7-422b-9dc8-65a56fbbf1a4"}},{"fullUrl":"https://madie.cms.gov/ServiceRequest/referral-11d1","resource":{"resourceType":"ServiceRequest","id":"43c80153-374a-4c43-ba3f-1b1641ff6d33","meta":{"profile":["http://hl7.org/fhir/us/qicore/StructureDefinition/qicore-servicerequest"]},"status":"active","intent":"instance-order","code":{"coding":[{"system":"http://snomed.info/sct","version":"2022-03","code":"103696004","display":"Patient referral to specialist (procedure)","userSelected":true}]},"subject":{"reference":"Patient/0d811cb9-c7e3-4f91-9f95-996f3adcefcb"},"authoredOn":"2025-05-27T00:01:00.000+00:00"},"request":{"method":"PUT","url":"ServiceRequest/43c80153-374a-4c43-ba3f-1b1641ff6d33"}},{"fullUrl":"https://madie.cms.gov/Coverage/1","resource":{"resourceType":"Coverage","id":"d4502d5a-1947-470c-a4bf-7feb140d14af","meta":{"profile":["http://hl7.org/fhir/us/qicore/StructureDefinition/qicore-coverage"]},"status":"active","beneficiary":{"reference":"Patient/0d811cb9-c7e3-4f91-9f95-996f3adcefcb"},"payor":[{"reference":"Organization/806b0255-13cb-4f2b-9412-571554dd2169"}]},"request":{"method":"PUT","url":"Coverage/d4502d5a-1947-470c-a4bf-7feb140d14af"}},{"fullUrl":"https://madie.cms.gov/Organization/123456","resource":{"resourceType":"Organization","id":"806b0255-13cb-4f2b-9412-571554dd2169","meta":{"profile":["http://hl7.org/fhir/us/qicore/StructureDefinition/qicore-organization"]},"identifier":[{"use":"temp","system":"urn:oid:2.16.840.1.113883.4.4","value":"21-3259825"}],"active":true,"type":[{"coding":[{"system":"http://terminology.hl7.org/CodeSystem/organization-type","code":"pay","display":"Payer"}]}],"name":"Blue Cross Blue Shield of Texas","telecom":[{"system":"phone","value":"(+1) 972-766-6900"}],"address":[{"use":"billing","type":"postal","line":["P.O. Box 660044"],"city":"Dallas","state":"TX","postalCode":"75266-0044","country":"USA"}]},"request":{"method":"PUT","url":"Organization/806b0255-13cb-4f2b-9412-571554dd2169"}},{"fullUrl":"https://madie.cms.gov/Practitioner/practitioner-123456","resource":{"resourceType":"Practitioner","id":"50506c33-8c49-45fd-a3f5-1842553ac52f","meta":{"profile":["http://hl7.org/fhir/us/qicore/StructureDefinition/qicore-practitioner"]},"identifier":[{"system":"http://hl7.org/fhir/sid/us-npi","value":"123456"}],"name":[{"family":"Evil","prefix":["Dr"]}]},"request":{"method":"PUT","url":"Practitioner/50506c33-8c49-45fd-a3f5-1842553ac52f"}},{"fullUrl":"https://madie.cms.gov/MeasureReport/3e5af601-3aad-4a33-add7-897e3aefe2c3","resource":{"resourceType":"MeasureReport","id":"3e5af601-3aad-4a33-add7-897e3aefe2c3","meta":{"profile":["http://hl7.org/fhir/us/cqfmeasures/StructureDefinition/test-case-cqfm"]},"contained":[{"resourceType":"Parameters","id":"6c7db3dc-0eea-4738-8028-1f5f32166697-parameters","parameter":[{"name":"subject","valueString":"0d811cb9-c7e3-4f91-9f95-996f3adcefcb"}]}],"extension":[{"url":"http://hl7.org/fhir/us/cqfmeasures/StructureDefinition/cqfm-inputParameters","valueReference":{"reference":"#6c7db3dc-0eea-4738-8028-1f5f32166697-parameters"}},{"url":"http://hl7.org/fhir/us/cqfmeasures/StructureDefinition/cqfm-testCaseDescription","valueMarkdown":"Encounter during MP,  status finished, Referral Status Active,  Intent not Order during Referral period\n\n"}],"modifierExtension":[{"url":"http://hl7.org/fhir/us/cqfmeasures/StructureDefinition/cqfm-isTestCase","valueBoolean":true}],"status":"complete","type":"individual","measure":"https://madie.cms.gov/Measure/CRLReceiptofSpecialistReportFHIR","period":{"start":"2025-01-01","end":"2025-12-31"},"group":[{"population":[{"code":{"coding":[{"system":"http://terminology.hl7.org/CodeSystem/measure-population","code":"initial-population","display":"Initial Population"}]},"count":0},{"code":{"coding":[{"system":"http://terminology.hl7.org/CodeSystem/measure-population","code":"denominator","display":"Denominator"}]},"count":0},{"code":{"coding":[{"system":"http://terminology.hl7.org/CodeSystem/measure-population","code":"numerator","display":"Numerator"}]},"count":0}]}]},"request":{"method":"PUT","url":"MeasureReport/3e5af601-3aad-4a33-add7-897e3aefe2c3"}}]}