{"resourceType":"Bundle","id":"tests-9521883c-9c96-4e73-974b-d0232a66e1ff-bundle","type":"transaction","entry":[{"fullUrl":"https://madie.cms.gov/Patient/9521883c-9c96-4e73-974b-d0232a66e1ff","resource":{"resourceType":"Patient","id":"9521883c-9c96-4e73-974b-d0232a66e1ff","meta":{"profile":["http://hl7.org/fhir/us/qicore/StructureDefinition/qicore-patient"]},"extension":[{"url":"http://hl7.org/fhir/us/core/StructureDefinition/us-core-race","extension":[{"url":"ombCategory","valueCoding":{"system":"urn:oid:2.16.840.1.113883.6.238","code":"1002-5","display":"American Indian or Alaska Native","userSelected":true}},{"url":"text","valueString":"American Indian or Alaska Native"}]},{"url":"http://hl7.org/fhir/us/core/StructureDefinition/us-core-ethnicity","extension":[{"url":"ombCategory","valueCoding":{"system":"urn:oid:2.16.840.1.113883.6.238","code":"2135-2","display":"Hispanic or Latino","userSelected":true}},{"url":"text","valueString":"Hispanic or Latino"}]}],"identifier":[{"type":{"coding":[{"system":"http://terminology.hl7.org/CodeSystem/v2-0203","code":"MR"}]},"system":"https://bonnie-fhir.healthit.gov/","value":"62fd4b6a0968f8012246b26e"}],"name":[{"family":"NUMERFail","given":["ConsNotLinkedToReferral"]}],"gender":"female","birthDate":"1989-12-31"},"request":{"method":"PUT","url":"Patient/9521883c-9c96-4e73-974b-d0232a66e1ff"}},{"fullUrl":"https://madie.cms.gov/ServiceRequest/referral-070f","resource":{"resourceType":"ServiceRequest","id":"8f74bb8d-73bb-46c9-81fa-3a70b1b2f488","meta":{"profile":["http://hl7.org/fhir/us/qicore/StructureDefinition/qicore-servicerequest"]},"status":"active","intent":"order","code":{"coding":[{"system":"http://snomed.info/sct","version":"2022-03","code":"103696004","display":"Patient referral to specialist (procedure)","userSelected":true}]},"subject":{"reference":"Patient/9521883c-9c96-4e73-974b-d0232a66e1ff"},"authoredOn":"2025-06-06T08:00:00.000+00:00"},"request":{"method":"PUT","url":"ServiceRequest/8f74bb8d-73bb-46c9-81fa-3a70b1b2f488"}},{"fullUrl":"https://madie.cms.gov/Encounter/ophthalmological-services-1ea9","resource":{"resourceType":"Encounter","id":"fa99ed32-2bb3-48c2-9bbe-7eba5bb83e2e","meta":{"profile":["http://hl7.org/fhir/us/qicore/StructureDefinition/qicore-encounter"]},"status":"finished","class":{"system":"http://terminology.hl7.org/CodeSystem/v3-ActCode","code":"AMB","display":"ambulatory"},"type":[{"coding":[{"system":"http://snomed.info/sct","version":"2022-03","code":"359960003","display":"Ophthalmologic examination and evaluation under general anesthesia, limited (procedure)","userSelected":true}]}],"subject":{"reference":"Patient/9521883c-9c96-4e73-974b-d0232a66e1ff"},"period":{"start":"2025-05-27T08:00:00.000+00:00","end":"2025-05-27T09:15:00.000+00:00"}},"request":{"method":"PUT","url":"Encounter/fa99ed32-2bb3-48c2-9bbe-7eba5bb83e2e"}},{"fullUrl":"https://madie.cms.gov/Task/consultant-report-40ac","resource":{"resourceType":"Task","id":"086f57c7-c492-4bf5-a5ee-73f0d5429fc3","meta":{"profile":["http://hl7.org/fhir/us/qicore/StructureDefinition/qicore-task"]},"identifier":[{"use":"official","system":"http:/goodhealth.org/identifiers","value":"20170201-002"}],"status":"completed","intent":"order","priority":"routine","code":{"coding":[{"system":"http://loinc.org","version":"2.72","code":"11488-4","display":"Consult note","userSelected":true}]},"for":{"reference":"Patient/9521883c-9c96-4e73-974b-d0232a66e1ff"},"executionPeriod":{"start":"2025-08-09T08:00:00.000+00:00","end":"2025-08-09T08:15:00.000+00:00"}},"request":{"method":"PUT","url":"Task/086f57c7-c492-4bf5-a5ee-73f0d5429fc3"}},{"fullUrl":"https://madie.cms.gov/Coverage/1","resource":{"resourceType":"Coverage","id":"c7d0a2e8-0a62-4129-b756-9d384974d753","meta":{"profile":["http://hl7.org/fhir/us/qicore/StructureDefinition/qicore-coverage"]},"status":"active","beneficiary":{"reference":"Patient/9521883c-9c96-4e73-974b-d0232a66e1ff"},"payor":[{"reference":"Organization/890316dc-a4ad-43b4-ba6f-9fb9e6eca282"}]},"request":{"method":"PUT","url":"Coverage/c7d0a2e8-0a62-4129-b756-9d384974d753"}},{"fullUrl":"https://madie.cms.gov/Organization/123456","resource":{"resourceType":"Organization","id":"890316dc-a4ad-43b4-ba6f-9fb9e6eca282","meta":{"profile":["http://hl7.org/fhir/us/qicore/StructureDefinition/qicore-organization"]},"identifier":[{"use":"temp","system":"urn:oid:2.16.840.1.113883.4.4","value":"21-3259825"}],"active":true,"type":[{"coding":[{"system":"http://terminology.hl7.org/CodeSystem/organization-type","code":"pay","display":"Payer"}]}],"name":"Blue Cross Blue Shield of Texas","telecom":[{"system":"phone","value":"(+1) 972-766-6900"}],"address":[{"use":"billing","type":"postal","line":["P.O. Box 660044"],"city":"Dallas","state":"TX","postalCode":"75266-0044","country":"USA"}]},"request":{"method":"PUT","url":"Organization/890316dc-a4ad-43b4-ba6f-9fb9e6eca282"}},{"fullUrl":"https://madie.cms.gov/Practitioner/practitioner-123456","resource":{"resourceType":"Practitioner","id":"b107481c-509d-4673-b06c-67ce2727f40e","meta":{"profile":["http://hl7.org/fhir/us/qicore/StructureDefinition/qicore-practitioner"]},"identifier":[{"system":"http://hl7.org/fhir/sid/us-npi","value":"123456"}],"name":[{"family":"Evil","prefix":["Dr"]}]},"request":{"method":"PUT","url":"Practitioner/b107481c-509d-4673-b06c-67ce2727f40e"}},{"fullUrl":"https://madie.cms.gov/MeasureReport/c2daf7f8-0c18-4980-8a6e-e80527cf63c6","resource":{"resourceType":"MeasureReport","id":"c2daf7f8-0c18-4980-8a6e-e80527cf63c6","meta":{"profile":["http://hl7.org/fhir/us/cqfmeasures/StructureDefinition/test-case-cqfm"]},"contained":[{"resourceType":"Parameters","id":"35fd1b6c-3abf-43e1-bb96-fa7c21c4daac-parameters","parameter":[{"name":"subject","valueString":"9521883c-9c96-4e73-974b-d0232a66e1ff"}]}],"extension":[{"url":"http://hl7.org/fhir/us/cqfmeasures/StructureDefinition/cqfm-inputParameters","valueReference":{"reference":"#35fd1b6c-3abf-43e1-bb96-fa7c21c4daac-parameters"}},{"url":"http://hl7.org/fhir/us/cqfmeasures/StructureDefinition/cqfm-testCaseDescription","valueMarkdown":"Encounter during MP status finished, Referral Status Active, Intent Order during Referral period.  Consultant Report not linked to Referral.\n"}],"modifierExtension":[{"url":"http://hl7.org/fhir/us/cqfmeasures/StructureDefinition/cqfm-isTestCase","valueBoolean":true}],"status":"complete","type":"individual","measure":"https://madie.cms.gov/Measure/CRLReceiptofSpecialistReportFHIR","period":{"start":"2025-01-01","end":"2025-12-31"},"group":[{"population":[{"code":{"coding":[{"system":"http://terminology.hl7.org/CodeSystem/measure-population","code":"initial-population","display":"Initial Population"}]},"count":1},{"code":{"coding":[{"system":"http://terminology.hl7.org/CodeSystem/measure-population","code":"denominator","display":"Denominator"}]},"count":1},{"code":{"coding":[{"system":"http://terminology.hl7.org/CodeSystem/measure-population","code":"numerator","display":"Numerator"}]},"count":0}]}]},"request":{"method":"PUT","url":"MeasureReport/c2daf7f8-0c18-4980-8a6e-e80527cf63c6"}}]}