{"resourceType":"Bundle","id":"tests-8f9f3df4-60f6-4c9a-855f-1e3fa9b30f96-bundle","type":"transaction","entry":[{"fullUrl":"https://madie.cms.gov/Patient/8f9f3df4-60f6-4c9a-855f-1e3fa9b30f96","resource":{"resourceType":"Patient","id":"8f9f3df4-60f6-4c9a-855f-1e3fa9b30f96","meta":{"profile":["http://hl7.org/fhir/us/qicore/StructureDefinition/qicore-patient"]},"extension":[{"url":"http://hl7.org/fhir/us/core/StructureDefinition/us-core-race","extension":[{"url":"ombCategory","valueCoding":{"system":"urn:oid:2.16.840.1.113883.6.238","code":"1002-5","display":"American Indian or Alaska Native","userSelected":true}},{"url":"text","valueString":"American Indian or Alaska Native"}]},{"url":"http://hl7.org/fhir/us/core/StructureDefinition/us-core-ethnicity","extension":[{"url":"ombCategory","valueCoding":{"system":"urn:oid:2.16.840.1.113883.6.238","code":"2135-2","display":"Hispanic or Latino","userSelected":true}},{"url":"text","valueString":"Hispanic or Latino"}]}],"identifier":[{"type":{"coding":[{"system":"http://terminology.hl7.org/CodeSystem/v2-0203","code":"MR"}]},"system":"https://bonnie-fhir.healthit.gov/","value":"62fd4b6a0968f8012246b316"}],"name":[{"family":"NUMERFail","given":["2ndReferralWithConsReport"]}],"gender":"female","birthDate":"1989-12-31"},"request":{"method":"PUT","url":"Patient/8f9f3df4-60f6-4c9a-855f-1e3fa9b30f96"}},{"fullUrl":"https://madie.cms.gov/Task/consultant-report-070e","resource":{"resourceType":"Task","id":"f870b28b-2272-4100-83ee-887899ea8c78","meta":{"profile":["http://hl7.org/fhir/us/qicore/StructureDefinition/qicore-task"]},"identifier":[{"use":"official","system":"http:/goodhealth.org/identifiers","value":"20170201-002"}],"basedOn":[{"reference":"ServiceRequest/referral-070f"}],"status":"completed","intent":"order","priority":"routine","code":{"coding":[{"system":"http://loinc.org","version":"2.72","code":"11488-4","display":"Consult note","userSelected":true}]},"for":{"reference":"Patient/8f9f3df4-60f6-4c9a-855f-1e3fa9b30f96"},"executionPeriod":{"start":"2025-06-06T08:00:00.000+00:00","end":"2025-06-06T08:15:00.000+00:00"}},"request":{"method":"PUT","url":"Task/f870b28b-2272-4100-83ee-887899ea8c78"}},{"fullUrl":"https://madie.cms.gov/ServiceRequest/referral-070f","resource":{"resourceType":"ServiceRequest","id":"e0b02eb6-38aa-4cda-997a-7bedf7b41a35","meta":{"profile":["http://hl7.org/fhir/us/qicore/StructureDefinition/qicore-servicerequest"]},"status":"active","intent":"order","code":{"coding":[{"system":"http://snomed.info/sct","version":"2022-03","code":"103696004","display":"Patient referral to specialist (procedure)","userSelected":true}]},"subject":{"reference":"Patient/8f9f3df4-60f6-4c9a-855f-1e3fa9b30f96"},"authoredOn":"2025-06-06T08:00:00.000+00:00"},"request":{"method":"PUT","url":"ServiceRequest/e0b02eb6-38aa-4cda-997a-7bedf7b41a35"}},{"fullUrl":"https://madie.cms.gov/Task/consultant-report-d99e","resource":{"resourceType":"Task","id":"bdbf7d69-1077-4591-8c2a-f192f381d8ac","meta":{"profile":["http://hl7.org/fhir/us/qicore/StructureDefinition/qicore-task"]},"identifier":[{"use":"official","system":"http:/goodhealth.org/identifiers","value":"20170201-002"}],"basedOn":[{"reference":"ServiceRequest/referral-d99f"}],"status":"failed","intent":"order","priority":"routine","code":{"coding":[{"system":"http://loinc.org","version":"2.72","code":"11488-4","display":"Consult note","userSelected":true}]},"for":{"reference":"Patient/8f9f3df4-60f6-4c9a-855f-1e3fa9b30f96"},"executionPeriod":{"start":"2025-06-09T08:00:00.000+00:00","end":"2025-06-09T08:15:00.000+00:00"}},"request":{"method":"PUT","url":"Task/bdbf7d69-1077-4591-8c2a-f192f381d8ac"}},{"fullUrl":"https://madie.cms.gov/ServiceRequest/referral-d99f","resource":{"resourceType":"ServiceRequest","id":"186ea17c-c68a-4f79-9f8f-d6a337c2b6b2","meta":{"profile":["http://hl7.org/fhir/us/qicore/StructureDefinition/qicore-servicerequest"]},"status":"active","intent":"order","code":{"coding":[{"system":"http://snomed.info/sct","version":"2022-03","code":"103696004","display":"Patient referral to specialist (procedure)","userSelected":true}]},"subject":{"reference":"Patient/8f9f3df4-60f6-4c9a-855f-1e3fa9b30f96"},"authoredOn":"2025-01-09T08:00:00.000+00:00"},"request":{"method":"PUT","url":"ServiceRequest/186ea17c-c68a-4f79-9f8f-d6a337c2b6b2"}},{"fullUrl":"https://madie.cms.gov/Encounter/ophthalmological-services-1ea9","resource":{"resourceType":"Encounter","id":"69c02b68-c006-4577-bddb-6a4239247a99","meta":{"profile":["http://hl7.org/fhir/us/qicore/StructureDefinition/qicore-encounter"]},"status":"finished","class":{"system":"http://terminology.hl7.org/CodeSystem/v3-ActCode","code":"AMB","display":"ambulatory"},"type":[{"coding":[{"system":"http://snomed.info/sct","version":"2022-03","code":"359960003","display":"Ophthalmologic examination and evaluation under general anesthesia, limited (procedure)","userSelected":true}]}],"subject":{"reference":"Patient/8f9f3df4-60f6-4c9a-855f-1e3fa9b30f96"},"period":{"start":"2025-05-27T08:00:00.000+00:00","end":"2025-05-27T09:15:00.000+00:00"}},"request":{"method":"PUT","url":"Encounter/69c02b68-c006-4577-bddb-6a4239247a99"}},{"fullUrl":"https://madie.cms.gov/Coverage/1","resource":{"resourceType":"Coverage","id":"70587453-4524-4016-aa53-bfcd3977d4fa","meta":{"profile":["http://hl7.org/fhir/us/qicore/StructureDefinition/qicore-coverage"]},"status":"active","beneficiary":{"reference":"Patient/8f9f3df4-60f6-4c9a-855f-1e3fa9b30f96"},"payor":[{"reference":"Organization/33ead57e-5e04-40e4-95ea-bc3cdbd58917"}]},"request":{"method":"PUT","url":"Coverage/70587453-4524-4016-aa53-bfcd3977d4fa"}},{"fullUrl":"https://madie.cms.gov/Organization/123456","resource":{"resourceType":"Organization","id":"33ead57e-5e04-40e4-95ea-bc3cdbd58917","meta":{"profile":["http://hl7.org/fhir/us/qicore/StructureDefinition/qicore-organization"]},"identifier":[{"use":"temp","system":"urn:oid:2.16.840.1.113883.4.4","value":"21-3259825"}],"active":true,"type":[{"coding":[{"system":"http://terminology.hl7.org/CodeSystem/organization-type","code":"pay","display":"Payer"}]}],"name":"Blue Cross Blue Shield of Texas","telecom":[{"system":"phone","value":"(+1) 972-766-6900"}],"address":[{"use":"billing","type":"postal","line":["P.O. Box 660044"],"city":"Dallas","state":"TX","postalCode":"75266-0044","country":"USA"}]},"request":{"method":"PUT","url":"Organization/33ead57e-5e04-40e4-95ea-bc3cdbd58917"}},{"fullUrl":"https://madie.cms.gov/Practitioner/practitioner-123456","resource":{"resourceType":"Practitioner","id":"0ec6dcda-a19d-4c9b-a463-9698864afe56","meta":{"profile":["http://hl7.org/fhir/us/qicore/StructureDefinition/qicore-practitioner"]},"identifier":[{"system":"http://hl7.org/fhir/sid/us-npi","value":"123456"}],"name":[{"family":"Evil","prefix":["Dr"]}]},"request":{"method":"PUT","url":"Practitioner/0ec6dcda-a19d-4c9b-a463-9698864afe56"}},{"fullUrl":"https://madie.cms.gov/MeasureReport/2881dcf7-07dd-45ba-b533-66dd9f7937e1","resource":{"resourceType":"MeasureReport","id":"2881dcf7-07dd-45ba-b533-66dd9f7937e1","meta":{"profile":["http://hl7.org/fhir/us/cqfmeasures/StructureDefinition/test-case-cqfm"]},"contained":[{"resourceType":"Parameters","id":"59d555df-9857-49ef-a4b8-9ee1b7ea3402-parameters","parameter":[{"name":"subject","valueString":"8f9f3df4-60f6-4c9a-855f-1e3fa9b30f96"}]}],"extension":[{"url":"http://hl7.org/fhir/us/cqfmeasures/StructureDefinition/cqfm-inputParameters","valueReference":{"reference":"#59d555df-9857-49ef-a4b8-9ee1b7ea3402-parameters"}},{"url":"http://hl7.org/fhir/us/cqfmeasures/StructureDefinition/cqfm-testCaseDescription","valueMarkdown":"Patient with Preventive Care Services encounter with 2nd referral closed.  First referral not closed,  status of failed. "}],"modifierExtension":[{"url":"http://hl7.org/fhir/us/cqfmeasures/StructureDefinition/cqfm-isTestCase","valueBoolean":true}],"status":"complete","type":"individual","measure":"https://madie.cms.gov/Measure/CRLReceiptofSpecialistReportFHIR","period":{"start":"2025-01-01","end":"2025-12-31"},"group":[{"population":[{"code":{"coding":[{"system":"http://terminology.hl7.org/CodeSystem/measure-population","code":"initial-population","display":"Initial Population"}]},"count":1},{"code":{"coding":[{"system":"http://terminology.hl7.org/CodeSystem/measure-population","code":"denominator","display":"Denominator"}]},"count":1},{"code":{"coding":[{"system":"http://terminology.hl7.org/CodeSystem/measure-population","code":"numerator","display":"Numerator"}]},"count":0}]}]},"request":{"method":"PUT","url":"MeasureReport/2881dcf7-07dd-45ba-b533-66dd9f7937e1"}}]}