{"resourceType":"Bundle","id":"tests-9c8a2409-413e-4708-acd4-df59100810ad-bundle","type":"transaction","entry":[{"fullUrl":"https://madie.cms.gov/Patient/9c8a2409-413e-4708-acd4-df59100810ad","resource":{"resourceType":"Patient","id":"9c8a2409-413e-4708-acd4-df59100810ad","meta":{"profile":["http://hl7.org/fhir/us/qicore/StructureDefinition/qicore-patient"]},"extension":[{"url":"http://hl7.org/fhir/us/core/StructureDefinition/us-core-race","extension":[{"url":"ombCategory","valueCoding":{"system":"urn:oid:2.16.840.1.113883.6.238","code":"1002-5","display":"American Indian or Alaska Native","userSelected":true}},{"url":"text","valueString":"American Indian or Alaska Native"}]},{"url":"http://hl7.org/fhir/us/core/StructureDefinition/us-core-ethnicity","extension":[{"url":"ombCategory","valueCoding":{"system":"urn:oid:2.16.840.1.113883.6.238","code":"2135-2","display":"Hispanic or Latino","userSelected":true}},{"url":"text","valueString":"Hispanic or Latino"}]}],"identifier":[{"type":{"coding":[{"system":"http://terminology.hl7.org/CodeSystem/v2-0203","code":"MR"}]},"system":"https://bonnie-fhir.healthit.gov/","value":"62fd4b6a0968f8012246b316"}],"name":[{"family":"NUMERPass","given":["1stAnd2ndReferralsWithConsultantReports"]}],"gender":"female","birthDate":"1989-12-31"},"request":{"method":"PUT","url":"Patient/9c8a2409-413e-4708-acd4-df59100810ad"}},{"fullUrl":"https://madie.cms.gov/Task/consultant-report-070e","resource":{"resourceType":"Task","id":"d237ffd7-2f03-4387-b8b7-631031747fa8","meta":{"profile":["http://hl7.org/fhir/us/qicore/StructureDefinition/qicore-task"]},"identifier":[{"use":"official","system":"http:/goodhealth.org/identifiers","value":"20170201-002"}],"basedOn":[{"reference":"ServiceRequest/referral-070f"}],"status":"completed","intent":"order","priority":"routine","code":{"coding":[{"system":"http://loinc.org","version":"2.72","code":"11488-4","display":"Consult note","userSelected":true}]},"for":{"reference":"Patient/8f9f3df4-60f6-4c9a-855f-1e3fa9b30f96"},"executionPeriod":{"start":"2025-06-06T08:00:00.000+00:00","end":"2025-06-06T08:15:00.000+00:00"}},"request":{"method":"PUT","url":"Task/d237ffd7-2f03-4387-b8b7-631031747fa8"}},{"fullUrl":"https://madie.cms.gov/ServiceRequest/referral-070f","resource":{"resourceType":"ServiceRequest","id":"fdc677ec-4b34-4a51-b1fd-1cbcb91a3679","meta":{"profile":["http://hl7.org/fhir/us/qicore/StructureDefinition/qicore-servicerequest"]},"status":"active","intent":"order","code":{"coding":[{"system":"http://snomed.info/sct","version":"2022-03","code":"103696004","display":"Patient referral to specialist (procedure)","userSelected":true}]},"subject":{"reference":"Patient/8f9f3df4-60f6-4c9a-855f-1e3fa9b30f96"},"authoredOn":"2025-06-06T08:00:00.000+00:00"},"request":{"method":"PUT","url":"ServiceRequest/fdc677ec-4b34-4a51-b1fd-1cbcb91a3679"}},{"fullUrl":"https://madie.cms.gov/Task/consultant-report-d99e","resource":{"resourceType":"Task","id":"dc06a0aa-07f4-4bbf-bf27-0f1252c31ec4","meta":{"profile":["http://hl7.org/fhir/us/qicore/StructureDefinition/qicore-task"]},"identifier":[{"use":"official","system":"http:/goodhealth.org/identifiers","value":"20170201-002"}],"basedOn":[{"reference":"ServiceRequest/referral-d99f"}],"status":"completed","intent":"order","priority":"routine","code":{"coding":[{"system":"http://loinc.org","version":"2.72","code":"11488-4","display":"Consult note","userSelected":true}]},"for":{"reference":"Patient/8f9f3df4-60f6-4c9a-855f-1e3fa9b30f96"},"executionPeriod":{"start":"2025-06-09T08:00:00.000+00:00","end":"2025-06-09T08:15:00.000+00:00"}},"request":{"method":"PUT","url":"Task/dc06a0aa-07f4-4bbf-bf27-0f1252c31ec4"}},{"fullUrl":"https://madie.cms.gov/ServiceRequest/referral-d99f","resource":{"resourceType":"ServiceRequest","id":"6cbcc597-b1aa-4b65-9b4c-f181b125fc6b","meta":{"profile":["http://hl7.org/fhir/us/qicore/StructureDefinition/qicore-servicerequest"]},"status":"active","intent":"order","code":{"coding":[{"system":"http://snomed.info/sct","version":"2022-03","code":"103696004","display":"Patient referral to specialist (procedure)","userSelected":true}]},"subject":{"reference":"Patient/8f9f3df4-60f6-4c9a-855f-1e3fa9b30f96"},"authoredOn":"2025-01-09T08:00:00.000+00:00"},"request":{"method":"PUT","url":"ServiceRequest/6cbcc597-b1aa-4b65-9b4c-f181b125fc6b"}},{"fullUrl":"https://madie.cms.gov/Encounter/ophthalmological-services-1ea9","resource":{"resourceType":"Encounter","id":"e141cd16-3d93-4aa5-b63e-f8cea99aa9ef","meta":{"profile":["http://hl7.org/fhir/us/qicore/StructureDefinition/qicore-encounter"]},"status":"finished","class":{"system":"http://terminology.hl7.org/CodeSystem/v3-ActCode","code":"AMB","display":"ambulatory"},"type":[{"coding":[{"system":"http://snomed.info/sct","version":"2022-03","code":"359960003","display":"Ophthalmologic examination and evaluation under general anesthesia, limited (procedure)","userSelected":true}]}],"subject":{"reference":"Patient/8f9f3df4-60f6-4c9a-855f-1e3fa9b30f96"},"period":{"start":"2025-05-27T08:00:00.000+00:00","end":"2025-05-27T09:15:00.000+00:00"}},"request":{"method":"PUT","url":"Encounter/e141cd16-3d93-4aa5-b63e-f8cea99aa9ef"}},{"fullUrl":"https://madie.cms.gov/Coverage/1","resource":{"resourceType":"Coverage","id":"74d81fc5-f345-4d26-898a-0a06680fdd8b","meta":{"profile":["http://hl7.org/fhir/us/qicore/StructureDefinition/qicore-coverage"]},"status":"active","beneficiary":{"reference":"Patient/8f9f3df4-60f6-4c9a-855f-1e3fa9b30f96"},"payor":[{"reference":"Organization/3e899f33-84eb-4634-a770-a5a0bd7a80e7"}]},"request":{"method":"PUT","url":"Coverage/74d81fc5-f345-4d26-898a-0a06680fdd8b"}},{"fullUrl":"https://madie.cms.gov/Organization/123456","resource":{"resourceType":"Organization","id":"3e899f33-84eb-4634-a770-a5a0bd7a80e7","meta":{"profile":["http://hl7.org/fhir/us/qicore/StructureDefinition/qicore-organization"]},"identifier":[{"use":"temp","system":"urn:oid:2.16.840.1.113883.4.4","value":"21-3259825"}],"active":true,"type":[{"coding":[{"system":"http://terminology.hl7.org/CodeSystem/organization-type","code":"pay","display":"Payer"}]}],"name":"Blue Cross Blue Shield of Texas","telecom":[{"system":"phone","value":"(+1) 972-766-6900"}],"address":[{"use":"billing","type":"postal","line":["P.O. Box 660044"],"city":"Dallas","state":"TX","postalCode":"75266-0044","country":"USA"}]},"request":{"method":"PUT","url":"Organization/3e899f33-84eb-4634-a770-a5a0bd7a80e7"}},{"fullUrl":"https://madie.cms.gov/Practitioner/practitioner-123456","resource":{"resourceType":"Practitioner","id":"b3d295f4-a4f1-4170-b698-d9a86a2a7b8b","meta":{"profile":["http://hl7.org/fhir/us/qicore/StructureDefinition/qicore-practitioner"]},"identifier":[{"system":"http://hl7.org/fhir/sid/us-npi","value":"123456"}],"name":[{"family":"Evil","prefix":["Dr"]}]},"request":{"method":"PUT","url":"Practitioner/b3d295f4-a4f1-4170-b698-d9a86a2a7b8b"}},{"fullUrl":"https://madie.cms.gov/MeasureReport/271111f0-2b9a-484f-b856-644534c392e7","resource":{"resourceType":"MeasureReport","id":"271111f0-2b9a-484f-b856-644534c392e7","meta":{"profile":["http://hl7.org/fhir/us/cqfmeasures/StructureDefinition/test-case-cqfm"]},"contained":[{"resourceType":"Parameters","id":"83edcde2-3351-417a-a873-fd51a4e2fc38-parameters","parameter":[{"name":"subject","valueString":"9c8a2409-413e-4708-acd4-df59100810ad"}]}],"extension":[{"url":"http://hl7.org/fhir/us/cqfmeasures/StructureDefinition/cqfm-inputParameters","valueReference":{"reference":"#83edcde2-3351-417a-a873-fd51a4e2fc38-parameters"}},{"url":"http://hl7.org/fhir/us/cqfmeasures/StructureDefinition/cqfm-testCaseDescription","valueMarkdown":"2 out of 2 Referrals with associated Consultant reports received."}],"modifierExtension":[{"url":"http://hl7.org/fhir/us/cqfmeasures/StructureDefinition/cqfm-isTestCase","valueBoolean":true}],"status":"complete","type":"individual","measure":"https://madie.cms.gov/Measure/CRLReceiptofSpecialistReportFHIR","period":{"start":"2025-01-01","end":"2025-12-31"},"group":[{"population":[{"code":{"coding":[{"system":"http://terminology.hl7.org/CodeSystem/measure-population","code":"initial-population","display":"Initial Population"}]},"count":1},{"code":{"coding":[{"system":"http://terminology.hl7.org/CodeSystem/measure-population","code":"denominator","display":"Denominator"}]},"count":1},{"code":{"coding":[{"system":"http://terminology.hl7.org/CodeSystem/measure-population","code":"numerator","display":"Numerator"}]},"count":1}]}]},"request":{"method":"PUT","url":"MeasureReport/271111f0-2b9a-484f-b856-644534c392e7"}}]}