{
  "resourceType": "Bundle",
  "id": "612e6a7202c62a011f2ea1b5",
  "type": "transaction",
  "entry": [ {
    "fullUrl": "https://madie.cms.gov/Patient/d7f4c185-c735-4827-9ab8-b7f1f882f206",
    "resource": {
      "resourceType": "Patient",
      "id": "d7f4c185-c735-4827-9ab8-b7f1f882f206",
      "meta": {
        "profile": [ "http://hl7.org/fhir/us/qicore/StructureDefinition/qicore-patient" ]
      },
      "text": {
        "status": "generated",
        "div": "<div xmlns=\"http://www.w3.org/1999/xhtml\"><div class=\"hapiHeaderText\">PtRef_MA_LDUHep_IPEnc <b>NUMERPASS </b></div><table class=\"hapiPropertyTable\"><tbody><tr><td>Identifier</td><td>809833d2a174c1ec259d0188ba65e72e</td></tr><tr><td>Date of birth</td><td><span>02 January 1974</span></td></tr></tbody></table></div>"
      },
      "extension": [ {
        "url": "http://hl7.org/fhir/us/core/StructureDefinition/us-core-race",
        "extension": [ {
          "url": "ombCategory",
          "valueCoding": {
            "system": "urn:oid:2.16.840.1.113883.6.238",
            "code": "1002-5",
            "display": "American Indian or Alaska Native",
            "userSelected": true
          }
        }, {
          "url": "text",
          "valueString": "American Indian or Alaska Native"
        } ]
      }, {
        "url": "http://hl7.org/fhir/us/core/StructureDefinition/us-core-ethnicity",
        "extension": [ {
          "url": "ombCategory",
          "valueCoding": {
            "system": "urn:oid:2.16.840.1.113883.6.238",
            "code": "2135-2",
            "display": "Hispanic or Latino",
            "userSelected": true
          }
        }, {
          "url": "text",
          "valueString": "Hispanic or Latino"
        } ]
      } ],
      "identifier": [ {
        "type": {
          "coding": [ {
            "system": "http://terminology.hl7.org/CodeSystem/v2-0203",
            "code": "MR"
          } ]
        },
        "system": "https://bonnie-fhir.healthit.gov/",
        "value": "612e6a7202c62a011f2ea1b5"
      } ],
      "active": true,
      "name": [ {
        "use": "usual",
        "family": "NUMERPass",
        "given": [ "PtRef_MA_LDUHep_IPEnc" ]
      } ],
      "gender": "male",
      "birthDate": "1975-01-02"
    },
    "request": {
      "method": "PUT",
      "url": "Patient/d7f4c185-c735-4827-9ab8-b7f1f882f206"
    }
  }, {
    "fullUrl": "https://madie.cms.gov/Encounter/2d66ce35-f80b-46e8-94de-1fe70248bf7e",
    "resource": {
      "resourceType": "Encounter",
      "id": "2d66ce35-f80b-46e8-94de-1fe70248bf7e",
      "meta": {
        "profile": [ "http://hl7.org/fhir/us/qicore/StructureDefinition/qicore-encounter" ]
      },
      "status": "finished",
      "class": {
        "system": "http://terminology.hl7.org/CodeSystem/v3-ActCode",
        "code": "IMP",
        "display": "inpatient encounter"
      },
      "type": [ {
        "coding": [ {
          "system": "http://snomed.info/sct",
          "code": "8715000"
        } ]
      } ],
      "subject": {
        "reference": "Patient/d7f4c185-c735-4827-9ab8-b7f1f882f206"
      },
      "period": {
        "start": "2026-11-01T08:00:00+00:00",
        "end": "2026-11-26T08:15:00+00:00"
      },
      "length": {
        "value": 25,
        "unit": "days"
      }
    },
    "request": {
      "method": "PUT",
      "url": "Encounter/2d66ce35-f80b-46e8-94de-1fe70248bf7e"
    }
  }, {
    "fullUrl": "https://madie.cms.gov/Coverage/08078243-328c-4027-9f23-75fa10829bdd",
    "resource": {
      "resourceType": "Coverage",
      "id": "08078243-328c-4027-9f23-75fa10829bdd",
      "status": "active",
      "beneficiary": {
        "reference": "Patient/d7f4c185-c735-4827-9ab8-b7f1f882f206"
      },
      "period": {
        "start": "1975-01-02T08:00:00+00:00"
      },
      "payor": [ {
        "reference": "Organization/451da810-fae3-4fd3-9646-1a385ca9b9f9"
      } ]
    },
    "request": {
      "method": "PUT",
      "url": "Coverage/08078243-328c-4027-9f23-75fa10829bdd"
    }
  }, {
    "fullUrl": "https://madie.cms.gov/MedicationAdministration/9f3b5b13-e546-4ebe-9e13-b013ed422f9d",
    "resource": {
      "resourceType": "MedicationAdministration",
      "id": "9f3b5b13-e546-4ebe-9e13-b013ed422f9d",
      "meta": {
        "profile": [ "http://hl7.org/fhir/us/qicore/StructureDefinition/qicore-mednotadministered" ]
      },
      "extension": [ {
        "url": "http://hl7.org/fhir/us/qicore/StructureDefinition/qicore-recorded",
        "valueDateTime": "2026-11-02T09:00:00+00:00"
      } ],
      "status": "not-done",
      "statusReason": [ {
        "coding": [ {
          "system": "http://snomed.info/sct",
          "code": "443390004",
          "display": "Refusal of treatment by patient (situation)"
        } ]
      } ],
      "medicationCodeableConcept": {
        "coding": [ {
          "system": "http://www.nlm.nih.gov/research/umls/rxnorm",
          "code": "1361574"
        } ]
      },
      "subject": {
        "reference": "Patient/d7f4c185-c735-4827-9ab8-b7f1f882f206"
      },
      "effectivePeriod": {
        "start": "2026-11-02T09:00:00+00:00"
      }
    },
    "request": {
      "method": "PUT",
      "url": "MedicationAdministration/9f3b5b13-e546-4ebe-9e13-b013ed422f9d"
    }
  }, {
    "fullUrl": "https://madie.cms.gov/Organization/451da810-fae3-4fd3-9646-1a385ca9b9f9",
    "resource": {
      "resourceType": "Organization",
      "id": "451da810-fae3-4fd3-9646-1a385ca9b9f9",
      "meta": {
        "profile": [ "http://hl7.org/fhir/us/qicore/StructureDefinition/qicore-organization" ]
      },
      "identifier": [ {
        "use": "temp",
        "system": "urn:oid:2.16.840.1.113883.4.4",
        "value": "21-3259825"
      } ],
      "active": true,
      "type": [ {
        "coding": [ {
          "system": "http://terminology.hl7.org/CodeSystem/organization-type",
          "code": "pay",
          "display": "Payer"
        } ]
      } ],
      "name": "Blue Cross Blue Shield of Texas",
      "telecom": [ {
        "system": "phone",
        "value": "(+1) 972-766-6900"
      } ],
      "address": [ {
        "use": "billing",
        "type": "postal",
        "line": [ "P.O. Box 660044" ],
        "city": "Dallas",
        "state": "TX",
        "postalCode": "75266-0044",
        "country": "USA"
      } ]
    },
    "request": {
      "method": "PUT",
      "url": "Organization/451da810-fae3-4fd3-9646-1a385ca9b9f9"
    }
  }, {
    "fullUrl": "https://madie.cms.gov/Practitioner/b1286fa0-5a0e-4521-8897-e71327bf6a76",
    "resource": {
      "resourceType": "Practitioner",
      "id": "b1286fa0-5a0e-4521-8897-e71327bf6a76",
      "identifier": [ {
        "system": "http://hl7.org/fhir/sid/us-npi",
        "value": "123456"
      } ],
      "name": [ {
        "family": "Evil",
        "prefix": [ "Dr" ]
      } ]
    },
    "request": {
      "method": "PUT",
      "url": "Practitioner/b1286fa0-5a0e-4521-8897-e71327bf6a76"
    }
  }, {
    "fullUrl": "https://madie.cms.gov/MeasureReport/4b3d7cef-fe0a-4322-b500-21d73e9bfdd7",
    "resource": {
      "resourceType": "MeasureReport",
      "id": "4b3d7cef-fe0a-4322-b500-21d73e9bfdd7",
      "meta": {
        "profile": [ "http://hl7.org/fhir/us/cqfmeasures/StructureDefinition/test-case-cqfm" ]
      },
      "contained": [ {
        "resourceType": "Parameters",
        "id": "02ea8e6a-d4d1-4c0b-a8ce-ee1df1e52549-parameters",
        "parameter": [ {
          "name": "subject",
          "valueString": "d7f4c185-c735-4827-9ab8-b7f1f882f206"
        } ]
      } ],
      "extension": [ {
        "url": "http://hl7.org/fhir/us/cqfmeasures/StructureDefinition/cqfm-inputParameters",
        "valueReference": {
          "reference": "#02ea8e6a-d4d1-4c0b-a8ce-ee1df1e52549-parameters"
        }
      }, {
        "url": "http://hl7.org/fhir/us/cqfmeasures/StructureDefinition/cqfm-testCaseDescription",
        "valueMarkdown": "unfractionated heparin not given due to patient refusal <= 1 day after start of IP encounter\n"
      } ],
      "modifierExtension": [ {
        "url": "http://hl7.org/fhir/us/cqfmeasures/StructureDefinition/cqfm-isTestCase",
        "valueBoolean": true
      } ],
      "status": "complete",
      "type": "individual",
      "measure": "https://madie.cms.gov/Measure/CMS108VTEProphylaxisFHIR",
      "period": {
        "start": "2026-01-01",
        "end": "2026-12-31"
      },
      "group": [ {
        "population": [ {
          "code": {
            "coding": [ {
              "system": "http://terminology.hl7.org/CodeSystem/measure-population",
              "code": "initial-population",
              "display": "Initial Population"
            } ]
          },
          "count": 1
        }, {
          "code": {
            "coding": [ {
              "system": "http://terminology.hl7.org/CodeSystem/measure-population",
              "code": "denominator",
              "display": "Denominator"
            } ]
          },
          "count": 1
        }, {
          "code": {
            "coding": [ {
              "system": "http://terminology.hl7.org/CodeSystem/measure-population",
              "code": "denominator-exclusion",
              "display": "Denominator Exclusion"
            } ]
          },
          "count": 0
        }, {
          "code": {
            "coding": [ {
              "system": "http://terminology.hl7.org/CodeSystem/measure-population",
              "code": "numerator",
              "display": "Numerator"
            } ]
          },
          "count": 1
        } ]
      } ],
      "evaluatedResource": [ {
        "reference": "Patient/d7f4c185-c735-4827-9ab8-b7f1f882f206"
      }, {
        "reference": "Encounter/2d66ce35-f80b-46e8-94de-1fe70248bf7e"
      }, {
        "reference": "Coverage/08078243-328c-4027-9f23-75fa10829bdd"
      }, {
        "reference": "MedicationAdministration/9f3b5b13-e546-4ebe-9e13-b013ed422f9d"
      }, {
        "reference": "Organization/451da810-fae3-4fd3-9646-1a385ca9b9f9"
      }, {
        "reference": "Practitioner/b1286fa0-5a0e-4521-8897-e71327bf6a76"
      } ]
    },
    "request": {
      "method": "PUT",
      "url": "MeasureReport/4b3d7cef-fe0a-4322-b500-21d73e9bfdd7"
    }
  } ]
}