{
  "resourceType": "Bundle",
  "id": "NUMERPass-2Encounters1FallWithInjury",
  "type": "transaction",
  "entry": [ {
    "fullUrl": "https://madie.cms.gov/Encounter/b58c5f11-2e4c-45c2-8208-abc45d8d4af0",
    "resource": {
      "resourceType": "Encounter",
      "id": "b58c5f11-2e4c-45c2-8208-abc45d8d4af0",
      "meta": {
        "profile": [ "http://hl7.org/fhir/us/qicore/StructureDefinition/qicore-encounter" ]
      },
      "status": "finished",
      "class": {
        "system": "http://terminology.hl7.org/CodeSystem/v3-ActCode",
        "code": "IMP",
        "display": "inpatient encounter"
      },
      "type": [ {
        "coding": [ {
          "system": "http://snomed.info/sct",
          "code": "183452005"
        } ]
      } ],
      "subject": {
        "reference": "Patient/7c4f1e55-2462-45e5-9062-5cf8d04b40e2"
      },
      "period": {
        "start": "2026-12-08T08:00:00+00:00",
        "end": "2026-12-12T08:15:00+00:00"
      },
      "diagnosis": [ {
        "extension": [ {
          "url": "http://hl7.org/fhir/us/qicore/StructureDefinition/qicore-encounter-diagnosisPresentOnAdmission",
          "valueCodeableConcept": {
            "coding": [ {
              "system": "https://www.cms.gov/Medicare/Medicare-Fee-for-Service-Payment/HospitalAcqCond/Coding",
              "code": "Y"
            } ]
          }
        } ],
        "condition": {
          "reference": "Condition/9fb1079c-16e6-4185-a857-b66b56672532"
        }
      } ]
    },
    "request": {
      "method": "PUT",
      "url": "Encounter/b58c5f11-2e4c-45c2-8208-abc45d8d4af0"
    }
  }, {
    "fullUrl": "https://madie.cms.gov/Encounter/4f4e62be-ef67-48b2-a194-8d8a309469fe",
    "resource": {
      "resourceType": "Encounter",
      "id": "4f4e62be-ef67-48b2-a194-8d8a309469fe",
      "meta": {
        "profile": [ "http://hl7.org/fhir/us/qicore/StructureDefinition/qicore-encounter" ]
      },
      "status": "finished",
      "class": {
        "system": "http://terminology.hl7.org/CodeSystem/v3-ActCode",
        "code": "IMP",
        "display": "inpatient encounter"
      },
      "type": [ {
        "coding": [ {
          "system": "http://snomed.info/sct",
          "code": "183452005"
        } ]
      } ],
      "subject": {
        "reference": "Patient/7c4f1e55-2462-45e5-9062-5cf8d04b40e2"
      },
      "period": {
        "start": "2026-11-09T11:00:00+00:00",
        "end": "2026-11-12T08:15:00+00:00"
      },
      "diagnosis": [ {
        "extension": [ {
          "url": "http://hl7.org/fhir/us/qicore/StructureDefinition/qicore-encounter-diagnosisPresentOnAdmission",
          "valueCodeableConcept": {
            "coding": [ {
              "system": "https://www.cms.gov/Medicare/Medicare-Fee-for-Service-Payment/HospitalAcqCond/Coding",
              "code": "N"
            } ]
          }
        } ],
        "condition": {
          "reference": "Condition/5b81c86f-1170-421e-87ea-d322877b15c3"
        }
      } ]
    },
    "request": {
      "method": "PUT",
      "url": "Encounter/4f4e62be-ef67-48b2-a194-8d8a309469fe"
    }
  }, {
    "fullUrl": "https://madie.cms.gov/Encounter/2b15222a-5017-4046-b25b-0961032b58f4",
    "resource": {
      "resourceType": "Encounter",
      "id": "2b15222a-5017-4046-b25b-0961032b58f4",
      "meta": {
        "profile": [ "http://hl7.org/fhir/us/qicore/StructureDefinition/qicore-encounter" ]
      },
      "status": "finished",
      "class": {
        "system": "http://terminology.hl7.org/CodeSystem/v3-ActCode",
        "code": "IMP",
        "display": "inpatient encounter"
      },
      "type": [ {
        "coding": [ {
          "system": "http://snomed.info/sct",
          "code": "4525004"
        } ]
      } ],
      "subject": {
        "reference": "Patient/7c4f1e55-2462-45e5-9062-5cf8d04b40e2"
      },
      "period": {
        "start": "2026-11-09T08:00:00+00:00",
        "end": "2026-11-09T10:15:00+00:00"
      }
    },
    "request": {
      "method": "PUT",
      "url": "Encounter/2b15222a-5017-4046-b25b-0961032b58f4"
    }
  }, {
    "fullUrl": "https://madie.cms.gov/Condition/9fb1079c-16e6-4185-a857-b66b56672532",
    "resource": {
      "resourceType": "Condition",
      "id": "9fb1079c-16e6-4185-a857-b66b56672532",
      "meta": {
        "profile": [ "http://hl7.org/fhir/us/qicore/StructureDefinition/qicore-condition" ]
      },
      "clinicalStatus": {
        "coding": [ {
          "system": "http://terminology.hl7.org/CodeSystem/condition-clinical",
          "code": "active"
        } ]
      },
      "verificationStatus": {
        "coding": [ {
          "system": "http://terminology.hl7.org/CodeSystem/condition-ver-status",
          "code": "confirmed"
        } ]
      },
      "category": [ {
        "coding": [ {
          "system": "http://terminology.hl7.org/CodeSystem/condition-category",
          "code": "encounter-diagnosis",
          "display": "Encounter Diagnosis"
        } ]
      } ],
      "code": {
        "coding": [ {
          "system": "http://hl7.org/fhir/sid/icd-10-cm",
          "code": "S13.29XA"
        } ]
      },
      "subject": {
        "reference": "Patient/7c4f1e55-2462-45e5-9062-5cf8d04b40e2"
      },
      "encounter": {
        "reference": "Encounter/4f4e62be-ef67-48b2-a194-8d8a309469fe"
      }
    },
    "request": {
      "method": "PUT",
      "url": "Condition/9fb1079c-16e6-4185-a857-b66b56672532"
    }
  }, {
    "fullUrl": "https://madie.cms.gov/Condition/5b81c86f-1170-421e-87ea-d322877b15c3",
    "resource": {
      "resourceType": "Condition",
      "id": "5b81c86f-1170-421e-87ea-d322877b15c3",
      "meta": {
        "profile": [ "http://hl7.org/fhir/us/qicore/StructureDefinition/qicore-condition" ]
      },
      "clinicalStatus": {
        "coding": [ {
          "system": "http://terminology.hl7.org/CodeSystem/condition-clinical",
          "code": "active"
        } ]
      },
      "verificationStatus": {
        "coding": [ {
          "system": "http://terminology.hl7.org/CodeSystem/condition-ver-status",
          "code": "confirmed"
        } ]
      },
      "category": [ {
        "coding": [ {
          "system": "http://terminology.hl7.org/CodeSystem/condition-category",
          "code": "encounter-diagnosis",
          "display": "Encounter Diagnosis"
        } ]
      } ],
      "code": {
        "coding": [ {
          "system": "http://hl7.org/fhir/sid/icd-10-cm",
          "code": "S01.309A"
        } ]
      },
      "subject": {
        "reference": "Patient/7c4f1e55-2462-45e5-9062-5cf8d04b40e2"
      },
      "encounter": {
        "reference": "Encounter/4f4e62be-ef67-48b2-a194-8d8a309469fe"
      }
    },
    "request": {
      "method": "PUT",
      "url": "Condition/5b81c86f-1170-421e-87ea-d322877b15c3"
    }
  }, {
    "fullUrl": "https://madie.cms.gov/Patient/7c4f1e55-2462-45e5-9062-5cf8d04b40e2",
    "resource": {
      "resourceType": "Patient",
      "id": "7c4f1e55-2462-45e5-9062-5cf8d04b40e2",
      "meta": {
        "profile": [ "http://hl7.org/fhir/us/qicore/StructureDefinition/qicore-patient" ]
      },
      "extension": [ {
        "url": "http://hl7.org/fhir/us/core/StructureDefinition/us-core-race",
        "extension": [ {
          "url": "ombCategory",
          "valueCoding": {
            "system": "urn:oid:2.16.840.1.113883.6.238",
            "code": "2054-5",
            "display": "Black or African American",
            "userSelected": true
          }
        }, {
          "url": "text",
          "valueString": "Black or African American"
        } ]
      }, {
        "url": "http://hl7.org/fhir/us/core/StructureDefinition/us-core-ethnicity",
        "extension": [ {
          "url": "ombCategory",
          "valueCoding": {
            "system": "urn:oid:2.16.840.1.113883.6.238",
            "code": "2186-5",
            "display": "Not Hispanic or Latino",
            "userSelected": true
          }
        }, {
          "url": "text",
          "valueString": "Not Hispanic or Latino"
        } ]
      } ],
      "identifier": [ {
        "type": {
          "coding": [ {
            "system": "http://terminology.hl7.org/CodeSystem/v2-0203",
            "code": "MR"
          } ]
        },
        "system": "https://bonnie-fhir.healthit.gov/",
        "value": "61152a3b98086b7a79cbd7c1"
      } ],
      "active": true,
      "name": [ {
        "use": "usual",
        "family": "NUMERPass",
        "given": [ "2Encounters1FallWithInjury" ]
      } ],
      "gender": "male",
      "birthDate": "1964-12-11"
    },
    "request": {
      "method": "PUT",
      "url": "Patient/7c4f1e55-2462-45e5-9062-5cf8d04b40e2"
    }
  }, {
    "fullUrl": "https://madie.cms.gov/AdverseEvent/c5599795-89cb-41eb-9a49-9cf3332f57ff",
    "resource": {
      "resourceType": "AdverseEvent",
      "id": "c5599795-89cb-41eb-9a49-9cf3332f57ff",
      "meta": {
        "profile": [ "http://hl7.org/fhir/us/qicore/StructureDefinition/qicore-adverseevent" ]
      },
      "actuality": "actual",
      "event": {
        "coding": [ {
          "system": "http://hl7.org/fhir/sid/icd-10-cm",
          "code": "W01.0XXA"
        } ]
      },
      "subject": {
        "reference": "Patient/7c4f1e55-2462-45e5-9062-5cf8d04b40e2"
      },
      "date": "2026-12-09T08:00:00+00:00"
    },
    "request": {
      "method": "PUT",
      "url": "AdverseEvent/c5599795-89cb-41eb-9a49-9cf3332f57ff"
    }
  }, {
    "fullUrl": "https://madie.cms.gov/AdverseEvent/f1bba735-cc22-4a92-a080-e386e42ea0bb",
    "resource": {
      "resourceType": "AdverseEvent",
      "id": "f1bba735-cc22-4a92-a080-e386e42ea0bb",
      "meta": {
        "profile": [ "http://hl7.org/fhir/us/qicore/StructureDefinition/qicore-adverseevent" ]
      },
      "actuality": "actual",
      "event": {
        "coding": [ {
          "system": "http://hl7.org/fhir/sid/icd-10-cm",
          "code": "W01.0XXA"
        } ]
      },
      "subject": {
        "reference": "Patient/7c4f1e55-2462-45e5-9062-5cf8d04b40e2"
      },
      "date": "2026-11-10T08:00:00+00:00"
    },
    "request": {
      "method": "PUT",
      "url": "AdverseEvent/f1bba735-cc22-4a92-a080-e386e42ea0bb"
    }
  }, {
    "fullUrl": "https://madie.cms.gov/MeasureReport/ceb089a4-6013-457a-9235-5adfb3dd84ad",
    "resource": {
      "resourceType": "MeasureReport",
      "id": "ceb089a4-6013-457a-9235-5adfb3dd84ad",
      "meta": {
        "profile": [ "http://hl7.org/fhir/us/cqfmeasures/StructureDefinition/test-case-cqfm" ]
      },
      "contained": [ {
        "resourceType": "Parameters",
        "id": "1a3d2dba-070b-4a99-b104-357e9234b8c5-parameters",
        "parameter": [ {
          "name": "subject",
          "valueString": "7c4f1e55-2462-45e5-9062-5cf8d04b40e2"
        } ]
      } ],
      "extension": [ {
        "url": "http://hl7.org/fhir/us/cqfmeasures/StructureDefinition/cqfm-inputParameters",
        "valueReference": {
          "reference": "#1a3d2dba-070b-4a99-b104-357e9234b8c5-parameters"
        }
      }, {
        "url": "http://hl7.org/fhir/us/cqfmeasures/StructureDefinition/cqfm-testCaseDescription",
        "valueMarkdown": "First Encounter has Adverse Event Fall + Mod injury diag NPOA. \nSecond encounter has Adverse Event Fall + Mod injury diag POA so does not meet num. Injury diag must be NPOA."
      } ],
      "modifierExtension": [ {
        "url": "http://hl7.org/fhir/us/cqfmeasures/StructureDefinition/cqfm-isTestCase",
        "valueBoolean": true
      } ],
      "status": "complete",
      "type": "individual",
      "measure": "https://madie.cms.gov/Measure/FallsWithInjuryFHIR",
      "period": {
        "start": "2026-01-01",
        "end": "2026-12-31"
      },
      "group": [ {
        "population": [ {
          "code": {
            "coding": [ {
              "system": "http://terminology.hl7.org/CodeSystem/measure-population",
              "code": "initial-population",
              "display": "Initial Population"
            } ]
          },
          "count": 2
        }, {
          "code": {
            "coding": [ {
              "system": "http://terminology.hl7.org/CodeSystem/measure-population",
              "code": "denominator",
              "display": "Denominator"
            } ]
          },
          "count": 2
        }, {
          "code": {
            "coding": [ {
              "system": "http://terminology.hl7.org/CodeSystem/measure-population",
              "code": "denominator-exclusion",
              "display": "Denominator Exclusion"
            } ]
          },
          "count": 0
        }, {
          "code": {
            "coding": [ {
              "system": "http://terminology.hl7.org/CodeSystem/measure-population",
              "code": "numerator",
              "display": "Numerator"
            } ]
          },
          "count": 1
        }, {
          "code": {
            "coding": [ {
              "system": "http://terminology.hl7.org/CodeSystem/measure-population",
              "code": "numerator-exclusion",
              "display": "Numerator Exclusion"
            } ]
          },
          "count": 0
        }, {
          "code": {
            "coding": [ {
              "system": "http://terminology.hl7.org/CodeSystem/measure-population",
              "code": "denominator-observation",
              "display": "DenominatorObservation"
            } ]
          },
          "count": 4
        }, {
          "code": {
            "coding": [ {
              "system": "http://terminology.hl7.org/CodeSystem/measure-population",
              "code": "denominator-observation",
              "display": "DenominatorObservation"
            } ]
          },
          "count": 3
        }, {
          "code": {
            "coding": [ {
              "system": "http://terminology.hl7.org/CodeSystem/measure-population",
              "code": "numerator-observation",
              "display": "Numerator Observation"
            } ]
          },
          "count": 1
        } ]
      } ],
      "evaluatedResource": [ {
        "reference": "Encounter/b58c5f11-2e4c-45c2-8208-abc45d8d4af0"
      }, {
        "reference": "Encounter/4f4e62be-ef67-48b2-a194-8d8a309469fe"
      }, {
        "reference": "Encounter/2b15222a-5017-4046-b25b-0961032b58f4"
      }, {
        "reference": "Condition/9fb1079c-16e6-4185-a857-b66b56672532"
      }, {
        "reference": "Condition/5b81c86f-1170-421e-87ea-d322877b15c3"
      }, {
        "reference": "Patient/7c4f1e55-2462-45e5-9062-5cf8d04b40e2"
      }, {
        "reference": "AdverseEvent/c5599795-89cb-41eb-9a49-9cf3332f57ff"
      }, {
        "reference": "AdverseEvent/f1bba735-cc22-4a92-a080-e386e42ea0bb"
      } ]
    },
    "request": {
      "method": "PUT",
      "url": "MeasureReport/ceb089a4-6013-457a-9235-5adfb3dd84ad"
    }
  } ]
}