{"resourceType":"Bundle","id":"tests-2dc3e469-a1c6-4419-aecc-72e75dc8507b-bundle","type":"transaction","entry":[{"fullUrl":"https://madie.cms.gov/Patient/2dc3e469-a1c6-4419-aecc-72e75dc8507b","resource":{"resourceType":"Patient","id":"2dc3e469-a1c6-4419-aecc-72e75dc8507b","meta":{"profile":["http://hl7.org/fhir/us/qicore/StructureDefinition/qicore-patient"]},"text":{"status":"generated","div":"<div xmlns=\"http://www.w3.org/1999/xhtml\"><div class=\"hapiHeaderText\">LCG3ENC <b>DENEXPASS3 </b></div><table class=\"hapiPropertyTable\"><tbody><tr><td>Date of birth</td><td><span>09 February 1949</span></td></tr></tbody></table></div>"},"extension":[{"url":"http://hl7.org/fhir/us/core/StructureDefinition/us-core-race","extension":[{"url":"ombCategory","valueCoding":{"system":"urn:oid:2.16.840.1.113883.6.238","code":"2106-3","display":"White","userSelected":true}},{"url":"text","valueString":"White"}]},{"url":"http://hl7.org/fhir/us/core/StructureDefinition/us-core-ethnicity","extension":[{"url":"ombCategory","valueCoding":{"system":"urn:oid:2.16.840.1.113883.6.238","code":"2186-5","display":"Not Hispanic or Latino","userSelected":true}},{"url":"text","valueString":"Not Hispanic or Latino"}]}],"identifier":[{"type":{"coding":[{"system":"http://terminology.hl7.org/CodeSystem/v2-0203","code":"MR"}]},"system":"https://bonnie-fhir.healthit.gov/","value":"60f82c3098086b570510e2ce"}],"active":true,"name":[{"use":"usual","family":"DENEXPass3","given":["LCG3ENC"]}],"gender":"male","birthDate":"1949-02-09"},"request":{"method":"PUT","url":"Patient/2dc3e469-a1c6-4419-aecc-72e75dc8507b"}},{"fullUrl":"https://madie.cms.gov/Condition/5e444de83afe5d000044c85a","resource":{"resourceType":"Condition","id":"f7457054-d5f2-45cb-b311-54f17b86f0e9","meta":{"profile":["http://hl7.org/fhir/us/qicore/StructureDefinition/qicore-condition"]},"clinicalStatus":{"coding":[{"system":"http://terminology.hl7.org/CodeSystem/condition-clinical","code":"inactive","display":"Inactive","userSelected":true}]},"verificationStatus":{"coding":[{"system":"http://terminology.hl7.org/CodeSystem/condition-ver-status","code":"confirmed","display":"confirmed","userSelected":true}]},"category":[{"coding":[{"system":"http://terminology.hl7.org/CodeSystem/condition-category","code":"encounter-diagnosis","display":"Encounter Diagnosis"}]}],"code":{"coding":[{"system":"http://hl7.org/fhir/sid/icd-10-cm","code":"Z92.82"}]},"subject":{"reference":"Patient/2dc3e469-a1c6-4419-aecc-72e75dc8507b"},"onsetDateTime":"2025-03-11T09:00:00+00:00","abatementDateTime":"2025-04-01T08:15:00+00:00","recordedDate":"2025-03-11T09:00:00+00:00"},"request":{"method":"PUT","url":"Condition/f7457054-d5f2-45cb-b311-54f17b86f0e9"}},{"fullUrl":"https://madie.cms.gov/Encounter/5e444b753afe5d000044c598","resource":{"resourceType":"Encounter","id":"132dbfe7-00db-4b0c-82bb-d3a0c348a1f3","meta":{"profile":["http://hl7.org/fhir/us/qicore/StructureDefinition/qicore-encounter"]},"status":"finished","class":{"system":"http://terminology.hl7.org/CodeSystem/v3-ActCode","code":"EMER","display":"emergency"},"type":[{"coding":[{"system":"http://snomed.info/sct","code":"4525004"}]}],"subject":{"reference":"Patient/2dc3e469-a1c6-4419-aecc-72e75dc8507b"},"period":{"start":"2025-02-12T08:00:00+00:00","end":"2025-02-12T20:15:00+00:00"},"diagnosis":[{"condition":{"reference":"Condition/ischemic-stroke-7d3c"},"use":{"coding":[{"system":"http://snomed.info/sct","code":"52201006","display":"Internal capsule hemorrhage (disorder)"}]}}]},"request":{"method":"PUT","url":"Encounter/132dbfe7-00db-4b0c-82bb-d3a0c348a1f3"}},{"fullUrl":"https://madie.cms.gov/Encounter/5e444bb53afe5d000044c5b7","resource":{"resourceType":"Encounter","id":"c6ba48dc-4b00-4007-8c53-7f982c23e754","meta":{"profile":["http://hl7.org/fhir/us/qicore/StructureDefinition/qicore-encounter"]},"status":"finished","class":{"system":"http://terminology.hl7.org/CodeSystem/v3-ActCode","code":"IMP","display":"inpatient encounter"},"type":[{"coding":[{"system":"http://snomed.info/sct","code":"183452005"}]}],"subject":{"reference":"Patient/2dc3e469-a1c6-4419-aecc-72e75dc8507b"},"period":{"start":"2025-03-01T05:00:00+00:00","end":"2025-03-01T11:15:00+00:00"},"diagnosis":[{"condition":{"reference":"Condition/ischemic-stroke-7d3a"},"use":{"coding":[{"system":"http://terminology.hl7.org/CodeSystem/diagnosis-role","code":"billing","display":"Billing"}]},"rank":1}]},"request":{"method":"PUT","url":"Encounter/c6ba48dc-4b00-4007-8c53-7f982c23e754"}},{"fullUrl":"https://madie.cms.gov/Encounter/5e444ccb3afe5d000044c65b","resource":{"resourceType":"Encounter","id":"bc4350db-f92f-4b0d-98e8-7c86f1c60c88","meta":{"profile":["http://hl7.org/fhir/us/qicore/StructureDefinition/qicore-encounter"]},"status":"finished","class":{"system":"http://terminology.hl7.org/CodeSystem/v3-ActCode","code":"OBSENC","display":"observation encounter"},"type":[{"coding":[{"system":"http://snomed.info/sct","code":"448851000124103"}]}],"subject":{"reference":"Patient/2dc3e469-a1c6-4419-aecc-72e75dc8507b"},"period":{"start":"2025-03-01T13:00:00+00:00","end":"2025-03-01T23:15:00+00:00"}},"request":{"method":"PUT","url":"Encounter/bc4350db-f92f-4b0d-98e8-7c86f1c60c88"}},{"fullUrl":"https://madie.cms.gov/Encounter/5e444ce03afe5d000044c684","resource":{"resourceType":"Encounter","id":"19fcb950-93db-4024-9d28-fd0806beb315","meta":{"profile":["http://hl7.org/fhir/us/qicore/StructureDefinition/qicore-encounter"]},"status":"finished","class":{"system":"http://terminology.hl7.org/CodeSystem/v3-ActCode","code":"IMP","display":"inpatient encounter"},"type":[{"coding":[{"system":"http://snomed.info/sct","code":"183452005"}]}],"subject":{"reference":"Patient/2dc3e469-a1c6-4419-aecc-72e75dc8507b"},"period":{"start":"2025-03-02T13:00:00+00:00","end":"2025-03-09T11:15:00+00:00"},"diagnosis":[{"condition":{"reference":"Condition/ischemic-stroke-7d3b"}}]},"request":{"method":"PUT","url":"Encounter/19fcb950-93db-4024-9d28-fd0806beb315"}},{"fullUrl":"https://madie.cms.gov/Encounter/5e444d2a3afe5d000044c6f1","resource":{"resourceType":"Encounter","id":"9fb69a1a-8dd7-4b01-9999-e7005e38c85f","meta":{"profile":["http://hl7.org/fhir/us/qicore/StructureDefinition/qicore-encounter"]},"status":"finished","class":{"system":"http://terminology.hl7.org/CodeSystem/v3-ActCode","code":"EMER","display":"emergency"},"type":[{"coding":[{"system":"http://snomed.info/sct","code":"4525004"}]}],"subject":{"reference":"Patient/2dc3e469-a1c6-4419-aecc-72e75dc8507b"},"period":{"start":"2025-03-11T08:00:00.000+00:00","end":"2025-03-11T08:15:00.000+00:00"},"diagnosis":[{"condition":{"reference":"Condition/ischemic-stroke-7d3c"},"use":{"coding":[{"system":"http://terminology.hl7.org/CodeSystem/diagnosis-role","code":"billing","display":"Billing"}]},"rank":1}]},"request":{"method":"PUT","url":"Encounter/9fb69a1a-8dd7-4b01-9999-e7005e38c85f"}},{"fullUrl":"https://madie.cms.gov/Encounter/5e444d703afe5d000044c78c","resource":{"resourceType":"Encounter","id":"02508d36-5764-4958-b5e8-a48eca5249e4","meta":{"profile":["http://hl7.org/fhir/us/qicore/StructureDefinition/qicore-encounter"]},"status":"finished","class":{"system":"http://terminology.hl7.org/CodeSystem/v3-ActCode","code":"IMP","display":"inpatient encounter"},"type":[{"coding":[{"system":"http://snomed.info/sct","code":"183452005"}]}],"subject":{"reference":"Patient/2dc3e469-a1c6-4419-aecc-72e75dc8507b"},"period":{"start":"2025-03-11T09:00:00+00:00","end":"2025-04-01T08:15:00+00:00"},"diagnosis":[{"condition":{"reference":"Condition/ischemic-stroke-7d3d"},"use":{"coding":[{"system":"http://terminology.hl7.org/CodeSystem/diagnosis-role","code":"billing","display":"Billing"}]},"rank":1}],"hospitalization":{"dischargeDisposition":{"coding":[{"system":"http://snomed.info/sct","code":"428371000124100","display":"Discharge to healthcare facility for hospice care (procedure)"}]}}},"request":{"method":"PUT","url":"Encounter/02508d36-5764-4958-b5e8-a48eca5249e4"}},{"fullUrl":"https://madie.cms.gov/Encounter/5e444e8c3afe5d000044c8f1","resource":{"resourceType":"Encounter","id":"45bd1f03-e26a-4eab-905e-9423d13ef92a","meta":{"profile":["http://hl7.org/fhir/us/qicore/StructureDefinition/qicore-encounter"]},"status":"finished","class":{"system":"http://terminology.hl7.org/CodeSystem/v3-ActCode","code":"IMP","display":"inpatient encounter"},"type":[{"coding":[{"system":"http://snomed.info/sct","code":"183452005"}]}],"subject":{"reference":"Patient/2dc3e469-a1c6-4419-aecc-72e75dc8507b"},"period":{"start":"2025-04-02T08:00:00+00:00","end":"2025-04-02T08:15:00+00:00"},"diagnosis":[{"condition":{"reference":"Condition/ischemic-stroke-7d3c"},"use":{"coding":[{"system":"http://terminology.hl7.org/CodeSystem/diagnosis-role","code":"billing","display":"Billing"}]},"rank":1}]},"request":{"method":"PUT","url":"Encounter/45bd1f03-e26a-4eab-905e-9423d13ef92a"}},{"fullUrl":"https://madie.cms.gov/ServiceRequest/5e444d1f3afe5d000044c6df","resource":{"resourceType":"ServiceRequest","id":"2f2d2ec6-01eb-4a8b-a46a-8f1acc4f5b36","meta":{"profile":["http://hl7.org/fhir/us/qicore/StructureDefinition/qicore-servicerequest"]},"status":"active","intent":"order","code":{"coding":[{"system":"http://snomed.info/sct","code":"133918004"}]},"subject":{"reference":"Patient/2dc3e469-a1c6-4419-aecc-72e75dc8507b"},"authoredOn":"2025-03-02T13:00:00+00:00"},"request":{"method":"PUT","url":"ServiceRequest/2f2d2ec6-01eb-4a8b-a46a-8f1acc4f5b36"}},{"fullUrl":"https://madie.cms.gov/Observation/5e444bf63afe5d000044c5f7","resource":{"resourceType":"Observation","id":"4adc888c-759c-4406-9dc3-b8cf177f9c96","meta":{"profile":["http://hl7.org/fhir/us/qicore/StructureDefinition/qicore-observation"]},"status":"final","category":[{"coding":[{"system":"http://terminology.hl7.org/CodeSystem/observation-category","code":"laboratory","display":"Laboratory"}]}],"code":{"coding":[{"system":"http://loinc.org","code":"34714-6"}]},"subject":{"reference":"Patient/2dc3e469-a1c6-4419-aecc-72e75dc8507b"},"effectivePeriod":{"start":"2025-03-01T05:00:00+00:00","end":"2025-03-01T11:15:00+00:00"},"issued":"2025-03-01T05:00:00.000+00:00","valueQuantity":{"value":2.5}},"request":{"method":"PUT","url":"Observation/4adc888c-759c-4406-9dc3-b8cf177f9c96"}},{"fullUrl":"https://madie.cms.gov/Observation/5e444dc33afe5d000044c832","resource":{"resourceType":"Observation","id":"0f8402e5-33dc-401a-8904-ea845cea2e60","meta":{"profile":["http://hl7.org/fhir/us/qicore/StructureDefinition/qicore-observation"]},"status":"final","category":[{"coding":[{"system":"http://terminology.hl7.org/CodeSystem/observation-category","code":"laboratory","display":"Laboratory"}]}],"code":{"coding":[{"system":"http://loinc.org","code":"34714-6"}]},"subject":{"reference":"Patient/2dc3e469-a1c6-4419-aecc-72e75dc8507b"},"effectivePeriod":{"start":"2025-03-11T09:00:00+00:00","end":"2025-04-01T08:15:00+00:00"},"issued":"2025-03-11T09:00:00.000+00:00","valueQuantity":{"value":3.3}},"request":{"method":"PUT","url":"Observation/0f8402e5-33dc-401a-8904-ea845cea2e60"}},{"fullUrl":"https://madie.cms.gov/Observation/5e444eb23afe5d000044c968","resource":{"resourceType":"Observation","id":"56b662fe-acdb-4799-ac0c-750b44a8c054","meta":{"profile":["http://hl7.org/fhir/us/qicore/StructureDefinition/qicore-observation"]},"status":"final","category":[{"coding":[{"system":"http://terminology.hl7.org/CodeSystem/observation-category","code":"laboratory","display":"Laboratory"}]}],"code":{"coding":[{"system":"http://loinc.org","code":"34714-6"}]},"subject":{"reference":"Patient/2dc3e469-a1c6-4419-aecc-72e75dc8507b"},"effectivePeriod":{"start":"2025-04-02T08:00:00+00:00","end":"2025-04-02T08:15:00+00:00"},"issued":"2025-04-02T08:00:00.000+00:00","valueQuantity":{"value":3.49}},"request":{"method":"PUT","url":"Observation/56b662fe-acdb-4799-ac0c-750b44a8c054"}},{"fullUrl":"https://madie.cms.gov/MedicationAdministration/5e444c933afe5d000044c61a","resource":{"resourceType":"MedicationAdministration","id":"33f04aa5-d61b-49b3-839b-da4f98ebaac5","meta":{"profile":["http://hl7.org/fhir/us/qicore/StructureDefinition/qicore-medicationadministration"]},"extension":[{"url":"http://hl7.org/fhir/us/qicore/StructureDefinition/qicore-recorded","valueDateTime":"2025-03-01T05:00:00+00:00"}],"status":"completed","medicationCodeableConcept":{"coding":[{"system":"http://www.nlm.nih.gov/research/umls/rxnorm","code":"1804799"}]},"subject":{"reference":"Patient/2dc3e469-a1c6-4419-aecc-72e75dc8507b"},"effectivePeriod":{"start":"2025-03-01T05:00:00+00:00","end":"2025-03-01T11:15:00+00:00"}},"request":{"method":"PUT","url":"MedicationAdministration/33f04aa5-d61b-49b3-839b-da4f98ebaac5"}},{"fullUrl":"https://madie.cms.gov/MedicationAdministration/5e444cfe3afe5d000044c6ce","resource":{"resourceType":"MedicationAdministration","id":"ee88edcd-6604-4472-9066-271c06ba1933","meta":{"profile":["http://hl7.org/fhir/us/qicore/StructureDefinition/qicore-medicationadministration"]},"extension":[{"url":"http://hl7.org/fhir/us/qicore/StructureDefinition/qicore-recorded","valueDateTime":"2025-03-02T13:00:00+00:00"}],"status":"completed","medicationCodeableConcept":{"coding":[{"system":"http://www.nlm.nih.gov/research/umls/rxnorm","code":"1037045"}]},"subject":{"reference":"Patient/2dc3e469-a1c6-4419-aecc-72e75dc8507b"},"effectivePeriod":{"start":"2025-03-02T13:00:00+00:00","end":"2025-03-02T23:15:00+00:00"}},"request":{"method":"PUT","url":"MedicationAdministration/ee88edcd-6604-4472-9066-271c06ba1933"}},{"fullUrl":"https://madie.cms.gov/MedicationAdministration/5e444df03afe5d000044c886","resource":{"resourceType":"MedicationAdministration","id":"e58bcd61-1498-4c23-ab76-b1fda3f0326b","meta":{"profile":["http://hl7.org/fhir/us/qicore/StructureDefinition/qicore-medicationadministration"]},"extension":[{"url":"http://hl7.org/fhir/us/qicore/StructureDefinition/qicore-recorded","valueDateTime":"2025-03-11T09:00:00+00:00"}],"status":"completed","medicationCodeableConcept":{"coding":[{"system":"http://www.nlm.nih.gov/research/umls/rxnorm","code":"1037045"}]},"subject":{"reference":"Patient/2dc3e469-a1c6-4419-aecc-72e75dc8507b"},"effectivePeriod":{"start":"2025-03-11T09:00:00+00:00","end":"2025-04-01T08:15:00+00:00"}},"request":{"method":"PUT","url":"MedicationAdministration/e58bcd61-1498-4c23-ab76-b1fda3f0326b"}},{"fullUrl":"https://madie.cms.gov/MedicationAdministration/5e444ed13afe5d000044c998","resource":{"resourceType":"MedicationAdministration","id":"b2da320e-38b1-447f-985a-5fa30086ada8","meta":{"profile":["http://hl7.org/fhir/us/qicore/StructureDefinition/qicore-medicationadministration"]},"extension":[{"url":"http://hl7.org/fhir/us/qicore/StructureDefinition/qicore-recorded","valueDateTime":"2025-04-02T08:00:00+00:00"}],"status":"not-done","statusReason":[{"coding":[{"system":"http://snomed.info/sct","code":"105480006","display":"Refusal of treatment by patient (situation)"}]}],"medicationCodeableConcept":{"coding":[{"system":"http://www.nlm.nih.gov/research/umls/rxnorm","code":"1116635"}]},"subject":{"reference":"Patient/2dc3e469-a1c6-4419-aecc-72e75dc8507b"},"effectivePeriod":{"start":"2025-04-02T08:00:00+00:00","end":"2025-04-02T08:15:00+00:00"}},"request":{"method":"PUT","url":"MedicationAdministration/b2da320e-38b1-447f-985a-5fa30086ada8"}},{"fullUrl":"https://madie.cms.gov/MedicationAdministration/5e444eff3afe5d000044ca5e","resource":{"resourceType":"MedicationAdministration","id":"9b172b4e-07b7-4c8f-8a5f-c47303c4cc66","meta":{"profile":["http://hl7.org/fhir/us/qicore/StructureDefinition/qicore-medicationadministration"]},"extension":[{"url":"http://hl7.org/fhir/us/qicore/StructureDefinition/qicore-recorded","valueDateTime":"2025-04-02T08:00:00+00:00"}],"status":"completed","medicationCodeableConcept":{"coding":[{"system":"http://www.nlm.nih.gov/research/umls/rxnorm","code":"1037045"}]},"subject":{"reference":"Patient/2dc3e469-a1c6-4419-aecc-72e75dc8507b"},"effectivePeriod":{"start":"2025-04-02T08:00:00+00:00","end":"2025-04-02T08:15:00+00:00"}},"request":{"method":"PUT","url":"MedicationAdministration/9b172b4e-07b7-4c8f-8a5f-c47303c4cc66"}},{"fullUrl":"https://madie.cms.gov/MedicationRequest/5e444cfb3afe5d000044c6be","resource":{"resourceType":"MedicationRequest","id":"9c8dd04b-7d18-48a5-9cca-29757047fe18","meta":{"profile":["http://hl7.org/fhir/us/qicore/StructureDefinition/qicore-medicationrequest"]},"status":"completed","intent":"order","medicationCodeableConcept":{"coding":[{"system":"http://www.nlm.nih.gov/research/umls/rxnorm","code":"1037045"}]},"subject":{"reference":"Patient/2dc3e469-a1c6-4419-aecc-72e75dc8507b"},"authoredOn":"2025-03-02T08:00:00+00:00","requester":{"reference":"Practitioner/example"},"dosageInstruction":[{"timing":{"repeat":{"boundsPeriod":{"start":"2025-03-02T13:00:00+00:00","end":"2025-03-02T23:15:00+00:00"}}}}]},"request":{"method":"PUT","url":"MedicationRequest/9c8dd04b-7d18-48a5-9cca-29757047fe18"}},{"fullUrl":"https://madie.cms.gov/MedicationRequest/5e444ded3afe5d000044c870","resource":{"resourceType":"MedicationRequest","id":"b9414b5b-1411-46ea-9738-137e828fe18d","meta":{"profile":["http://hl7.org/fhir/us/qicore/StructureDefinition/qicore-medicationrequest"]},"status":"completed","intent":"order","medicationCodeableConcept":{"coding":[{"system":"http://www.nlm.nih.gov/research/umls/rxnorm","code":"1037045"}]},"subject":{"reference":"Patient/2dc3e469-a1c6-4419-aecc-72e75dc8507b"},"authoredOn":"2025-03-11T09:00:00+00:00","requester":{"reference":"Practitioner/example"},"dosageInstruction":[{"timing":{"repeat":{"boundsPeriod":{"start":"2025-03-11T09:00:00+00:00","end":"2025-04-01T08:15:00+00:00"}}}}]},"request":{"method":"PUT","url":"MedicationRequest/b9414b5b-1411-46ea-9738-137e828fe18d"}},{"fullUrl":"https://madie.cms.gov/MedicationRequest/5e444eed3afe5d000044c9fa","resource":{"resourceType":"MedicationRequest","id":"f24ab646-007a-4255-a825-351084b7508f","meta":{"profile":["http://hl7.org/fhir/us/qicore/StructureDefinition/qicore-medicationrequest"]},"status":"active","intent":"order","medicationCodeableConcept":{"coding":[{"system":"http://www.nlm.nih.gov/research/umls/rxnorm","code":"1037045"}]},"subject":{"reference":"Patient/2dc3e469-a1c6-4419-aecc-72e75dc8507b"},"authoredOn":"2025-04-02T08:00:00+00:00","requester":{"reference":"Practitioner/example"},"dosageInstruction":[{"timing":{"repeat":{"boundsPeriod":{"start":"2025-04-02T08:00:00+00:00","end":"2025-04-02T08:15:00+00:00"}}}}]},"request":{"method":"PUT","url":"MedicationRequest/f24ab646-007a-4255-a825-351084b7508f"}},{"fullUrl":"https://madie.cms.gov/Condition/ischemic-stroke-7d3a","resource":{"resourceType":"Condition","id":"73b5003d-820e-4872-901c-a2d3cd5b0dba","meta":{"profile":["http://hl7.org/fhir/us/qicore/StructureDefinition/qicore-condition"]},"clinicalStatus":{"coding":[{"system":"http://terminology.hl7.org/CodeSystem/condition-clinical","code":"active"}]},"verificationStatus":{"coding":[{"system":"http://terminology.hl7.org/CodeSystem/condition-ver-status","code":"confirmed"}]},"category":[{"coding":[{"system":"http://terminology.hl7.org/CodeSystem/condition-category","code":"encounter-diagnosis","display":"Encounter Diagnosis"}]}],"code":{"coding":[{"system":"http://snomed.info/sct","version":"2020-09","code":"111297002","display":"Nonparalytic stroke (disorder)","userSelected":true}]},"subject":{"reference":"Patient/2dc3e469-a1c6-4419-aecc-72e75dc8507b"},"recordedDate":"2025-08-16T08:00:00.000+00:00"},"request":{"method":"PUT","url":"Condition/73b5003d-820e-4872-901c-a2d3cd5b0dba"}},{"fullUrl":"https://madie.cms.gov/Condition/ischemic-stroke-7d3b","resource":{"resourceType":"Condition","id":"f8061606-9e8b-477b-9911-2e1642c85631","meta":{"profile":["http://hl7.org/fhir/us/qicore/StructureDefinition/qicore-condition"]},"clinicalStatus":{"coding":[{"system":"http://terminology.hl7.org/CodeSystem/condition-clinical","code":"active"}]},"verificationStatus":{"coding":[{"system":"http://terminology.hl7.org/CodeSystem/condition-ver-status","code":"confirmed"}]},"category":[{"coding":[{"system":"http://terminology.hl7.org/CodeSystem/condition-category","code":"encounter-diagnosis","display":"Encounter Diagnosis"}]}],"code":{"coding":[{"system":"http://snomed.info/sct","version":"2020-09","code":"111297002","display":"Nonparalytic stroke (disorder)","userSelected":true}]},"subject":{"reference":"Patient/2dc3e469-a1c6-4419-aecc-72e75dc8507b"},"recordedDate":"2025-08-16T08:00:00.000+00:00"},"request":{"method":"PUT","url":"Condition/f8061606-9e8b-477b-9911-2e1642c85631"}},{"fullUrl":"https://madie.cms.gov/Condition/ischemic-stroke-7d3c","resource":{"resourceType":"Condition","id":"67ea8282-b3a7-4407-ad10-0b64a30fa7a3","meta":{"profile":["http://hl7.org/fhir/us/qicore/StructureDefinition/qicore-condition"]},"clinicalStatus":{"coding":[{"system":"http://terminology.hl7.org/CodeSystem/condition-clinical","code":"active"}]},"verificationStatus":{"coding":[{"system":"http://terminology.hl7.org/CodeSystem/condition-ver-status","code":"confirmed"}]},"category":[{"coding":[{"system":"http://terminology.hl7.org/CodeSystem/condition-category","code":"encounter-diagnosis","display":"Encounter Diagnosis"}]}],"code":{"coding":[{"system":"http://snomed.info/sct","version":"2020-09","code":"111297002","display":"Nonparalytic stroke (disorder)","userSelected":true}]},"subject":{"reference":"Patient/2dc3e469-a1c6-4419-aecc-72e75dc8507b"},"recordedDate":"2025-08-16T08:00:00.000+00:00"},"request":{"method":"PUT","url":"Condition/67ea8282-b3a7-4407-ad10-0b64a30fa7a3"}},{"fullUrl":"https://madie.cms.gov/Condition/ischemic-stroke-7d3d","resource":{"resourceType":"Condition","id":"c641dc2b-1748-4085-9fcd-1771ca78145e","meta":{"profile":["http://hl7.org/fhir/us/qicore/StructureDefinition/qicore-condition"]},"clinicalStatus":{"coding":[{"system":"http://terminology.hl7.org/CodeSystem/condition-clinical","code":"active"}]},"verificationStatus":{"coding":[{"system":"http://terminology.hl7.org/CodeSystem/condition-ver-status","code":"confirmed"}]},"category":[{"coding":[{"system":"http://terminology.hl7.org/CodeSystem/condition-category","code":"encounter-diagnosis","display":"Encounter Diagnosis"}]}],"code":{"coding":[{"system":"http://snomed.info/sct","version":"2020-09","code":"111297002","display":"Nonparalytic stroke (disorder)","userSelected":true}]},"subject":{"reference":"Patient/2dc3e469-a1c6-4419-aecc-72e75dc8507b"},"recordedDate":"2025-08-16T08:00:00.000+00:00"},"request":{"method":"PUT","url":"Condition/c641dc2b-1748-4085-9fcd-1771ca78145e"}},{"fullUrl":"https://madie.cms.gov/Coverage/1","resource":{"resourceType":"Coverage","id":"23dfc9a9-e9f5-4c3c-be94-4f96ae29c2db","meta":{"profile":["http://hl7.org/fhir/us/qicore/StructureDefinition/qicore-coverage"]},"status":"active","beneficiary":{"reference":"Patient/2dc3e469-a1c6-4419-aecc-72e75dc8507b"},"payor":[{"reference":"Organization/024e2731-b045-43bf-80d2-684774c5b51c"}]},"request":{"method":"PUT","url":"Coverage/23dfc9a9-e9f5-4c3c-be94-4f96ae29c2db"}},{"fullUrl":"https://madie.cms.gov/Organization/123456","resource":{"resourceType":"Organization","id":"024e2731-b045-43bf-80d2-684774c5b51c","meta":{"profile":["http://hl7.org/fhir/us/qicore/StructureDefinition/qicore-organization"]},"identifier":[{"use":"temp","system":"urn:oid:2.16.840.1.113883.4.4","value":"21-3259825"}],"active":true,"type":[{"coding":[{"system":"http://terminology.hl7.org/CodeSystem/organization-type","code":"pay","display":"Payer"}]}],"name":"Blue Cross Blue Shield of Texas","telecom":[{"system":"phone","value":"(+1) 972-766-6900"}],"address":[{"use":"billing","type":"postal","line":["P.O. Box 660044"],"city":"Dallas","state":"TX","postalCode":"75266-0044","country":"USA"}]},"request":{"method":"PUT","url":"Organization/024e2731-b045-43bf-80d2-684774c5b51c"}},{"fullUrl":"https://madie.cms.gov/Practitioner/practitioner-123456","resource":{"resourceType":"Practitioner","id":"9071fe41-f9e6-47cd-b9bc-d46661483e14","identifier":[{"system":"http://hl7.org/fhir/sid/us-npi","value":"123456"}],"name":[{"family":"Evil","prefix":["Dr"]}]},"request":{"method":"PUT","url":"Practitioner/9071fe41-f9e6-47cd-b9bc-d46661483e14"}},{"fullUrl":"https://madie.cms.gov/MeasureReport/4af14141-5817-4dff-b34d-b427371c6a34","resource":{"resourceType":"MeasureReport","id":"4af14141-5817-4dff-b34d-b427371c6a34","meta":{"profile":["http://hl7.org/fhir/us/cqfmeasures/StructureDefinition/test-case-cqfm"]},"contained":[{"resourceType":"Parameters","id":"4e29d532-ea53-450e-9a8c-b96832ebd170-parameters","parameter":[{"name":"subject","valueString":"2dc3e469-a1c6-4419-aecc-72e75dc8507b"}]}],"extension":[{"url":"http://hl7.org/fhir/us/cqfmeasures/StructureDefinition/cqfm-inputParameters","valueReference":{"reference":"#4e29d532-ea53-450e-9a8c-b96832ebd170-parameters"}},{"url":"http://hl7.org/fhir/us/cqfmeasures/StructureDefinition/cqfm-testCaseDescription","valueMarkdown":"Multiple encounter testing\n"}],"modifierExtension":[{"url":"http://hl7.org/fhir/us/cqfmeasures/StructureDefinition/cqfm-isTestCase","valueBoolean":true}],"status":"complete","type":"individual","measure":"https://madie.cms.gov/Measure/AntithromboticTherapyByEndofHospitalDay2FHIR","period":{"start":"2025-01-01","end":"2025-12-31"},"group":[{"population":[{"code":{"coding":[{"system":"http://terminology.hl7.org/CodeSystem/measure-population","code":"initial-population","display":"Initial Population"}]},"count":3},{"code":{"coding":[{"system":"http://terminology.hl7.org/CodeSystem/measure-population","code":"denominator","display":"Denominator"}]},"count":3},{"code":{"coding":[{"system":"http://terminology.hl7.org/CodeSystem/measure-population","code":"denominator-exclusion","display":"Denominator Exclusion"}]},"count":2},{"code":{"coding":[{"system":"http://terminology.hl7.org/CodeSystem/measure-population","code":"numerator","display":"Numerator"}]},"count":1},{"code":{"coding":[{"system":"http://terminology.hl7.org/CodeSystem/measure-population","code":"denominator-exception","display":"Denominator Exception"}]},"count":0}]}]},"request":{"method":"PUT","url":"MeasureReport/4af14141-5817-4dff-b34d-b427371c6a34"}}]}