{"resourceType":"Bundle","id":"tests-5a329008-fcc1-4168-ab9c-89cb5dd6ff32-bundle","type":"transaction","entry":[{"fullUrl":"https://madie.cms.gov/Patient/5a329008-fcc1-4168-ab9c-89cb5dd6ff32","resource":{"resourceType":"Patient","id":"5a329008-fcc1-4168-ab9c-89cb5dd6ff32","meta":{"profile":["http://hl7.org/fhir/us/qicore/StructureDefinition/qicore-patient"]},"text":{"status":"generated","div":"<div xmlns=\"http://www.w3.org/1999/xhtml\"><div class=\"hapiHeaderText\">LCG2Enc1WithAntithrombic1WithtPA <b>NUMER&amp;DENECEPPASS </b></div><table class=\"hapiPropertyTable\"><tbody><tr><td>Date of birth</td><td><span>06 April 1980</span></td></tr></tbody></table></div>"},"extension":[{"url":"http://hl7.org/fhir/us/core/StructureDefinition/us-core-race","extension":[{"url":"ombCategory","valueCoding":{"system":"urn:oid:2.16.840.1.113883.6.238","code":"2106-3","display":"White","userSelected":true}},{"url":"text","valueString":"White"}]},{"url":"http://hl7.org/fhir/us/core/StructureDefinition/us-core-ethnicity","extension":[{"url":"ombCategory","valueCoding":{"system":"urn:oid:2.16.840.1.113883.6.238","code":"2186-5","display":"Not Hispanic or Latino","userSelected":true}},{"url":"text","valueString":"Not Hispanic or Latino"}]}],"identifier":[{"type":{"coding":[{"system":"http://terminology.hl7.org/CodeSystem/v2-0203","code":"MR"}]},"system":"https://bonnie-fhir.healthit.gov/","value":"60f82c2f98086b570510e2cd"}],"active":true,"name":[{"use":"usual","family":"NUMER&DENECEPPass","given":["LCG2Enc1WithAntithrombic1WithtPA"]}],"gender":"male","birthDate":"1980-04-06"},"request":{"method":"PUT","url":"Patient/5a329008-fcc1-4168-ab9c-89cb5dd6ff32"}},{"fullUrl":"https://madie.cms.gov/Encounter/5e4432483afe5d000044c193","resource":{"resourceType":"Encounter","id":"db5072dd-9ebc-40e2-b10a-8f3b94572109","meta":{"profile":["http://hl7.org/fhir/us/qicore/StructureDefinition/qicore-encounter"]},"status":"finished","class":{"system":"http://terminology.hl7.org/CodeSystem/v3-ActCode","code":"EMER","display":"emergency"},"type":[{"coding":[{"system":"http://snomed.info/sct","code":"4525004"}]}],"subject":{"reference":"Patient/5a329008-fcc1-4168-ab9c-89cb5dd6ff32"},"period":{"start":"2025-04-02T08:00:00+00:00","end":"2025-04-02T22:15:00+00:00"},"diagnosis":[{"condition":{"reference":"Condition/ischemic-stroke-7d4f"},"use":{"coding":[{"system":"http://terminology.hl7.org/CodeSystem/diagnosis-role","code":"billing","display":"Billing"}]},"rank":1}]},"request":{"method":"PUT","url":"Encounter/db5072dd-9ebc-40e2-b10a-8f3b94572109"}},{"fullUrl":"https://madie.cms.gov/Encounter/5e44332d3afe5d000044c1fa","resource":{"resourceType":"Encounter","id":"537f6b18-2cd3-4bac-9622-8f0457d67995","meta":{"profile":["http://hl7.org/fhir/us/qicore/StructureDefinition/qicore-encounter"]},"status":"finished","class":{"system":"http://terminology.hl7.org/CodeSystem/v3-ActCode","code":"IMP","display":"inpatient encounter"},"type":[{"coding":[{"system":"http://snomed.info/sct","code":"183452005"}]}],"subject":{"reference":"Patient/5a329008-fcc1-4168-ab9c-89cb5dd6ff32"},"period":{"start":"2025-04-02T23:00:00+00:00","end":"2025-04-10T10:15:00+00:00"},"diagnosis":[{"condition":{"reference":"Condition/ischemic-stroke-7d4e"},"use":{"coding":[{"system":"http://terminology.hl7.org/CodeSystem/diagnosis-role","code":"billing","display":"Billing"}]},"rank":1}]},"request":{"method":"PUT","url":"Encounter/537f6b18-2cd3-4bac-9622-8f0457d67995"}},{"fullUrl":"https://madie.cms.gov/Encounter/5e4433a13afe5d000044c24d","resource":{"resourceType":"Encounter","id":"3420e59c-b3e8-403c-b5b0-7ecce2498753","meta":{"profile":["http://hl7.org/fhir/us/qicore/StructureDefinition/qicore-encounter"]},"status":"finished","class":{"system":"http://terminology.hl7.org/CodeSystem/v3-ActCode","code":"EMER","display":"emergency"},"type":[{"coding":[{"system":"http://snomed.info/sct","code":"4525004"}]}],"subject":{"reference":"Patient/5a329008-fcc1-4168-ab9c-89cb5dd6ff32"},"period":{"start":"2025-06-01T04:00:00+00:00","end":"2025-06-01T08:15:00+00:00"}},"request":{"method":"PUT","url":"Encounter/3420e59c-b3e8-403c-b5b0-7ecce2498753"}},{"fullUrl":"https://madie.cms.gov/Encounter/5e4433d43afe5d000044c297","resource":{"resourceType":"Encounter","id":"b106bdd9-4565-4acb-9a60-1971b87b0218","meta":{"profile":["http://hl7.org/fhir/us/qicore/StructureDefinition/qicore-encounter"]},"status":"finished","class":{"system":"http://terminology.hl7.org/CodeSystem/v3-ActCode","code":"OBSENC","display":"observation encounter"},"type":[{"coding":[{"system":"http://snomed.info/sct","code":"448851000124103"}]}],"subject":{"reference":"Patient/5a329008-fcc1-4168-ab9c-89cb5dd6ff32"},"period":{"start":"2025-06-01T09:00:00+00:00","end":"2025-06-01T23:15:00+00:00"}},"request":{"method":"PUT","url":"Encounter/b106bdd9-4565-4acb-9a60-1971b87b0218"}},{"fullUrl":"https://madie.cms.gov/Encounter/5e4434183afe5d000044c2e6","resource":{"resourceType":"Encounter","id":"8ef38194-062f-46da-b59d-592348b1d284","meta":{"profile":["http://hl7.org/fhir/us/qicore/StructureDefinition/qicore-encounter"]},"status":"finished","class":{"system":"http://terminology.hl7.org/CodeSystem/v3-ActCode","code":"IMP","display":"inpatient encounter"},"type":[{"coding":[{"system":"http://snomed.info/sct","code":"183452005"}]}],"subject":{"reference":"Patient/5a329008-fcc1-4168-ab9c-89cb5dd6ff32"},"period":{"start":"2025-06-02T00:00:00+00:00","end":"2025-06-15T11:15:00+00:00"},"diagnosis":[{"condition":{"reference":"Condition/ischemic-stroke-7d4f"},"use":{"coding":[{"system":"http://terminology.hl7.org/CodeSystem/diagnosis-role","code":"billing","display":"Billing"}]},"rank":1}]},"request":{"method":"PUT","url":"Encounter/8ef38194-062f-46da-b59d-592348b1d284"}},{"fullUrl":"https://madie.cms.gov/Observation/5e44327e3afe5d000044c1bd","resource":{"resourceType":"Observation","id":"19e8c547-07b9-4556-b8bb-09c676629df0","meta":{"profile":["http://hl7.org/fhir/us/qicore/StructureDefinition/qicore-observation"]},"status":"final","category":[{"coding":[{"system":"http://terminology.hl7.org/CodeSystem/observation-category","code":"laboratory","display":"Laboratory"}]}],"code":{"coding":[{"system":"http://loinc.org","code":"34714-6"}]},"subject":{"reference":"Patient/5a329008-fcc1-4168-ab9c-89cb5dd6ff32"},"effectivePeriod":{"start":"2025-04-02T08:00:00+00:00","end":"2025-04-02T22:15:00+00:00"},"issued":"2025-04-02T08:00:00.000+00:00","valueInteger":2},"request":{"method":"PUT","url":"Observation/19e8c547-07b9-4556-b8bb-09c676629df0"}},{"fullUrl":"https://madie.cms.gov/MedicationAdministration/5e4433873afe5d000044c23f","resource":{"resourceType":"MedicationAdministration","id":"246bdbf1-d4f4-4a74-90c1-cb226e118394","meta":{"profile":["http://hl7.org/fhir/us/qicore/StructureDefinition/qicore-medicationadministration"]},"extension":[{"url":"http://hl7.org/fhir/us/qicore/StructureDefinition/qicore-recorded","valueDateTime":"2025-04-02T23:00:00+00:00"}],"status":"completed","medicationCodeableConcept":{"coding":[{"system":"http://www.nlm.nih.gov/research/umls/rxnorm","code":"1037045"}]},"subject":{"reference":"Patient/5a329008-fcc1-4168-ab9c-89cb5dd6ff32"},"effectivePeriod":{"start":"2025-04-02T23:00:00+00:00","end":"2025-04-10T10:15:00+00:00"}},"request":{"method":"PUT","url":"MedicationAdministration/246bdbf1-d4f4-4a74-90c1-cb226e118394"}},{"fullUrl":"https://madie.cms.gov/MedicationAdministration/5e4434683afe5d000044c358","resource":{"resourceType":"MedicationAdministration","id":"c61893be-a3d4-4333-b10d-85cc12d05b15","meta":{"profile":["http://hl7.org/fhir/us/qicore/StructureDefinition/qicore-medicationadministration"]},"extension":[{"url":"http://hl7.org/fhir/us/qicore/StructureDefinition/qicore-recorded","valueDateTime":"2025-06-01T09:00:00+00:00"}],"status":"completed","medicationCodeableConcept":{"coding":[{"system":"http://www.nlm.nih.gov/research/umls/rxnorm","code":"1804799"}]},"subject":{"reference":"Patient/5a329008-fcc1-4168-ab9c-89cb5dd6ff32"},"effectivePeriod":{"start":"2025-06-01T09:00:00+00:00","end":"2025-06-01T23:15:00+00:00"},"reasonCode":[{"coding":[{"system":"http://www.nlm.nih.gov/research/umls/rxnorm","code":"1804799","display":"alteplase 100 MG Injection"}]}]},"request":{"method":"PUT","url":"MedicationAdministration/c61893be-a3d4-4333-b10d-85cc12d05b15"}},{"fullUrl":"https://madie.cms.gov/MedicationAdministration/5e4434a13afe5d000044c3ac","resource":{"resourceType":"MedicationAdministration","id":"7586b80e-0a56-4b8d-9141-8fc90342673f","meta":{"profile":["http://hl7.org/fhir/us/qicore/StructureDefinition/qicore-medicationadministration"]},"extension":[{"url":"http://hl7.org/fhir/us/qicore/StructureDefinition/qicore-recorded","valueDateTime":"2025-06-02T00:15:00+00:00"}],"status":"completed","medicationCodeableConcept":{"coding":[{"system":"http://www.nlm.nih.gov/research/umls/rxnorm","code":"1037045"}]},"subject":{"reference":"Patient/5a329008-fcc1-4168-ab9c-89cb5dd6ff32"},"effectivePeriod":{"start":"2025-06-02T00:15:00+00:00","end":"2025-06-15T11:15:00+00:00"}},"request":{"method":"PUT","url":"MedicationAdministration/7586b80e-0a56-4b8d-9141-8fc90342673f"}},{"fullUrl":"https://madie.cms.gov/MedicationRequest/5e44337b3afe5d000044c232","resource":{"resourceType":"MedicationRequest","id":"8f86b7fc-bf06-401a-8c2a-78a21bf9b255","meta":{"profile":["http://hl7.org/fhir/us/qicore/StructureDefinition/qicore-medicationrequest"]},"status":"completed","intent":"order","medicationCodeableConcept":{"coding":[{"system":"http://www.nlm.nih.gov/research/umls/rxnorm","code":"1037045"}]},"subject":{"reference":"Patient/5a329008-fcc1-4168-ab9c-89cb5dd6ff32"},"authoredOn":"2025-04-02T08:00:00+00:00","requester":{"reference":"Practitioner/example"},"dosageInstruction":[{"timing":{"repeat":{"boundsPeriod":{"start":"2025-04-02T23:00:00+00:00","end":"2025-04-10T10:15:00+00:00"}}}}]},"request":{"method":"PUT","url":"MedicationRequest/8f86b7fc-bf06-401a-8c2a-78a21bf9b255"}},{"fullUrl":"https://madie.cms.gov/MedicationRequest/5e44349e3afe5d000044c39a","resource":{"resourceType":"MedicationRequest","id":"d318012d-d2df-4f2e-9891-184ae7686b75","meta":{"profile":["http://hl7.org/fhir/us/qicore/StructureDefinition/qicore-medicationrequest"]},"status":"completed","intent":"order","medicationCodeableConcept":{"coding":[{"system":"http://www.nlm.nih.gov/research/umls/rxnorm","code":"1037045"}]},"subject":{"reference":"Patient/5a329008-fcc1-4168-ab9c-89cb5dd6ff32"},"authoredOn":"2025-06-02T09:00:00+00:00","requester":{"reference":"Practitioner/example"},"dosageInstruction":[{"timing":{"repeat":{"boundsPeriod":{"start":"2025-06-02T00:15:00+00:00","end":"2025-06-15T11:15:00+00:00"}}}}]},"request":{"method":"PUT","url":"MedicationRequest/d318012d-d2df-4f2e-9891-184ae7686b75"}},{"fullUrl":"https://madie.cms.gov/Condition/ischemic-stroke-7d4e","resource":{"resourceType":"Condition","id":"cd9efd4e-3037-4101-b276-5699610a733c","meta":{"profile":["http://hl7.org/fhir/us/qicore/StructureDefinition/qicore-condition"]},"clinicalStatus":{"coding":[{"system":"http://terminology.hl7.org/CodeSystem/condition-clinical","code":"active"}]},"verificationStatus":{"coding":[{"system":"http://terminology.hl7.org/CodeSystem/condition-ver-status","code":"confirmed"}]},"category":[{"coding":[{"system":"http://terminology.hl7.org/CodeSystem/condition-category","code":"encounter-diagnosis","display":"Encounter Diagnosis"}]}],"code":{"coding":[{"system":"http://snomed.info/sct","version":"2020-09","code":"111297002","display":"Nonparalytic stroke (disorder)","userSelected":true}]},"subject":{"reference":"Patient/5a329008-fcc1-4168-ab9c-89cb5dd6ff32"},"recordedDate":"2025-08-16T08:00:00.000+00:00"},"request":{"method":"PUT","url":"Condition/cd9efd4e-3037-4101-b276-5699610a733c"}},{"fullUrl":"https://madie.cms.gov/Condition/ischemic-stroke-7d4f","resource":{"resourceType":"Condition","id":"7c755d6f-86b4-4ca4-b40a-033f096e15cc","meta":{"profile":["http://hl7.org/fhir/us/qicore/StructureDefinition/qicore-condition"]},"clinicalStatus":{"coding":[{"system":"http://terminology.hl7.org/CodeSystem/condition-clinical","code":"active"}]},"verificationStatus":{"coding":[{"system":"http://terminology.hl7.org/CodeSystem/condition-ver-status","code":"confirmed"}]},"category":[{"coding":[{"system":"http://terminology.hl7.org/CodeSystem/condition-category","code":"encounter-diagnosis","display":"Encounter Diagnosis"}]}],"code":{"coding":[{"system":"http://snomed.info/sct","version":"2020-09","code":"111297002","display":"Nonparalytic stroke (disorder)","userSelected":true}]},"subject":{"reference":"Patient/5a329008-fcc1-4168-ab9c-89cb5dd6ff32"},"recordedDate":"2025-08-16T08:00:00.000+00:00"},"request":{"method":"PUT","url":"Condition/7c755d6f-86b4-4ca4-b40a-033f096e15cc"}},{"fullUrl":"https://madie.cms.gov/Coverage/1","resource":{"resourceType":"Coverage","id":"e47097bc-61c6-4eea-85b1-b87ec5acf79e","meta":{"profile":["http://hl7.org/fhir/us/qicore/StructureDefinition/qicore-coverage"]},"status":"active","beneficiary":{"reference":"Patient/5a329008-fcc1-4168-ab9c-89cb5dd6ff32"},"payor":[{"reference":"Organization/f6075515-d38f-4624-bde8-a1ce20473a69"}]},"request":{"method":"PUT","url":"Coverage/e47097bc-61c6-4eea-85b1-b87ec5acf79e"}},{"fullUrl":"https://madie.cms.gov/Organization/123456","resource":{"resourceType":"Organization","id":"f6075515-d38f-4624-bde8-a1ce20473a69","meta":{"profile":["http://hl7.org/fhir/us/qicore/StructureDefinition/qicore-organization"]},"identifier":[{"use":"temp","system":"urn:oid:2.16.840.1.113883.4.4","value":"21-3259825"}],"active":true,"type":[{"coding":[{"system":"http://terminology.hl7.org/CodeSystem/organization-type","code":"pay","display":"Payer"}]}],"name":"Blue Cross Blue Shield of Texas","telecom":[{"system":"phone","value":"(+1) 972-766-6900"}],"address":[{"use":"billing","type":"postal","line":["P.O. Box 660044"],"city":"Dallas","state":"TX","postalCode":"75266-0044","country":"USA"}]},"request":{"method":"PUT","url":"Organization/f6075515-d38f-4624-bde8-a1ce20473a69"}},{"fullUrl":"https://madie.cms.gov/Practitioner/practitioner-123456","resource":{"resourceType":"Practitioner","id":"82b5b662-0d59-47ff-a011-39e1f3ed6fc4","identifier":[{"system":"http://hl7.org/fhir/sid/us-npi","value":"123456"}],"name":[{"family":"Evil","prefix":["Dr"]}]},"request":{"method":"PUT","url":"Practitioner/82b5b662-0d59-47ff-a011-39e1f3ed6fc4"}},{"fullUrl":"https://madie.cms.gov/MeasureReport/2c0071fd-f058-47e3-b185-736b9943614f","resource":{"resourceType":"MeasureReport","id":"2c0071fd-f058-47e3-b185-736b9943614f","meta":{"profile":["http://hl7.org/fhir/us/cqfmeasures/StructureDefinition/test-case-cqfm"]},"contained":[{"resourceType":"Parameters","id":"d6bfd2f7-a2da-4a0f-9774-735b1bbe2841-parameters","parameter":[{"name":"subject","valueString":"5a329008-fcc1-4168-ab9c-89cb5dd6ff32"}]}],"extension":[{"url":"http://hl7.org/fhir/us/cqfmeasures/StructureDefinition/cqfm-inputParameters","valueReference":{"reference":"#d6bfd2f7-a2da-4a0f-9774-735b1bbe2841-parameters"}},{"url":"http://hl7.org/fhir/us/cqfmeasures/StructureDefinition/cqfm-testCaseDescription","valueMarkdown":"Testing multiple encounters, one with ED to Inpatient with antithrombotic, and one with Ed to Obs to Inpatient with tPA. \n"}],"modifierExtension":[{"url":"http://hl7.org/fhir/us/cqfmeasures/StructureDefinition/cqfm-isTestCase","valueBoolean":true}],"status":"complete","type":"individual","measure":"https://madie.cms.gov/Measure/AntithromboticTherapyByEndofHospitalDay2FHIR","period":{"start":"2025-01-01","end":"2025-12-31"},"group":[{"population":[{"code":{"coding":[{"system":"http://terminology.hl7.org/CodeSystem/measure-population","code":"initial-population","display":"Initial Population"}]},"count":2},{"code":{"coding":[{"system":"http://terminology.hl7.org/CodeSystem/measure-population","code":"denominator","display":"Denominator"}]},"count":2},{"code":{"coding":[{"system":"http://terminology.hl7.org/CodeSystem/measure-population","code":"denominator-exclusion","display":"Denominator Exclusion"}]},"count":1},{"code":{"coding":[{"system":"http://terminology.hl7.org/CodeSystem/measure-population","code":"numerator","display":"Numerator"}]},"count":1},{"code":{"coding":[{"system":"http://terminology.hl7.org/CodeSystem/measure-population","code":"denominator-exception","display":"Denominator Exception"}]},"count":0}]}]},"request":{"method":"PUT","url":"MeasureReport/2c0071fd-f058-47e3-b185-736b9943614f"}}]}