{"resourceType":"Bundle","id":"tests-9a297d79-90eb-46f1-9068-1a7c7b6c7147-bundle","type":"transaction","entry":[{"fullUrl":"https://madie.cms.gov/Patient/9a297d79-90eb-46f1-9068-1a7c7b6c7147","resource":{"resourceType":"Patient","id":"9a297d79-90eb-46f1-9068-1a7c7b6c7147","meta":{"profile":["http://hl7.org/fhir/us/qicore/StructureDefinition/qicore-patient"]},"text":{"status":"generated","div":"<div xmlns=\"http://www.w3.org/1999/xhtml\"><div class=\"hapiHeaderText\">INR2DaysAftEnc_NoEDNoObsBFEnc2DayAft <b>DENEXCEPFAIL </b></div><table class=\"hapiPropertyTable\"><tbody><tr><td>Identifier</td><td>0d6e76d46323f24c3cf81599b44a17d5195ef83ae5428435662fa61392810175</td></tr><tr><td>Date of birth</td><td><span>26 September 1975</span></td></tr></tbody></table></div>"},"extension":[{"url":"http://hl7.org/fhir/us/core/StructureDefinition/us-core-race","extension":[{"url":"ombCategory","valueCoding":{"system":"urn:oid:2.16.840.1.113883.6.238","code":"2054-5","display":"Black or African American","userSelected":true}},{"url":"text","valueString":"Black or African American"}]},{"url":"http://hl7.org/fhir/us/core/StructureDefinition/us-core-ethnicity","extension":[{"url":"ombCategory","valueCoding":{"system":"urn:oid:2.16.840.1.113883.6.238","code":"2186-5","display":"Not Hispanic or Latino","userSelected":true}},{"url":"text","valueString":"Not Hispanic or Latino"}]}],"identifier":[{"type":{"coding":[{"system":"http://terminology.hl7.org/CodeSystem/v2-0203","code":"MR"}]},"system":"https://bonnie-fhir.healthit.gov/","value":"60f82c2f98086b570510e2a5"}],"active":true,"name":[{"use":"usual","family":"DENEXCEPFail","given":["INR2DaysAftEnc_NoEDNoObsBFEnc2DayAft"]}],"gender":"female","birthDate":"1975-09-26"},"request":{"method":"PUT","url":"Patient/9a297d79-90eb-46f1-9068-1a7c7b6c7147"}},{"fullUrl":"https://madie.cms.gov/Encounter/5c954894b848462de0ae62c8","resource":{"resourceType":"Encounter","id":"dda5ebb5-4b68-49a4-99e3-a0792cdfe7b0","meta":{"profile":["http://hl7.org/fhir/us/qicore/StructureDefinition/qicore-encounter"]},"status":"finished","class":{"system":"http://terminology.hl7.org/CodeSystem/v3-ActCode","code":"IMP","display":"inpatient encounter","userSelected":true},"type":[{"coding":[{"system":"http://snomed.info/sct","code":"32485007"}]}],"subject":{"reference":"Patient/9a297d79-90eb-46f1-9068-1a7c7b6c7147"},"period":{"start":"2025-10-10T06:15:00.000+00:00","end":"2025-10-15T11:30:00.000+00:00"},"length":{"value":5,"unit":"days"},"diagnosis":[{"condition":{"reference":"Condition/ischemic-stroke-a3b8"},"use":{"coding":[{"system":"http://terminology.hl7.org/CodeSystem/diagnosis-role","code":"billing","display":"Billing"}]},"rank":1}]},"request":{"method":"PUT","url":"Encounter/dda5ebb5-4b68-49a4-99e3-a0792cdfe7b0"}},{"fullUrl":"https://madie.cms.gov/Observation/5c954894b848462de0ae62ca","resource":{"resourceType":"Observation","id":"a6c68029-16a2-4b99-b980-4f40b8b4da46","meta":{"profile":["http://hl7.org/fhir/us/qicore/StructureDefinition/qicore-observation"]},"status":"final","category":[{"coding":[{"system":"http://terminology.hl7.org/CodeSystem/observation-category","code":"laboratory","display":"Laboratory"}]}],"code":{"coding":[{"system":"http://loinc.org","code":"34714-6"}]},"subject":{"reference":"Patient/9a297d79-90eb-46f1-9068-1a7c7b6c7147"},"effectiveDateTime":"2025-10-10T06:14:00.000+00:00","issued":"2025-10-12T00:00:00.000+00:00","valueQuantity":{"value":3.6}},"request":{"method":"PUT","url":"Observation/a6c68029-16a2-4b99-b980-4f40b8b4da46"}},{"fullUrl":"https://madie.cms.gov/Coverage/5e20a36f1c76ba6c5896ec08","resource":{"resourceType":"Coverage","id":"aa45f065-fea2-4d31-8df8-744030ab202c","status":"active","beneficiary":{"reference":"Patient/9a297d79-90eb-46f1-9068-1a7c7b6c7147"},"period":{"start":"1975-09-26T08:00:00+00:00"},"payor":[{"reference":"Organization/4d7da20f-8773-4347-8f6b-80adcdcee1f4"}]},"request":{"method":"PUT","url":"Coverage/aa45f065-fea2-4d31-8df8-744030ab202c"}},{"fullUrl":"https://madie.cms.gov/Condition/ischemic-stroke-a3b8","resource":{"resourceType":"Condition","id":"28da03da-56f6-43d3-a67b-8636a9c59417","meta":{"profile":["http://hl7.org/fhir/us/qicore/StructureDefinition/qicore-condition"]},"clinicalStatus":{"coding":[{"system":"http://terminology.hl7.org/CodeSystem/condition-clinical","code":"active"}]},"verificationStatus":{"coding":[{"system":"http://terminology.hl7.org/CodeSystem/condition-ver-status","code":"confirmed"}]},"category":[{"coding":[{"system":"http://terminology.hl7.org/CodeSystem/condition-category","code":"encounter-diagnosis","display":"Encounter Diagnosis"}]}],"code":{"coding":[{"system":"http://snomed.info/sct","version":"2020-09","code":"111297002","display":"Nonparalytic stroke (disorder)","userSelected":true}]},"subject":{"reference":"Patient/9a297d79-90eb-46f1-9068-1a7c7b6c7147"},"recordedDate":"2025-07-28T08:00:00.000+00:00"},"request":{"method":"PUT","url":"Condition/28da03da-56f6-43d3-a67b-8636a9c59417"}},{"fullUrl":"https://madie.cms.gov/Organization/123456","resource":{"resourceType":"Organization","id":"4d7da20f-8773-4347-8f6b-80adcdcee1f4","meta":{"profile":["http://hl7.org/fhir/us/qicore/StructureDefinition/qicore-organization"]},"identifier":[{"use":"temp","system":"urn:oid:2.16.840.1.113883.4.4","value":"21-3259825"}],"active":true,"type":[{"coding":[{"system":"http://terminology.hl7.org/CodeSystem/organization-type","code":"pay","display":"Payer"}]}],"name":"Blue Cross Blue Shield of Texas","telecom":[{"system":"phone","value":"(+1) 972-766-6900"}],"address":[{"use":"billing","type":"postal","line":["P.O. Box 660044"],"city":"Dallas","state":"TX","postalCode":"75266-0044","country":"USA"}]},"request":{"method":"PUT","url":"Organization/4d7da20f-8773-4347-8f6b-80adcdcee1f4"}},{"fullUrl":"https://madie.cms.gov/MeasureReport/2eeb28b1-d702-436b-967a-37aea65c4aa0","resource":{"resourceType":"MeasureReport","id":"2eeb28b1-d702-436b-967a-37aea65c4aa0","meta":{"profile":["http://hl7.org/fhir/us/cqfmeasures/StructureDefinition/test-case-cqfm"]},"contained":[{"resourceType":"Parameters","id":"1aca1292-3f9e-4ab3-b6c2-eb1145a7a313-parameters","parameter":[{"name":"subject","valueString":"9a297d79-90eb-46f1-9068-1a7c7b6c7147"}]}],"extension":[{"url":"http://hl7.org/fhir/us/cqfmeasures/StructureDefinition/cqfm-inputParameters","valueReference":{"reference":"#1aca1292-3f9e-4ab3-b6c2-eb1145a7a313-parameters"}},{"url":"http://hl7.org/fhir/us/cqfmeasures/StructureDefinition/cqfm-testCaseDescription","valueMarkdown":"Patient receives INR of 3.6 two days after IP start at midnight. No ED. No Obs. Testing Day of operator with HospitalizationWithObservation function.\n"}],"modifierExtension":[{"url":"http://hl7.org/fhir/us/cqfmeasures/StructureDefinition/cqfm-isTestCase","valueBoolean":true}],"status":"complete","type":"individual","measure":"https://madie.cms.gov/Measure/AntithromboticTherapyByEndofHospitalDay2FHIR","period":{"start":"2025-01-01","end":"2025-12-31"},"group":[{"population":[{"code":{"coding":[{"system":"http://terminology.hl7.org/CodeSystem/measure-population","code":"initial-population","display":"Initial Population"}]},"count":1},{"code":{"coding":[{"system":"http://terminology.hl7.org/CodeSystem/measure-population","code":"denominator","display":"Denominator"}]},"count":1},{"code":{"coding":[{"system":"http://terminology.hl7.org/CodeSystem/measure-population","code":"denominator-exclusion","display":"Denominator Exclusion"}]},"count":0},{"code":{"coding":[{"system":"http://terminology.hl7.org/CodeSystem/measure-population","code":"numerator","display":"Numerator"}]},"count":0},{"code":{"coding":[{"system":"http://terminology.hl7.org/CodeSystem/measure-population","code":"denominator-exception","display":"Denominator Exception"}]},"count":0}]}]},"request":{"method":"PUT","url":"MeasureReport/2eeb28b1-d702-436b-967a-37aea65c4aa0"}}]}