{"resourceType":"Bundle","id":"tests-febd4b3e-99bc-4c55-bba9-3b2136c2160b-bundle","type":"transaction","entry":[{"fullUrl":"https://madie.cms.gov/Patient/febd4b3e-99bc-4c55-bba9-3b2136c2160b","resource":{"resourceType":"Patient","id":"febd4b3e-99bc-4c55-bba9-3b2136c2160b","meta":{"profile":["http://hl7.org/fhir/us/qicore/StructureDefinition/qicore-patient"]},"text":{"status":"generated","div":"<div xmlns=\"http://www.w3.org/1999/xhtml\"><div class=\"hapiHeaderText\">4Enc2WithAntithrombic2WithtPA <b>NUMER&amp;DENEXPASS-LCG </b></div><table class=\"hapiPropertyTable\"><tbody><tr><td>Identifier</td><td>020dc4464ac8810d734b6702e424d7c5d535f8554cec1d7976a2fc68ac0b3268</td></tr><tr><td>Date of birth</td><td><span>26 September 1975</span></td></tr></tbody></table></div>"},"extension":[{"url":"http://hl7.org/fhir/us/core/StructureDefinition/us-core-race","extension":[{"url":"ombCategory","valueCoding":{"system":"urn:oid:2.16.840.1.113883.6.238","code":"2054-5","display":"Black or African American","userSelected":true}},{"url":"text","valueString":"Black or African American"}]},{"url":"http://hl7.org/fhir/us/core/StructureDefinition/us-core-ethnicity","extension":[{"url":"ombCategory","valueCoding":{"system":"urn:oid:2.16.840.1.113883.6.238","code":"2186-5","display":"Not Hispanic or Latino","userSelected":true}},{"url":"text","valueString":"Not Hispanic or Latino"}]}],"identifier":[{"type":{"coding":[{"system":"http://terminology.hl7.org/CodeSystem/v2-0203","code":"MR"}]},"system":"https://bonnie-fhir.healthit.gov/","value":"60f82c2f98086b570510e2cc"}],"active":true,"name":[{"use":"usual","family":"NUMER&DENEXPass-LCG","given":["4Enc2WithAntithrombic2WithtPA"]}],"gender":"female","birthDate":"1975-09-26"},"request":{"method":"PUT","url":"Patient/febd4b3e-99bc-4c55-bba9-3b2136c2160b"}},{"fullUrl":"https://madie.cms.gov/Encounter/5c9e2f10b8484633ef4da92b","resource":{"resourceType":"Encounter","id":"7f79b630-2550-42a0-959c-9f521ffe3f99","meta":{"profile":["http://hl7.org/fhir/us/qicore/StructureDefinition/qicore-encounter"]},"status":"finished","class":{"system":"http://terminology.hl7.org/CodeSystem/v3-ActCode","code":"IMP","display":"inpatient encounter"},"type":[{"coding":[{"system":"http://snomed.info/sct","code":"183452005"}]}],"subject":{"reference":"Patient/febd4b3e-99bc-4c55-bba9-3b2136c2160b"},"period":{"start":"2025-09-09T09:00:00+00:00","end":"2025-09-12T11:15:00+00:00"},"length":{"value":0,"unit":"days"},"diagnosis":[{"condition":{"reference":"Condition/ischemic-stroke-7d56"},"use":{"coding":[{"system":"http://terminology.hl7.org/CodeSystem/diagnosis-role","code":"billing","display":"Billing"}]},"rank":1}]},"request":{"method":"PUT","url":"Encounter/7f79b630-2550-42a0-959c-9f521ffe3f99"}},{"fullUrl":"https://madie.cms.gov/Encounter/5c9e2f10b8484633ef4da92c","resource":{"resourceType":"Encounter","id":"3fa8f90e-3de1-4b87-a92f-8870567b8e8c","meta":{"profile":["http://hl7.org/fhir/us/qicore/StructureDefinition/qicore-encounter"]},"status":"finished","class":{"system":"http://terminology.hl7.org/CodeSystem/v3-ActCode","code":"IMP","display":"inpatient encounter"},"type":[{"coding":[{"system":"http://snomed.info/sct","code":"32485007"}]}],"subject":{"reference":"Patient/febd4b3e-99bc-4c55-bba9-3b2136c2160b"},"period":{"start":"2025-10-10T09:00:00+00:00","end":"2025-10-12T11:15:00+00:00"},"length":{"value":2,"unit":"days"},"diagnosis":[{"condition":{"reference":"Condition/ischemic-stroke-7d57"},"use":{"coding":[{"system":"http://terminology.hl7.org/CodeSystem/diagnosis-role","code":"billing","display":"Billing"}]},"rank":1}]},"request":{"method":"PUT","url":"Encounter/3fa8f90e-3de1-4b87-a92f-8870567b8e8c"}},{"fullUrl":"https://madie.cms.gov/Encounter/5e271f5229969c0000f91fbc","resource":{"resourceType":"Encounter","id":"3f0afc91-214f-4b1d-8e17-d88bfd9142f6","meta":{"profile":["http://hl7.org/fhir/us/qicore/StructureDefinition/qicore-encounter"]},"status":"finished","class":{"system":"http://terminology.hl7.org/CodeSystem/v3-ActCode","code":"IMP","display":"inpatient encounter"},"type":[{"coding":[{"system":"http://snomed.info/sct","code":"183452005"}]}],"subject":{"reference":"Patient/febd4b3e-99bc-4c55-bba9-3b2136c2160b"},"period":{"start":"2025-07-09T09:00:00+00:00","end":"2025-07-17T11:15:00+00:00"},"diagnosis":[{"condition":{"reference":"Condition/ischemic-stroke-7d58"},"use":{"coding":[{"system":"http://terminology.hl7.org/CodeSystem/diagnosis-role","code":"billing","display":"Billing"}]},"rank":1}]},"request":{"method":"PUT","url":"Encounter/3f0afc91-214f-4b1d-8e17-d88bfd9142f6"}},{"fullUrl":"https://madie.cms.gov/Encounter/5e442acc3afe5d000044be5a","resource":{"resourceType":"Encounter","id":"c15cbd2c-089b-40a4-9a21-744bb5ae689e","meta":{"profile":["http://hl7.org/fhir/us/qicore/StructureDefinition/qicore-encounter"]},"status":"finished","class":{"system":"http://terminology.hl7.org/CodeSystem/v3-ActCode","code":"IMP","display":"inpatient encounter"},"type":[{"coding":[{"system":"http://snomed.info/sct","code":"32485007"}]}],"subject":{"reference":"Patient/febd4b3e-99bc-4c55-bba9-3b2136c2160b"},"period":{"start":"2025-11-01T08:00:00+00:00","end":"2025-11-07T08:15:00+00:00"},"length":{"value":7,"unit":"days"},"diagnosis":[{"condition":{"reference":"Condition/ischemic-stroke-7d59"},"use":{"coding":[{"system":"http://terminology.hl7.org/CodeSystem/diagnosis-role","code":"billing","display":"Billing"}]},"rank":1}]},"request":{"method":"PUT","url":"Encounter/c15cbd2c-089b-40a4-9a21-744bb5ae689e"}},{"fullUrl":"https://madie.cms.gov/Observation/5e442c843afe5d000044c0e5","resource":{"resourceType":"Observation","id":"7d0ff090-0b23-49d7-98d3-c2fdad0446ea","meta":{"profile":["http://hl7.org/fhir/us/qicore/StructureDefinition/qicore-observation"]},"status":"final","category":[{"coding":[{"system":"http://terminology.hl7.org/CodeSystem/observation-category","code":"laboratory","display":"Laboratory"}]}],"code":{"coding":[{"system":"http://loinc.org","code":"34714-6"}]},"subject":{"reference":"Patient/febd4b3e-99bc-4c55-bba9-3b2136c2160b"},"effectivePeriod":{"start":"2025-11-01T08:00:00+00:00","end":"2025-11-07T08:15:00+00:00"},"issued":"2025-11-01T08:00:00.000+00:00","valueInteger":2},"request":{"method":"PUT","url":"Observation/7d0ff090-0b23-49d7-98d3-c2fdad0446ea"}},{"fullUrl":"https://madie.cms.gov/MedicationAdministration/5e271f4229969c0000f91fad","resource":{"resourceType":"MedicationAdministration","id":"2696a3d4-ab7b-437d-bd7a-0e1d296c7868","meta":{"profile":["http://hl7.org/fhir/us/qicore/StructureDefinition/qicore-medicationadministration"]},"extension":[{"url":"http://hl7.org/fhir/us/qicore/StructureDefinition/qicore-recorded","valueDateTime":"2025-10-10T09:00:00+00:00"}],"status":"completed","medicationCodeableConcept":{"coding":[{"system":"http://www.nlm.nih.gov/research/umls/rxnorm","code":"1037045"}]},"subject":{"reference":"Patient/febd4b3e-99bc-4c55-bba9-3b2136c2160b"},"effectivePeriod":{"start":"2025-10-10T09:00:00+00:00","end":"2025-10-12T11:15:00+00:00"}},"request":{"method":"PUT","url":"MedicationAdministration/2696a3d4-ab7b-437d-bd7a-0e1d296c7868"}},{"fullUrl":"https://madie.cms.gov/MedicationAdministration/5e442a533afe5d000044bd64","resource":{"resourceType":"MedicationAdministration","id":"714d2360-3047-414f-abcb-ce6745a3bb42","meta":{"profile":["http://hl7.org/fhir/us/qicore/StructureDefinition/qicore-medicationadministration"]},"status":"completed","medicationCodeableConcept":{"coding":[{"system":"http://www.nlm.nih.gov/research/umls/rxnorm","code":"1804799"}]},"subject":{"reference":"Patient/febd4b3e-99bc-4c55-bba9-3b2136c2160b"},"effectivePeriod":{"start":"2025-09-09T11:00:00+00:00"}},"request":{"method":"PUT","url":"MedicationAdministration/714d2360-3047-414f-abcb-ce6745a3bb42"}},{"fullUrl":"https://madie.cms.gov/MedicationAdministration/5e442b0a3afe5d000044bee1","resource":{"resourceType":"MedicationAdministration","id":"07432e99-5588-4ca0-88a1-dfb1b2ac0cf5","meta":{"profile":["http://hl7.org/fhir/us/qicore/StructureDefinition/qicore-medicationadministration"]},"extension":[{"url":"http://hl7.org/fhir/us/qicore/StructureDefinition/qicore-recorded","valueDateTime":"2025-11-01T08:30:00+00:00"}],"status":"completed","medicationCodeableConcept":{"coding":[{"system":"http://www.nlm.nih.gov/research/umls/rxnorm","code":"1037045"},{"system":"http://www.nlm.nih.gov/research/umls/rxnorm","code":"1992427"}]},"subject":{"reference":"Patient/febd4b3e-99bc-4c55-bba9-3b2136c2160b"},"effectivePeriod":{"start":"2025-11-01T08:15:00+00:00","end":"2025-11-07T08:15:00+00:00"}},"request":{"method":"PUT","url":"MedicationAdministration/07432e99-5588-4ca0-88a1-dfb1b2ac0cf5"}},{"fullUrl":"https://madie.cms.gov/Coverage/5e20a3721c76ba6c5896ec1e","resource":{"resourceType":"Coverage","id":"6eb75630-8b57-4764-9e3f-bda1d3161461","status":"active","beneficiary":{"reference":"Patient/febd4b3e-99bc-4c55-bba9-3b2136c2160b"},"period":{"start":"1975-09-26T08:00:00+00:00"},"payor":[{"reference":"Organization/f6075515-d38f-4624-bde8-a1ce20473a69"}]},"request":{"method":"PUT","url":"Coverage/6eb75630-8b57-4764-9e3f-bda1d3161461"}},{"fullUrl":"https://madie.cms.gov/Procedure/5e271f9c29969c0000f92027","resource":{"resourceType":"Procedure","id":"359a63ea-e1e4-4b96-873b-4cb151457624","meta":{"profile":["http://hl7.org/fhir/us/qicore/StructureDefinition/qicore-procedure"]},"extension":[{"url":"http://hl7.org/fhir/us/qicore/StructureDefinition/qicore-recorded","valueDateTime":"2025-11-19T09:35:00-04:00"}],"status":"completed","code":{"coding":[{"system":"http://snomed.info/sct","code":"307521008"}]},"subject":{"reference":"Patient/febd4b3e-99bc-4c55-bba9-3b2136c2160b"},"performedPeriod":{"start":"2025-07-10T09:00:00+00:00"}},"request":{"method":"PUT","url":"Procedure/359a63ea-e1e4-4b96-873b-4cb151457624"}},{"fullUrl":"https://madie.cms.gov/Condition/ischemic-stroke-7d56","resource":{"resourceType":"Condition","id":"47e7f4cd-8745-4dc6-8585-400f6e27489a","meta":{"profile":["http://hl7.org/fhir/us/qicore/StructureDefinition/qicore-condition"]},"clinicalStatus":{"coding":[{"system":"http://terminology.hl7.org/CodeSystem/condition-clinical","code":"active"}]},"verificationStatus":{"coding":[{"system":"http://terminology.hl7.org/CodeSystem/condition-ver-status","code":"confirmed"}]},"category":[{"coding":[{"system":"http://terminology.hl7.org/CodeSystem/condition-category","code":"encounter-diagnosis","display":"Encounter Diagnosis"}]}],"code":{"coding":[{"system":"http://snomed.info/sct","version":"2020-09","code":"111297002","display":"Nonparalytic stroke (disorder)","userSelected":true}]},"subject":{"reference":"Patient/febd4b3e-99bc-4c55-bba9-3b2136c2160b"},"recordedDate":"2025-08-16T08:00:00.000+00:00"},"request":{"method":"PUT","url":"Condition/47e7f4cd-8745-4dc6-8585-400f6e27489a"}},{"fullUrl":"https://madie.cms.gov/Condition/ischemic-stroke-7d57","resource":{"resourceType":"Condition","id":"b83c57fd-d35a-46b2-9d02-385dc88b3394","meta":{"profile":["http://hl7.org/fhir/us/qicore/StructureDefinition/qicore-condition"]},"clinicalStatus":{"coding":[{"system":"http://terminology.hl7.org/CodeSystem/condition-clinical","code":"active"}]},"verificationStatus":{"coding":[{"system":"http://terminology.hl7.org/CodeSystem/condition-ver-status","code":"confirmed"}]},"category":[{"coding":[{"system":"http://terminology.hl7.org/CodeSystem/condition-category","code":"encounter-diagnosis","display":"Encounter Diagnosis"}]}],"code":{"coding":[{"system":"http://snomed.info/sct","version":"2020-09","code":"111297002","display":"Nonparalytic stroke (disorder)","userSelected":true}]},"subject":{"reference":"Patient/febd4b3e-99bc-4c55-bba9-3b2136c2160b"},"recordedDate":"2025-08-16T08:00:00.000+00:00"},"request":{"method":"PUT","url":"Condition/b83c57fd-d35a-46b2-9d02-385dc88b3394"}},{"fullUrl":"https://madie.cms.gov/Condition/ischemic-stroke-7d58","resource":{"resourceType":"Condition","id":"0f333704-2bbb-418c-909c-846f7cb38c0e","meta":{"profile":["http://hl7.org/fhir/us/qicore/StructureDefinition/qicore-condition"]},"clinicalStatus":{"coding":[{"system":"http://terminology.hl7.org/CodeSystem/condition-clinical","code":"active"}]},"verificationStatus":{"coding":[{"system":"http://terminology.hl7.org/CodeSystem/condition-ver-status","code":"confirmed"}]},"category":[{"coding":[{"system":"http://terminology.hl7.org/CodeSystem/condition-category","code":"encounter-diagnosis","display":"Encounter Diagnosis"}]}],"code":{"coding":[{"system":"http://snomed.info/sct","version":"2020-09","code":"111297002","display":"Nonparalytic stroke (disorder)","userSelected":true}]},"subject":{"reference":"Patient/febd4b3e-99bc-4c55-bba9-3b2136c2160b"},"recordedDate":"2025-08-16T08:00:00.000+00:00"},"request":{"method":"PUT","url":"Condition/0f333704-2bbb-418c-909c-846f7cb38c0e"}},{"fullUrl":"https://madie.cms.gov/Condition/ischemic-stroke-7d59","resource":{"resourceType":"Condition","id":"4873aeef-0cf5-4949-bf58-b7c466dbb393","meta":{"profile":["http://hl7.org/fhir/us/qicore/StructureDefinition/qicore-condition"]},"clinicalStatus":{"coding":[{"system":"http://terminology.hl7.org/CodeSystem/condition-clinical","code":"active"}]},"verificationStatus":{"coding":[{"system":"http://terminology.hl7.org/CodeSystem/condition-ver-status","code":"confirmed"}]},"category":[{"coding":[{"system":"http://terminology.hl7.org/CodeSystem/condition-category","code":"encounter-diagnosis","display":"Encounter Diagnosis"}]}],"code":{"coding":[{"system":"http://snomed.info/sct","version":"2020-09","code":"422504002","display":"Ischemic stroke (disorder)","userSelected":true}]},"subject":{"reference":"Patient/febd4b3e-99bc-4c55-bba9-3b2136c2160b"},"recordedDate":"2025-08-16T08:00:00.000+00:00"},"request":{"method":"PUT","url":"Condition/4873aeef-0cf5-4949-bf58-b7c466dbb393"}},{"fullUrl":"https://madie.cms.gov/Organization/123456","resource":{"resourceType":"Organization","id":"f6075515-d38f-4624-bde8-a1ce20473a69","meta":{"profile":["http://hl7.org/fhir/us/qicore/StructureDefinition/qicore-organization"]},"identifier":[{"use":"temp","system":"urn:oid:2.16.840.1.113883.4.4","value":"21-3259825"}],"active":true,"type":[{"coding":[{"system":"http://terminology.hl7.org/CodeSystem/organization-type","code":"pay","display":"Payer"}]}],"name":"Blue Cross Blue Shield of Texas","telecom":[{"system":"phone","value":"(+1) 972-766-6900"}],"address":[{"use":"billing","type":"postal","line":["P.O. Box 660044"],"city":"Dallas","state":"TX","postalCode":"75266-0044","country":"USA"}]},"request":{"method":"PUT","url":"Organization/f6075515-d38f-4624-bde8-a1ce20473a69"}},{"fullUrl":"https://madie.cms.gov/Practitioner/practitioner-123456","resource":{"resourceType":"Practitioner","id":"27963d45-0634-4106-80b5-6c2a9a36178d","identifier":[{"system":"http://hl7.org/fhir/sid/us-npi","value":"123456"}],"name":[{"family":"Evil","prefix":["Dr"]}]},"request":{"method":"PUT","url":"Practitioner/27963d45-0634-4106-80b5-6c2a9a36178d"}},{"fullUrl":"https://madie.cms.gov/MeasureReport/0642699b-c790-49e8-8580-b0ea8759c277","resource":{"resourceType":"MeasureReport","id":"0642699b-c790-49e8-8580-b0ea8759c277","meta":{"profile":["http://hl7.org/fhir/us/cqfmeasures/StructureDefinition/test-case-cqfm"]},"contained":[{"resourceType":"Parameters","id":"ccddce22-f3ec-4a2c-938a-cb5c65dc6b37-parameters","parameter":[{"name":"subject","valueString":"febd4b3e-99bc-4c55-bba9-3b2136c2160b"}]}],"extension":[{"url":"http://hl7.org/fhir/us/cqfmeasures/StructureDefinition/cqfm-inputParameters","valueReference":{"reference":"#ccddce22-f3ec-4a2c-938a-cb5c65dc6b37-parameters"}},{"url":"http://hl7.org/fhir/us/cqfmeasures/StructureDefinition/cqfm-testCaseDescription","valueMarkdown":"Patient receives tPA in first encounter and antithrombotics in last 2 encounters. Testing to ensure medications without end dates do not interfere with encounters that follow. Executes as expected. \n"}],"modifierExtension":[{"url":"http://hl7.org/fhir/us/cqfmeasures/StructureDefinition/cqfm-isTestCase","valueBoolean":true}],"status":"complete","type":"individual","measure":"https://madie.cms.gov/Measure/AntithromboticTherapyByEndofHospitalDay2FHIR","period":{"start":"2025-01-01","end":"2025-12-31"},"group":[{"population":[{"code":{"coding":[{"system":"http://terminology.hl7.org/CodeSystem/measure-population","code":"initial-population","display":"Initial Population"}]},"count":4},{"code":{"coding":[{"system":"http://terminology.hl7.org/CodeSystem/measure-population","code":"denominator","display":"Denominator"}]},"count":4},{"code":{"coding":[{"system":"http://terminology.hl7.org/CodeSystem/measure-population","code":"denominator-exclusion","display":"Denominator Exclusion"}]},"count":2},{"code":{"coding":[{"system":"http://terminology.hl7.org/CodeSystem/measure-population","code":"numerator","display":"Numerator"}]},"count":2},{"code":{"coding":[{"system":"http://terminology.hl7.org/CodeSystem/measure-population","code":"denominator-exception","display":"Denominator Exception"}]},"count":0}]}]},"request":{"method":"PUT","url":"MeasureReport/0642699b-c790-49e8-8580-b0ea8759c277"}}]}