{"resourceType":"Bundle","id":"tests-ad35c913-a8ba-4d29-b6e9-8652aa5ca20c-bundle","type":"transaction","entry":[{"fullUrl":"https://madie.cms.gov/Patient/ad35c913-a8ba-4d29-b6e9-8652aa5ca20c","resource":{"resourceType":"Patient","id":"ad35c913-a8ba-4d29-b6e9-8652aa5ca20c","meta":{"profile":["http://hl7.org/fhir/us/qicore/StructureDefinition/qicore-patient"]},"text":{"status":"generated","div":"<div xmlns=\"http://www.w3.org/1999/xhtml\"><div class=\"hapiHeaderText\">Med1TPA=EdStart <b>DENEXPASS </b></div><table class=\"hapiPropertyTable\"><tbody><tr><td>Identifier</td><td>b9d60025f1579fc69f692d96d60444be</td></tr><tr><td>Date of birth</td><td><span>26 September 1975</span></td></tr></tbody></table></div>"},"extension":[{"url":"http://hl7.org/fhir/us/core/StructureDefinition/us-core-race","extension":[{"url":"ombCategory","valueCoding":{"system":"urn:oid:2.16.840.1.113883.6.238","code":"2054-5","display":"Black or African American","userSelected":true}},{"url":"text","valueString":"Black or African American"}]},{"url":"http://hl7.org/fhir/us/core/StructureDefinition/us-core-ethnicity","extension":[{"url":"ombCategory","valueCoding":{"system":"urn:oid:2.16.840.1.113883.6.238","code":"2186-5","display":"Not Hispanic or Latino","userSelected":true}},{"url":"text","valueString":"Not Hispanic or Latino"}]}],"identifier":[{"type":{"coding":[{"system":"http://terminology.hl7.org/CodeSystem/v2-0203","code":"MR"}]},"system":"https://bonnie-fhir.healthit.gov/","value":"60f82c2e98086b570510e284"}],"active":true,"name":[{"use":"usual","family":"DENEXPass","given":["Med1TPA=EdStart"]}],"gender":"female","birthDate":"1975-09-26"},"request":{"method":"PUT","url":"Patient/ad35c913-a8ba-4d29-b6e9-8652aa5ca20c"}},{"fullUrl":"https://madie.cms.gov/Encounter/5c954893b848462de0ae624d","resource":{"resourceType":"Encounter","id":"b186c84a-3565-43c2-847d-240aff6ab6a3","meta":{"profile":["http://hl7.org/fhir/us/qicore/StructureDefinition/qicore-encounter"]},"status":"finished","class":{"system":"http://terminology.hl7.org/CodeSystem/v3-ActCode","code":"EMER","display":"emergency"},"type":[{"coding":[{"system":"http://snomed.info/sct","code":"4525004"}]}],"subject":{"reference":"Patient/ad35c913-a8ba-4d29-b6e9-8652aa5ca20c"},"period":{"start":"2025-10-10T06:00:00+00:00","end":"2025-10-10T08:30:00+00:00"},"length":{"value":0,"unit":"days"}},"request":{"method":"PUT","url":"Encounter/b186c84a-3565-43c2-847d-240aff6ab6a3"}},{"fullUrl":"https://madie.cms.gov/Encounter/5c954893b848462de0ae624e","resource":{"resourceType":"Encounter","id":"d94715e5-4a35-46cc-ada2-f1c6cf20ce9e","meta":{"profile":["http://hl7.org/fhir/us/qicore/StructureDefinition/qicore-encounter"]},"status":"finished","class":{"system":"http://terminology.hl7.org/CodeSystem/v3-ActCode","code":"IMP","display":"inpatient encounter"},"type":[{"coding":[{"system":"http://snomed.info/sct","code":"32485007"}]}],"subject":{"reference":"Patient/ad35c913-a8ba-4d29-b6e9-8652aa5ca20c"},"period":{"start":"2025-10-10T09:00:00+00:00","end":"2025-10-12T11:15:00+00:00"},"length":{"value":2,"unit":"days"},"diagnosis":[{"condition":{"reference":"Condition/ischemic-stroke-2d60"},"use":{"coding":[{"system":"http://terminology.hl7.org/CodeSystem/diagnosis-role","code":"billing","display":"Billing"}]},"rank":1}]},"request":{"method":"PUT","url":"Encounter/d94715e5-4a35-46cc-ada2-f1c6cf20ce9e"}},{"fullUrl":"https://madie.cms.gov/MedicationAdministration/5c954893b848462de0ae6250","resource":{"resourceType":"MedicationAdministration","id":"3312b980-7b39-4f08-b8a2-e4fab6ce0b4f","meta":{"profile":["http://hl7.org/fhir/us/qicore/StructureDefinition/qicore-medicationadministration"]},"status":"completed","medicationCodeableConcept":{"coding":[{"system":"http://www.nlm.nih.gov/research/umls/rxnorm","code":"1804799"}]},"subject":{"reference":"Patient/ad35c913-a8ba-4d29-b6e9-8652aa5ca20c"},"effectivePeriod":{"start":"2025-10-10T06:00:00+00:00"}},"request":{"method":"PUT","url":"MedicationAdministration/3312b980-7b39-4f08-b8a2-e4fab6ce0b4f"}},{"fullUrl":"https://madie.cms.gov/Coverage/5e20a36c1c76ba6c5896ebe7","resource":{"resourceType":"Coverage","id":"f03ac0f2-5a06-487e-bf68-0b9ba426e3a8","status":"active","beneficiary":{"reference":"Patient/ad35c913-a8ba-4d29-b6e9-8652aa5ca20c"},"period":{"start":"1975-09-26T08:00:00+00:00"},"payor":[{"reference":"Organization/80573fa1-cf83-4e9a-8f21-86a018689678"}]},"request":{"method":"PUT","url":"Coverage/f03ac0f2-5a06-487e-bf68-0b9ba426e3a8"}},{"fullUrl":"https://madie.cms.gov/Condition/ischemic-stroke-2d60","resource":{"resourceType":"Condition","id":"fb66172a-25fa-4c42-93a8-a0d07052c699","meta":{"profile":["http://hl7.org/fhir/us/qicore/StructureDefinition/qicore-condition"]},"clinicalStatus":{"coding":[{"system":"http://terminology.hl7.org/CodeSystem/condition-clinical","code":"active"}]},"verificationStatus":{"coding":[{"system":"http://terminology.hl7.org/CodeSystem/condition-ver-status","code":"confirmed"}]},"category":[{"coding":[{"system":"http://terminology.hl7.org/CodeSystem/condition-category","code":"encounter-diagnosis","display":"Encounter Diagnosis"}]}],"code":{"coding":[{"system":"http://snomed.info/sct","version":"2020-09","code":"111297002","display":"Nonparalytic stroke (disorder)","userSelected":true}]},"subject":{"reference":"Patient/ad35c913-a8ba-4d29-b6e9-8652aa5ca20c"},"recordedDate":"2025-08-13T08:00:00.000+00:00"},"request":{"method":"PUT","url":"Condition/fb66172a-25fa-4c42-93a8-a0d07052c699"}},{"fullUrl":"https://madie.cms.gov/Organization/123456","resource":{"resourceType":"Organization","id":"80573fa1-cf83-4e9a-8f21-86a018689678","meta":{"profile":["http://hl7.org/fhir/us/qicore/StructureDefinition/qicore-organization"]},"identifier":[{"use":"temp","system":"urn:oid:2.16.840.1.113883.4.4","value":"21-3259825"}],"active":true,"type":[{"coding":[{"system":"http://terminology.hl7.org/CodeSystem/organization-type","code":"pay","display":"Payer"}]}],"name":"Blue Cross Blue Shield of Texas","telecom":[{"system":"phone","value":"(+1) 972-766-6900"}],"address":[{"use":"billing","type":"postal","line":["P.O. Box 660044"],"city":"Dallas","state":"TX","postalCode":"75266-0044","country":"USA"}]},"request":{"method":"PUT","url":"Organization/80573fa1-cf83-4e9a-8f21-86a018689678"}},{"fullUrl":"https://madie.cms.gov/MeasureReport/5d22daaf-6392-489d-849a-8d282a69fbab","resource":{"resourceType":"MeasureReport","id":"5d22daaf-6392-489d-849a-8d282a69fbab","meta":{"profile":["http://hl7.org/fhir/us/cqfmeasures/StructureDefinition/test-case-cqfm"]},"contained":[{"resourceType":"Parameters","id":"8cb13772-7174-449a-adcc-027d662dc273-parameters","parameter":[{"name":"subject","valueString":"ad35c913-a8ba-4d29-b6e9-8652aa5ca20c"}]}],"extension":[{"url":"http://hl7.org/fhir/us/cqfmeasures/StructureDefinition/cqfm-inputParameters","valueReference":{"reference":"#8cb13772-7174-449a-adcc-027d662dc273-parameters"}},{"url":"http://hl7.org/fhir/us/cqfmeasures/StructureDefinition/cqfm-testCaseDescription","valueMarkdown":"Medication TPA started at ED start, during hospitalizatoin"}],"modifierExtension":[{"url":"http://hl7.org/fhir/us/cqfmeasures/StructureDefinition/cqfm-isTestCase","valueBoolean":true}],"status":"complete","type":"individual","measure":"https://madie.cms.gov/Measure/AntithromboticTherapyByEndofHospitalDay2FHIR","period":{"start":"2025-01-01","end":"2025-12-31"},"group":[{"population":[{"code":{"coding":[{"system":"http://terminology.hl7.org/CodeSystem/measure-population","code":"initial-population","display":"Initial Population"}]},"count":1},{"code":{"coding":[{"system":"http://terminology.hl7.org/CodeSystem/measure-population","code":"denominator","display":"Denominator"}]},"count":1},{"code":{"coding":[{"system":"http://terminology.hl7.org/CodeSystem/measure-population","code":"denominator-exclusion","display":"Denominator Exclusion"}]},"count":1},{"code":{"coding":[{"system":"http://terminology.hl7.org/CodeSystem/measure-population","code":"numerator","display":"Numerator"}]},"count":0},{"code":{"coding":[{"system":"http://terminology.hl7.org/CodeSystem/measure-population","code":"denominator-exception","display":"Denominator Exception"}]},"count":0}]}]},"request":{"method":"PUT","url":"MeasureReport/5d22daaf-6392-489d-849a-8d282a69fbab"}}]}