{"resourceType":"Bundle","id":"tests-a3aa4397-179c-4024-929d-2aa45a6ca0a9-bundle","type":"transaction","entry":[{"fullUrl":"https://madie.cms.gov/Patient/a3aa4397-179c-4024-929d-2aa45a6ca0a9","resource":{"resourceType":"Patient","id":"a3aa4397-179c-4024-929d-2aa45a6ca0a9","meta":{"profile":["http://hl7.org/fhir/us/qicore/StructureDefinition/qicore-patient"]},"text":{"status":"generated","div":"<div xmlns=\"http://www.w3.org/1999/xhtml\"><div class=\"hapiHeaderText\">ProcTPA=EncIPStart <b>DENEXPASS </b></div><table class=\"hapiPropertyTable\"><tbody><tr><td>Identifier</td><td>2fa42e72a943eb805f33de7897a4fe3c</td></tr><tr><td>Date of birth</td><td><span>26 September 1975</span></td></tr></tbody></table></div>"},"extension":[{"url":"http://hl7.org/fhir/us/core/StructureDefinition/us-core-race","extension":[{"url":"ombCategory","valueCoding":{"system":"urn:oid:2.16.840.1.113883.6.238","code":"2054-5","display":"Black or African American","userSelected":true}},{"url":"text","valueString":"Black or African American"}]},{"url":"http://hl7.org/fhir/us/core/StructureDefinition/us-core-ethnicity","extension":[{"url":"ombCategory","valueCoding":{"system":"urn:oid:2.16.840.1.113883.6.238","code":"2186-5","display":"Not Hispanic or Latino","userSelected":true}},{"url":"text","valueString":"Not Hispanic or Latino"}]}],"identifier":[{"type":{"coding":[{"system":"http://terminology.hl7.org/CodeSystem/v2-0203","code":"MR"}]},"system":"https://bonnie-fhir.healthit.gov/","value":"60f82c2e98086b570510e25e"}],"active":true,"name":[{"use":"usual","family":"DENEXPass","given":["ProcTPA=EncIPStart"]}],"gender":"female","birthDate":"1975-09-26"},"request":{"method":"PUT","url":"Patient/a3aa4397-179c-4024-929d-2aa45a6ca0a9"}},{"fullUrl":"https://madie.cms.gov/Encounter/5c954892b848462de0ae61cf","resource":{"resourceType":"Encounter","id":"bfe536d4-9414-4066-aa1f-e39e6f58100c","meta":{"profile":["http://hl7.org/fhir/us/qicore/StructureDefinition/qicore-encounter"]},"status":"finished","class":{"system":"http://terminology.hl7.org/CodeSystem/v3-ActCode","code":"EMER","display":"emergency"},"type":[{"coding":[{"system":"http://snomed.info/sct","code":"4525004"}]}],"subject":{"reference":"Patient/a3aa4397-179c-4024-929d-2aa45a6ca0a9"},"period":{"start":"2025-10-10T06:00:00+00:00","end":"2025-10-10T07:01:00+00:00"},"length":{"value":0,"unit":"days"}},"request":{"method":"PUT","url":"Encounter/bfe536d4-9414-4066-aa1f-e39e6f58100c"}},{"fullUrl":"https://madie.cms.gov/Encounter/5c954892b848462de0ae61d0","resource":{"resourceType":"Encounter","id":"96080c72-bc08-411c-8c67-509290dbe243","meta":{"profile":["http://hl7.org/fhir/us/qicore/StructureDefinition/qicore-encounter"]},"status":"finished","class":{"system":"http://terminology.hl7.org/CodeSystem/v3-ActCode","code":"IMP","display":"inpatient encounter"},"type":[{"coding":[{"system":"http://snomed.info/sct","code":"32485007"}]}],"subject":{"reference":"Patient/a3aa4397-179c-4024-929d-2aa45a6ca0a9"},"period":{"start":"2025-10-10T09:00:00+00:00","end":"2025-10-12T11:15:00+00:00"},"length":{"value":2,"unit":"days"},"diagnosis":[{"condition":{"reference":"Condition/ischemic-stroke-6d67"},"use":{"coding":[{"system":"http://terminology.hl7.org/CodeSystem/diagnosis-role","code":"billing","display":"Billing"}]},"rank":1}]},"request":{"method":"PUT","url":"Encounter/96080c72-bc08-411c-8c67-509290dbe243"}},{"fullUrl":"https://madie.cms.gov/Coverage/5e20a3671c76ba6c5896ebc1","resource":{"resourceType":"Coverage","id":"c1b6d3a6-03f2-4732-b4e9-d079bed2ef3f","status":"active","beneficiary":{"reference":"Patient/a3aa4397-179c-4024-929d-2aa45a6ca0a9"},"period":{"start":"1975-09-26T08:00:00+00:00"},"payor":[{"reference":"Organization/41c75c00-82d9-4ab2-98f6-cfaf7fc3381d"}]},"request":{"method":"PUT","url":"Coverage/c1b6d3a6-03f2-4732-b4e9-d079bed2ef3f"}},{"fullUrl":"https://madie.cms.gov/Procedure/5de5662c5b87f90000eaf029","resource":{"resourceType":"Procedure","id":"05253eff-98a1-4838-8901-9532cd05ad8b","meta":{"profile":["http://hl7.org/fhir/us/qicore/StructureDefinition/qicore-procedure"]},"extension":[{"url":"http://hl7.org/fhir/us/qicore/StructureDefinition/qicore-recorded","valueDateTime":"2025-10-10T09:00:00+00:00"}],"status":"completed","code":{"coding":[{"system":"http://snomed.info/sct","code":"307521008"}]},"subject":{"reference":"Patient/a3aa4397-179c-4024-929d-2aa45a6ca0a9"},"performedPeriod":{"start":"2025-10-10T09:00:00+00:00","end":"2025-10-12T11:15:00+00:00"}},"request":{"method":"PUT","url":"Procedure/05253eff-98a1-4838-8901-9532cd05ad8b"}},{"fullUrl":"https://madie.cms.gov/Condition/ischemic-stroke-6d67","resource":{"resourceType":"Condition","id":"22ecc134-d24a-4ee4-8306-99bc01f8f7f9","meta":{"profile":["http://hl7.org/fhir/us/qicore/StructureDefinition/qicore-condition"]},"clinicalStatus":{"coding":[{"system":"http://terminology.hl7.org/CodeSystem/condition-clinical","code":"active"}]},"verificationStatus":{"coding":[{"system":"http://terminology.hl7.org/CodeSystem/condition-ver-status","code":"confirmed"}]},"category":[{"coding":[{"system":"http://terminology.hl7.org/CodeSystem/condition-category","code":"encounter-diagnosis","display":"Encounter Diagnosis"}]}],"code":{"coding":[{"system":"http://snomed.info/sct","version":"2020-09","code":"111297002","display":"Nonparalytic stroke (disorder)","userSelected":true}]},"subject":{"reference":"Patient/a3aa4397-179c-4024-929d-2aa45a6ca0a9"},"recordedDate":"2025-08-13T08:00:00.000+00:00"},"request":{"method":"PUT","url":"Condition/22ecc134-d24a-4ee4-8306-99bc01f8f7f9"}},{"fullUrl":"https://madie.cms.gov/Organization/123456","resource":{"resourceType":"Organization","id":"41c75c00-82d9-4ab2-98f6-cfaf7fc3381d","meta":{"profile":["http://hl7.org/fhir/us/qicore/StructureDefinition/qicore-organization"]},"identifier":[{"use":"temp","system":"urn:oid:2.16.840.1.113883.4.4","value":"21-3259825"}],"active":true,"type":[{"coding":[{"system":"http://terminology.hl7.org/CodeSystem/organization-type","code":"pay","display":"Payer"}]}],"name":"Blue Cross Blue Shield of Texas","telecom":[{"system":"phone","value":"(+1) 972-766-6900"}],"address":[{"use":"billing","type":"postal","line":["P.O. Box 660044"],"city":"Dallas","state":"TX","postalCode":"75266-0044","country":"USA"}]},"request":{"method":"PUT","url":"Organization/41c75c00-82d9-4ab2-98f6-cfaf7fc3381d"}},{"fullUrl":"https://madie.cms.gov/Practitioner/practitioner-123456","resource":{"resourceType":"Practitioner","id":"544a574c-8fc9-442c-8bef-f01e4c2fde57","identifier":[{"system":"http://hl7.org/fhir/sid/us-npi","value":"123456"}],"name":[{"family":"Evil","prefix":["Dr"]}]},"request":{"method":"PUT","url":"Practitioner/544a574c-8fc9-442c-8bef-f01e4c2fde57"}},{"fullUrl":"https://madie.cms.gov/MeasureReport/7b794bca-0021-429c-aa02-8bcfd33977f8","resource":{"resourceType":"MeasureReport","id":"7b794bca-0021-429c-aa02-8bcfd33977f8","meta":{"profile":["http://hl7.org/fhir/us/cqfmeasures/StructureDefinition/test-case-cqfm"]},"contained":[{"resourceType":"Parameters","id":"058431e4-9ae0-4f3e-9a14-daf5b8b08e60-parameters","parameter":[{"name":"subject","valueString":"a3aa4397-179c-4024-929d-2aa45a6ca0a9"}]}],"extension":[{"url":"http://hl7.org/fhir/us/cqfmeasures/StructureDefinition/cqfm-inputParameters","valueReference":{"reference":"#058431e4-9ae0-4f3e-9a14-daf5b8b08e60-parameters"}},{"url":"http://hl7.org/fhir/us/cqfmeasures/StructureDefinition/cqfm-testCaseDescription","valueMarkdown":"Patient has  Proc IV or IA TPA concurrent with start of IP encounter\n"}],"modifierExtension":[{"url":"http://hl7.org/fhir/us/cqfmeasures/StructureDefinition/cqfm-isTestCase","valueBoolean":true}],"status":"complete","type":"individual","measure":"https://madie.cms.gov/Measure/AntithromboticTherapyByEndofHospitalDay2FHIR","period":{"start":"2025-01-01","end":"2025-12-31"},"group":[{"population":[{"code":{"coding":[{"system":"http://terminology.hl7.org/CodeSystem/measure-population","code":"initial-population","display":"Initial Population"}]},"count":1},{"code":{"coding":[{"system":"http://terminology.hl7.org/CodeSystem/measure-population","code":"denominator","display":"Denominator"}]},"count":1},{"code":{"coding":[{"system":"http://terminology.hl7.org/CodeSystem/measure-population","code":"denominator-exclusion","display":"Denominator Exclusion"}]},"count":1},{"code":{"coding":[{"system":"http://terminology.hl7.org/CodeSystem/measure-population","code":"numerator","display":"Numerator"}]},"count":0},{"code":{"coding":[{"system":"http://terminology.hl7.org/CodeSystem/measure-population","code":"denominator-exception","display":"Denominator Exception"}]},"count":0}]}]},"request":{"method":"PUT","url":"MeasureReport/7b794bca-0021-429c-aa02-8bcfd33977f8"}}]}