{"resourceType":"Bundle","id":"tests-2dc3e469-a1c6-4419-aecc-72e75dc8507b-bundle","type":"transaction","entry":[{"fullUrl":"https://madie.cms.gov/Patient/2dc3e469-a1c6-4419-aecc-72e75dc8507b","resource":{"resourceType":"Patient","id":"2dc3e469-a1c6-4419-aecc-72e75dc8507b","meta":{"profile":["http://hl7.org/fhir/us/qicore/StructureDefinition/qicore-patient"]},"text":{"status":"generated","div":"<div xmlns=\"http://www.w3.org/1999/xhtml\"><div class=\"hapiHeaderText\">LCG3ENC <b>DENEXPASS3 </b></div><table class=\"hapiPropertyTable\"><tbody><tr><td>Date of birth</td><td><span>09 February 1949</span></td></tr></tbody></table></div>"},"extension":[{"url":"http://hl7.org/fhir/us/core/StructureDefinition/us-core-race","extension":[{"url":"ombCategory","valueCoding":{"system":"urn:oid:2.16.840.1.113883.6.238","code":"2106-3","display":"White","userSelected":true}},{"url":"text","valueString":"White"}]},{"url":"http://hl7.org/fhir/us/core/StructureDefinition/us-core-ethnicity","extension":[{"url":"ombCategory","valueCoding":{"system":"urn:oid:2.16.840.1.113883.6.238","code":"2186-5","display":"Not Hispanic or Latino","userSelected":true}},{"url":"text","valueString":"Not Hispanic or Latino"}]}],"identifier":[{"type":{"coding":[{"system":"http://terminology.hl7.org/CodeSystem/v2-0203","code":"MR"}]},"system":"https://bonnie-fhir.healthit.gov/","value":"60f82c3098086b570510e2ce"}],"active":true,"name":[{"use":"usual","family":"DENEXPass3","given":["LCG3ENC"]}],"gender":"male","birthDate":"1949-02-09"},"request":{"method":"PUT","url":"Patient/2dc3e469-a1c6-4419-aecc-72e75dc8507b"}},{"fullUrl":"https://madie.cms.gov/Condition/5e444de83afe5d000044c85a","resource":{"resourceType":"Condition","id":"17aec21d-1589-434c-93e6-283f3ea58b3e","meta":{"profile":["http://hl7.org/fhir/us/qicore/StructureDefinition/qicore-condition"]},"clinicalStatus":{"coding":[{"system":"http://terminology.hl7.org/CodeSystem/condition-clinical","code":"inactive","display":"Inactive","userSelected":true}]},"verificationStatus":{"coding":[{"system":"http://terminology.hl7.org/CodeSystem/condition-ver-status","code":"confirmed","display":"confirmed","userSelected":true}]},"category":[{"coding":[{"system":"http://terminology.hl7.org/CodeSystem/condition-category","code":"encounter-diagnosis","display":"Encounter Diagnosis"}]}],"code":{"coding":[{"system":"http://hl7.org/fhir/sid/icd-10-cm","code":"Z92.82"}]},"subject":{"reference":"Patient/2dc3e469-a1c6-4419-aecc-72e75dc8507b"},"onsetDateTime":"2025-03-11T09:00:00+00:00","abatementDateTime":"2025-04-01T08:15:00+00:00","recordedDate":"2025-03-11T09:00:00+00:00"},"request":{"method":"PUT","url":"Condition/17aec21d-1589-434c-93e6-283f3ea58b3e"}},{"fullUrl":"https://madie.cms.gov/Encounter/5e444b753afe5d000044c598","resource":{"resourceType":"Encounter","id":"4b0f06ff-be50-4de5-8c07-e21be54285c1","meta":{"profile":["http://hl7.org/fhir/us/qicore/StructureDefinition/qicore-encounter"]},"status":"finished","class":{"system":"http://terminology.hl7.org/CodeSystem/v3-ActCode","code":"EMER","display":"emergency"},"type":[{"coding":[{"system":"http://snomed.info/sct","code":"4525004"}]}],"subject":{"reference":"Patient/2dc3e469-a1c6-4419-aecc-72e75dc8507b"},"period":{"start":"2025-02-12T08:00:00+00:00","end":"2025-02-12T20:15:00+00:00"},"diagnosis":[{"condition":{"reference":"Condition/ischemic-stroke-7d3c"},"use":{"coding":[{"system":"http://snomed.info/sct","code":"52201006","display":"Internal capsule hemorrhage (disorder)"}]}}]},"request":{"method":"PUT","url":"Encounter/4b0f06ff-be50-4de5-8c07-e21be54285c1"}},{"fullUrl":"https://madie.cms.gov/Encounter/5e444bb53afe5d000044c5b7","resource":{"resourceType":"Encounter","id":"bacd56e3-3ae3-49c4-940d-2799d9f13468","meta":{"profile":["http://hl7.org/fhir/us/qicore/StructureDefinition/qicore-encounter"]},"status":"finished","class":{"system":"http://terminology.hl7.org/CodeSystem/v3-ActCode","code":"IMP","display":"inpatient encounter"},"type":[{"coding":[{"system":"http://snomed.info/sct","code":"183452005"}]}],"subject":{"reference":"Patient/2dc3e469-a1c6-4419-aecc-72e75dc8507b"},"period":{"start":"2025-03-01T05:00:00+00:00","end":"2025-03-01T11:15:00+00:00"},"diagnosis":[{"condition":{"reference":"Condition/ischemic-stroke-7d3a"},"use":{"coding":[{"system":"http://terminology.hl7.org/CodeSystem/diagnosis-role","code":"billing","display":"Billing"}]},"rank":1}]},"request":{"method":"PUT","url":"Encounter/bacd56e3-3ae3-49c4-940d-2799d9f13468"}},{"fullUrl":"https://madie.cms.gov/Encounter/5e444ccb3afe5d000044c65b","resource":{"resourceType":"Encounter","id":"7daa99ad-1c20-4670-b7c0-02b6a2084fdd","meta":{"profile":["http://hl7.org/fhir/us/qicore/StructureDefinition/qicore-encounter"]},"status":"finished","class":{"system":"http://terminology.hl7.org/CodeSystem/v3-ActCode","code":"OBSENC","display":"observation encounter"},"type":[{"coding":[{"system":"http://snomed.info/sct","code":"448851000124103"}]}],"subject":{"reference":"Patient/2dc3e469-a1c6-4419-aecc-72e75dc8507b"},"period":{"start":"2025-03-01T13:00:00+00:00","end":"2025-03-01T23:15:00+00:00"}},"request":{"method":"PUT","url":"Encounter/7daa99ad-1c20-4670-b7c0-02b6a2084fdd"}},{"fullUrl":"https://madie.cms.gov/Encounter/5e444ce03afe5d000044c684","resource":{"resourceType":"Encounter","id":"332025fc-b070-417a-9c32-7b19a222408b","meta":{"profile":["http://hl7.org/fhir/us/qicore/StructureDefinition/qicore-encounter"]},"status":"finished","class":{"system":"http://terminology.hl7.org/CodeSystem/v3-ActCode","code":"IMP","display":"inpatient encounter"},"type":[{"coding":[{"system":"http://snomed.info/sct","code":"183452005"}]}],"subject":{"reference":"Patient/2dc3e469-a1c6-4419-aecc-72e75dc8507b"},"period":{"start":"2025-03-02T13:00:00+00:00","end":"2025-03-09T11:15:00+00:00"},"diagnosis":[{"condition":{"reference":"Condition/ischemic-stroke-7d3b"}}]},"request":{"method":"PUT","url":"Encounter/332025fc-b070-417a-9c32-7b19a222408b"}},{"fullUrl":"https://madie.cms.gov/Encounter/5e444d2a3afe5d000044c6f1","resource":{"resourceType":"Encounter","id":"d4c122df-f45a-4366-8d83-0a3303ba22d4","meta":{"profile":["http://hl7.org/fhir/us/qicore/StructureDefinition/qicore-encounter"]},"status":"finished","class":{"system":"http://terminology.hl7.org/CodeSystem/v3-ActCode","code":"EMER","display":"emergency"},"type":[{"coding":[{"system":"http://snomed.info/sct","code":"4525004"}]}],"subject":{"reference":"Patient/2dc3e469-a1c6-4419-aecc-72e75dc8507b"},"period":{"start":"2025-03-11T08:00:00.000+00:00","end":"2025-03-11T08:15:00.000+00:00"},"diagnosis":[{"condition":{"reference":"Condition/ischemic-stroke-7d3c"},"use":{"coding":[{"system":"http://terminology.hl7.org/CodeSystem/diagnosis-role","code":"billing","display":"Billing"}]},"rank":1}]},"request":{"method":"PUT","url":"Encounter/d4c122df-f45a-4366-8d83-0a3303ba22d4"}},{"fullUrl":"https://madie.cms.gov/Encounter/5e444d703afe5d000044c78c","resource":{"resourceType":"Encounter","id":"505b47ae-a24e-48c0-b780-0c3d0b62ea85","meta":{"profile":["http://hl7.org/fhir/us/qicore/StructureDefinition/qicore-encounter"]},"status":"finished","class":{"system":"http://terminology.hl7.org/CodeSystem/v3-ActCode","code":"IMP","display":"inpatient encounter"},"type":[{"coding":[{"system":"http://snomed.info/sct","code":"183452005"}]}],"subject":{"reference":"Patient/2dc3e469-a1c6-4419-aecc-72e75dc8507b"},"period":{"start":"2025-03-11T09:00:00+00:00","end":"2025-04-01T08:15:00+00:00"},"diagnosis":[{"condition":{"reference":"Condition/ischemic-stroke-7d3d"},"use":{"coding":[{"system":"http://terminology.hl7.org/CodeSystem/diagnosis-role","code":"billing","display":"Billing"}]},"rank":1}],"hospitalization":{"dischargeDisposition":{"coding":[{"system":"http://snomed.info/sct","code":"428371000124100","display":"Discharge to healthcare facility for hospice care (procedure)"}]}}},"request":{"method":"PUT","url":"Encounter/505b47ae-a24e-48c0-b780-0c3d0b62ea85"}},{"fullUrl":"https://madie.cms.gov/Encounter/5e444e8c3afe5d000044c8f1","resource":{"resourceType":"Encounter","id":"9473eb0a-f3e7-4b20-aee2-be7aa68033ea","meta":{"profile":["http://hl7.org/fhir/us/qicore/StructureDefinition/qicore-encounter"]},"status":"finished","class":{"system":"http://terminology.hl7.org/CodeSystem/v3-ActCode","code":"IMP","display":"inpatient encounter"},"type":[{"coding":[{"system":"http://snomed.info/sct","code":"183452005"}]}],"subject":{"reference":"Patient/2dc3e469-a1c6-4419-aecc-72e75dc8507b"},"period":{"start":"2025-04-02T08:00:00+00:00","end":"2025-04-02T08:15:00+00:00"},"diagnosis":[{"condition":{"reference":"Condition/ischemic-stroke-7d3c"},"use":{"coding":[{"system":"http://terminology.hl7.org/CodeSystem/diagnosis-role","code":"billing","display":"Billing"}]},"rank":1}]},"request":{"method":"PUT","url":"Encounter/9473eb0a-f3e7-4b20-aee2-be7aa68033ea"}},{"fullUrl":"https://madie.cms.gov/ServiceRequest/5e444d1f3afe5d000044c6df","resource":{"resourceType":"ServiceRequest","id":"3d29aee7-7510-4ac1-9dcb-c76a73f40270","meta":{"profile":["http://hl7.org/fhir/us/qicore/StructureDefinition/qicore-servicerequest"]},"status":"active","intent":"order","code":{"coding":[{"system":"http://snomed.info/sct","code":"133918004"}]},"subject":{"reference":"Patient/2dc3e469-a1c6-4419-aecc-72e75dc8507b"},"authoredOn":"2025-03-02T13:00:00+00:00"},"request":{"method":"PUT","url":"ServiceRequest/3d29aee7-7510-4ac1-9dcb-c76a73f40270"}},{"fullUrl":"https://madie.cms.gov/Observation/5e444bf63afe5d000044c5f7","resource":{"resourceType":"Observation","id":"38c63c4f-f940-4eab-88e7-1320711a9fc4","meta":{"profile":["http://hl7.org/fhir/us/qicore/StructureDefinition/qicore-observation"]},"status":"final","category":[{"coding":[{"system":"http://terminology.hl7.org/CodeSystem/observation-category","code":"laboratory","display":"Laboratory"}]}],"code":{"coding":[{"system":"http://loinc.org","code":"34714-6"}]},"subject":{"reference":"Patient/2dc3e469-a1c6-4419-aecc-72e75dc8507b"},"effectivePeriod":{"start":"2025-03-01T05:00:00+00:00","end":"2025-03-01T11:15:00+00:00"},"issued":"2025-03-01T05:00:00.000+00:00","valueQuantity":{"value":2.5}},"request":{"method":"PUT","url":"Observation/38c63c4f-f940-4eab-88e7-1320711a9fc4"}},{"fullUrl":"https://madie.cms.gov/Observation/5e444dc33afe5d000044c832","resource":{"resourceType":"Observation","id":"f537c34d-2563-488f-9141-8d26da5c1474","meta":{"profile":["http://hl7.org/fhir/us/qicore/StructureDefinition/qicore-observation"]},"status":"final","category":[{"coding":[{"system":"http://terminology.hl7.org/CodeSystem/observation-category","code":"laboratory","display":"Laboratory"}]}],"code":{"coding":[{"system":"http://loinc.org","code":"34714-6"}]},"subject":{"reference":"Patient/2dc3e469-a1c6-4419-aecc-72e75dc8507b"},"effectivePeriod":{"start":"2025-03-11T09:00:00+00:00","end":"2025-04-01T08:15:00+00:00"},"issued":"2025-03-11T09:00:00.000+00:00","valueQuantity":{"value":3.3}},"request":{"method":"PUT","url":"Observation/f537c34d-2563-488f-9141-8d26da5c1474"}},{"fullUrl":"https://madie.cms.gov/Observation/5e444eb23afe5d000044c968","resource":{"resourceType":"Observation","id":"d6506f0c-9e7e-4a90-950a-b5be6ef7757c","meta":{"profile":["http://hl7.org/fhir/us/qicore/StructureDefinition/qicore-observation"]},"status":"final","category":[{"coding":[{"system":"http://terminology.hl7.org/CodeSystem/observation-category","code":"laboratory","display":"Laboratory"}]}],"code":{"coding":[{"system":"http://loinc.org","code":"34714-6"}]},"subject":{"reference":"Patient/2dc3e469-a1c6-4419-aecc-72e75dc8507b"},"effectivePeriod":{"start":"2025-04-02T08:00:00+00:00","end":"2025-04-02T08:15:00+00:00"},"issued":"2025-04-02T08:00:00.000+00:00","valueQuantity":{"value":3.49}},"request":{"method":"PUT","url":"Observation/d6506f0c-9e7e-4a90-950a-b5be6ef7757c"}},{"fullUrl":"https://madie.cms.gov/MedicationAdministration/5e444c933afe5d000044c61a","resource":{"resourceType":"MedicationAdministration","id":"fa9c1b80-fe5e-44d2-a6c9-021e0766f6b0","meta":{"profile":["http://hl7.org/fhir/us/qicore/StructureDefinition/qicore-medicationadministration"]},"extension":[{"url":"http://hl7.org/fhir/us/qicore/StructureDefinition/qicore-recorded","valueDateTime":"2025-03-01T05:00:00+00:00"}],"status":"completed","medicationCodeableConcept":{"coding":[{"system":"http://www.nlm.nih.gov/research/umls/rxnorm","code":"1804799"}]},"subject":{"reference":"Patient/2dc3e469-a1c6-4419-aecc-72e75dc8507b"},"effectivePeriod":{"start":"2025-03-01T05:00:00+00:00","end":"2025-03-01T11:15:00+00:00"}},"request":{"method":"PUT","url":"MedicationAdministration/fa9c1b80-fe5e-44d2-a6c9-021e0766f6b0"}},{"fullUrl":"https://madie.cms.gov/MedicationAdministration/5e444cfe3afe5d000044c6ce","resource":{"resourceType":"MedicationAdministration","id":"9967a95f-3a69-46ea-94d8-c8b08a47c838","meta":{"profile":["http://hl7.org/fhir/us/qicore/StructureDefinition/qicore-medicationadministration"]},"extension":[{"url":"http://hl7.org/fhir/us/qicore/StructureDefinition/qicore-recorded","valueDateTime":"2025-03-02T13:00:00+00:00"}],"status":"completed","medicationCodeableConcept":{"coding":[{"system":"http://www.nlm.nih.gov/research/umls/rxnorm","code":"1037045"}]},"subject":{"reference":"Patient/2dc3e469-a1c6-4419-aecc-72e75dc8507b"},"effectivePeriod":{"start":"2025-03-02T13:00:00+00:00","end":"2025-03-02T23:15:00+00:00"}},"request":{"method":"PUT","url":"MedicationAdministration/9967a95f-3a69-46ea-94d8-c8b08a47c838"}},{"fullUrl":"https://madie.cms.gov/MedicationAdministration/5e444df03afe5d000044c886","resource":{"resourceType":"MedicationAdministration","id":"2c66f277-85d3-40bc-a136-d8b66efdde27","meta":{"profile":["http://hl7.org/fhir/us/qicore/StructureDefinition/qicore-medicationadministration"]},"extension":[{"url":"http://hl7.org/fhir/us/qicore/StructureDefinition/qicore-recorded","valueDateTime":"2025-03-11T09:00:00+00:00"}],"status":"completed","medicationCodeableConcept":{"coding":[{"system":"http://www.nlm.nih.gov/research/umls/rxnorm","code":"1037045"}]},"subject":{"reference":"Patient/2dc3e469-a1c6-4419-aecc-72e75dc8507b"},"effectivePeriod":{"start":"2025-03-11T09:00:00+00:00","end":"2025-04-01T08:15:00+00:00"}},"request":{"method":"PUT","url":"MedicationAdministration/2c66f277-85d3-40bc-a136-d8b66efdde27"}},{"fullUrl":"https://madie.cms.gov/MedicationAdministration/5e444ed13afe5d000044c998","resource":{"resourceType":"MedicationAdministration","id":"de08f33c-120a-4a52-930a-99277f29faa3","meta":{"profile":["http://hl7.org/fhir/us/qicore/StructureDefinition/qicore-medicationadministration"]},"extension":[{"url":"http://hl7.org/fhir/us/qicore/StructureDefinition/qicore-recorded","valueDateTime":"2025-04-02T08:00:00+00:00"}],"status":"not-done","statusReason":[{"coding":[{"system":"http://snomed.info/sct","code":"105480006","display":"Refusal of treatment by patient (situation)"}]}],"medicationCodeableConcept":{"coding":[{"system":"http://www.nlm.nih.gov/research/umls/rxnorm","code":"1116635"}]},"subject":{"reference":"Patient/2dc3e469-a1c6-4419-aecc-72e75dc8507b"},"effectivePeriod":{"start":"2025-04-02T08:00:00+00:00","end":"2025-04-02T08:15:00+00:00"}},"request":{"method":"PUT","url":"MedicationAdministration/de08f33c-120a-4a52-930a-99277f29faa3"}},{"fullUrl":"https://madie.cms.gov/MedicationAdministration/5e444eff3afe5d000044ca5e","resource":{"resourceType":"MedicationAdministration","id":"f6d8768f-3953-4775-895c-d485db0509c0","meta":{"profile":["http://hl7.org/fhir/us/qicore/StructureDefinition/qicore-medicationadministration"]},"extension":[{"url":"http://hl7.org/fhir/us/qicore/StructureDefinition/qicore-recorded","valueDateTime":"2025-04-02T08:00:00+00:00"}],"status":"completed","medicationCodeableConcept":{"coding":[{"system":"http://www.nlm.nih.gov/research/umls/rxnorm","code":"1037045"}]},"subject":{"reference":"Patient/2dc3e469-a1c6-4419-aecc-72e75dc8507b"},"effectivePeriod":{"start":"2025-04-02T08:00:00+00:00","end":"2025-04-02T08:15:00+00:00"}},"request":{"method":"PUT","url":"MedicationAdministration/f6d8768f-3953-4775-895c-d485db0509c0"}},{"fullUrl":"https://madie.cms.gov/MedicationRequest/5e444cfb3afe5d000044c6be","resource":{"resourceType":"MedicationRequest","id":"69f68c4e-ffcf-456e-92ef-f45f16a4a3fe","meta":{"profile":["http://hl7.org/fhir/us/qicore/StructureDefinition/qicore-medicationrequest"]},"status":"completed","intent":"order","medicationCodeableConcept":{"coding":[{"system":"http://www.nlm.nih.gov/research/umls/rxnorm","code":"1037045"}]},"subject":{"reference":"Patient/2dc3e469-a1c6-4419-aecc-72e75dc8507b"},"authoredOn":"2025-03-02T08:00:00+00:00","requester":{"reference":"Practitioner/example"},"dosageInstruction":[{"timing":{"repeat":{"boundsPeriod":{"start":"2025-03-02T13:00:00+00:00","end":"2025-03-02T23:15:00+00:00"}}}}]},"request":{"method":"PUT","url":"MedicationRequest/69f68c4e-ffcf-456e-92ef-f45f16a4a3fe"}},{"fullUrl":"https://madie.cms.gov/MedicationRequest/5e444ded3afe5d000044c870","resource":{"resourceType":"MedicationRequest","id":"e7cfb947-17ba-4b3b-bc03-5f4afce26d42","meta":{"profile":["http://hl7.org/fhir/us/qicore/StructureDefinition/qicore-medicationrequest"]},"status":"completed","intent":"order","medicationCodeableConcept":{"coding":[{"system":"http://www.nlm.nih.gov/research/umls/rxnorm","code":"1037045"}]},"subject":{"reference":"Patient/2dc3e469-a1c6-4419-aecc-72e75dc8507b"},"authoredOn":"2025-03-11T09:00:00+00:00","requester":{"reference":"Practitioner/example"},"dosageInstruction":[{"timing":{"repeat":{"boundsPeriod":{"start":"2025-03-11T09:00:00+00:00","end":"2025-04-01T08:15:00+00:00"}}}}]},"request":{"method":"PUT","url":"MedicationRequest/e7cfb947-17ba-4b3b-bc03-5f4afce26d42"}},{"fullUrl":"https://madie.cms.gov/MedicationRequest/5e444eed3afe5d000044c9fa","resource":{"resourceType":"MedicationRequest","id":"12767736-59cd-4974-9584-58c8a5ab4b28","meta":{"profile":["http://hl7.org/fhir/us/qicore/StructureDefinition/qicore-medicationrequest"]},"status":"active","intent":"order","medicationCodeableConcept":{"coding":[{"system":"http://www.nlm.nih.gov/research/umls/rxnorm","code":"1037045"}]},"subject":{"reference":"Patient/2dc3e469-a1c6-4419-aecc-72e75dc8507b"},"authoredOn":"2025-04-02T08:00:00+00:00","requester":{"reference":"Practitioner/example"},"dosageInstruction":[{"timing":{"repeat":{"boundsPeriod":{"start":"2025-04-02T08:00:00+00:00","end":"2025-04-02T08:15:00+00:00"}}}}]},"request":{"method":"PUT","url":"MedicationRequest/12767736-59cd-4974-9584-58c8a5ab4b28"}},{"fullUrl":"https://madie.cms.gov/Condition/ischemic-stroke-7d3a","resource":{"resourceType":"Condition","id":"f38d26f9-9339-4ac9-940b-38d6a9c67c87","meta":{"profile":["http://hl7.org/fhir/us/qicore/StructureDefinition/qicore-condition"]},"clinicalStatus":{"coding":[{"system":"http://terminology.hl7.org/CodeSystem/condition-clinical","code":"active"}]},"verificationStatus":{"coding":[{"system":"http://terminology.hl7.org/CodeSystem/condition-ver-status","code":"confirmed"}]},"category":[{"coding":[{"system":"http://terminology.hl7.org/CodeSystem/condition-category","code":"encounter-diagnosis","display":"Encounter Diagnosis"}]}],"code":{"coding":[{"system":"http://snomed.info/sct","version":"2020-09","code":"111297002","display":"Nonparalytic stroke (disorder)","userSelected":true}]},"subject":{"reference":"Patient/2dc3e469-a1c6-4419-aecc-72e75dc8507b"},"recordedDate":"2025-08-16T08:00:00.000+00:00"},"request":{"method":"PUT","url":"Condition/f38d26f9-9339-4ac9-940b-38d6a9c67c87"}},{"fullUrl":"https://madie.cms.gov/Condition/ischemic-stroke-7d3b","resource":{"resourceType":"Condition","id":"016fc0b2-f425-4150-a899-1a377691e026","meta":{"profile":["http://hl7.org/fhir/us/qicore/StructureDefinition/qicore-condition"]},"clinicalStatus":{"coding":[{"system":"http://terminology.hl7.org/CodeSystem/condition-clinical","code":"active"}]},"verificationStatus":{"coding":[{"system":"http://terminology.hl7.org/CodeSystem/condition-ver-status","code":"confirmed"}]},"category":[{"coding":[{"system":"http://terminology.hl7.org/CodeSystem/condition-category","code":"encounter-diagnosis","display":"Encounter Diagnosis"}]}],"code":{"coding":[{"system":"http://snomed.info/sct","version":"2020-09","code":"111297002","display":"Nonparalytic stroke (disorder)","userSelected":true}]},"subject":{"reference":"Patient/2dc3e469-a1c6-4419-aecc-72e75dc8507b"},"recordedDate":"2025-08-16T08:00:00.000+00:00"},"request":{"method":"PUT","url":"Condition/016fc0b2-f425-4150-a899-1a377691e026"}},{"fullUrl":"https://madie.cms.gov/Condition/ischemic-stroke-7d3c","resource":{"resourceType":"Condition","id":"ca0222f5-b811-46d6-a9ad-0daca0e779f9","meta":{"profile":["http://hl7.org/fhir/us/qicore/StructureDefinition/qicore-condition"]},"clinicalStatus":{"coding":[{"system":"http://terminology.hl7.org/CodeSystem/condition-clinical","code":"active"}]},"verificationStatus":{"coding":[{"system":"http://terminology.hl7.org/CodeSystem/condition-ver-status","code":"confirmed"}]},"category":[{"coding":[{"system":"http://terminology.hl7.org/CodeSystem/condition-category","code":"encounter-diagnosis","display":"Encounter Diagnosis"}]}],"code":{"coding":[{"system":"http://snomed.info/sct","version":"2020-09","code":"111297002","display":"Nonparalytic stroke (disorder)","userSelected":true}]},"subject":{"reference":"Patient/2dc3e469-a1c6-4419-aecc-72e75dc8507b"},"recordedDate":"2025-08-16T08:00:00.000+00:00"},"request":{"method":"PUT","url":"Condition/ca0222f5-b811-46d6-a9ad-0daca0e779f9"}},{"fullUrl":"https://madie.cms.gov/Condition/ischemic-stroke-7d3d","resource":{"resourceType":"Condition","id":"38cfcdce-02b1-4955-832d-21edbc6b78e1","meta":{"profile":["http://hl7.org/fhir/us/qicore/StructureDefinition/qicore-condition"]},"clinicalStatus":{"coding":[{"system":"http://terminology.hl7.org/CodeSystem/condition-clinical","code":"active"}]},"verificationStatus":{"coding":[{"system":"http://terminology.hl7.org/CodeSystem/condition-ver-status","code":"confirmed"}]},"category":[{"coding":[{"system":"http://terminology.hl7.org/CodeSystem/condition-category","code":"encounter-diagnosis","display":"Encounter Diagnosis"}]}],"code":{"coding":[{"system":"http://snomed.info/sct","version":"2020-09","code":"111297002","display":"Nonparalytic stroke (disorder)","userSelected":true}]},"subject":{"reference":"Patient/2dc3e469-a1c6-4419-aecc-72e75dc8507b"},"recordedDate":"2025-08-16T08:00:00.000+00:00"},"request":{"method":"PUT","url":"Condition/38cfcdce-02b1-4955-832d-21edbc6b78e1"}},{"fullUrl":"https://madie.cms.gov/Coverage/1","resource":{"resourceType":"Coverage","id":"ab68a8d6-a830-4aab-a988-a5cbcb9e68b3","meta":{"profile":["http://hl7.org/fhir/us/qicore/StructureDefinition/qicore-coverage"]},"status":"active","beneficiary":{"reference":"Patient/2dc3e469-a1c6-4419-aecc-72e75dc8507b"},"payor":[{"reference":"Organization/80573fa1-cf83-4e9a-8f21-86a018689678"}]},"request":{"method":"PUT","url":"Coverage/ab68a8d6-a830-4aab-a988-a5cbcb9e68b3"}},{"fullUrl":"https://madie.cms.gov/Organization/123456","resource":{"resourceType":"Organization","id":"80573fa1-cf83-4e9a-8f21-86a018689678","meta":{"profile":["http://hl7.org/fhir/us/qicore/StructureDefinition/qicore-organization"]},"identifier":[{"use":"temp","system":"urn:oid:2.16.840.1.113883.4.4","value":"21-3259825"}],"active":true,"type":[{"coding":[{"system":"http://terminology.hl7.org/CodeSystem/organization-type","code":"pay","display":"Payer"}]}],"name":"Blue Cross Blue Shield of Texas","telecom":[{"system":"phone","value":"(+1) 972-766-6900"}],"address":[{"use":"billing","type":"postal","line":["P.O. Box 660044"],"city":"Dallas","state":"TX","postalCode":"75266-0044","country":"USA"}]},"request":{"method":"PUT","url":"Organization/80573fa1-cf83-4e9a-8f21-86a018689678"}},{"fullUrl":"https://madie.cms.gov/Practitioner/practitioner-123456","resource":{"resourceType":"Practitioner","id":"21de6afc-06af-4e56-b008-d0934fe14899","identifier":[{"system":"http://hl7.org/fhir/sid/us-npi","value":"123456"}],"name":[{"family":"Evil","prefix":["Dr"]}]},"request":{"method":"PUT","url":"Practitioner/21de6afc-06af-4e56-b008-d0934fe14899"}},{"fullUrl":"https://madie.cms.gov/MeasureReport/4af14141-5817-4dff-b34d-b427371c6a34","resource":{"resourceType":"MeasureReport","id":"4af14141-5817-4dff-b34d-b427371c6a34","meta":{"profile":["http://hl7.org/fhir/us/cqfmeasures/StructureDefinition/test-case-cqfm"]},"contained":[{"resourceType":"Parameters","id":"4e29d532-ea53-450e-9a8c-b96832ebd170-parameters","parameter":[{"name":"subject","valueString":"2dc3e469-a1c6-4419-aecc-72e75dc8507b"}]}],"extension":[{"url":"http://hl7.org/fhir/us/cqfmeasures/StructureDefinition/cqfm-inputParameters","valueReference":{"reference":"#4e29d532-ea53-450e-9a8c-b96832ebd170-parameters"}},{"url":"http://hl7.org/fhir/us/cqfmeasures/StructureDefinition/cqfm-testCaseDescription","valueMarkdown":"Multiple encounter testing\n"}],"modifierExtension":[{"url":"http://hl7.org/fhir/us/cqfmeasures/StructureDefinition/cqfm-isTestCase","valueBoolean":true}],"status":"complete","type":"individual","measure":"https://madie.cms.gov/Measure/AntithromboticTherapyByEndofHospitalDay2FHIR","period":{"start":"2025-01-01","end":"2025-12-31"},"group":[{"population":[{"code":{"coding":[{"system":"http://terminology.hl7.org/CodeSystem/measure-population","code":"initial-population","display":"Initial Population"}]},"count":3},{"code":{"coding":[{"system":"http://terminology.hl7.org/CodeSystem/measure-population","code":"denominator","display":"Denominator"}]},"count":3},{"code":{"coding":[{"system":"http://terminology.hl7.org/CodeSystem/measure-population","code":"denominator-exclusion","display":"Denominator Exclusion"}]},"count":2},{"code":{"coding":[{"system":"http://terminology.hl7.org/CodeSystem/measure-population","code":"numerator","display":"Numerator"}]},"count":1},{"code":{"coding":[{"system":"http://terminology.hl7.org/CodeSystem/measure-population","code":"denominator-exception","display":"Denominator Exception"}]},"count":0}]}]},"request":{"method":"PUT","url":"MeasureReport/4af14141-5817-4dff-b34d-b427371c6a34"}}]}