{"resourceType":"Bundle","id":"tests-844d9440-ab79-4206-9893-bcf9a786970e-bundle","type":"transaction","entry":[{"fullUrl":"https://madie.cms.gov/Patient/844d9440-ab79-4206-9893-bcf9a786970e","resource":{"resourceType":"Patient","id":"844d9440-ab79-4206-9893-bcf9a786970e","meta":{"profile":["http://hl7.org/fhir/us/qicore/StructureDefinition/qicore-patient"]},"text":{"status":"generated","div":"<div xmlns=\"http://www.w3.org/1999/xhtml\"><div class=\"hapiHeaderText\">MedAntithromboticStart_eq1dayDuringEncIPwEd <b>NUMERPASS </b></div><table class=\"hapiPropertyTable\"><tbody><tr><td>Identifier</td><td>31f584b75330393256fa59b34c307941</td></tr><tr><td>Date of birth</td><td><span>26 September 1975</span></td></tr></tbody></table></div>"},"extension":[{"url":"http://hl7.org/fhir/us/core/StructureDefinition/us-core-race","extension":[{"url":"ombCategory","valueCoding":{"system":"urn:oid:2.16.840.1.113883.6.238","code":"2054-5","display":"Black or African American","userSelected":true}},{"url":"text","valueString":"Black or African American"}]},{"url":"http://hl7.org/fhir/us/core/StructureDefinition/us-core-ethnicity","extension":[{"url":"ombCategory","valueCoding":{"system":"urn:oid:2.16.840.1.113883.6.238","code":"2186-5","display":"Not Hispanic or Latino","userSelected":true}},{"url":"text","valueString":"Not Hispanic or Latino"}]}],"identifier":[{"type":{"coding":[{"system":"http://terminology.hl7.org/CodeSystem/v2-0203","code":"MR"}]},"system":"https://bonnie-fhir.healthit.gov/","value":"60f82c2e98086b570510e28d"}],"active":true,"name":[{"use":"usual","family":"NUMERPass","given":["MedAntithromboticStart_eq1dayDuringEncIPwEd"]}],"gender":"female","birthDate":"1975-09-26"},"request":{"method":"PUT","url":"Patient/844d9440-ab79-4206-9893-bcf9a786970e"}},{"fullUrl":"https://madie.cms.gov/Encounter/5c954893b848462de0ae626b","resource":{"resourceType":"Encounter","id":"554b80a6-eec2-4c12-8f2b-f30e7c16fdc0","meta":{"profile":["http://hl7.org/fhir/us/qicore/StructureDefinition/qicore-encounter"]},"status":"finished","class":{"system":"http://terminology.hl7.org/CodeSystem/v3-ActCode","code":"EMER","display":"emergency"},"type":[{"coding":[{"system":"http://snomed.info/sct","code":"4525004"}]}],"subject":{"reference":"Patient/844d9440-ab79-4206-9893-bcf9a786970e"},"period":{"start":"2025-10-10T06:00:00+00:00","end":"2025-10-10T08:30:00+00:00"},"length":{"value":0,"unit":"days"}},"request":{"method":"PUT","url":"Encounter/554b80a6-eec2-4c12-8f2b-f30e7c16fdc0"}},{"fullUrl":"https://madie.cms.gov/Encounter/5c954893b848462de0ae626c","resource":{"resourceType":"Encounter","id":"7e9fb2de-5963-4b17-9b40-5d668bcf1837","meta":{"profile":["http://hl7.org/fhir/us/qicore/StructureDefinition/qicore-encounter"]},"status":"finished","class":{"system":"http://terminology.hl7.org/CodeSystem/v3-ActCode","code":"IMP","display":"inpatient encounter"},"type":[{"coding":[{"system":"http://snomed.info/sct","code":"32485007"}]}],"subject":{"reference":"Patient/844d9440-ab79-4206-9893-bcf9a786970e"},"period":{"start":"2025-10-10T09:00:00+00:00","end":"2025-10-12T11:30:00+00:00"},"length":{"value":2,"unit":"days"},"diagnosis":[{"condition":{"reference":"Condition/ischemic-stroke-7d65"},"use":{"coding":[{"system":"http://terminology.hl7.org/CodeSystem/diagnosis-role","code":"billing","display":"Billing"}]},"rank":1}]},"request":{"method":"PUT","url":"Encounter/7e9fb2de-5963-4b17-9b40-5d668bcf1837"}},{"fullUrl":"https://madie.cms.gov/MedicationAdministration/5c954893b848462de0ae626e","resource":{"resourceType":"MedicationAdministration","id":"a2f42384-6545-4409-98bb-a4dcd851792f","meta":{"profile":["http://hl7.org/fhir/us/qicore/StructureDefinition/qicore-medicationadministration"]},"status":"completed","medicationCodeableConcept":{"coding":[{"system":"http://www.nlm.nih.gov/research/umls/rxnorm","code":"1037045"}]},"subject":{"reference":"Patient/844d9440-ab79-4206-9893-bcf9a786970e"},"effectivePeriod":{"start":"2025-10-11T07:00:00+00:00","end":"2025-10-11T08:20:00+00:00"}},"request":{"method":"PUT","url":"MedicationAdministration/a2f42384-6545-4409-98bb-a4dcd851792f"}},{"fullUrl":"https://madie.cms.gov/Coverage/5e20a36d1c76ba6c5896ebf0","resource":{"resourceType":"Coverage","id":"e3a75bc8-7a1e-41ab-9820-c2a281418525","status":"active","beneficiary":{"reference":"Patient/844d9440-ab79-4206-9893-bcf9a786970e"},"period":{"start":"1975-09-26T08:00:00+00:00"},"payor":[{"reference":"Organization/80573fa1-cf83-4e9a-8f21-86a018689678"}]},"request":{"method":"PUT","url":"Coverage/e3a75bc8-7a1e-41ab-9820-c2a281418525"}},{"fullUrl":"https://madie.cms.gov/Condition/ischemic-stroke-7d65","resource":{"resourceType":"Condition","id":"36dbaf5e-445a-496d-9b06-d3b5130d1101","meta":{"profile":["http://hl7.org/fhir/us/qicore/StructureDefinition/qicore-condition"]},"clinicalStatus":{"coding":[{"system":"http://terminology.hl7.org/CodeSystem/condition-clinical","code":"active"}]},"verificationStatus":{"coding":[{"system":"http://terminology.hl7.org/CodeSystem/condition-ver-status","code":"confirmed"}]},"category":[{"coding":[{"system":"http://terminology.hl7.org/CodeSystem/condition-category","code":"encounter-diagnosis","display":"Encounter Diagnosis"}]}],"code":{"coding":[{"system":"http://snomed.info/sct","version":"2020-09","code":"111297002","display":"Nonparalytic stroke (disorder)","userSelected":true}]},"subject":{"reference":"Patient/844d9440-ab79-4206-9893-bcf9a786970e"},"recordedDate":"2025-08-16T08:00:00.000+00:00"},"request":{"method":"PUT","url":"Condition/36dbaf5e-445a-496d-9b06-d3b5130d1101"}},{"fullUrl":"https://madie.cms.gov/Organization/123456","resource":{"resourceType":"Organization","id":"80573fa1-cf83-4e9a-8f21-86a018689678","meta":{"profile":["http://hl7.org/fhir/us/qicore/StructureDefinition/qicore-organization"]},"identifier":[{"use":"temp","system":"urn:oid:2.16.840.1.113883.4.4","value":"21-3259825"}],"active":true,"type":[{"coding":[{"system":"http://terminology.hl7.org/CodeSystem/organization-type","code":"pay","display":"Payer"}]}],"name":"Blue Cross Blue Shield of Texas","telecom":[{"system":"phone","value":"(+1) 972-766-6900"}],"address":[{"use":"billing","type":"postal","line":["P.O. Box 660044"],"city":"Dallas","state":"TX","postalCode":"75266-0044","country":"USA"}]},"request":{"method":"PUT","url":"Organization/80573fa1-cf83-4e9a-8f21-86a018689678"}},{"fullUrl":"https://madie.cms.gov/Practitioner/practitioner-123456","resource":{"resourceType":"Practitioner","id":"05e06e64-ebfb-4b2b-9e3c-52f7825aafca","identifier":[{"system":"http://hl7.org/fhir/sid/us-npi","value":"123456"}],"name":[{"family":"Evil","prefix":["Dr"]}]},"request":{"method":"PUT","url":"Practitioner/05e06e64-ebfb-4b2b-9e3c-52f7825aafca"}},{"fullUrl":"https://madie.cms.gov/MeasureReport/1e1bb3e0-bf71-4141-ba2b-0018686999f3","resource":{"resourceType":"MeasureReport","id":"1e1bb3e0-bf71-4141-ba2b-0018686999f3","meta":{"profile":["http://hl7.org/fhir/us/cqfmeasures/StructureDefinition/test-case-cqfm"]},"contained":[{"resourceType":"Parameters","id":"71312394-0365-46a7-bef4-19c610fbbfa9-parameters","parameter":[{"name":"subject","valueString":"844d9440-ab79-4206-9893-bcf9a786970e"}]}],"extension":[{"url":"http://hl7.org/fhir/us/cqfmeasures/StructureDefinition/cqfm-inputParameters","valueReference":{"reference":"#71312394-0365-46a7-bef4-19c610fbbfa9-parameters"}},{"url":"http://hl7.org/fhir/us/cqfmeasures/StructureDefinition/cqfm-testCaseDescription","valueMarkdown":"\"Patient receives antithrombotic in the ED.\n global.\"\"Hospitalization\"\" =(Ed+IP)\"\n"}],"modifierExtension":[{"url":"http://hl7.org/fhir/us/cqfmeasures/StructureDefinition/cqfm-isTestCase","valueBoolean":true}],"status":"complete","type":"individual","measure":"https://madie.cms.gov/Measure/AntithromboticTherapyByEndofHospitalDay2FHIR","period":{"start":"2025-01-01","end":"2025-12-31"},"group":[{"population":[{"code":{"coding":[{"system":"http://terminology.hl7.org/CodeSystem/measure-population","code":"initial-population","display":"Initial Population"}]},"count":1},{"code":{"coding":[{"system":"http://terminology.hl7.org/CodeSystem/measure-population","code":"denominator","display":"Denominator"}]},"count":1},{"code":{"coding":[{"system":"http://terminology.hl7.org/CodeSystem/measure-population","code":"denominator-exclusion","display":"Denominator Exclusion"}]},"count":0},{"code":{"coding":[{"system":"http://terminology.hl7.org/CodeSystem/measure-population","code":"numerator","display":"Numerator"}]},"count":1},{"code":{"coding":[{"system":"http://terminology.hl7.org/CodeSystem/measure-population","code":"denominator-exception","display":"Denominator Exception"}]},"count":0}]}]},"request":{"method":"PUT","url":"MeasureReport/1e1bb3e0-bf71-4141-ba2b-0018686999f3"}}]}