{"resourceType":"Bundle","id":"tests-93798745-af1c-4eb6-8dc4-446a531c05a4-bundle","type":"transaction","entry":[{"fullUrl":"https://madie.cms.gov/Patient/93798745-af1c-4eb6-8dc4-446a531c05a4","resource":{"resourceType":"Patient","id":"93798745-af1c-4eb6-8dc4-446a531c05a4","meta":{"profile":["http://hl7.org/fhir/us/qicore/StructureDefinition/qicore-patient"]},"text":{"status":"generated","div":"<div xmlns=\"http://www.w3.org/1999/xhtml\"><div class=\"hapiHeaderText\">MedAntithromboticStart_eq1dayDuringEncIPwEd <b>NUMERFAIL - 3061 </b></div><table class=\"hapiPropertyTable\"><tbody><tr><td>Identifier</td><td>efb6046ae135027a64d1fa1873b580614d445125bf8cff274eca2380ad404ec9</td></tr><tr><td>Date of birth</td><td><span>26 September 1975</span></td></tr></tbody></table></div>"},"extension":[{"url":"http://hl7.org/fhir/us/core/StructureDefinition/us-core-race","extension":[{"url":"ombCategory","valueCoding":{"system":"urn:oid:2.16.840.1.113883.6.238","code":"2054-5","display":"Black or African American","userSelected":true}},{"url":"text","valueString":"Black or African American"}]},{"url":"http://hl7.org/fhir/us/core/StructureDefinition/us-core-ethnicity","extension":[{"url":"ombCategory","valueCoding":{"system":"urn:oid:2.16.840.1.113883.6.238","code":"2186-5","display":"Not Hispanic or Latino","userSelected":true}},{"url":"text","valueString":"Not Hispanic or Latino"}]}],"identifier":[{"type":{"coding":[{"system":"http://terminology.hl7.org/CodeSystem/v2-0203","code":"MR"}]},"system":"https://bonnie-fhir.healthit.gov/","value":"60f82c2e98086b570510e298"}],"active":true,"name":[{"use":"usual","family":"NUMERFail - 3061","given":["MedAntithromboticStart_eq1dayDuringEncIPwEd"]}],"gender":"female","birthDate":"1975-09-26"},"request":{"method":"PUT","url":"Patient/93798745-af1c-4eb6-8dc4-446a531c05a4"}},{"fullUrl":"https://madie.cms.gov/Encounter/5c954894b848462de0ae62a3","resource":{"resourceType":"Encounter","id":"c0a8473b-5e2e-4b9e-b943-c96ca5fac11f","meta":{"profile":["http://hl7.org/fhir/us/qicore/StructureDefinition/qicore-encounter"]},"status":"finished","class":{"system":"http://terminology.hl7.org/CodeSystem/v3-ActCode","code":"EMER","display":"emergency"},"type":[{"coding":[{"system":"http://snomed.info/sct","code":"4525004"}]}],"subject":{"reference":"Patient/93798745-af1c-4eb6-8dc4-446a531c05a4"},"period":{"start":"2025-10-10T01:00:00+00:00","end":"2025-10-11T01:59:00+00:00"},"length":{"value":1,"unit":"days"}},"request":{"method":"PUT","url":"Encounter/c0a8473b-5e2e-4b9e-b943-c96ca5fac11f"}},{"fullUrl":"https://madie.cms.gov/Encounter/5c954894b848462de0ae62a4","resource":{"resourceType":"Encounter","id":"ca558f50-02ff-41d4-8346-ad0eed39e2ef","meta":{"profile":["http://hl7.org/fhir/us/qicore/StructureDefinition/qicore-encounter"]},"status":"finished","class":{"system":"http://terminology.hl7.org/CodeSystem/v3-ActCode","code":"IMP","display":"inpatient encounter"},"type":[{"coding":[{"system":"http://snomed.info/sct","code":"32485007"}]}],"subject":{"reference":"Patient/93798745-af1c-4eb6-8dc4-446a531c05a4"},"period":{"start":"2025-10-11T02:00:00+00:00","end":"2025-10-15T11:30:00+00:00"},"length":{"value":4,"unit":"days"},"diagnosis":[{"condition":{"reference":"Condition/ischemic-stroke-7d5a"},"use":{"coding":[{"system":"http://terminology.hl7.org/CodeSystem/diagnosis-role","code":"billing","display":"Billing"}]},"rank":1}]},"request":{"method":"PUT","url":"Encounter/ca558f50-02ff-41d4-8346-ad0eed39e2ef"}},{"fullUrl":"https://madie.cms.gov/MedicationAdministration/5c954894b848462de0ae62a6","resource":{"resourceType":"MedicationAdministration","id":"64bf5a33-ad79-4fb7-8f85-9cbd313fab0c","meta":{"profile":["http://hl7.org/fhir/us/qicore/StructureDefinition/qicore-medicationadministration"]},"status":"completed","medicationCodeableConcept":{"coding":[{"system":"http://www.nlm.nih.gov/research/umls/rxnorm","code":"198466"}]},"subject":{"reference":"Patient/93798745-af1c-4eb6-8dc4-446a531c05a4"},"effectivePeriod":{"start":"2025-10-11T23:59:00+00:00"}},"request":{"method":"PUT","url":"MedicationAdministration/64bf5a33-ad79-4fb7-8f85-9cbd313fab0c"}},{"fullUrl":"https://madie.cms.gov/Coverage/5e20a36e1c76ba6c5896ebfb","resource":{"resourceType":"Coverage","id":"1b8c6fdf-0378-437a-89ca-ecd560ad2fdc","status":"active","beneficiary":{"reference":"Patient/93798745-af1c-4eb6-8dc4-446a531c05a4"},"period":{"start":"1975-09-26T08:00:00+00:00"},"payor":[{"reference":"Organization/42846cc3-1db0-4bf7-b9ff-8b81fa6e835d"}]},"request":{"method":"PUT","url":"Coverage/1b8c6fdf-0378-437a-89ca-ecd560ad2fdc"}},{"fullUrl":"https://madie.cms.gov/Condition/ischemic-stroke-7d5a","resource":{"resourceType":"Condition","id":"f97f5f14-3b45-435f-b21b-fc311c980b46","meta":{"profile":["http://hl7.org/fhir/us/qicore/StructureDefinition/qicore-condition"]},"clinicalStatus":{"coding":[{"system":"http://terminology.hl7.org/CodeSystem/condition-clinical","code":"active"}]},"verificationStatus":{"coding":[{"system":"http://terminology.hl7.org/CodeSystem/condition-ver-status","code":"confirmed"}]},"category":[{"coding":[{"system":"http://terminology.hl7.org/CodeSystem/condition-category","code":"encounter-diagnosis","display":"Encounter Diagnosis"}]}],"code":{"coding":[{"system":"http://snomed.info/sct","version":"2020-09","code":"111297002","display":"Nonparalytic stroke (disorder)","userSelected":true}]},"subject":{"reference":"Patient/93798745-af1c-4eb6-8dc4-446a531c05a4"},"recordedDate":"2025-08-16T08:00:00.000+00:00"},"request":{"method":"PUT","url":"Condition/f97f5f14-3b45-435f-b21b-fc311c980b46"}},{"fullUrl":"https://madie.cms.gov/Organization/123456","resource":{"resourceType":"Organization","id":"42846cc3-1db0-4bf7-b9ff-8b81fa6e835d","meta":{"profile":["http://hl7.org/fhir/us/qicore/StructureDefinition/qicore-organization"]},"identifier":[{"use":"temp","system":"urn:oid:2.16.840.1.113883.4.4","value":"21-3259825"}],"active":true,"type":[{"coding":[{"system":"http://terminology.hl7.org/CodeSystem/organization-type","code":"pay","display":"Payer"}]}],"name":"Blue Cross Blue Shield of Texas","telecom":[{"system":"phone","value":"(+1) 972-766-6900"}],"address":[{"use":"billing","type":"postal","line":["P.O. Box 660044"],"city":"Dallas","state":"TX","postalCode":"75266-0044","country":"USA"}]},"request":{"method":"PUT","url":"Organization/42846cc3-1db0-4bf7-b9ff-8b81fa6e835d"}},{"fullUrl":"https://madie.cms.gov/Practitioner/practitioner-123456","resource":{"resourceType":"Practitioner","id":"3d6302fd-41f1-42bd-853d-d96db93fb1ff","identifier":[{"system":"http://hl7.org/fhir/sid/us-npi","value":"123456"}],"name":[{"family":"Evil","prefix":["Dr"]}]},"request":{"method":"PUT","url":"Practitioner/3d6302fd-41f1-42bd-853d-d96db93fb1ff"}},{"fullUrl":"https://madie.cms.gov/MeasureReport/a3314ce7-fe64-4053-b2ad-2e93f0d00adb","resource":{"resourceType":"MeasureReport","id":"a3314ce7-fe64-4053-b2ad-2e93f0d00adb","meta":{"profile":["http://hl7.org/fhir/us/cqfmeasures/StructureDefinition/test-case-cqfm"]},"contained":[{"resourceType":"Parameters","id":"8499ebbd-a52a-4d6b-b66c-3b129a53df5a-parameters","parameter":[{"name":"subject","valueString":"93798745-af1c-4eb6-8dc4-446a531c05a4"}]}],"extension":[{"url":"http://hl7.org/fhir/us/cqfmeasures/StructureDefinition/cqfm-inputParameters","valueReference":{"reference":"#8499ebbd-a52a-4d6b-b66c-3b129a53df5a-parameters"}},{"url":"http://hl7.org/fhir/us/cqfmeasures/StructureDefinition/cqfm-testCaseDescription","valueMarkdown":"Patient receives antithrombotic in = 1 day after IP encounter starts. global.\"Hospitalization\" =(IP)\n"}],"modifierExtension":[{"url":"http://hl7.org/fhir/us/cqfmeasures/StructureDefinition/cqfm-isTestCase","valueBoolean":true}],"status":"complete","type":"individual","measure":"https://madie.cms.gov/Measure/AntithromboticTherapyByEndofHospitalDay2FHIR","period":{"start":"2025-01-01","end":"2025-12-31"},"group":[{"population":[{"code":{"coding":[{"system":"http://terminology.hl7.org/CodeSystem/measure-population","code":"initial-population","display":"Initial Population"}]},"count":1},{"code":{"coding":[{"system":"http://terminology.hl7.org/CodeSystem/measure-population","code":"denominator","display":"Denominator"}]},"count":1},{"code":{"coding":[{"system":"http://terminology.hl7.org/CodeSystem/measure-population","code":"denominator-exclusion","display":"Denominator Exclusion"}]},"count":0},{"code":{"coding":[{"system":"http://terminology.hl7.org/CodeSystem/measure-population","code":"numerator","display":"Numerator"}]},"count":1},{"code":{"coding":[{"system":"http://terminology.hl7.org/CodeSystem/measure-population","code":"denominator-exception","display":"Denominator Exception"}]},"count":0}]}]},"request":{"method":"PUT","url":"MeasureReport/a3314ce7-fe64-4053-b2ad-2e93f0d00adb"}}]}