{"resourceType":"Bundle","id":"tests-febd4b3e-99bc-4c55-bba9-3b2136c2160b-bundle","type":"transaction","entry":[{"fullUrl":"https://madie.cms.gov/Patient/febd4b3e-99bc-4c55-bba9-3b2136c2160b","resource":{"resourceType":"Patient","id":"febd4b3e-99bc-4c55-bba9-3b2136c2160b","meta":{"profile":["http://hl7.org/fhir/us/qicore/StructureDefinition/qicore-patient"]},"text":{"status":"generated","div":"<div xmlns=\"http://www.w3.org/1999/xhtml\"><div class=\"hapiHeaderText\">4Enc2WithAntithrombic2WithtPA <b>NUMER&amp;DENEXPASS-LCG </b></div><table class=\"hapiPropertyTable\"><tbody><tr><td>Identifier</td><td>020dc4464ac8810d734b6702e424d7c5d535f8554cec1d7976a2fc68ac0b3268</td></tr><tr><td>Date of birth</td><td><span>26 September 1975</span></td></tr></tbody></table></div>"},"extension":[{"url":"http://hl7.org/fhir/us/core/StructureDefinition/us-core-race","extension":[{"url":"ombCategory","valueCoding":{"system":"urn:oid:2.16.840.1.113883.6.238","code":"2054-5","display":"Black or African American","userSelected":true}},{"url":"text","valueString":"Black or African American"}]},{"url":"http://hl7.org/fhir/us/core/StructureDefinition/us-core-ethnicity","extension":[{"url":"ombCategory","valueCoding":{"system":"urn:oid:2.16.840.1.113883.6.238","code":"2186-5","display":"Not Hispanic or Latino","userSelected":true}},{"url":"text","valueString":"Not Hispanic or Latino"}]}],"identifier":[{"type":{"coding":[{"system":"http://terminology.hl7.org/CodeSystem/v2-0203","code":"MR"}]},"system":"https://bonnie-fhir.healthit.gov/","value":"60f82c2f98086b570510e2cc"}],"active":true,"name":[{"use":"usual","family":"NUMER&DENEXPass-LCG","given":["4Enc2WithAntithrombic2WithtPA"]}],"gender":"female","birthDate":"1975-09-26"},"request":{"method":"PUT","url":"Patient/febd4b3e-99bc-4c55-bba9-3b2136c2160b"}},{"fullUrl":"https://madie.cms.gov/Encounter/5c9e2f10b8484633ef4da92b","resource":{"resourceType":"Encounter","id":"64527998-197b-4429-902b-80fae4d8554d","meta":{"profile":["http://hl7.org/fhir/us/qicore/StructureDefinition/qicore-encounter"]},"status":"finished","class":{"system":"http://terminology.hl7.org/CodeSystem/v3-ActCode","code":"IMP","display":"inpatient encounter"},"type":[{"coding":[{"system":"http://snomed.info/sct","code":"183452005"}]}],"subject":{"reference":"Patient/febd4b3e-99bc-4c55-bba9-3b2136c2160b"},"period":{"start":"2025-09-09T09:00:00+00:00","end":"2025-09-12T11:15:00+00:00"},"length":{"value":0,"unit":"days"},"diagnosis":[{"condition":{"reference":"Condition/ischemic-stroke-7d56"},"use":{"coding":[{"system":"http://terminology.hl7.org/CodeSystem/diagnosis-role","code":"billing","display":"Billing"}]},"rank":1}]},"request":{"method":"PUT","url":"Encounter/64527998-197b-4429-902b-80fae4d8554d"}},{"fullUrl":"https://madie.cms.gov/Encounter/5c9e2f10b8484633ef4da92c","resource":{"resourceType":"Encounter","id":"084cee0b-540d-4396-86f8-66ea5f84f8fe","meta":{"profile":["http://hl7.org/fhir/us/qicore/StructureDefinition/qicore-encounter"]},"status":"finished","class":{"system":"http://terminology.hl7.org/CodeSystem/v3-ActCode","code":"IMP","display":"inpatient encounter"},"type":[{"coding":[{"system":"http://snomed.info/sct","code":"32485007"}]}],"subject":{"reference":"Patient/febd4b3e-99bc-4c55-bba9-3b2136c2160b"},"period":{"start":"2025-10-10T09:00:00+00:00","end":"2025-10-12T11:15:00+00:00"},"length":{"value":2,"unit":"days"},"diagnosis":[{"condition":{"reference":"Condition/ischemic-stroke-7d57"},"use":{"coding":[{"system":"http://terminology.hl7.org/CodeSystem/diagnosis-role","code":"billing","display":"Billing"}]},"rank":1}]},"request":{"method":"PUT","url":"Encounter/084cee0b-540d-4396-86f8-66ea5f84f8fe"}},{"fullUrl":"https://madie.cms.gov/Encounter/5e271f5229969c0000f91fbc","resource":{"resourceType":"Encounter","id":"772c5e93-7380-4d8a-9ed1-b9d44c9fd5da","meta":{"profile":["http://hl7.org/fhir/us/qicore/StructureDefinition/qicore-encounter"]},"status":"finished","class":{"system":"http://terminology.hl7.org/CodeSystem/v3-ActCode","code":"IMP","display":"inpatient encounter"},"type":[{"coding":[{"system":"http://snomed.info/sct","code":"183452005"}]}],"subject":{"reference":"Patient/febd4b3e-99bc-4c55-bba9-3b2136c2160b"},"period":{"start":"2025-07-09T09:00:00+00:00","end":"2025-07-17T11:15:00+00:00"},"diagnosis":[{"condition":{"reference":"Condition/ischemic-stroke-7d58"},"use":{"coding":[{"system":"http://terminology.hl7.org/CodeSystem/diagnosis-role","code":"billing","display":"Billing"}]},"rank":1}]},"request":{"method":"PUT","url":"Encounter/772c5e93-7380-4d8a-9ed1-b9d44c9fd5da"}},{"fullUrl":"https://madie.cms.gov/Encounter/5e442acc3afe5d000044be5a","resource":{"resourceType":"Encounter","id":"ac84f08e-a062-489f-930a-b506d8eff8c0","meta":{"profile":["http://hl7.org/fhir/us/qicore/StructureDefinition/qicore-encounter"]},"status":"finished","class":{"system":"http://terminology.hl7.org/CodeSystem/v3-ActCode","code":"IMP","display":"inpatient encounter"},"type":[{"coding":[{"system":"http://snomed.info/sct","code":"32485007"}]}],"subject":{"reference":"Patient/febd4b3e-99bc-4c55-bba9-3b2136c2160b"},"period":{"start":"2025-11-01T08:00:00+00:00","end":"2025-11-07T08:15:00+00:00"},"length":{"value":7,"unit":"days"},"diagnosis":[{"condition":{"reference":"Condition/ischemic-stroke-7d59"},"use":{"coding":[{"system":"http://terminology.hl7.org/CodeSystem/diagnosis-role","code":"billing","display":"Billing"}]},"rank":1}]},"request":{"method":"PUT","url":"Encounter/ac84f08e-a062-489f-930a-b506d8eff8c0"}},{"fullUrl":"https://madie.cms.gov/Observation/5e442c843afe5d000044c0e5","resource":{"resourceType":"Observation","id":"e3d3011f-461c-4b53-bc0c-1d8c074a6f27","meta":{"profile":["http://hl7.org/fhir/us/qicore/StructureDefinition/qicore-observation"]},"status":"final","category":[{"coding":[{"system":"http://terminology.hl7.org/CodeSystem/observation-category","code":"laboratory","display":"Laboratory"}]}],"code":{"coding":[{"system":"http://loinc.org","code":"34714-6"}]},"subject":{"reference":"Patient/febd4b3e-99bc-4c55-bba9-3b2136c2160b"},"effectivePeriod":{"start":"2025-11-01T08:00:00+00:00","end":"2025-11-07T08:15:00+00:00"},"issued":"2025-11-01T08:00:00.000+00:00","valueInteger":2},"request":{"method":"PUT","url":"Observation/e3d3011f-461c-4b53-bc0c-1d8c074a6f27"}},{"fullUrl":"https://madie.cms.gov/MedicationAdministration/5e271f4229969c0000f91fad","resource":{"resourceType":"MedicationAdministration","id":"412ed2fe-0fc2-4f27-bda8-4919fc02d901","meta":{"profile":["http://hl7.org/fhir/us/qicore/StructureDefinition/qicore-medicationadministration"]},"extension":[{"url":"http://hl7.org/fhir/us/qicore/StructureDefinition/qicore-recorded","valueDateTime":"2025-10-10T09:00:00+00:00"}],"status":"completed","medicationCodeableConcept":{"coding":[{"system":"http://www.nlm.nih.gov/research/umls/rxnorm","code":"1037045"}]},"subject":{"reference":"Patient/febd4b3e-99bc-4c55-bba9-3b2136c2160b"},"effectivePeriod":{"start":"2025-10-10T09:00:00+00:00","end":"2025-10-12T11:15:00+00:00"}},"request":{"method":"PUT","url":"MedicationAdministration/412ed2fe-0fc2-4f27-bda8-4919fc02d901"}},{"fullUrl":"https://madie.cms.gov/MedicationAdministration/5e442a533afe5d000044bd64","resource":{"resourceType":"MedicationAdministration","id":"4d13879d-bc27-432b-ab13-79cd86ac8e2f","meta":{"profile":["http://hl7.org/fhir/us/qicore/StructureDefinition/qicore-medicationadministration"]},"status":"completed","medicationCodeableConcept":{"coding":[{"system":"http://www.nlm.nih.gov/research/umls/rxnorm","code":"1804799"}]},"subject":{"reference":"Patient/febd4b3e-99bc-4c55-bba9-3b2136c2160b"},"effectivePeriod":{"start":"2025-09-09T11:00:00+00:00"}},"request":{"method":"PUT","url":"MedicationAdministration/4d13879d-bc27-432b-ab13-79cd86ac8e2f"}},{"fullUrl":"https://madie.cms.gov/MedicationAdministration/5e442b0a3afe5d000044bee1","resource":{"resourceType":"MedicationAdministration","id":"7331247e-338f-4c9e-ba28-48072fae6a67","meta":{"profile":["http://hl7.org/fhir/us/qicore/StructureDefinition/qicore-medicationadministration"]},"extension":[{"url":"http://hl7.org/fhir/us/qicore/StructureDefinition/qicore-recorded","valueDateTime":"2025-11-01T08:30:00+00:00"}],"status":"completed","medicationCodeableConcept":{"coding":[{"system":"http://www.nlm.nih.gov/research/umls/rxnorm","code":"1037045"},{"system":"http://www.nlm.nih.gov/research/umls/rxnorm","code":"1992427"}]},"subject":{"reference":"Patient/febd4b3e-99bc-4c55-bba9-3b2136c2160b"},"effectivePeriod":{"start":"2025-11-01T08:15:00+00:00","end":"2025-11-07T08:15:00+00:00"}},"request":{"method":"PUT","url":"MedicationAdministration/7331247e-338f-4c9e-ba28-48072fae6a67"}},{"fullUrl":"https://madie.cms.gov/Coverage/5e20a3721c76ba6c5896ec1e","resource":{"resourceType":"Coverage","id":"55685086-5629-4e16-aef2-4c2dd6fb04b2","status":"active","beneficiary":{"reference":"Patient/febd4b3e-99bc-4c55-bba9-3b2136c2160b"},"period":{"start":"1975-09-26T08:00:00+00:00"},"payor":[{"reference":"Organization/ec8cac12-7dd8-4c6e-8c44-d6c645085c80"}]},"request":{"method":"PUT","url":"Coverage/55685086-5629-4e16-aef2-4c2dd6fb04b2"}},{"fullUrl":"https://madie.cms.gov/Procedure/5e271f9c29969c0000f92027","resource":{"resourceType":"Procedure","id":"43994645-7db9-4c9d-9acb-11c02c70cbc5","meta":{"profile":["http://hl7.org/fhir/us/qicore/StructureDefinition/qicore-procedure"]},"extension":[{"url":"http://hl7.org/fhir/us/qicore/StructureDefinition/qicore-recorded","valueDateTime":"2025-11-19T09:35:00-04:00"}],"status":"completed","code":{"coding":[{"system":"http://snomed.info/sct","code":"307521008"}]},"subject":{"reference":"Patient/febd4b3e-99bc-4c55-bba9-3b2136c2160b"},"performedPeriod":{"start":"2025-07-10T09:00:00+00:00"}},"request":{"method":"PUT","url":"Procedure/43994645-7db9-4c9d-9acb-11c02c70cbc5"}},{"fullUrl":"https://madie.cms.gov/Condition/ischemic-stroke-7d56","resource":{"resourceType":"Condition","id":"416678ca-ae7f-4a02-ba24-1a04a4b81e4e","meta":{"profile":["http://hl7.org/fhir/us/qicore/StructureDefinition/qicore-condition"]},"clinicalStatus":{"coding":[{"system":"http://terminology.hl7.org/CodeSystem/condition-clinical","code":"active"}]},"verificationStatus":{"coding":[{"system":"http://terminology.hl7.org/CodeSystem/condition-ver-status","code":"confirmed"}]},"category":[{"coding":[{"system":"http://terminology.hl7.org/CodeSystem/condition-category","code":"encounter-diagnosis","display":"Encounter Diagnosis"}]}],"code":{"coding":[{"system":"http://snomed.info/sct","version":"2020-09","code":"111297002","display":"Nonparalytic stroke (disorder)","userSelected":true}]},"subject":{"reference":"Patient/febd4b3e-99bc-4c55-bba9-3b2136c2160b"},"recordedDate":"2025-08-16T08:00:00.000+00:00"},"request":{"method":"PUT","url":"Condition/416678ca-ae7f-4a02-ba24-1a04a4b81e4e"}},{"fullUrl":"https://madie.cms.gov/Condition/ischemic-stroke-7d57","resource":{"resourceType":"Condition","id":"e429bff9-79b0-4830-a8ab-137f4c98d36f","meta":{"profile":["http://hl7.org/fhir/us/qicore/StructureDefinition/qicore-condition"]},"clinicalStatus":{"coding":[{"system":"http://terminology.hl7.org/CodeSystem/condition-clinical","code":"active"}]},"verificationStatus":{"coding":[{"system":"http://terminology.hl7.org/CodeSystem/condition-ver-status","code":"confirmed"}]},"category":[{"coding":[{"system":"http://terminology.hl7.org/CodeSystem/condition-category","code":"encounter-diagnosis","display":"Encounter Diagnosis"}]}],"code":{"coding":[{"system":"http://snomed.info/sct","version":"2020-09","code":"111297002","display":"Nonparalytic stroke (disorder)","userSelected":true}]},"subject":{"reference":"Patient/febd4b3e-99bc-4c55-bba9-3b2136c2160b"},"recordedDate":"2025-08-16T08:00:00.000+00:00"},"request":{"method":"PUT","url":"Condition/e429bff9-79b0-4830-a8ab-137f4c98d36f"}},{"fullUrl":"https://madie.cms.gov/Condition/ischemic-stroke-7d58","resource":{"resourceType":"Condition","id":"1232b2eb-40bf-4d4c-abe1-9030bc862444","meta":{"profile":["http://hl7.org/fhir/us/qicore/StructureDefinition/qicore-condition"]},"clinicalStatus":{"coding":[{"system":"http://terminology.hl7.org/CodeSystem/condition-clinical","code":"active"}]},"verificationStatus":{"coding":[{"system":"http://terminology.hl7.org/CodeSystem/condition-ver-status","code":"confirmed"}]},"category":[{"coding":[{"system":"http://terminology.hl7.org/CodeSystem/condition-category","code":"encounter-diagnosis","display":"Encounter Diagnosis"}]}],"code":{"coding":[{"system":"http://snomed.info/sct","version":"2020-09","code":"111297002","display":"Nonparalytic stroke (disorder)","userSelected":true}]},"subject":{"reference":"Patient/febd4b3e-99bc-4c55-bba9-3b2136c2160b"},"recordedDate":"2025-08-16T08:00:00.000+00:00"},"request":{"method":"PUT","url":"Condition/1232b2eb-40bf-4d4c-abe1-9030bc862444"}},{"fullUrl":"https://madie.cms.gov/Condition/ischemic-stroke-7d59","resource":{"resourceType":"Condition","id":"23c1060b-8208-4fc1-8093-2ab220c92b1d","meta":{"profile":["http://hl7.org/fhir/us/qicore/StructureDefinition/qicore-condition"]},"clinicalStatus":{"coding":[{"system":"http://terminology.hl7.org/CodeSystem/condition-clinical","code":"active"}]},"verificationStatus":{"coding":[{"system":"http://terminology.hl7.org/CodeSystem/condition-ver-status","code":"confirmed"}]},"category":[{"coding":[{"system":"http://terminology.hl7.org/CodeSystem/condition-category","code":"encounter-diagnosis","display":"Encounter Diagnosis"}]}],"code":{"coding":[{"system":"http://snomed.info/sct","version":"2020-09","code":"422504002","display":"Ischemic stroke (disorder)","userSelected":true}]},"subject":{"reference":"Patient/febd4b3e-99bc-4c55-bba9-3b2136c2160b"},"recordedDate":"2025-08-16T08:00:00.000+00:00"},"request":{"method":"PUT","url":"Condition/23c1060b-8208-4fc1-8093-2ab220c92b1d"}},{"fullUrl":"https://madie.cms.gov/Organization/123456","resource":{"resourceType":"Organization","id":"ec8cac12-7dd8-4c6e-8c44-d6c645085c80","meta":{"profile":["http://hl7.org/fhir/us/qicore/StructureDefinition/qicore-organization"]},"identifier":[{"use":"temp","system":"urn:oid:2.16.840.1.113883.4.4","value":"21-3259825"}],"active":true,"type":[{"coding":[{"system":"http://terminology.hl7.org/CodeSystem/organization-type","code":"pay","display":"Payer"}]}],"name":"Blue Cross Blue Shield of Texas","telecom":[{"system":"phone","value":"(+1) 972-766-6900"}],"address":[{"use":"billing","type":"postal","line":["P.O. Box 660044"],"city":"Dallas","state":"TX","postalCode":"75266-0044","country":"USA"}]},"request":{"method":"PUT","url":"Organization/ec8cac12-7dd8-4c6e-8c44-d6c645085c80"}},{"fullUrl":"https://madie.cms.gov/Practitioner/practitioner-123456","resource":{"resourceType":"Practitioner","id":"d5b89446-9b0d-4f88-ad3e-e5c79ba7a58e","identifier":[{"system":"http://hl7.org/fhir/sid/us-npi","value":"123456"}],"name":[{"family":"Evil","prefix":["Dr"]}]},"request":{"method":"PUT","url":"Practitioner/d5b89446-9b0d-4f88-ad3e-e5c79ba7a58e"}},{"fullUrl":"https://madie.cms.gov/MeasureReport/0642699b-c790-49e8-8580-b0ea8759c277","resource":{"resourceType":"MeasureReport","id":"0642699b-c790-49e8-8580-b0ea8759c277","meta":{"profile":["http://hl7.org/fhir/us/cqfmeasures/StructureDefinition/test-case-cqfm"]},"contained":[{"resourceType":"Parameters","id":"ccddce22-f3ec-4a2c-938a-cb5c65dc6b37-parameters","parameter":[{"name":"subject","valueString":"febd4b3e-99bc-4c55-bba9-3b2136c2160b"}]}],"extension":[{"url":"http://hl7.org/fhir/us/cqfmeasures/StructureDefinition/cqfm-inputParameters","valueReference":{"reference":"#ccddce22-f3ec-4a2c-938a-cb5c65dc6b37-parameters"}},{"url":"http://hl7.org/fhir/us/cqfmeasures/StructureDefinition/cqfm-testCaseDescription","valueMarkdown":"Patient receives tPA in first encounter and antithrombotics in last 2 encounters. Testing to ensure medications without end dates do not interfere with encounters that follow. Executes as expected. \n"}],"modifierExtension":[{"url":"http://hl7.org/fhir/us/cqfmeasures/StructureDefinition/cqfm-isTestCase","valueBoolean":true}],"status":"complete","type":"individual","measure":"https://madie.cms.gov/Measure/AntithromboticTherapyByEndofHospitalDay2FHIR","period":{"start":"2025-01-01","end":"2025-12-31"},"group":[{"population":[{"code":{"coding":[{"system":"http://terminology.hl7.org/CodeSystem/measure-population","code":"initial-population","display":"Initial Population"}]},"count":4},{"code":{"coding":[{"system":"http://terminology.hl7.org/CodeSystem/measure-population","code":"denominator","display":"Denominator"}]},"count":4},{"code":{"coding":[{"system":"http://terminology.hl7.org/CodeSystem/measure-population","code":"denominator-exclusion","display":"Denominator Exclusion"}]},"count":2},{"code":{"coding":[{"system":"http://terminology.hl7.org/CodeSystem/measure-population","code":"numerator","display":"Numerator"}]},"count":2},{"code":{"coding":[{"system":"http://terminology.hl7.org/CodeSystem/measure-population","code":"denominator-exception","display":"Denominator Exception"}]},"count":0}]}]},"request":{"method":"PUT","url":"MeasureReport/0642699b-c790-49e8-8580-b0ea8759c277"}}]}