{"resourceType":"Bundle","id":"tests-763c581d-7398-47e7-ba78-eaa5853df551-bundle","type":"transaction","entry":[{"fullUrl":"https://madie.cms.gov/Patient/763c581d-7398-47e7-ba78-eaa5853df551","resource":{"resourceType":"Patient","id":"763c581d-7398-47e7-ba78-eaa5853df551","meta":{"profile":["http://hl7.org/fhir/us/qicore/StructureDefinition/qicore-patient"]},"text":{"status":"generated","div":"<div xmlns=\"http://www.w3.org/1999/xhtml\"><div class=\"hapiHeaderText\">CMP&gt;1day_duringIP <b>DENEXFAIL </b></div><table class=\"hapiPropertyTable\"><tbody><tr><td>Identifier</td><td>44765b479617151df23dd60d78910085</td></tr><tr><td>Date of birth</td><td><span>26 September 1975</span></td></tr></tbody></table></div>"},"extension":[{"url":"http://hl7.org/fhir/us/core/StructureDefinition/us-core-race","extension":[{"url":"ombCategory","valueCoding":{"system":"urn:oid:2.16.840.1.113883.6.238","code":"1002-5","display":"American Indian or Alaska Native","userSelected":true}},{"url":"text","valueString":"American Indian or Alaska Native"}]},{"url":"http://hl7.org/fhir/us/core/StructureDefinition/us-core-ethnicity","extension":[{"url":"ombCategory","valueCoding":{"system":"urn:oid:2.16.840.1.113883.6.238","code":"2135-2","display":"Hispanic or Latino","userSelected":true}},{"url":"text","valueString":"Hispanic or Latino"}]}],"identifier":[{"type":{"coding":[{"system":"http://terminology.hl7.org/CodeSystem/v2-0203","code":"MR"}]},"system":"https://bonnie-fhir.healthit.gov/","value":"60f82c2e98086b570510e286"}],"active":true,"name":[{"use":"usual","family":"DENEXFail","given":["CMP>1day_duringIP"]}],"gender":"female","birthDate":"1975-09-26"},"request":{"method":"PUT","url":"Patient/763c581d-7398-47e7-ba78-eaa5853df551"}},{"fullUrl":"https://madie.cms.gov/Encounter/5c954893b848462de0ae6255","resource":{"resourceType":"Encounter","id":"ed52fbb7-c437-41ce-9698-667d0e574e5e","meta":{"profile":["http://hl7.org/fhir/us/qicore/StructureDefinition/qicore-encounter"]},"status":"finished","class":{"system":"http://terminology.hl7.org/CodeSystem/v3-ActCode","code":"EMER","display":"emergency","userSelected":true},"type":[{"coding":[{"system":"http://snomed.info/sct","code":"4525004"}]}],"subject":{"reference":"Patient/763c581d-7398-47e7-ba78-eaa5853df551"},"period":{"start":"2025-10-10T23:00:00+00:00","end":"2025-10-11T01:00:00+00:00"},"length":{"value":1,"unit":"days"}},"request":{"method":"PUT","url":"Encounter/ed52fbb7-c437-41ce-9698-667d0e574e5e"}},{"fullUrl":"https://madie.cms.gov/Encounter/5c954893b848462de0ae6256","resource":{"resourceType":"Encounter","id":"47804b4d-407e-4f31-8ea0-e2947ccb319f","meta":{"profile":["http://hl7.org/fhir/us/qicore/StructureDefinition/qicore-encounter"]},"status":"finished","class":{"system":"http://terminology.hl7.org/CodeSystem/v3-ActCode","code":"IMP","display":"inpatient encounter","userSelected":true},"type":[{"coding":[{"system":"http://snomed.info/sct","code":"32485007"}]}],"subject":{"reference":"Patient/763c581d-7398-47e7-ba78-eaa5853df551"},"period":{"start":"2025-10-11T01:30:00+00:00","end":"2025-10-14T11:00:00+00:00"},"length":{"value":3,"unit":"days"},"diagnosis":[{"condition":{"reference":"Condition/ischemic-stroke-b87a"},"use":{"coding":[{"system":"http://terminology.hl7.org/CodeSystem/diagnosis-role","code":"billing","display":"Billing"}]},"rank":1}]},"request":{"method":"PUT","url":"Encounter/47804b4d-407e-4f31-8ea0-e2947ccb319f"}},{"fullUrl":"https://madie.cms.gov/Procedure/5c954893b848462de0ae6258","resource":{"resourceType":"Procedure","id":"59a63a03-9e73-452b-883b-943216a23a33","meta":{"profile":["http://hl7.org/fhir/us/qicore/StructureDefinition/qicore-procedure"]},"extension":[{"url":"http://hl7.org/fhir/us/qicore/StructureDefinition/qicore-recorded","valueDateTime":"2013-04-05T09:35:00-04:00"}],"status":"completed","code":{"coding":[{"system":"http://snomed.info/sct","code":"133918004"}]},"subject":{"reference":"Patient/763c581d-7398-47e7-ba78-eaa5853df551"},"performedPeriod":{"start":"2025-10-12T07:00:00+00:00"}},"request":{"method":"PUT","url":"Procedure/59a63a03-9e73-452b-883b-943216a23a33"}},{"fullUrl":"https://madie.cms.gov/Coverage/5e20a36c1c76ba6c5896ebe9","resource":{"resourceType":"Coverage","id":"6a605e96-4f54-4d68-a27d-bb944c00c6a8","status":"active","beneficiary":{"reference":"Patient/763c581d-7398-47e7-ba78-eaa5853df551"},"period":{"start":"1975-09-26T08:00:00+00:00"},"payor":[{"reference":"Organization/77e4d06f-5e3c-436a-a598-80cefcca5028"}]},"request":{"method":"PUT","url":"Coverage/6a605e96-4f54-4d68-a27d-bb944c00c6a8"}},{"fullUrl":"https://madie.cms.gov/Condition/ischemic-stroke-b87a","resource":{"resourceType":"Condition","id":"648e5b9d-aeab-4511-b883-1cb8689c5d7f","meta":{"profile":["http://hl7.org/fhir/us/qicore/StructureDefinition/qicore-condition"]},"clinicalStatus":{"coding":[{"system":"http://terminology.hl7.org/CodeSystem/condition-clinical","code":"active"}]},"verificationStatus":{"coding":[{"system":"http://terminology.hl7.org/CodeSystem/condition-ver-status","code":"confirmed"}]},"category":[{"coding":[{"system":"http://terminology.hl7.org/CodeSystem/condition-category","code":"encounter-diagnosis","display":"Encounter Diagnosis"}]}],"code":{"coding":[{"system":"http://snomed.info/sct","version":"2020-09","code":"111297002","display":"Nonparalytic stroke (disorder)","userSelected":true}]},"subject":{"reference":"Patient/763c581d-7398-47e7-ba78-eaa5853df551"},"recordedDate":"2025-08-11T08:00:00.000+00:00"},"request":{"method":"PUT","url":"Condition/648e5b9d-aeab-4511-b883-1cb8689c5d7f"}},{"fullUrl":"https://madie.cms.gov/Organization/123456","resource":{"resourceType":"Organization","id":"77e4d06f-5e3c-436a-a598-80cefcca5028","meta":{"profile":["http://hl7.org/fhir/us/qicore/StructureDefinition/qicore-organization"]},"identifier":[{"use":"temp","system":"urn:oid:2.16.840.1.113883.4.4","value":"21-3259825"}],"active":true,"type":[{"coding":[{"system":"http://terminology.hl7.org/CodeSystem/organization-type","code":"pay","display":"Payer"}]}],"name":"Blue Cross Blue Shield of Texas","telecom":[{"system":"phone","value":"(+1) 972-766-6900"}],"address":[{"use":"billing","type":"postal","line":["P.O. Box 660044"],"city":"Dallas","state":"TX","postalCode":"75266-0044","country":"USA"}]},"request":{"method":"PUT","url":"Organization/77e4d06f-5e3c-436a-a598-80cefcca5028"}},{"fullUrl":"https://madie.cms.gov/MeasureReport/555cc837-735b-4607-b7a0-2f20630825b0","resource":{"resourceType":"MeasureReport","id":"555cc837-735b-4607-b7a0-2f20630825b0","meta":{"profile":["http://hl7.org/fhir/us/cqfmeasures/StructureDefinition/test-case-cqfm"]},"contained":[{"resourceType":"Parameters","id":"125c1a30-0fef-4d89-b972-b3f68db555d4-parameters","parameter":[{"name":"subject","valueString":"763c581d-7398-47e7-ba78-eaa5853df551"}]}],"extension":[{"url":"http://hl7.org/fhir/us/cqfmeasures/StructureDefinition/cqfm-inputParameters","valueReference":{"reference":"#125c1a30-0fef-4d89-b972-b3f68db555d4-parameters"}},{"url":"http://hl7.org/fhir/us/cqfmeasures/StructureDefinition/cqfm-testCaseDescription","valueMarkdown":"Patient receives comfort measures performed >1 day during EncIP, global.\"Hospitalization\" =(Ed+IP)\n"}],"modifierExtension":[{"url":"http://hl7.org/fhir/us/cqfmeasures/StructureDefinition/cqfm-isTestCase","valueBoolean":true}],"status":"complete","type":"individual","measure":"https://madie.cms.gov/Measure/AntithromboticTherapyByEndofHospitalDay2FHIR","period":{"start":"2025-01-01","end":"2025-12-31"},"group":[{"population":[{"code":{"coding":[{"system":"http://terminology.hl7.org/CodeSystem/measure-population","code":"initial-population","display":"Initial Population"}]},"count":1},{"code":{"coding":[{"system":"http://terminology.hl7.org/CodeSystem/measure-population","code":"denominator","display":"Denominator"}]},"count":1},{"code":{"coding":[{"system":"http://terminology.hl7.org/CodeSystem/measure-population","code":"denominator-exclusion","display":"Denominator Exclusion"}]},"count":0},{"code":{"coding":[{"system":"http://terminology.hl7.org/CodeSystem/measure-population","code":"numerator","display":"Numerator"}]},"count":0},{"code":{"coding":[{"system":"http://terminology.hl7.org/CodeSystem/measure-population","code":"denominator-exception","display":"Denominator Exception"}]},"count":0}]}]},"request":{"method":"PUT","url":"MeasureReport/555cc837-735b-4607-b7a0-2f20630825b0"}}]}