{"resourceType":"Bundle","id":"tests-dd40e582-8c3f-44a2-b781-84acead6120f-bundle","type":"transaction","entry":[{"fullUrl":"https://madie.cms.gov/Patient/dd40e582-8c3f-44a2-b781-84acead6120f","resource":{"resourceType":"Patient","id":"dd40e582-8c3f-44a2-b781-84acead6120f","meta":{"profile":["http://hl7.org/fhir/us/qicore/StructureDefinition/qicore-patient"]},"text":{"status":"generated","div":"<div xmlns=\"http://www.w3.org/1999/xhtml\"><div class=\"hapiHeaderText\">INRDayOfObs_ED&gt;1hrObs&gt;1hrBFEncDayOf <b>DENEXCEPASS </b></div><table class=\"hapiPropertyTable\"><tbody><tr><td>Identifier</td><td>b0367ad2370c96a56a23cd881813021fde2c7ef482bca50c0100c8faeb808f24</td></tr><tr><td>Date of birth</td><td><span>26 September 1975</span></td></tr></tbody></table></div>"},"extension":[{"url":"http://hl7.org/fhir/us/core/StructureDefinition/us-core-race","extension":[{"url":"ombCategory","valueCoding":{"system":"urn:oid:2.16.840.1.113883.6.238","code":"2054-5","display":"Black or African American","userSelected":true}},{"url":"text","valueString":"Black or African American"}]},{"url":"http://hl7.org/fhir/us/core/StructureDefinition/us-core-ethnicity","extension":[{"url":"ombCategory","valueCoding":{"system":"urn:oid:2.16.840.1.113883.6.238","code":"2186-5","display":"Not Hispanic or Latino","userSelected":true}},{"url":"text","valueString":"Not Hispanic or Latino"}]}],"identifier":[{"type":{"coding":[{"system":"http://terminology.hl7.org/CodeSystem/v2-0203","code":"MR"}]},"system":"https://bonnie-fhir.healthit.gov/","value":"60f82c2f98086b570510e2ab"}],"active":true,"name":[{"use":"usual","family":"DENEXCEPass","given":["INRDayOfObs_ED>1hrObs>1hrBFEncDayOf"]}],"gender":"female","birthDate":"1975-09-26"},"request":{"method":"PUT","url":"Patient/dd40e582-8c3f-44a2-b781-84acead6120f"}},{"fullUrl":"https://madie.cms.gov/Encounter/5c954894b848462de0ae62de","resource":{"resourceType":"Encounter","id":"2bfce685-71a0-4195-9ba0-d4ce01bcb411","meta":{"profile":["http://hl7.org/fhir/us/qicore/StructureDefinition/qicore-encounter"]},"status":"finished","class":{"system":"http://terminology.hl7.org/CodeSystem/v3-ActCode","code":"EMER","display":"emergency","userSelected":true},"type":[{"coding":[{"system":"http://snomed.info/sct","code":"4525004"}]}],"subject":{"reference":"Patient/dd40e582-8c3f-44a2-b781-84acead6120f"},"period":{"start":"2025-10-10T06:15:00+00:00","end":"2025-10-10T06:30:00+00:00"},"length":{"value":0,"unit":"days"}},"request":{"method":"PUT","url":"Encounter/2bfce685-71a0-4195-9ba0-d4ce01bcb411"}},{"fullUrl":"https://madie.cms.gov/Encounter/5c954894b848462de0ae62df","resource":{"resourceType":"Encounter","id":"f9c607b0-dd54-4522-b72c-816a65f840bf","meta":{"profile":["http://hl7.org/fhir/us/qicore/StructureDefinition/qicore-encounter"]},"status":"finished","class":{"system":"http://terminology.hl7.org/CodeSystem/v3-ActCode","code":"OBSENC","display":"observation encounter","userSelected":true},"type":[{"coding":[{"system":"http://snomed.info/sct","code":"448851000124103"}]}],"subject":{"reference":"Patient/dd40e582-8c3f-44a2-b781-84acead6120f"},"period":{"start":"2025-10-10T07:31:00+00:00","end":"2025-10-10T07:35:00+00:00"},"length":{"value":0,"unit":"days"}},"request":{"method":"PUT","url":"Encounter/f9c607b0-dd54-4522-b72c-816a65f840bf"}},{"fullUrl":"https://madie.cms.gov/Encounter/5c954894b848462de0ae62e0","resource":{"resourceType":"Encounter","id":"4a6b0d72-3b58-4588-94a7-70f364b89a62","meta":{"profile":["http://hl7.org/fhir/us/qicore/StructureDefinition/qicore-encounter"]},"status":"finished","class":{"system":"http://terminology.hl7.org/CodeSystem/v3-ActCode","code":"IMP","display":"inpatient encounter","userSelected":true},"type":[{"coding":[{"system":"http://snomed.info/sct","code":"32485007"}]}],"subject":{"reference":"Patient/dd40e582-8c3f-44a2-b781-84acead6120f"},"period":{"start":"2025-10-10T08:36:00+00:00","end":"2025-10-15T11:30:00+00:00"},"length":{"value":5,"unit":"days"},"diagnosis":[{"condition":{"reference":"Condition/ischemic-stroke-9f19"},"use":{"coding":[{"system":"http://terminology.hl7.org/CodeSystem/diagnosis-role","code":"billing","display":"Billing"}]},"rank":1}]},"request":{"method":"PUT","url":"Encounter/4a6b0d72-3b58-4588-94a7-70f364b89a62"}},{"fullUrl":"https://madie.cms.gov/Observation/5c954894b848462de0ae62e2","resource":{"resourceType":"Observation","id":"f4e569b2-2a14-4555-afd5-05fd7a56debc","meta":{"profile":["http://hl7.org/fhir/us/qicore/StructureDefinition/qicore-observation"]},"status":"final","category":[{"coding":[{"system":"http://terminology.hl7.org/CodeSystem/observation-category","code":"laboratory","display":"Laboratory"}]}],"code":{"coding":[{"system":"http://loinc.org","code":"34714-6"}]},"subject":{"reference":"Patient/dd40e582-8c3f-44a2-b781-84acead6120f"},"effectivePeriod":{"start":"2025-10-10T07:31:00+00:00"},"issued":"2025-10-10T06:14:00.000+00:00","valueQuantity":{"value":3.6}},"request":{"method":"PUT","url":"Observation/f4e569b2-2a14-4555-afd5-05fd7a56debc"}},{"fullUrl":"https://madie.cms.gov/Coverage/5e20a3701c76ba6c5896ec0e","resource":{"resourceType":"Coverage","id":"c494ed52-c268-4641-8c89-4e4c84ede17e","status":"active","beneficiary":{"reference":"Patient/dd40e582-8c3f-44a2-b781-84acead6120f"},"period":{"start":"1975-09-26T08:00:00+00:00"},"payor":[{"reference":"Organization/77e4d06f-5e3c-436a-a598-80cefcca5028"}]},"request":{"method":"PUT","url":"Coverage/c494ed52-c268-4641-8c89-4e4c84ede17e"}},{"fullUrl":"https://madie.cms.gov/Condition/ischemic-stroke-9f19","resource":{"resourceType":"Condition","id":"b0df6a3f-ab3e-4990-b9a3-f6f2275c6f7b","meta":{"profile":["http://hl7.org/fhir/us/qicore/StructureDefinition/qicore-condition"]},"clinicalStatus":{"coding":[{"system":"http://terminology.hl7.org/CodeSystem/condition-clinical","code":"active"}]},"verificationStatus":{"coding":[{"system":"http://terminology.hl7.org/CodeSystem/condition-ver-status","code":"confirmed"}]},"category":[{"coding":[{"system":"http://terminology.hl7.org/CodeSystem/condition-category","code":"encounter-diagnosis","display":"Encounter Diagnosis"}]}],"code":{"coding":[{"system":"http://snomed.info/sct","version":"2020-09","code":"111297002","display":"Nonparalytic stroke (disorder)","userSelected":true}]},"subject":{"reference":"Patient/dd40e582-8c3f-44a2-b781-84acead6120f"},"recordedDate":"2025-08-06T08:00:00.000+00:00"},"request":{"method":"PUT","url":"Condition/b0df6a3f-ab3e-4990-b9a3-f6f2275c6f7b"}},{"fullUrl":"https://madie.cms.gov/Organization/123456","resource":{"resourceType":"Organization","id":"77e4d06f-5e3c-436a-a598-80cefcca5028","meta":{"profile":["http://hl7.org/fhir/us/qicore/StructureDefinition/qicore-organization"]},"identifier":[{"use":"temp","system":"urn:oid:2.16.840.1.113883.4.4","value":"21-3259825"}],"active":true,"type":[{"coding":[{"system":"http://terminology.hl7.org/CodeSystem/organization-type","code":"pay","display":"Payer"}]}],"name":"Blue Cross Blue Shield of Texas","telecom":[{"system":"phone","value":"(+1) 972-766-6900"}],"address":[{"use":"billing","type":"postal","line":["P.O. Box 660044"],"city":"Dallas","state":"TX","postalCode":"75266-0044","country":"USA"}]},"request":{"method":"PUT","url":"Organization/77e4d06f-5e3c-436a-a598-80cefcca5028"}},{"fullUrl":"https://madie.cms.gov/MeasureReport/e4b2f0e1-1a0b-4bd1-8f2a-55bbef03081a","resource":{"resourceType":"MeasureReport","id":"e4b2f0e1-1a0b-4bd1-8f2a-55bbef03081a","meta":{"profile":["http://hl7.org/fhir/us/cqfmeasures/StructureDefinition/test-case-cqfm"]},"contained":[{"resourceType":"Parameters","id":"de07a94c-f66a-437e-accd-1aab0af9edfb-parameters","parameter":[{"name":"subject","valueString":"dd40e582-8c3f-44a2-b781-84acead6120f"}]}],"extension":[{"url":"http://hl7.org/fhir/us/cqfmeasures/StructureDefinition/cqfm-inputParameters","valueReference":{"reference":"#de07a94c-f66a-437e-accd-1aab0af9edfb-parameters"}},{"url":"http://hl7.org/fhir/us/cqfmeasures/StructureDefinition/cqfm-testCaseDescription","valueMarkdown":"Patient receives INR of 3.6 the day of Obs start. Ed ends 61 min before OBs start, Obs ends 61 min before IP start on the same day. Testing Day of operator with HospitalizationWithObservation function.\n"}],"modifierExtension":[{"url":"http://hl7.org/fhir/us/cqfmeasures/StructureDefinition/cqfm-isTestCase","valueBoolean":true}],"status":"complete","type":"individual","measure":"https://madie.cms.gov/Measure/AntithromboticTherapyByEndofHospitalDay2FHIR","period":{"start":"2025-01-01","end":"2025-12-31"},"group":[{"population":[{"code":{"coding":[{"system":"http://terminology.hl7.org/CodeSystem/measure-population","code":"initial-population","display":"Initial Population"}]},"count":1},{"code":{"coding":[{"system":"http://terminology.hl7.org/CodeSystem/measure-population","code":"denominator","display":"Denominator"}]},"count":1},{"code":{"coding":[{"system":"http://terminology.hl7.org/CodeSystem/measure-population","code":"denominator-exclusion","display":"Denominator Exclusion"}]},"count":0},{"code":{"coding":[{"system":"http://terminology.hl7.org/CodeSystem/measure-population","code":"numerator","display":"Numerator"}]},"count":0},{"code":{"coding":[{"system":"http://terminology.hl7.org/CodeSystem/measure-population","code":"denominator-exception","display":"Denominator Exception"}]},"count":1}]}]},"request":{"method":"PUT","url":"MeasureReport/e4b2f0e1-1a0b-4bd1-8f2a-55bbef03081a"}}]}