{"resourceType":"Bundle","id":"tests-ac56c88f-5f25-4f75-946a-cadf775f0f8f-bundle","type":"transaction","entry":[{"fullUrl":"https://madie.cms.gov/Patient/ac56c88f-5f25-4f75-946a-cadf775f0f8f","resource":{"resourceType":"Patient","id":"ac56c88f-5f25-4f75-946a-cadf775f0f8f","meta":{"profile":["http://hl7.org/fhir/us/qicore/StructureDefinition/qicore-patient"]},"text":{"status":"generated","div":"<div xmlns=\"http://www.w3.org/1999/xhtml\"><div class=\"hapiHeaderText\">STKAgeGT18LOSLT120 <b>IPPASS </b></div><table class=\"hapiPropertyTable\"><tbody><tr><td>Identifier</td><td>ca0ad36b04d118a398c691ba55e7c7f9</td></tr><tr><td>Date of birth</td><td><span>22 August 1984</span></td></tr></tbody></table></div>"},"extension":[{"url":"http://hl7.org/fhir/us/core/StructureDefinition/us-core-race","extension":[{"url":"ombCategory","valueCoding":{"system":"urn:oid:2.16.840.1.113883.6.238","code":"1002-5","display":"American Indian or Alaska Native","userSelected":true}},{"url":"text","valueString":"Other Race"}]},{"url":"http://hl7.org/fhir/us/core/StructureDefinition/us-core-ethnicity","extension":[{"url":"ombCategory","valueCoding":{"system":"urn:oid:2.16.840.1.113883.6.238","code":"2135-2","display":"Hispanic or Latino","userSelected":true}},{"url":"text","valueString":"Hispanic or Latino"}]}],"identifier":[{"type":{"coding":[{"system":"http://terminology.hl7.org/CodeSystem/v2-0203","code":"MR"}]},"system":"https://bonnie-fhir.healthit.gov/","value":"60f82c2f98086b570510e2c6"}],"active":true,"name":[{"use":"usual","family":"IPPass","given":["STKAgeGT18LOSLT120"]}],"gender":"male","birthDate":"1984-08-22"},"request":{"method":"PUT","url":"Patient/ac56c88f-5f25-4f75-946a-cadf775f0f8f"}},{"fullUrl":"https://madie.cms.gov/Encounter/5c954892b848462de0ae61a1","resource":{"resourceType":"Encounter","id":"29114328-e5d3-4db3-b0bd-5f1c7df53c77","meta":{"profile":["http://hl7.org/fhir/us/qicore/StructureDefinition/qicore-encounter"]},"status":"finished","class":{"system":"http://terminology.hl7.org/CodeSystem/v3-ActCode","code":"IMP","display":"inpatient encounter"},"type":[{"coding":[{"system":"http://snomed.info/sct","code":"32485007"}]}],"subject":{"reference":"Patient/ac56c88f-5f25-4f75-946a-cadf775f0f8f"},"period":{"start":"2025-08-21T00:00:00+00:00","end":"2025-12-19T08:15:00+00:00"},"length":{"value":120,"unit":"days"},"diagnosis":[{"condition":{"reference":"Condition/ischemic-stroke-7d4d"},"use":{"coding":[{"system":"http://terminology.hl7.org/CodeSystem/diagnosis-role","code":"billing","display":"Billing"}]},"rank":1}]},"request":{"method":"PUT","url":"Encounter/29114328-e5d3-4db3-b0bd-5f1c7df53c77"}},{"fullUrl":"https://madie.cms.gov/Coverage/5e20a3651c76ba6c5896ebae","resource":{"resourceType":"Coverage","id":"e6e58fff-11de-4708-9b4d-f051170b685d","status":"active","beneficiary":{"reference":"Patient/ac56c88f-5f25-4f75-946a-cadf775f0f8f"},"period":{"start":"1994-08-22T07:00:00+00:00"},"payor":[{"reference":"Organization/f6075515-d38f-4624-bde8-a1ce20473a69"}]},"request":{"method":"PUT","url":"Coverage/e6e58fff-11de-4708-9b4d-f051170b685d"}},{"fullUrl":"https://madie.cms.gov/Condition/ischemic-stroke-7d4d","resource":{"resourceType":"Condition","id":"27639a0e-53bf-44dc-85ed-4bb9cef0836f","meta":{"profile":["http://hl7.org/fhir/us/qicore/StructureDefinition/qicore-condition"]},"clinicalStatus":{"coding":[{"system":"http://terminology.hl7.org/CodeSystem/condition-clinical","code":"active"}]},"verificationStatus":{"coding":[{"system":"http://terminology.hl7.org/CodeSystem/condition-ver-status","code":"confirmed"}]},"category":[{"coding":[{"system":"http://terminology.hl7.org/CodeSystem/condition-category","code":"encounter-diagnosis","display":"Encounter Diagnosis"}]}],"code":{"coding":[{"system":"http://snomed.info/sct","version":"2020-09","code":"111297002","display":"Nonparalytic stroke (disorder)","userSelected":true}]},"subject":{"reference":"Patient/ac56c88f-5f25-4f75-946a-cadf775f0f8f"},"recordedDate":"2025-08-16T08:00:00.000+00:00"},"request":{"method":"PUT","url":"Condition/27639a0e-53bf-44dc-85ed-4bb9cef0836f"}},{"fullUrl":"https://madie.cms.gov/Organization/123456","resource":{"resourceType":"Organization","id":"f6075515-d38f-4624-bde8-a1ce20473a69","meta":{"profile":["http://hl7.org/fhir/us/qicore/StructureDefinition/qicore-organization"]},"identifier":[{"use":"temp","system":"urn:oid:2.16.840.1.113883.4.4","value":"21-3259825"}],"active":true,"type":[{"coding":[{"system":"http://terminology.hl7.org/CodeSystem/organization-type","code":"pay","display":"Payer"}]}],"name":"Blue Cross Blue Shield of Texas","telecom":[{"system":"phone","value":"(+1) 972-766-6900"}],"address":[{"use":"billing","type":"postal","line":["P.O. Box 660044"],"city":"Dallas","state":"TX","postalCode":"75266-0044","country":"USA"}]},"request":{"method":"PUT","url":"Organization/f6075515-d38f-4624-bde8-a1ce20473a69"}},{"fullUrl":"https://madie.cms.gov/Practitioner/practitioner-123456","resource":{"resourceType":"Practitioner","id":"4f93f7e9-3af2-46cf-b952-252c279222f1","identifier":[{"system":"http://hl7.org/fhir/sid/us-npi","value":"123456"}],"name":[{"family":"Evil","prefix":["Dr"]}]},"request":{"method":"PUT","url":"Practitioner/4f93f7e9-3af2-46cf-b952-252c279222f1"}},{"fullUrl":"https://madie.cms.gov/MeasureReport/2906fece-a02e-4683-aa2f-94f503131117","resource":{"resourceType":"MeasureReport","id":"2906fece-a02e-4683-aa2f-94f503131117","meta":{"profile":["http://hl7.org/fhir/us/cqfmeasures/StructureDefinition/test-case-cqfm"]},"contained":[{"resourceType":"Parameters","id":"ea268cd7-5888-4d6b-a5c3-830a26b7125c-parameters","parameter":[{"name":"subject","valueString":"ac56c88f-5f25-4f75-946a-cadf775f0f8f"}]}],"extension":[{"url":"http://hl7.org/fhir/us/cqfmeasures/StructureDefinition/cqfm-inputParameters","valueReference":{"reference":"#ea268cd7-5888-4d6b-a5c3-830a26b7125c-parameters"}},{"url":"http://hl7.org/fhir/us/cqfmeasures/StructureDefinition/cqfm-testCaseDescription","valueMarkdown":"Patient's age is greater than 18, ethnicity variation\n"}],"modifierExtension":[{"url":"http://hl7.org/fhir/us/cqfmeasures/StructureDefinition/cqfm-isTestCase","valueBoolean":true}],"status":"complete","type":"individual","measure":"https://madie.cms.gov/Measure/AntithromboticTherapyByEndofHospitalDay2FHIR","period":{"start":"2025-01-01","end":"2025-12-31"},"group":[{"population":[{"code":{"coding":[{"system":"http://terminology.hl7.org/CodeSystem/measure-population","code":"initial-population","display":"Initial Population"}]},"count":1},{"code":{"coding":[{"system":"http://terminology.hl7.org/CodeSystem/measure-population","code":"denominator","display":"Denominator"}]},"count":1},{"code":{"coding":[{"system":"http://terminology.hl7.org/CodeSystem/measure-population","code":"denominator-exclusion","display":"Denominator Exclusion"}]},"count":0},{"code":{"coding":[{"system":"http://terminology.hl7.org/CodeSystem/measure-population","code":"numerator","display":"Numerator"}]},"count":0},{"code":{"coding":[{"system":"http://terminology.hl7.org/CodeSystem/measure-population","code":"denominator-exception","display":"Denominator Exception"}]},"count":0}]}]},"request":{"method":"PUT","url":"MeasureReport/2906fece-a02e-4683-aa2f-94f503131117"}}]}