{"resourceType":"Bundle","id":"tests-05ec524f-1d2d-4f9e-8eaa-cc2662030fc6-bundle","type":"transaction","entry":[{"fullUrl":"https://madie.cms.gov/Patient/05ec524f-1d2d-4f9e-8eaa-cc2662030fc6","resource":{"resourceType":"Patient","id":"05ec524f-1d2d-4f9e-8eaa-cc2662030fc6","meta":{"profile":["http://hl7.org/fhir/us/qicore/StructureDefinition/qicore-patient"]},"text":{"status":"generated","div":"<div xmlns=\"http://www.w3.org/1999/xhtml\"><div class=\"hapiHeaderText\">INRdurED_ED&lt;1hrObs&lt;1hrBFEncDayAft <b>DENEXCEPASS </b></div><table class=\"hapiPropertyTable\"><tbody><tr><td>Identifier</td><td>00e7688de4ce78bc9928efc7c58d050e4007772e7111560948ff30af68fe37ac</td></tr><tr><td>Date of birth</td><td><span>26 September 1975</span></td></tr></tbody></table></div>"},"extension":[{"url":"http://hl7.org/fhir/us/core/StructureDefinition/us-core-race","extension":[{"url":"ombCategory","valueCoding":{"system":"urn:oid:2.16.840.1.113883.6.238","code":"2054-5","display":"Black or African American","userSelected":true}},{"url":"text","valueString":"Black or African American"}]},{"url":"http://hl7.org/fhir/us/core/StructureDefinition/us-core-ethnicity","extension":[{"url":"ombCategory","valueCoding":{"system":"urn:oid:2.16.840.1.113883.6.238","code":"2186-5","display":"Not Hispanic or Latino","userSelected":true}},{"url":"text","valueString":"Not Hispanic or Latino"}]}],"identifier":[{"type":{"coding":[{"system":"http://terminology.hl7.org/CodeSystem/v2-0203","code":"MR"}]},"system":"https://bonnie-fhir.healthit.gov/","value":"60f82c2f98086b570510e2b6"}],"active":true,"name":[{"use":"usual","family":"DENEXCEPass","given":["INRdurED_ED<1hrObs<1hrBFEncDayAft"]}],"gender":"female","birthDate":"1975-09-26"},"request":{"method":"PUT","url":"Patient/05ec524f-1d2d-4f9e-8eaa-cc2662030fc6"}},{"fullUrl":"https://madie.cms.gov/Encounter/5c954894b848462de0ae631c","resource":{"resourceType":"Encounter","id":"7692945e-f4bd-4a09-8d5a-ab99deb96a38","meta":{"profile":["http://hl7.org/fhir/us/qicore/StructureDefinition/qicore-encounter"]},"status":"finished","class":{"system":"http://terminology.hl7.org/CodeSystem/v3-ActCode","code":"EMER","display":"emergency","userSelected":true},"type":[{"coding":[{"system":"http://snomed.info/sct","code":"4525004"}]}],"subject":{"reference":"Patient/05ec524f-1d2d-4f9e-8eaa-cc2662030fc6"},"period":{"start":"2025-10-10T06:15:00+00:00","end":"2025-10-10T06:30:00+00:00"},"length":{"value":0,"unit":"days"}},"request":{"method":"PUT","url":"Encounter/7692945e-f4bd-4a09-8d5a-ab99deb96a38"}},{"fullUrl":"https://madie.cms.gov/Encounter/5c954894b848462de0ae631d","resource":{"resourceType":"Encounter","id":"7c1fbaa2-34d5-4cee-b936-89e28081128f","meta":{"profile":["http://hl7.org/fhir/us/qicore/StructureDefinition/qicore-encounter"]},"status":"finished","class":{"system":"http://terminology.hl7.org/CodeSystem/v3-ActCode","code":"OBSENC","display":"observation encounter","userSelected":true},"type":[{"coding":[{"system":"http://snomed.info/sct","code":"448951000124107"}]}],"subject":{"reference":"Patient/05ec524f-1d2d-4f9e-8eaa-cc2662030fc6"},"period":{"start":"2025-10-10T06:31:00+00:00","end":"2025-10-10T23:59:00+00:00"},"length":{"value":0,"unit":"days"}},"request":{"method":"PUT","url":"Encounter/7c1fbaa2-34d5-4cee-b936-89e28081128f"}},{"fullUrl":"https://madie.cms.gov/Encounter/5c954894b848462de0ae631e","resource":{"resourceType":"Encounter","id":"c3ca7da8-769c-4291-83f1-da792a9bd384","meta":{"profile":["http://hl7.org/fhir/us/qicore/StructureDefinition/qicore-encounter"]},"status":"finished","class":{"system":"http://terminology.hl7.org/CodeSystem/v3-ActCode","code":"IMP","display":"inpatient encounter","userSelected":true},"type":[{"coding":[{"system":"http://snomed.info/sct","code":"32485007"}]}],"subject":{"reference":"Patient/05ec524f-1d2d-4f9e-8eaa-cc2662030fc6"},"period":{"start":"2025-10-11T00:00:00+00:00","end":"2025-10-15T11:30:00+00:00"},"length":{"value":4,"unit":"days"},"diagnosis":[{"condition":{"reference":"Condition/ischemic-stroke-9f1c"},"use":{"coding":[{"system":"http://terminology.hl7.org/CodeSystem/diagnosis-role","code":"billing","display":"Billing"}]},"rank":1}]},"request":{"method":"PUT","url":"Encounter/c3ca7da8-769c-4291-83f1-da792a9bd384"}},{"fullUrl":"https://madie.cms.gov/Observation/5c954894b848462de0ae6320","resource":{"resourceType":"Observation","id":"c62e1bc6-ba28-4e4f-9be0-f0f4d0db9e7e","meta":{"profile":["http://hl7.org/fhir/us/qicore/StructureDefinition/qicore-observation"]},"status":"final","category":[{"coding":[{"system":"http://terminology.hl7.org/CodeSystem/observation-category","code":"laboratory","display":"Laboratory"}]}],"code":{"coding":[{"system":"http://loinc.org","code":"34714-6"}]},"subject":{"reference":"Patient/05ec524f-1d2d-4f9e-8eaa-cc2662030fc6"},"effectivePeriod":{"start":"2025-10-10T06:15:00+00:00"},"issued":"2025-10-10T06:30:00.000+00:00","valueQuantity":{"value":3.6}},"request":{"method":"PUT","url":"Observation/c62e1bc6-ba28-4e4f-9be0-f0f4d0db9e7e"}},{"fullUrl":"https://madie.cms.gov/Coverage/5e20a3711c76ba6c5896ec19","resource":{"resourceType":"Coverage","id":"1b78a167-cfb7-4668-88df-bfe3ddf94c9c","status":"active","beneficiary":{"reference":"Patient/05ec524f-1d2d-4f9e-8eaa-cc2662030fc6"},"period":{"start":"1975-09-26T08:00:00+00:00"},"payor":[{"reference":"Organization/5224cb12-ed64-4d6d-ab28-40a64f0800f1"}]},"request":{"method":"PUT","url":"Coverage/1b78a167-cfb7-4668-88df-bfe3ddf94c9c"}},{"fullUrl":"https://madie.cms.gov/Condition/ischemic-stroke-9f1c","resource":{"resourceType":"Condition","id":"799db0e4-1f2a-4a39-95e3-3dc2d28a4461","meta":{"profile":["http://hl7.org/fhir/us/qicore/StructureDefinition/qicore-condition"]},"clinicalStatus":{"coding":[{"system":"http://terminology.hl7.org/CodeSystem/condition-clinical","code":"active"}]},"verificationStatus":{"coding":[{"system":"http://terminology.hl7.org/CodeSystem/condition-ver-status","code":"confirmed"}]},"category":[{"coding":[{"system":"http://terminology.hl7.org/CodeSystem/condition-category","code":"encounter-diagnosis","display":"Encounter Diagnosis"}]}],"code":{"coding":[{"system":"http://snomed.info/sct","version":"2020-09","code":"111297002","display":"Nonparalytic stroke (disorder)","userSelected":true}]},"subject":{"reference":"Patient/05ec524f-1d2d-4f9e-8eaa-cc2662030fc6"},"recordedDate":"2025-08-06T08:00:00.000+00:00"},"request":{"method":"PUT","url":"Condition/799db0e4-1f2a-4a39-95e3-3dc2d28a4461"}},{"fullUrl":"https://madie.cms.gov/Organization/123456","resource":{"resourceType":"Organization","id":"5224cb12-ed64-4d6d-ab28-40a64f0800f1","meta":{"profile":["http://hl7.org/fhir/us/qicore/StructureDefinition/qicore-organization"]},"identifier":[{"use":"temp","system":"urn:oid:2.16.840.1.113883.4.4","value":"21-3259825"}],"active":true,"type":[{"coding":[{"system":"http://terminology.hl7.org/CodeSystem/organization-type","code":"pay","display":"Payer"}]}],"name":"Blue Cross Blue Shield of Texas","telecom":[{"system":"phone","value":"(+1) 972-766-6900"}],"address":[{"use":"billing","type":"postal","line":["P.O. Box 660044"],"city":"Dallas","state":"TX","postalCode":"75266-0044","country":"USA"}]},"request":{"method":"PUT","url":"Organization/5224cb12-ed64-4d6d-ab28-40a64f0800f1"}},{"fullUrl":"https://madie.cms.gov/MeasureReport/6a24ee94-a7bc-4b90-a3ec-a889d3c9eef5","resource":{"resourceType":"MeasureReport","id":"6a24ee94-a7bc-4b90-a3ec-a889d3c9eef5","meta":{"profile":["http://hl7.org/fhir/us/cqfmeasures/StructureDefinition/test-case-cqfm"]},"contained":[{"resourceType":"Parameters","id":"0f8fb101-f1f0-4483-86ef-969e0b75ddda-parameters","parameter":[{"name":"subject","valueString":"05ec524f-1d2d-4f9e-8eaa-cc2662030fc6"}]}],"extension":[{"url":"http://hl7.org/fhir/us/cqfmeasures/StructureDefinition/cqfm-inputParameters","valueReference":{"reference":"#0f8fb101-f1f0-4483-86ef-969e0b75ddda-parameters"}},{"url":"http://hl7.org/fhir/us/cqfmeasures/StructureDefinition/cqfm-testCaseDescription","valueMarkdown":"Patient receives INR of 3.6 the day of ED. ED ends 1 minute before Obs, Obs ends 1 min before IP the next day at midnight. Testing Day of operator with HospitalizationWithObservation function.\n"}],"modifierExtension":[{"url":"http://hl7.org/fhir/us/cqfmeasures/StructureDefinition/cqfm-isTestCase","valueBoolean":true}],"status":"complete","type":"individual","measure":"https://madie.cms.gov/Measure/AntithromboticTherapyByEndofHospitalDay2FHIR","period":{"start":"2025-01-01","end":"2025-12-31"},"group":[{"population":[{"code":{"coding":[{"system":"http://terminology.hl7.org/CodeSystem/measure-population","code":"initial-population","display":"Initial Population"}]},"count":1},{"code":{"coding":[{"system":"http://terminology.hl7.org/CodeSystem/measure-population","code":"denominator","display":"Denominator"}]},"count":1},{"code":{"coding":[{"system":"http://terminology.hl7.org/CodeSystem/measure-population","code":"denominator-exclusion","display":"Denominator Exclusion"}]},"count":0},{"code":{"coding":[{"system":"http://terminology.hl7.org/CodeSystem/measure-population","code":"numerator","display":"Numerator"}]},"count":0},{"code":{"coding":[{"system":"http://terminology.hl7.org/CodeSystem/measure-population","code":"denominator-exception","display":"Denominator Exception"}]},"count":1}]}]},"request":{"method":"PUT","url":"MeasureReport/6a24ee94-a7bc-4b90-a3ec-a889d3c9eef5"}}]}