{"resourceType":"Bundle","id":"tests-b569157b-b263-4b72-ab40-132bea1d8f71-bundle","type":"transaction","entry":[{"fullUrl":"https://madie.cms.gov/Patient/b569157b-b263-4b72-ab40-132bea1d8f71","resource":{"resourceType":"Patient","id":"b569157b-b263-4b72-ab40-132bea1d8f71","meta":{"profile":["http://hl7.org/fhir/us/qicore/StructureDefinition/qicore-patient"]},"text":{"status":"generated","div":"<div xmlns=\"http://www.w3.org/1999/xhtml\"><div class=\"hapiHeaderText\">MedAntithromboticStart_eq0dayDuringEncIP <b>NUMERPASS </b></div><table class=\"hapiPropertyTable\"><tbody><tr><td>Identifier</td><td>6aa79e9cebbde8275335fd99b030f3d5</td></tr><tr><td>Date of birth</td><td><span>26 September 1975</span></td></tr></tbody></table></div>"},"extension":[{"url":"http://hl7.org/fhir/us/core/StructureDefinition/us-core-race","extension":[{"url":"ombCategory","valueCoding":{"system":"urn:oid:2.16.840.1.113883.6.238","code":"2054-5","display":"Black or African American","userSelected":true}},{"url":"text","valueString":"Black or African American"}]},{"url":"http://hl7.org/fhir/us/core/StructureDefinition/us-core-ethnicity","extension":[{"url":"ombCategory","valueCoding":{"system":"urn:oid:2.16.840.1.113883.6.238","code":"2186-5","display":"Not Hispanic or Latino","userSelected":true}},{"url":"text","valueString":"Not Hispanic or Latino"}]}],"identifier":[{"type":{"coding":[{"system":"http://terminology.hl7.org/CodeSystem/v2-0203","code":"MR"}]},"system":"https://bonnie-fhir.healthit.gov/","value":"60f82c2d98086b570510e259"}],"active":true,"name":[{"use":"usual","family":"NUMERPass","given":["MedAntithromboticStart_eq0dayDuringEncIP "]}],"gender":"female","birthDate":"1975-09-26"},"request":{"method":"PUT","url":"Patient/b569157b-b263-4b72-ab40-132bea1d8f71"}},{"fullUrl":"https://madie.cms.gov/Encounter/5c954892b848462de0ae61bc","resource":{"resourceType":"Encounter","id":"512820f5-3533-4738-a7f2-c067763f419a","meta":{"profile":["http://hl7.org/fhir/us/qicore/StructureDefinition/qicore-encounter"]},"status":"finished","class":{"system":"http://terminology.hl7.org/CodeSystem/v3-ActCode","code":"IMP","display":"inpatient encounter"},"type":[{"coding":[{"system":"http://snomed.info/sct","code":"32485007"}]}],"subject":{"reference":"Patient/b569157b-b263-4b72-ab40-132bea1d8f71"},"period":{"start":"2025-10-10T09:00:00+00:00","end":"2025-10-12T11:15:00+00:00"},"length":{"value":2,"unit":"days"},"diagnosis":[{"condition":{"reference":"Condition/ischemic-stroke-7d63"},"use":{"coding":[{"system":"http://terminology.hl7.org/CodeSystem/diagnosis-role","code":"billing","display":"Billing"}]},"rank":1}]},"request":{"method":"PUT","url":"Encounter/512820f5-3533-4738-a7f2-c067763f419a"}},{"fullUrl":"https://madie.cms.gov/MedicationAdministration/5c954892b848462de0ae61be","resource":{"resourceType":"MedicationAdministration","id":"c5333a72-a139-408d-a96a-ad0d7265a05c","meta":{"profile":["http://hl7.org/fhir/us/qicore/StructureDefinition/qicore-medicationadministration"]},"status":"completed","medicationCodeableConcept":{"coding":[{"system":"http://www.nlm.nih.gov/research/umls/rxnorm","code":"1037045"}]},"subject":{"reference":"Patient/b569157b-b263-4b72-ab40-132bea1d8f71"},"effectivePeriod":{"start":"2025-10-11T11:00:00+00:00"}},"request":{"method":"PUT","url":"MedicationAdministration/c5333a72-a139-408d-a96a-ad0d7265a05c"}},{"fullUrl":"https://madie.cms.gov/Coverage/5e20a3671c76ba6c5896ebbc","resource":{"resourceType":"Coverage","id":"42ca1d5e-10e4-45d7-bfee-adb757b85f81","status":"active","beneficiary":{"reference":"Patient/b569157b-b263-4b72-ab40-132bea1d8f71"},"period":{"start":"1975-09-26T08:00:00+00:00"},"payor":[{"reference":"Organization/ec8cac12-7dd8-4c6e-8c44-d6c645085c80"}]},"request":{"method":"PUT","url":"Coverage/42ca1d5e-10e4-45d7-bfee-adb757b85f81"}},{"fullUrl":"https://madie.cms.gov/Condition/ischemic-stroke-7d63","resource":{"resourceType":"Condition","id":"f5503192-0c6b-43ee-ad29-7ee58af242c6","meta":{"profile":["http://hl7.org/fhir/us/qicore/StructureDefinition/qicore-condition"]},"clinicalStatus":{"coding":[{"system":"http://terminology.hl7.org/CodeSystem/condition-clinical","code":"active"}]},"verificationStatus":{"coding":[{"system":"http://terminology.hl7.org/CodeSystem/condition-ver-status","code":"confirmed"}]},"category":[{"coding":[{"system":"http://terminology.hl7.org/CodeSystem/condition-category","code":"encounter-diagnosis","display":"Encounter Diagnosis"}]}],"code":{"coding":[{"system":"http://snomed.info/sct","version":"2020-09","code":"111297002","display":"Nonparalytic stroke (disorder)","userSelected":true}]},"subject":{"reference":"Patient/b569157b-b263-4b72-ab40-132bea1d8f71"},"recordedDate":"2025-08-16T08:00:00.000+00:00"},"request":{"method":"PUT","url":"Condition/f5503192-0c6b-43ee-ad29-7ee58af242c6"}},{"fullUrl":"https://madie.cms.gov/Organization/123456","resource":{"resourceType":"Organization","id":"ec8cac12-7dd8-4c6e-8c44-d6c645085c80","meta":{"profile":["http://hl7.org/fhir/us/qicore/StructureDefinition/qicore-organization"]},"identifier":[{"use":"temp","system":"urn:oid:2.16.840.1.113883.4.4","value":"21-3259825"}],"active":true,"type":[{"coding":[{"system":"http://terminology.hl7.org/CodeSystem/organization-type","code":"pay","display":"Payer"}]}],"name":"Blue Cross Blue Shield of Texas","telecom":[{"system":"phone","value":"(+1) 972-766-6900"}],"address":[{"use":"billing","type":"postal","line":["P.O. Box 660044"],"city":"Dallas","state":"TX","postalCode":"75266-0044","country":"USA"}]},"request":{"method":"PUT","url":"Organization/ec8cac12-7dd8-4c6e-8c44-d6c645085c80"}},{"fullUrl":"https://madie.cms.gov/Practitioner/practitioner-123456","resource":{"resourceType":"Practitioner","id":"b7da9412-09d4-4ba9-b74a-e812e7aa0182","identifier":[{"system":"http://hl7.org/fhir/sid/us-npi","value":"123456"}],"name":[{"family":"Evil","prefix":["Dr"]}]},"request":{"method":"PUT","url":"Practitioner/b7da9412-09d4-4ba9-b74a-e812e7aa0182"}},{"fullUrl":"https://madie.cms.gov/MeasureReport/a224a654-a0e5-49c9-bb38-7d519ed53d8c","resource":{"resourceType":"MeasureReport","id":"a224a654-a0e5-49c9-bb38-7d519ed53d8c","meta":{"profile":["http://hl7.org/fhir/us/cqfmeasures/StructureDefinition/test-case-cqfm"]},"contained":[{"resourceType":"Parameters","id":"7e2b7526-c3dc-4953-8ecd-187646b0a735-parameters","parameter":[{"name":"subject","valueString":"b569157b-b263-4b72-ab40-132bea1d8f71"}]}],"extension":[{"url":"http://hl7.org/fhir/us/cqfmeasures/StructureDefinition/cqfm-inputParameters","valueReference":{"reference":"#7e2b7526-c3dc-4953-8ecd-187646b0a735-parameters"}},{"url":"http://hl7.org/fhir/us/cqfmeasures/StructureDefinition/cqfm-testCaseDescription","valueMarkdown":"\"Patient receives antithrombotic in = 0 day after IP encounter starts.\n global.\"\"Hospitalization\"\" =(IP)\"\n"}],"modifierExtension":[{"url":"http://hl7.org/fhir/us/cqfmeasures/StructureDefinition/cqfm-isTestCase","valueBoolean":true}],"status":"complete","type":"individual","measure":"https://madie.cms.gov/Measure/AntithromboticTherapyByEndofHospitalDay2FHIR","period":{"start":"2025-01-01","end":"2025-12-31"},"group":[{"population":[{"code":{"coding":[{"system":"http://terminology.hl7.org/CodeSystem/measure-population","code":"initial-population","display":"Initial Population"}]},"count":1},{"code":{"coding":[{"system":"http://terminology.hl7.org/CodeSystem/measure-population","code":"denominator","display":"Denominator"}]},"count":1},{"code":{"coding":[{"system":"http://terminology.hl7.org/CodeSystem/measure-population","code":"denominator-exclusion","display":"Denominator Exclusion"}]},"count":0},{"code":{"coding":[{"system":"http://terminology.hl7.org/CodeSystem/measure-population","code":"numerator","display":"Numerator"}]},"count":1},{"code":{"coding":[{"system":"http://terminology.hl7.org/CodeSystem/measure-population","code":"denominator-exception","display":"Denominator Exception"}]},"count":0}]}]},"request":{"method":"PUT","url":"MeasureReport/a224a654-a0e5-49c9-bb38-7d519ed53d8c"}}]}