{"resourceType":"Bundle","id":"tests-911c7730-4c4e-4c4c-ae6b-2e7a6391a98c-bundle","type":"transaction","entry":[{"fullUrl":"https://madie.cms.gov/Patient/911c7730-4c4e-4c4c-ae6b-2e7a6391a98c","resource":{"resourceType":"Patient","id":"911c7730-4c4e-4c4c-ae6b-2e7a6391a98c","meta":{"profile":["http://hl7.org/fhir/us/qicore/StructureDefinition/qicore-patient"]},"text":{"status":"generated","div":"<div xmlns=\"http://www.w3.org/1999/xhtml\"><div class=\"hapiHeaderText\">MedAntithromboticStart_gt1dayDuringEd <b>NUMERFAIL </b></div><table class=\"hapiPropertyTable\"><tbody><tr><td>Identifier</td><td>a5e30d399f249a9c074a30cd5f10a75b</td></tr><tr><td>Date of birth</td><td><span>26 September 1975</span></td></tr></tbody></table></div>"},"extension":[{"url":"http://hl7.org/fhir/us/core/StructureDefinition/us-core-race","extension":[{"url":"ombCategory","valueCoding":{"system":"urn:oid:2.16.840.1.113883.6.238","code":"2054-5","display":"Black or African American","userSelected":true}},{"url":"text","valueString":"Black or African American"}]},{"url":"http://hl7.org/fhir/us/core/StructureDefinition/us-core-ethnicity","extension":[{"url":"ombCategory","valueCoding":{"system":"urn:oid:2.16.840.1.113883.6.238","code":"2186-5","display":"Not Hispanic or Latino","userSelected":true}},{"url":"text","valueString":"Not Hispanic or Latino"}]}],"identifier":[{"type":{"coding":[{"system":"http://terminology.hl7.org/CodeSystem/v2-0203","code":"MR"}]},"system":"https://bonnie-fhir.healthit.gov/","value":"60f82c2d98086b570510e25b"}],"active":true,"name":[{"use":"usual","family":"NUMERFail","given":["MedAntithromboticStart_gt1dayDuringEd"]}],"gender":"female","birthDate":"1975-09-26"},"request":{"method":"PUT","url":"Patient/911c7730-4c4e-4c4c-ae6b-2e7a6391a98c"}},{"fullUrl":"https://madie.cms.gov/Encounter/5c954892b848462de0ae61c2","resource":{"resourceType":"Encounter","id":"618b735c-44ca-463a-94ee-8ac48e47d894","meta":{"profile":["http://hl7.org/fhir/us/qicore/StructureDefinition/qicore-encounter"]},"status":"finished","class":{"system":"http://terminology.hl7.org/CodeSystem/v3-ActCode","code":"EMER","display":"emergency"},"type":[{"coding":[{"system":"http://snomed.info/sct","code":"4525004"}]}],"subject":{"reference":"Patient/911c7730-4c4e-4c4c-ae6b-2e7a6391a98c"},"period":{"start":"2025-10-08T23:59:00+00:00","end":"2025-10-10T08:15:00+00:00"},"length":{"value":2,"unit":"days"}},"request":{"method":"PUT","url":"Encounter/618b735c-44ca-463a-94ee-8ac48e47d894"}},{"fullUrl":"https://madie.cms.gov/Encounter/5c954892b848462de0ae61c3","resource":{"resourceType":"Encounter","id":"4883cbe9-14e2-43eb-9104-0dbabd890c6c","meta":{"profile":["http://hl7.org/fhir/us/qicore/StructureDefinition/qicore-encounter"]},"status":"finished","class":{"system":"http://terminology.hl7.org/CodeSystem/v3-ActCode","code":"IMP","display":"inpatient encounter"},"type":[{"coding":[{"system":"http://snomed.info/sct","code":"32485007"}]}],"subject":{"reference":"Patient/911c7730-4c4e-4c4c-ae6b-2e7a6391a98c"},"period":{"start":"2025-10-10T09:00:00+00:00","end":"2025-10-12T11:15:00+00:00"},"length":{"value":2,"unit":"days"},"diagnosis":[{"condition":{"reference":"Condition/ischemic-stroke-7d5e"},"use":{"coding":[{"system":"http://terminology.hl7.org/CodeSystem/diagnosis-role","code":"billing","display":"Billing"}]},"rank":1}]},"request":{"method":"PUT","url":"Encounter/4883cbe9-14e2-43eb-9104-0dbabd890c6c"}},{"fullUrl":"https://madie.cms.gov/MedicationAdministration/5c954892b848462de0ae61c5","resource":{"resourceType":"MedicationAdministration","id":"a87c7d8c-bc16-40de-a18b-4af3d0a0124f","meta":{"profile":["http://hl7.org/fhir/us/qicore/StructureDefinition/qicore-medicationadministration"]},"status":"completed","medicationCodeableConcept":{"coding":[{"system":"http://www.nlm.nih.gov/research/umls/rxnorm","code":"198466"}]},"subject":{"reference":"Patient/911c7730-4c4e-4c4c-ae6b-2e7a6391a98c"},"effectivePeriod":{"start":"2025-10-10T08:01:00+00:00","end":"2025-10-10T08:45:00+00:00"}},"request":{"method":"PUT","url":"MedicationAdministration/a87c7d8c-bc16-40de-a18b-4af3d0a0124f"}},{"fullUrl":"https://madie.cms.gov/Coverage/5e20a3671c76ba6c5896ebbe","resource":{"resourceType":"Coverage","id":"461702e7-8123-4239-acb9-713433156ec5","status":"active","beneficiary":{"reference":"Patient/911c7730-4c4e-4c4c-ae6b-2e7a6391a98c"},"period":{"start":"1975-09-26T08:00:00+00:00"},"payor":[{"reference":"Organization/77e4d06f-5e3c-436a-a598-80cefcca5028"}]},"request":{"method":"PUT","url":"Coverage/461702e7-8123-4239-acb9-713433156ec5"}},{"fullUrl":"https://madie.cms.gov/Condition/ischemic-stroke-7d5e","resource":{"resourceType":"Condition","id":"23a00a20-fa21-4f8c-8596-2a8841fdc62c","meta":{"profile":["http://hl7.org/fhir/us/qicore/StructureDefinition/qicore-condition"]},"clinicalStatus":{"coding":[{"system":"http://terminology.hl7.org/CodeSystem/condition-clinical","code":"active"}]},"verificationStatus":{"coding":[{"system":"http://terminology.hl7.org/CodeSystem/condition-ver-status","code":"confirmed"}]},"category":[{"coding":[{"system":"http://terminology.hl7.org/CodeSystem/condition-category","code":"encounter-diagnosis","display":"Encounter Diagnosis"}]}],"code":{"coding":[{"system":"http://snomed.info/sct","version":"2020-09","code":"111297002","display":"Nonparalytic stroke (disorder)","userSelected":true}]},"subject":{"reference":"Patient/911c7730-4c4e-4c4c-ae6b-2e7a6391a98c"},"recordedDate":"2025-08-16T08:00:00.000+00:00"},"request":{"method":"PUT","url":"Condition/23a00a20-fa21-4f8c-8596-2a8841fdc62c"}},{"fullUrl":"https://madie.cms.gov/Organization/123456","resource":{"resourceType":"Organization","id":"77e4d06f-5e3c-436a-a598-80cefcca5028","meta":{"profile":["http://hl7.org/fhir/us/qicore/StructureDefinition/qicore-organization"]},"identifier":[{"use":"temp","system":"urn:oid:2.16.840.1.113883.4.4","value":"21-3259825"}],"active":true,"type":[{"coding":[{"system":"http://terminology.hl7.org/CodeSystem/organization-type","code":"pay","display":"Payer"}]}],"name":"Blue Cross Blue Shield of Texas","telecom":[{"system":"phone","value":"(+1) 972-766-6900"}],"address":[{"use":"billing","type":"postal","line":["P.O. Box 660044"],"city":"Dallas","state":"TX","postalCode":"75266-0044","country":"USA"}]},"request":{"method":"PUT","url":"Organization/77e4d06f-5e3c-436a-a598-80cefcca5028"}},{"fullUrl":"https://madie.cms.gov/Practitioner/practitioner-123456","resource":{"resourceType":"Practitioner","id":"8617d59d-409c-4508-82b7-d0b4a46d69d3","identifier":[{"system":"http://hl7.org/fhir/sid/us-npi","value":"123456"}],"name":[{"family":"Evil","prefix":["Dr"]}]},"request":{"method":"PUT","url":"Practitioner/8617d59d-409c-4508-82b7-d0b4a46d69d3"}},{"fullUrl":"https://madie.cms.gov/MeasureReport/fb2e5df1-a83f-493e-8700-a16d8783b7d9","resource":{"resourceType":"MeasureReport","id":"fb2e5df1-a83f-493e-8700-a16d8783b7d9","meta":{"profile":["http://hl7.org/fhir/us/cqfmeasures/StructureDefinition/test-case-cqfm"]},"contained":[{"resourceType":"Parameters","id":"6c399bca-5ed8-4b17-8f6f-d09bba1ced19-parameters","parameter":[{"name":"subject","valueString":"911c7730-4c4e-4c4c-ae6b-2e7a6391a98c"}]}],"extension":[{"url":"http://hl7.org/fhir/us/cqfmeasures/StructureDefinition/cqfm-inputParameters","valueReference":{"reference":"#6c399bca-5ed8-4b17-8f6f-d09bba1ced19-parameters"}},{"url":"http://hl7.org/fhir/us/cqfmeasures/StructureDefinition/cqfm-testCaseDescription","valueMarkdown":"\"antithrombotic therapy 2 days after ED start\n global.\"\"Hospitalization\"\" =(Ed+IP)\"\n"}],"modifierExtension":[{"url":"http://hl7.org/fhir/us/cqfmeasures/StructureDefinition/cqfm-isTestCase","valueBoolean":true}],"status":"complete","type":"individual","measure":"https://madie.cms.gov/Measure/AntithromboticTherapyByEndofHospitalDay2FHIR","period":{"start":"2025-01-01","end":"2025-12-31"},"group":[{"population":[{"code":{"coding":[{"system":"http://terminology.hl7.org/CodeSystem/measure-population","code":"initial-population","display":"Initial Population"}]},"count":1},{"code":{"coding":[{"system":"http://terminology.hl7.org/CodeSystem/measure-population","code":"denominator","display":"Denominator"}]},"count":1},{"code":{"coding":[{"system":"http://terminology.hl7.org/CodeSystem/measure-population","code":"denominator-exclusion","display":"Denominator Exclusion"}]},"count":0},{"code":{"coding":[{"system":"http://terminology.hl7.org/CodeSystem/measure-population","code":"numerator","display":"Numerator"}]},"count":0},{"code":{"coding":[{"system":"http://terminology.hl7.org/CodeSystem/measure-population","code":"denominator-exception","display":"Denominator Exception"}]},"count":0}]}]},"request":{"method":"PUT","url":"MeasureReport/fb2e5df1-a83f-493e-8700-a16d8783b7d9"}}]}