{"resourceType":"Bundle","id":"tests-c5085136-65ef-498f-8aa9-449bf48f6a63-bundle","type":"transaction","entry":[{"fullUrl":"https://madie.cms.gov/Patient/c5085136-65ef-498f-8aa9-449bf48f6a63","resource":{"resourceType":"Patient","id":"c5085136-65ef-498f-8aa9-449bf48f6a63","meta":{"profile":["http://hl7.org/fhir/us/qicore/StructureDefinition/qicore-patient"]},"text":{"status":"generated","div":"<div xmlns=\"http://www.w3.org/1999/xhtml\"><div class=\"hapiHeaderText\">EncDx=IscheStroke <b>DENOMFAIL </b></div><table class=\"hapiPropertyTable\"><tbody><tr><td>Identifier</td><td>5986a1f20133fb118b3f8c263047a8ca</td></tr><tr><td>Date of birth</td><td><span>20 August 1994</span></td></tr></tbody></table></div>"},"extension":[{"url":"http://hl7.org/fhir/us/core/StructureDefinition/us-core-race","extension":[{"url":"ombCategory","valueCoding":{"system":"urn:oid:2.16.840.1.113883.6.238","code":"1002-5","display":"American Indian or Alaska Native","userSelected":true}},{"url":"text","valueString":"American Indian or Alaska Native"}]},{"url":"http://hl7.org/fhir/us/core/StructureDefinition/us-core-ethnicity","extension":[{"url":"ombCategory","valueCoding":{"system":"urn:oid:2.16.840.1.113883.6.238","code":"2135-2","display":"Hispanic or Latino","userSelected":true}},{"url":"text","valueString":"Hispanic or Latino"}]}],"identifier":[{"type":{"coding":[{"system":"http://terminology.hl7.org/CodeSystem/v2-0203","code":"MR"}]},"system":"https://bonnie-fhir.healthit.gov/","value":"60f82c2e98086b570510e278"}],"active":true,"name":[{"use":"usual","family":"DENOMFail","given":["EncDx=IscheStroke"]}],"gender":"male","birthDate":"1994-08-20"},"request":{"method":"PUT","url":"Patient/c5085136-65ef-498f-8aa9-449bf48f6a63"}},{"fullUrl":"https://madie.cms.gov/Encounter/5c954893b848462de0ae622a","resource":{"resourceType":"Encounter","id":"51bada28-e527-4555-bc1d-b38b4c0dfed1","meta":{"profile":["http://hl7.org/fhir/us/qicore/StructureDefinition/qicore-encounter"]},"status":"finished","class":{"system":"http://terminology.hl7.org/CodeSystem/v3-ActCode","code":"IMP","display":"inpatient encounter"},"type":[{"coding":[{"system":"http://snomed.info/sct","code":"32485007"}]}],"subject":{"reference":"Patient/c5085136-65ef-498f-8aa9-449bf48f6a63"},"period":{"start":"2025-08-21T00:00:00+00:00","end":"2025-12-18T23:59:00+00:00"},"length":{"value":119,"unit":"days"},"diagnosis":[{"condition":{"reference":"Condition/ischemic-stroke-19a8"},"use":{"coding":[{"system":"http://terminology.hl7.org/CodeSystem/diagnosis-role","code":"billing","display":"Billing"}]},"rank":1}]},"request":{"method":"PUT","url":"Encounter/51bada28-e527-4555-bc1d-b38b4c0dfed1"}},{"fullUrl":"https://madie.cms.gov/Coverage/5e20a36a1c76ba6c5896ebdb","resource":{"resourceType":"Coverage","id":"ae87d859-eb62-4248-aaf2-4d133954aebb","status":"active","beneficiary":{"reference":"Patient/c5085136-65ef-498f-8aa9-449bf48f6a63"},"period":{"start":"1994-08-20T07:00:00+00:00"},"payor":[{"reference":"Organization/84b56847-ad40-4bf6-b612-9e42ad2a84e5"}]},"request":{"method":"PUT","url":"Coverage/ae87d859-eb62-4248-aaf2-4d133954aebb"}},{"fullUrl":"https://madie.cms.gov/Condition/ischemic-stroke-19a8","resource":{"resourceType":"Condition","id":"bd7e5f83-92eb-48a9-8bb5-e41216c96c44","meta":{"profile":["http://hl7.org/fhir/us/qicore/StructureDefinition/qicore-condition"]},"clinicalStatus":{"coding":[{"system":"http://terminology.hl7.org/CodeSystem/condition-clinical","code":"active"}]},"verificationStatus":{"coding":[{"system":"http://terminology.hl7.org/CodeSystem/condition-ver-status","code":"confirmed"}]},"category":[{"coding":[{"system":"http://terminology.hl7.org/CodeSystem/condition-category","code":"encounter-diagnosis","display":"Encounter Diagnosis"}]}],"code":{"coding":[{"system":"http://snomed.info/sct","version":"2021-09","code":"111297002","display":"Nonparalytic stroke (disorder)","userSelected":true}]},"subject":{"reference":"Patient/c5085136-65ef-498f-8aa9-449bf48f6a63"},"recordedDate":"2025-08-21T00:00:00+00:00"},"request":{"method":"PUT","url":"Condition/bd7e5f83-92eb-48a9-8bb5-e41216c96c44"}},{"fullUrl":"https://madie.cms.gov/Organization/123456","resource":{"resourceType":"Organization","id":"84b56847-ad40-4bf6-b612-9e42ad2a84e5","meta":{"profile":["http://hl7.org/fhir/us/qicore/StructureDefinition/qicore-organization"]},"identifier":[{"use":"temp","system":"urn:oid:2.16.840.1.113883.4.4","value":"21-3259825"}],"active":true,"type":[{"coding":[{"system":"http://terminology.hl7.org/CodeSystem/organization-type","code":"pay","display":"Payer"}]}],"name":"Blue Cross Blue Shield of Texas","telecom":[{"system":"phone","value":"(+1) 972-766-6900"}],"address":[{"use":"billing","type":"postal","line":["P.O. Box 660044"],"city":"Dallas","state":"TX","postalCode":"75266-0044","country":"USA"}]},"request":{"method":"PUT","url":"Organization/84b56847-ad40-4bf6-b612-9e42ad2a84e5"}},{"fullUrl":"https://madie.cms.gov/Practitioner/practitioner-123456","resource":{"resourceType":"Practitioner","id":"352cb4f8-0b23-4cb8-9521-af5277721e2f","identifier":[{"system":"http://hl7.org/fhir/sid/us-npi","value":"123456"}],"name":[{"family":"Evil","prefix":["Dr"]}]},"request":{"method":"PUT","url":"Practitioner/352cb4f8-0b23-4cb8-9521-af5277721e2f"}},{"fullUrl":"https://madie.cms.gov/MeasureReport/cfc395d0-2420-4239-8879-b02dcd569349","resource":{"resourceType":"MeasureReport","id":"cfc395d0-2420-4239-8879-b02dcd569349","meta":{"profile":["http://hl7.org/fhir/us/cqfmeasures/StructureDefinition/test-case-cqfm"]},"contained":[{"resourceType":"Parameters","id":"60a354e2-3d84-4bff-9723-ba04e12e5682-parameters","parameter":[{"name":"subject","valueString":"c5085136-65ef-498f-8aa9-449bf48f6a63"}]}],"extension":[{"url":"http://hl7.org/fhir/us/cqfmeasures/StructureDefinition/cqfm-inputParameters","valueReference":{"reference":"#60a354e2-3d84-4bff-9723-ba04e12e5682-parameters"}},{"url":"http://hl7.org/fhir/us/cqfmeasures/StructureDefinition/cqfm-testCaseDescription","valueMarkdown":"  EncDx =Ische Stroke       \n"}],"modifierExtension":[{"url":"http://hl7.org/fhir/us/cqfmeasures/StructureDefinition/cqfm-isTestCase","valueBoolean":true}],"status":"complete","type":"individual","measure":"https://madie.cms.gov/Measure/AntithromboticTherapyByEndofHospitalDay2FHIR","period":{"start":"2025-01-01","end":"2025-12-31"},"group":[{"population":[{"code":{"coding":[{"system":"http://terminology.hl7.org/CodeSystem/measure-population","code":"initial-population","display":"Initial Population"}]},"count":1},{"code":{"coding":[{"system":"http://terminology.hl7.org/CodeSystem/measure-population","code":"denominator","display":"Denominator"}]},"count":1},{"code":{"coding":[{"system":"http://terminology.hl7.org/CodeSystem/measure-population","code":"denominator-exclusion","display":"Denominator Exclusion"}]},"count":0},{"code":{"coding":[{"system":"http://terminology.hl7.org/CodeSystem/measure-population","code":"numerator","display":"Numerator"}]},"count":0},{"code":{"coding":[{"system":"http://terminology.hl7.org/CodeSystem/measure-population","code":"denominator-exception","display":"Denominator Exception"}]},"count":0}]}]},"request":{"method":"PUT","url":"MeasureReport/cfc395d0-2420-4239-8879-b02dcd569349"}}]}