{"resourceType":"Bundle","id":"tests-53e176e2-42f5-4c27-a1fe-23a280982bde-bundle","type":"transaction","entry":[{"fullUrl":"https://madie.cms.gov/Patient/53e176e2-42f5-4c27-a1fe-23a280982bde","resource":{"resourceType":"Patient","id":"53e176e2-42f5-4c27-a1fe-23a280982bde","meta":{"profile":["http://hl7.org/fhir/us/qicore/StructureDefinition/qicore-patient"]},"text":{"status":"generated","div":"<div xmlns=\"http://www.w3.org/1999/xhtml\"><div class=\"hapiHeaderText\">EncPrinDx=IschemicStrokeTestOccurr <b>IPPPASS </b></div><table class=\"hapiPropertyTable\"><tbody><tr><td>Identifier</td><td>6e2b90860fcc9b1c4eb9431a66a27a09b7f448bf6d8d855872a784ef7a54a594</td></tr><tr><td>Date of birth</td><td><span>20 August 1994</span></td></tr></tbody></table></div>"},"extension":[{"url":"http://hl7.org/fhir/us/core/StructureDefinition/us-core-race","extension":[{"url":"ombCategory","valueCoding":{"system":"urn:oid:2.16.840.1.113883.6.238","code":"1002-5","display":"American Indian or Alaska Native","userSelected":true}},{"url":"text","valueString":"American Indian or Alaska Native"}]},{"url":"http://hl7.org/fhir/us/core/StructureDefinition/us-core-ethnicity","extension":[{"url":"ombCategory","valueCoding":{"system":"urn:oid:2.16.840.1.113883.6.238","code":"2186-5","display":"Not Hispanic or Latino","userSelected":true}},{"url":"text","valueString":"Not Hispanic or Latino"}]}],"identifier":[{"type":{"coding":[{"system":"http://terminology.hl7.org/CodeSystem/v2-0203","code":"MR"}]},"system":"https://bonnie-fhir.healthit.gov/","value":"60f82c2f98086b570510e2be"}],"active":true,"name":[{"use":"usual","family":"IPPPass","given":["EncPrinDx=IschemicStrokeTestOccurr"]}],"gender":"male","birthDate":"1994-08-20"},"request":{"method":"PUT","url":"Patient/53e176e2-42f5-4c27-a1fe-23a280982bde"}},{"fullUrl":"https://madie.cms.gov/Encounter/5cae4883b848462f6d818f9b","resource":{"resourceType":"Encounter","id":"01c211ca-6d03-409b-8241-391406d18bae","meta":{"profile":["http://hl7.org/fhir/us/qicore/StructureDefinition/qicore-encounter"]},"status":"finished","class":{"system":"http://terminology.hl7.org/CodeSystem/v3-ActCode","code":"IMP","display":"inpatient encounter"},"type":[{"coding":[{"system":"http://snomed.info/sct","code":"183452005"}]}],"subject":{"reference":"Patient/53e176e2-42f5-4c27-a1fe-23a280982bde"},"period":{"start":"2025-08-20T09:00:00+00:00","end":"2025-08-20T23:59:00+00:00"},"length":{"value":0,"unit":"days"}},"request":{"method":"PUT","url":"Encounter/01c211ca-6d03-409b-8241-391406d18bae"}},{"fullUrl":"https://madie.cms.gov/Encounter/5cae4883b848462f6d818f9c","resource":{"resourceType":"Encounter","id":"bcd62aff-f5c0-4ab5-a775-8a906c5b0aba","meta":{"profile":["http://hl7.org/fhir/us/qicore/StructureDefinition/qicore-encounter"]},"status":"finished","class":{"system":"http://terminology.hl7.org/CodeSystem/v3-ActCode","code":"IMP","display":"inpatient encounter"},"type":[{"coding":[{"system":"http://snomed.info/sct","code":"32485007"}]}],"subject":{"reference":"Patient/53e176e2-42f5-4c27-a1fe-23a280982bde"},"period":{"start":"2025-08-21T00:00:00+00:00","end":"2025-12-18T23:59:00+00:00"},"length":{"value":119,"unit":"days"},"diagnosis":[{"condition":{"reference":"Condition/ischemic-stroke-7d48"},"use":{"coding":[{"system":"http://terminology.hl7.org/CodeSystem/diagnosis-role","code":"billing","display":"Billing"}]},"rank":1}]},"request":{"method":"PUT","url":"Encounter/bcd62aff-f5c0-4ab5-a775-8a906c5b0aba"}},{"fullUrl":"https://madie.cms.gov/Coverage/5e20a3721c76ba6c5896ec21","resource":{"resourceType":"Coverage","id":"b60fe2e7-de53-4974-a12b-5c63174148ed","status":"active","beneficiary":{"reference":"Patient/53e176e2-42f5-4c27-a1fe-23a280982bde"},"period":{"start":"1994-08-20T07:00:00+00:00"},"payor":[{"reference":"Organization/84b56847-ad40-4bf6-b612-9e42ad2a84e5"}]},"request":{"method":"PUT","url":"Coverage/b60fe2e7-de53-4974-a12b-5c63174148ed"}},{"fullUrl":"https://madie.cms.gov/Condition/ischemic-stroke-7d47","resource":{"resourceType":"Condition","id":"a14fd344-f8f0-49a0-a04a-403592110276","meta":{"profile":["http://hl7.org/fhir/us/qicore/StructureDefinition/qicore-condition"]},"clinicalStatus":{"coding":[{"system":"http://terminology.hl7.org/CodeSystem/condition-clinical","code":"active"}]},"verificationStatus":{"coding":[{"system":"http://terminology.hl7.org/CodeSystem/condition-ver-status","code":"confirmed"}]},"category":[{"coding":[{"system":"http://terminology.hl7.org/CodeSystem/condition-category","code":"encounter-diagnosis","display":"Encounter Diagnosis"}]}],"code":{"coding":[{"system":"http://snomed.info/sct","version":"2020-09","code":"111297002","display":"Nonparalytic stroke (disorder)","userSelected":true}]},"subject":{"reference":"Patient/53e176e2-42f5-4c27-a1fe-23a280982bde"},"recordedDate":"2025-08-16T08:00:00.000+00:00"},"request":{"method":"PUT","url":"Condition/a14fd344-f8f0-49a0-a04a-403592110276"}},{"fullUrl":"https://madie.cms.gov/Condition/ischemic-stroke-7d48","resource":{"resourceType":"Condition","id":"5d0d576d-c520-4594-a3b9-d5e52fe75d99","meta":{"profile":["http://hl7.org/fhir/us/qicore/StructureDefinition/qicore-condition"]},"clinicalStatus":{"coding":[{"system":"http://terminology.hl7.org/CodeSystem/condition-clinical","code":"active"}]},"verificationStatus":{"coding":[{"system":"http://terminology.hl7.org/CodeSystem/condition-ver-status","code":"confirmed"}]},"category":[{"coding":[{"system":"http://terminology.hl7.org/CodeSystem/condition-category","code":"encounter-diagnosis","display":"Encounter Diagnosis"}]}],"code":{"coding":[{"system":"http://snomed.info/sct","version":"2020-09","code":"111297002","display":"Nonparalytic stroke (disorder)","userSelected":true}]},"subject":{"reference":"Patient/53e176e2-42f5-4c27-a1fe-23a280982bde"},"recordedDate":"2025-08-16T08:00:00.000+00:00"},"request":{"method":"PUT","url":"Condition/5d0d576d-c520-4594-a3b9-d5e52fe75d99"}},{"fullUrl":"https://madie.cms.gov/Organization/123456","resource":{"resourceType":"Organization","id":"84b56847-ad40-4bf6-b612-9e42ad2a84e5","meta":{"profile":["http://hl7.org/fhir/us/qicore/StructureDefinition/qicore-organization"]},"identifier":[{"use":"temp","system":"urn:oid:2.16.840.1.113883.4.4","value":"21-3259825"}],"active":true,"type":[{"coding":[{"system":"http://terminology.hl7.org/CodeSystem/organization-type","code":"pay","display":"Payer"}]}],"name":"Blue Cross Blue Shield of Texas","telecom":[{"system":"phone","value":"(+1) 972-766-6900"}],"address":[{"use":"billing","type":"postal","line":["P.O. Box 660044"],"city":"Dallas","state":"TX","postalCode":"75266-0044","country":"USA"}]},"request":{"method":"PUT","url":"Organization/84b56847-ad40-4bf6-b612-9e42ad2a84e5"}},{"fullUrl":"https://madie.cms.gov/Practitioner/practitioner-123456","resource":{"resourceType":"Practitioner","id":"b16a28be-d380-48e6-aa82-d84a3753fc9e","identifier":[{"system":"http://hl7.org/fhir/sid/us-npi","value":"123456"}],"name":[{"family":"Evil","prefix":["Dr"]}]},"request":{"method":"PUT","url":"Practitioner/b16a28be-d380-48e6-aa82-d84a3753fc9e"}},{"fullUrl":"https://madie.cms.gov/MeasureReport/28536e7c-a58c-4de2-84c8-a4a9af5adfc8","resource":{"resourceType":"MeasureReport","id":"28536e7c-a58c-4de2-84c8-a4a9af5adfc8","meta":{"profile":["http://hl7.org/fhir/us/cqfmeasures/StructureDefinition/test-case-cqfm"]},"contained":[{"resourceType":"Parameters","id":"366304ed-b323-44b2-b3d8-58744544158d-parameters","parameter":[{"name":"subject","valueString":"53e176e2-42f5-4c27-a1fe-23a280982bde"}]}],"extension":[{"url":"http://hl7.org/fhir/us/cqfmeasures/StructureDefinition/cqfm-inputParameters","valueReference":{"reference":"#366304ed-b323-44b2-b3d8-58744544158d-parameters"}},{"url":"http://hl7.org/fhir/us/cqfmeasures/StructureDefinition/cqfm-testCaseDescription","valueMarkdown":"EncPrinDx=IschemicStroke LOS<120. Testing multiple occurrences\n"}],"modifierExtension":[{"url":"http://hl7.org/fhir/us/cqfmeasures/StructureDefinition/cqfm-isTestCase","valueBoolean":true}],"status":"complete","type":"individual","measure":"https://madie.cms.gov/Measure/AntithromboticTherapyByEndofHospitalDay2FHIR","period":{"start":"2025-01-01","end":"2025-12-31"},"group":[{"population":[{"code":{"coding":[{"system":"http://terminology.hl7.org/CodeSystem/measure-population","code":"initial-population","display":"Initial Population"}]},"count":1},{"code":{"coding":[{"system":"http://terminology.hl7.org/CodeSystem/measure-population","code":"denominator","display":"Denominator"}]},"count":1},{"code":{"coding":[{"system":"http://terminology.hl7.org/CodeSystem/measure-population","code":"denominator-exclusion","display":"Denominator Exclusion"}]},"count":0},{"code":{"coding":[{"system":"http://terminology.hl7.org/CodeSystem/measure-population","code":"numerator","display":"Numerator"}]},"count":0},{"code":{"coding":[{"system":"http://terminology.hl7.org/CodeSystem/measure-population","code":"denominator-exception","display":"Denominator Exception"}]},"count":0}]}]},"request":{"method":"PUT","url":"MeasureReport/28536e7c-a58c-4de2-84c8-a4a9af5adfc8"}}]}