{"resourceType":"Bundle","id":"tests-2dc3e469-a1c6-4419-aecc-72e75dc8507b-bundle","type":"transaction","entry":[{"fullUrl":"https://madie.cms.gov/Patient/2dc3e469-a1c6-4419-aecc-72e75dc8507b","resource":{"resourceType":"Patient","id":"2dc3e469-a1c6-4419-aecc-72e75dc8507b","meta":{"profile":["http://hl7.org/fhir/us/qicore/StructureDefinition/qicore-patient"]},"text":{"status":"generated","div":"<div xmlns=\"http://www.w3.org/1999/xhtml\"><div class=\"hapiHeaderText\">LCG3ENC <b>DENEXPASS3 </b></div><table class=\"hapiPropertyTable\"><tbody><tr><td>Date of birth</td><td><span>09 February 1949</span></td></tr></tbody></table></div>"},"extension":[{"url":"http://hl7.org/fhir/us/core/StructureDefinition/us-core-race","extension":[{"url":"ombCategory","valueCoding":{"system":"urn:oid:2.16.840.1.113883.6.238","code":"2106-3","display":"White","userSelected":true}},{"url":"text","valueString":"White"}]},{"url":"http://hl7.org/fhir/us/core/StructureDefinition/us-core-ethnicity","extension":[{"url":"ombCategory","valueCoding":{"system":"urn:oid:2.16.840.1.113883.6.238","code":"2186-5","display":"Not Hispanic or Latino","userSelected":true}},{"url":"text","valueString":"Not Hispanic or Latino"}]}],"identifier":[{"type":{"coding":[{"system":"http://terminology.hl7.org/CodeSystem/v2-0203","code":"MR"}]},"system":"https://bonnie-fhir.healthit.gov/","value":"60f82c3098086b570510e2ce"}],"active":true,"name":[{"use":"usual","family":"DENEXPass3","given":["LCG3ENC"]}],"gender":"male","birthDate":"1949-02-09"},"request":{"method":"PUT","url":"Patient/2dc3e469-a1c6-4419-aecc-72e75dc8507b"}},{"fullUrl":"https://madie.cms.gov/Condition/5e444de83afe5d000044c85a","resource":{"resourceType":"Condition","id":"bcf0060c-35ca-4ed5-819c-d6d3805cb082","meta":{"profile":["http://hl7.org/fhir/us/qicore/StructureDefinition/qicore-condition"]},"clinicalStatus":{"coding":[{"system":"http://terminology.hl7.org/CodeSystem/condition-clinical","code":"inactive","display":"Inactive","userSelected":true}]},"verificationStatus":{"coding":[{"system":"http://terminology.hl7.org/CodeSystem/condition-ver-status","code":"confirmed","display":"confirmed","userSelected":true}]},"category":[{"coding":[{"system":"http://terminology.hl7.org/CodeSystem/condition-category","code":"encounter-diagnosis","display":"Encounter Diagnosis"}]}],"code":{"coding":[{"system":"http://hl7.org/fhir/sid/icd-10-cm","code":"Z92.82"}]},"subject":{"reference":"Patient/2dc3e469-a1c6-4419-aecc-72e75dc8507b"},"onsetDateTime":"2025-03-11T09:00:00+00:00","abatementDateTime":"2025-04-01T08:15:00+00:00","recordedDate":"2025-03-11T09:00:00+00:00"},"request":{"method":"PUT","url":"Condition/bcf0060c-35ca-4ed5-819c-d6d3805cb082"}},{"fullUrl":"https://madie.cms.gov/Encounter/5e444b753afe5d000044c598","resource":{"resourceType":"Encounter","id":"23e01680-39d5-4d96-bcea-dc9ce4bc20bb","meta":{"profile":["http://hl7.org/fhir/us/qicore/StructureDefinition/qicore-encounter"]},"status":"finished","class":{"system":"http://terminology.hl7.org/CodeSystem/v3-ActCode","code":"EMER","display":"emergency"},"type":[{"coding":[{"system":"http://snomed.info/sct","code":"4525004"}]}],"subject":{"reference":"Patient/2dc3e469-a1c6-4419-aecc-72e75dc8507b"},"period":{"start":"2025-02-12T08:00:00+00:00","end":"2025-02-12T20:15:00+00:00"},"diagnosis":[{"condition":{"reference":"Condition/ischemic-stroke-7d3c"},"use":{"coding":[{"system":"http://snomed.info/sct","code":"52201006","display":"Internal capsule hemorrhage (disorder)"}]}}]},"request":{"method":"PUT","url":"Encounter/23e01680-39d5-4d96-bcea-dc9ce4bc20bb"}},{"fullUrl":"https://madie.cms.gov/Encounter/5e444bb53afe5d000044c5b7","resource":{"resourceType":"Encounter","id":"df196285-b6a5-4af9-ad2e-bdc50e9b9102","meta":{"profile":["http://hl7.org/fhir/us/qicore/StructureDefinition/qicore-encounter"]},"status":"finished","class":{"system":"http://terminology.hl7.org/CodeSystem/v3-ActCode","code":"IMP","display":"inpatient encounter"},"type":[{"coding":[{"system":"http://snomed.info/sct","code":"183452005"}]}],"subject":{"reference":"Patient/2dc3e469-a1c6-4419-aecc-72e75dc8507b"},"period":{"start":"2025-03-01T05:00:00+00:00","end":"2025-03-01T11:15:00+00:00"},"diagnosis":[{"condition":{"reference":"Condition/ischemic-stroke-7d3a"},"use":{"coding":[{"system":"http://terminology.hl7.org/CodeSystem/diagnosis-role","code":"billing","display":"Billing"}]},"rank":1}]},"request":{"method":"PUT","url":"Encounter/df196285-b6a5-4af9-ad2e-bdc50e9b9102"}},{"fullUrl":"https://madie.cms.gov/Encounter/5e444ccb3afe5d000044c65b","resource":{"resourceType":"Encounter","id":"372b5671-8290-4c4b-8232-5bf73d7aa075","meta":{"profile":["http://hl7.org/fhir/us/qicore/StructureDefinition/qicore-encounter"]},"status":"finished","class":{"system":"http://terminology.hl7.org/CodeSystem/v3-ActCode","code":"OBSENC","display":"observation encounter"},"type":[{"coding":[{"system":"http://snomed.info/sct","code":"448851000124103"}]}],"subject":{"reference":"Patient/2dc3e469-a1c6-4419-aecc-72e75dc8507b"},"period":{"start":"2025-03-01T13:00:00+00:00","end":"2025-03-01T23:15:00+00:00"}},"request":{"method":"PUT","url":"Encounter/372b5671-8290-4c4b-8232-5bf73d7aa075"}},{"fullUrl":"https://madie.cms.gov/Encounter/5e444ce03afe5d000044c684","resource":{"resourceType":"Encounter","id":"9c3a007f-e8d7-4028-960f-f5769934d33c","meta":{"profile":["http://hl7.org/fhir/us/qicore/StructureDefinition/qicore-encounter"]},"status":"finished","class":{"system":"http://terminology.hl7.org/CodeSystem/v3-ActCode","code":"IMP","display":"inpatient encounter"},"type":[{"coding":[{"system":"http://snomed.info/sct","code":"183452005"}]}],"subject":{"reference":"Patient/2dc3e469-a1c6-4419-aecc-72e75dc8507b"},"period":{"start":"2025-03-02T13:00:00+00:00","end":"2025-03-09T11:15:00+00:00"},"diagnosis":[{"condition":{"reference":"Condition/ischemic-stroke-7d3b"}}]},"request":{"method":"PUT","url":"Encounter/9c3a007f-e8d7-4028-960f-f5769934d33c"}},{"fullUrl":"https://madie.cms.gov/Encounter/5e444d2a3afe5d000044c6f1","resource":{"resourceType":"Encounter","id":"808026dc-b192-4bc6-80d8-9b8519ce5534","meta":{"profile":["http://hl7.org/fhir/us/qicore/StructureDefinition/qicore-encounter"]},"status":"finished","class":{"system":"http://terminology.hl7.org/CodeSystem/v3-ActCode","code":"EMER","display":"emergency"},"type":[{"coding":[{"system":"http://snomed.info/sct","code":"4525004"}]}],"subject":{"reference":"Patient/2dc3e469-a1c6-4419-aecc-72e75dc8507b"},"period":{"start":"2025-03-11T08:00:00.000+00:00","end":"2025-03-11T08:15:00.000+00:00"},"diagnosis":[{"condition":{"reference":"Condition/ischemic-stroke-7d3c"},"use":{"coding":[{"system":"http://terminology.hl7.org/CodeSystem/diagnosis-role","code":"billing","display":"Billing"}]},"rank":1}]},"request":{"method":"PUT","url":"Encounter/808026dc-b192-4bc6-80d8-9b8519ce5534"}},{"fullUrl":"https://madie.cms.gov/Encounter/5e444d703afe5d000044c78c","resource":{"resourceType":"Encounter","id":"51f2142f-0e2b-4fcc-8d64-fb19ff12d86e","meta":{"profile":["http://hl7.org/fhir/us/qicore/StructureDefinition/qicore-encounter"]},"status":"finished","class":{"system":"http://terminology.hl7.org/CodeSystem/v3-ActCode","code":"IMP","display":"inpatient encounter"},"type":[{"coding":[{"system":"http://snomed.info/sct","code":"183452005"}]}],"subject":{"reference":"Patient/2dc3e469-a1c6-4419-aecc-72e75dc8507b"},"period":{"start":"2025-03-11T09:00:00+00:00","end":"2025-04-01T08:15:00+00:00"},"diagnosis":[{"condition":{"reference":"Condition/ischemic-stroke-7d3d"},"use":{"coding":[{"system":"http://terminology.hl7.org/CodeSystem/diagnosis-role","code":"billing","display":"Billing"}]},"rank":1}],"hospitalization":{"dischargeDisposition":{"coding":[{"system":"http://snomed.info/sct","code":"428371000124100","display":"Discharge to healthcare facility for hospice care (procedure)"}]}}},"request":{"method":"PUT","url":"Encounter/51f2142f-0e2b-4fcc-8d64-fb19ff12d86e"}},{"fullUrl":"https://madie.cms.gov/Encounter/5e444e8c3afe5d000044c8f1","resource":{"resourceType":"Encounter","id":"d8912f66-3de9-43c7-aa0c-7a1d5af96218","meta":{"profile":["http://hl7.org/fhir/us/qicore/StructureDefinition/qicore-encounter"]},"status":"finished","class":{"system":"http://terminology.hl7.org/CodeSystem/v3-ActCode","code":"IMP","display":"inpatient encounter"},"type":[{"coding":[{"system":"http://snomed.info/sct","code":"183452005"}]}],"subject":{"reference":"Patient/2dc3e469-a1c6-4419-aecc-72e75dc8507b"},"period":{"start":"2025-04-02T08:00:00+00:00","end":"2025-04-02T08:15:00+00:00"},"diagnosis":[{"condition":{"reference":"Condition/ischemic-stroke-7d3c"},"use":{"coding":[{"system":"http://terminology.hl7.org/CodeSystem/diagnosis-role","code":"billing","display":"Billing"}]},"rank":1}]},"request":{"method":"PUT","url":"Encounter/d8912f66-3de9-43c7-aa0c-7a1d5af96218"}},{"fullUrl":"https://madie.cms.gov/ServiceRequest/5e444d1f3afe5d000044c6df","resource":{"resourceType":"ServiceRequest","id":"07942f6f-be2c-46ff-b521-68e82ab8da29","meta":{"profile":["http://hl7.org/fhir/us/qicore/StructureDefinition/qicore-servicerequest"]},"status":"active","intent":"order","code":{"coding":[{"system":"http://snomed.info/sct","code":"133918004"}]},"subject":{"reference":"Patient/2dc3e469-a1c6-4419-aecc-72e75dc8507b"},"authoredOn":"2025-03-02T13:00:00+00:00"},"request":{"method":"PUT","url":"ServiceRequest/07942f6f-be2c-46ff-b521-68e82ab8da29"}},{"fullUrl":"https://madie.cms.gov/Observation/5e444bf63afe5d000044c5f7","resource":{"resourceType":"Observation","id":"bcd5d466-4cd5-4e3e-a9d1-6d0bed75495e","meta":{"profile":["http://hl7.org/fhir/us/qicore/StructureDefinition/qicore-observation"]},"status":"final","category":[{"coding":[{"system":"http://terminology.hl7.org/CodeSystem/observation-category","code":"laboratory","display":"Laboratory"}]}],"code":{"coding":[{"system":"http://loinc.org","code":"34714-6"}]},"subject":{"reference":"Patient/2dc3e469-a1c6-4419-aecc-72e75dc8507b"},"effectivePeriod":{"start":"2025-03-01T05:00:00+00:00","end":"2025-03-01T11:15:00+00:00"},"issued":"2025-03-01T05:00:00.000+00:00","valueQuantity":{"value":2.5}},"request":{"method":"PUT","url":"Observation/bcd5d466-4cd5-4e3e-a9d1-6d0bed75495e"}},{"fullUrl":"https://madie.cms.gov/Observation/5e444dc33afe5d000044c832","resource":{"resourceType":"Observation","id":"502f4415-0c47-486a-912c-20ac348d8c98","meta":{"profile":["http://hl7.org/fhir/us/qicore/StructureDefinition/qicore-observation"]},"status":"final","category":[{"coding":[{"system":"http://terminology.hl7.org/CodeSystem/observation-category","code":"laboratory","display":"Laboratory"}]}],"code":{"coding":[{"system":"http://loinc.org","code":"34714-6"}]},"subject":{"reference":"Patient/2dc3e469-a1c6-4419-aecc-72e75dc8507b"},"effectivePeriod":{"start":"2025-03-11T09:00:00+00:00","end":"2025-04-01T08:15:00+00:00"},"issued":"2025-03-11T09:00:00.000+00:00","valueQuantity":{"value":3.3}},"request":{"method":"PUT","url":"Observation/502f4415-0c47-486a-912c-20ac348d8c98"}},{"fullUrl":"https://madie.cms.gov/Observation/5e444eb23afe5d000044c968","resource":{"resourceType":"Observation","id":"cacb81b2-54f5-4d6c-837f-568a4ecc9e26","meta":{"profile":["http://hl7.org/fhir/us/qicore/StructureDefinition/qicore-observation"]},"status":"final","category":[{"coding":[{"system":"http://terminology.hl7.org/CodeSystem/observation-category","code":"laboratory","display":"Laboratory"}]}],"code":{"coding":[{"system":"http://loinc.org","code":"34714-6"}]},"subject":{"reference":"Patient/2dc3e469-a1c6-4419-aecc-72e75dc8507b"},"effectivePeriod":{"start":"2025-04-02T08:00:00+00:00","end":"2025-04-02T08:15:00+00:00"},"issued":"2025-04-02T08:00:00.000+00:00","valueQuantity":{"value":3.49}},"request":{"method":"PUT","url":"Observation/cacb81b2-54f5-4d6c-837f-568a4ecc9e26"}},{"fullUrl":"https://madie.cms.gov/MedicationAdministration/5e444c933afe5d000044c61a","resource":{"resourceType":"MedicationAdministration","id":"ba94fbf7-72d1-445a-9229-100f6134f395","meta":{"profile":["http://hl7.org/fhir/us/qicore/StructureDefinition/qicore-medicationadministration"]},"extension":[{"url":"http://hl7.org/fhir/us/qicore/StructureDefinition/qicore-recorded","valueDateTime":"2025-03-01T05:00:00+00:00"}],"status":"completed","medicationCodeableConcept":{"coding":[{"system":"http://www.nlm.nih.gov/research/umls/rxnorm","code":"1804799"}]},"subject":{"reference":"Patient/2dc3e469-a1c6-4419-aecc-72e75dc8507b"},"effectivePeriod":{"start":"2025-03-01T05:00:00+00:00","end":"2025-03-01T11:15:00+00:00"}},"request":{"method":"PUT","url":"MedicationAdministration/ba94fbf7-72d1-445a-9229-100f6134f395"}},{"fullUrl":"https://madie.cms.gov/MedicationAdministration/5e444cfe3afe5d000044c6ce","resource":{"resourceType":"MedicationAdministration","id":"955ab85b-eb06-487e-976d-3bce7e4adc39","meta":{"profile":["http://hl7.org/fhir/us/qicore/StructureDefinition/qicore-medicationadministration"]},"extension":[{"url":"http://hl7.org/fhir/us/qicore/StructureDefinition/qicore-recorded","valueDateTime":"2025-03-02T13:00:00+00:00"}],"status":"completed","medicationCodeableConcept":{"coding":[{"system":"http://www.nlm.nih.gov/research/umls/rxnorm","code":"1037045"}]},"subject":{"reference":"Patient/2dc3e469-a1c6-4419-aecc-72e75dc8507b"},"effectivePeriod":{"start":"2025-03-02T13:00:00+00:00","end":"2025-03-02T23:15:00+00:00"}},"request":{"method":"PUT","url":"MedicationAdministration/955ab85b-eb06-487e-976d-3bce7e4adc39"}},{"fullUrl":"https://madie.cms.gov/MedicationAdministration/5e444df03afe5d000044c886","resource":{"resourceType":"MedicationAdministration","id":"ca051a92-77d4-4cc1-a6fd-455a7f7a5451","meta":{"profile":["http://hl7.org/fhir/us/qicore/StructureDefinition/qicore-medicationadministration"]},"extension":[{"url":"http://hl7.org/fhir/us/qicore/StructureDefinition/qicore-recorded","valueDateTime":"2025-03-11T09:00:00+00:00"}],"status":"completed","medicationCodeableConcept":{"coding":[{"system":"http://www.nlm.nih.gov/research/umls/rxnorm","code":"1037045"}]},"subject":{"reference":"Patient/2dc3e469-a1c6-4419-aecc-72e75dc8507b"},"effectivePeriod":{"start":"2025-03-11T09:00:00+00:00","end":"2025-04-01T08:15:00+00:00"}},"request":{"method":"PUT","url":"MedicationAdministration/ca051a92-77d4-4cc1-a6fd-455a7f7a5451"}},{"fullUrl":"https://madie.cms.gov/MedicationAdministration/5e444ed13afe5d000044c998","resource":{"resourceType":"MedicationAdministration","id":"9d56ba10-15fd-46a0-bcde-dbd7cd5e64d8","meta":{"profile":["http://hl7.org/fhir/us/qicore/StructureDefinition/qicore-medicationadministration"]},"extension":[{"url":"http://hl7.org/fhir/us/qicore/StructureDefinition/qicore-recorded","valueDateTime":"2025-04-02T08:00:00+00:00"}],"status":"not-done","statusReason":[{"coding":[{"system":"http://snomed.info/sct","code":"105480006","display":"Refusal of treatment by patient (situation)"}]}],"medicationCodeableConcept":{"coding":[{"system":"http://www.nlm.nih.gov/research/umls/rxnorm","code":"1116635"}]},"subject":{"reference":"Patient/2dc3e469-a1c6-4419-aecc-72e75dc8507b"},"effectivePeriod":{"start":"2025-04-02T08:00:00+00:00","end":"2025-04-02T08:15:00+00:00"}},"request":{"method":"PUT","url":"MedicationAdministration/9d56ba10-15fd-46a0-bcde-dbd7cd5e64d8"}},{"fullUrl":"https://madie.cms.gov/MedicationAdministration/5e444eff3afe5d000044ca5e","resource":{"resourceType":"MedicationAdministration","id":"663849a5-29e7-4f30-9a7c-c3fd34a762ce","meta":{"profile":["http://hl7.org/fhir/us/qicore/StructureDefinition/qicore-medicationadministration"]},"extension":[{"url":"http://hl7.org/fhir/us/qicore/StructureDefinition/qicore-recorded","valueDateTime":"2025-04-02T08:00:00+00:00"}],"status":"completed","medicationCodeableConcept":{"coding":[{"system":"http://www.nlm.nih.gov/research/umls/rxnorm","code":"1037045"}]},"subject":{"reference":"Patient/2dc3e469-a1c6-4419-aecc-72e75dc8507b"},"effectivePeriod":{"start":"2025-04-02T08:00:00+00:00","end":"2025-04-02T08:15:00+00:00"}},"request":{"method":"PUT","url":"MedicationAdministration/663849a5-29e7-4f30-9a7c-c3fd34a762ce"}},{"fullUrl":"https://madie.cms.gov/MedicationRequest/5e444cfb3afe5d000044c6be","resource":{"resourceType":"MedicationRequest","id":"ccd0dabb-d244-4975-ad8b-588d7c8d4481","meta":{"profile":["http://hl7.org/fhir/us/qicore/StructureDefinition/qicore-medicationrequest"]},"status":"completed","intent":"order","medicationCodeableConcept":{"coding":[{"system":"http://www.nlm.nih.gov/research/umls/rxnorm","code":"1037045"}]},"subject":{"reference":"Patient/2dc3e469-a1c6-4419-aecc-72e75dc8507b"},"authoredOn":"2025-03-02T08:00:00+00:00","requester":{"reference":"Practitioner/example"},"dosageInstruction":[{"timing":{"repeat":{"boundsPeriod":{"start":"2025-03-02T13:00:00+00:00","end":"2025-03-02T23:15:00+00:00"}}}}]},"request":{"method":"PUT","url":"MedicationRequest/ccd0dabb-d244-4975-ad8b-588d7c8d4481"}},{"fullUrl":"https://madie.cms.gov/MedicationRequest/5e444ded3afe5d000044c870","resource":{"resourceType":"MedicationRequest","id":"01502f10-4573-4c40-aa58-3dbe52868561","meta":{"profile":["http://hl7.org/fhir/us/qicore/StructureDefinition/qicore-medicationrequest"]},"status":"completed","intent":"order","medicationCodeableConcept":{"coding":[{"system":"http://www.nlm.nih.gov/research/umls/rxnorm","code":"1037045"}]},"subject":{"reference":"Patient/2dc3e469-a1c6-4419-aecc-72e75dc8507b"},"authoredOn":"2025-03-11T09:00:00+00:00","requester":{"reference":"Practitioner/example"},"dosageInstruction":[{"timing":{"repeat":{"boundsPeriod":{"start":"2025-03-11T09:00:00+00:00","end":"2025-04-01T08:15:00+00:00"}}}}]},"request":{"method":"PUT","url":"MedicationRequest/01502f10-4573-4c40-aa58-3dbe52868561"}},{"fullUrl":"https://madie.cms.gov/MedicationRequest/5e444eed3afe5d000044c9fa","resource":{"resourceType":"MedicationRequest","id":"ac77d5fc-87dd-4072-9e96-4dbc05cfeef3","meta":{"profile":["http://hl7.org/fhir/us/qicore/StructureDefinition/qicore-medicationrequest"]},"status":"active","intent":"order","medicationCodeableConcept":{"coding":[{"system":"http://www.nlm.nih.gov/research/umls/rxnorm","code":"1037045"}]},"subject":{"reference":"Patient/2dc3e469-a1c6-4419-aecc-72e75dc8507b"},"authoredOn":"2025-04-02T08:00:00+00:00","requester":{"reference":"Practitioner/example"},"dosageInstruction":[{"timing":{"repeat":{"boundsPeriod":{"start":"2025-04-02T08:00:00+00:00","end":"2025-04-02T08:15:00+00:00"}}}}]},"request":{"method":"PUT","url":"MedicationRequest/ac77d5fc-87dd-4072-9e96-4dbc05cfeef3"}},{"fullUrl":"https://madie.cms.gov/Condition/ischemic-stroke-7d3a","resource":{"resourceType":"Condition","id":"1c58006c-a54d-41ab-b161-f1bbb2cd1d8c","meta":{"profile":["http://hl7.org/fhir/us/qicore/StructureDefinition/qicore-condition"]},"clinicalStatus":{"coding":[{"system":"http://terminology.hl7.org/CodeSystem/condition-clinical","code":"active"}]},"verificationStatus":{"coding":[{"system":"http://terminology.hl7.org/CodeSystem/condition-ver-status","code":"confirmed"}]},"category":[{"coding":[{"system":"http://terminology.hl7.org/CodeSystem/condition-category","code":"encounter-diagnosis","display":"Encounter Diagnosis"}]}],"code":{"coding":[{"system":"http://snomed.info/sct","version":"2020-09","code":"111297002","display":"Nonparalytic stroke (disorder)","userSelected":true}]},"subject":{"reference":"Patient/2dc3e469-a1c6-4419-aecc-72e75dc8507b"},"recordedDate":"2025-08-16T08:00:00.000+00:00"},"request":{"method":"PUT","url":"Condition/1c58006c-a54d-41ab-b161-f1bbb2cd1d8c"}},{"fullUrl":"https://madie.cms.gov/Condition/ischemic-stroke-7d3b","resource":{"resourceType":"Condition","id":"bf3812df-d765-4fa5-959f-596491225a7c","meta":{"profile":["http://hl7.org/fhir/us/qicore/StructureDefinition/qicore-condition"]},"clinicalStatus":{"coding":[{"system":"http://terminology.hl7.org/CodeSystem/condition-clinical","code":"active"}]},"verificationStatus":{"coding":[{"system":"http://terminology.hl7.org/CodeSystem/condition-ver-status","code":"confirmed"}]},"category":[{"coding":[{"system":"http://terminology.hl7.org/CodeSystem/condition-category","code":"encounter-diagnosis","display":"Encounter Diagnosis"}]}],"code":{"coding":[{"system":"http://snomed.info/sct","version":"2020-09","code":"111297002","display":"Nonparalytic stroke (disorder)","userSelected":true}]},"subject":{"reference":"Patient/2dc3e469-a1c6-4419-aecc-72e75dc8507b"},"recordedDate":"2025-08-16T08:00:00.000+00:00"},"request":{"method":"PUT","url":"Condition/bf3812df-d765-4fa5-959f-596491225a7c"}},{"fullUrl":"https://madie.cms.gov/Condition/ischemic-stroke-7d3c","resource":{"resourceType":"Condition","id":"74d1dc19-942a-44c0-bc81-86bfe031c433","meta":{"profile":["http://hl7.org/fhir/us/qicore/StructureDefinition/qicore-condition"]},"clinicalStatus":{"coding":[{"system":"http://terminology.hl7.org/CodeSystem/condition-clinical","code":"active"}]},"verificationStatus":{"coding":[{"system":"http://terminology.hl7.org/CodeSystem/condition-ver-status","code":"confirmed"}]},"category":[{"coding":[{"system":"http://terminology.hl7.org/CodeSystem/condition-category","code":"encounter-diagnosis","display":"Encounter Diagnosis"}]}],"code":{"coding":[{"system":"http://snomed.info/sct","version":"2020-09","code":"111297002","display":"Nonparalytic stroke (disorder)","userSelected":true}]},"subject":{"reference":"Patient/2dc3e469-a1c6-4419-aecc-72e75dc8507b"},"recordedDate":"2025-08-16T08:00:00.000+00:00"},"request":{"method":"PUT","url":"Condition/74d1dc19-942a-44c0-bc81-86bfe031c433"}},{"fullUrl":"https://madie.cms.gov/Condition/ischemic-stroke-7d3d","resource":{"resourceType":"Condition","id":"464d22b7-b03f-46a1-a276-1aa0aa22e4f3","meta":{"profile":["http://hl7.org/fhir/us/qicore/StructureDefinition/qicore-condition"]},"clinicalStatus":{"coding":[{"system":"http://terminology.hl7.org/CodeSystem/condition-clinical","code":"active"}]},"verificationStatus":{"coding":[{"system":"http://terminology.hl7.org/CodeSystem/condition-ver-status","code":"confirmed"}]},"category":[{"coding":[{"system":"http://terminology.hl7.org/CodeSystem/condition-category","code":"encounter-diagnosis","display":"Encounter Diagnosis"}]}],"code":{"coding":[{"system":"http://snomed.info/sct","version":"2020-09","code":"111297002","display":"Nonparalytic stroke (disorder)","userSelected":true}]},"subject":{"reference":"Patient/2dc3e469-a1c6-4419-aecc-72e75dc8507b"},"recordedDate":"2025-08-16T08:00:00.000+00:00"},"request":{"method":"PUT","url":"Condition/464d22b7-b03f-46a1-a276-1aa0aa22e4f3"}},{"fullUrl":"https://madie.cms.gov/Coverage/1","resource":{"resourceType":"Coverage","id":"22ac8e68-2a5e-4e66-b558-7e3d56c6f093","meta":{"profile":["http://hl7.org/fhir/us/qicore/StructureDefinition/qicore-coverage"]},"status":"active","beneficiary":{"reference":"Patient/2dc3e469-a1c6-4419-aecc-72e75dc8507b"},"payor":[{"reference":"Organization/42846cc3-1db0-4bf7-b9ff-8b81fa6e835d"}]},"request":{"method":"PUT","url":"Coverage/22ac8e68-2a5e-4e66-b558-7e3d56c6f093"}},{"fullUrl":"https://madie.cms.gov/Organization/123456","resource":{"resourceType":"Organization","id":"42846cc3-1db0-4bf7-b9ff-8b81fa6e835d","meta":{"profile":["http://hl7.org/fhir/us/qicore/StructureDefinition/qicore-organization"]},"identifier":[{"use":"temp","system":"urn:oid:2.16.840.1.113883.4.4","value":"21-3259825"}],"active":true,"type":[{"coding":[{"system":"http://terminology.hl7.org/CodeSystem/organization-type","code":"pay","display":"Payer"}]}],"name":"Blue Cross Blue Shield of Texas","telecom":[{"system":"phone","value":"(+1) 972-766-6900"}],"address":[{"use":"billing","type":"postal","line":["P.O. Box 660044"],"city":"Dallas","state":"TX","postalCode":"75266-0044","country":"USA"}]},"request":{"method":"PUT","url":"Organization/42846cc3-1db0-4bf7-b9ff-8b81fa6e835d"}},{"fullUrl":"https://madie.cms.gov/Practitioner/practitioner-123456","resource":{"resourceType":"Practitioner","id":"16ed960c-4a2b-4b62-9887-eb7edb29a633","identifier":[{"system":"http://hl7.org/fhir/sid/us-npi","value":"123456"}],"name":[{"family":"Evil","prefix":["Dr"]}]},"request":{"method":"PUT","url":"Practitioner/16ed960c-4a2b-4b62-9887-eb7edb29a633"}},{"fullUrl":"https://madie.cms.gov/MeasureReport/4af14141-5817-4dff-b34d-b427371c6a34","resource":{"resourceType":"MeasureReport","id":"4af14141-5817-4dff-b34d-b427371c6a34","meta":{"profile":["http://hl7.org/fhir/us/cqfmeasures/StructureDefinition/test-case-cqfm"]},"contained":[{"resourceType":"Parameters","id":"4e29d532-ea53-450e-9a8c-b96832ebd170-parameters","parameter":[{"name":"subject","valueString":"2dc3e469-a1c6-4419-aecc-72e75dc8507b"}]}],"extension":[{"url":"http://hl7.org/fhir/us/cqfmeasures/StructureDefinition/cqfm-inputParameters","valueReference":{"reference":"#4e29d532-ea53-450e-9a8c-b96832ebd170-parameters"}},{"url":"http://hl7.org/fhir/us/cqfmeasures/StructureDefinition/cqfm-testCaseDescription","valueMarkdown":"Multiple encounter testing\n"}],"modifierExtension":[{"url":"http://hl7.org/fhir/us/cqfmeasures/StructureDefinition/cqfm-isTestCase","valueBoolean":true}],"status":"complete","type":"individual","measure":"https://madie.cms.gov/Measure/AntithromboticTherapyByEndofHospitalDay2FHIR","period":{"start":"2025-01-01","end":"2025-12-31"},"group":[{"population":[{"code":{"coding":[{"system":"http://terminology.hl7.org/CodeSystem/measure-population","code":"initial-population","display":"Initial Population"}]},"count":3},{"code":{"coding":[{"system":"http://terminology.hl7.org/CodeSystem/measure-population","code":"denominator","display":"Denominator"}]},"count":3},{"code":{"coding":[{"system":"http://terminology.hl7.org/CodeSystem/measure-population","code":"denominator-exclusion","display":"Denominator Exclusion"}]},"count":2},{"code":{"coding":[{"system":"http://terminology.hl7.org/CodeSystem/measure-population","code":"numerator","display":"Numerator"}]},"count":1},{"code":{"coding":[{"system":"http://terminology.hl7.org/CodeSystem/measure-population","code":"denominator-exception","display":"Denominator Exception"}]},"count":0}]}]},"request":{"method":"PUT","url":"MeasureReport/4af14141-5817-4dff-b34d-b427371c6a34"}}]}