{"resourceType":"Bundle","id":"tests-b3043789-f91a-42f6-848d-6bfd7df331fe-bundle","type":"transaction","entry":[{"fullUrl":"https://madie.cms.gov/Patient/b3043789-f91a-42f6-848d-6bfd7df331fe","resource":{"resourceType":"Patient","id":"b3043789-f91a-42f6-848d-6bfd7df331fe","meta":{"profile":["http://hl7.org/fhir/us/qicore/StructureDefinition/qicore-patient"]},"text":{"status":"generated","div":"<div xmlns=\"http://www.w3.org/1999/xhtml\"><div class=\"hapiHeaderText\">tPADuringInPatientEnc1DayAfterAdmit <b>DENEXPASS-LCG </b></div><table class=\"hapiPropertyTable\"><tbody><tr><td>Identifier</td><td>44863becbb7051abd5e1dad02ddaf594356b765d18873c1d70b102e9efc8cd0b</td></tr><tr><td>Date of birth</td><td><span>26 September 1975</span></td></tr></tbody></table></div>"},"extension":[{"url":"http://hl7.org/fhir/us/core/StructureDefinition/us-core-race","extension":[{"url":"ombCategory","valueCoding":{"system":"urn:oid:2.16.840.1.113883.6.238","code":"2054-5","display":"Black or African American","userSelected":true}},{"url":"text","valueString":"Black or African American"}]},{"url":"http://hl7.org/fhir/us/core/StructureDefinition/us-core-ethnicity","extension":[{"url":"ombCategory","valueCoding":{"system":"urn:oid:2.16.840.1.113883.6.238","code":"2186-5","display":"Not Hispanic or Latino","userSelected":true}},{"url":"text","valueString":"Not Hispanic or Latino"}]}],"identifier":[{"type":{"coding":[{"system":"http://terminology.hl7.org/CodeSystem/v2-0203","code":"MR"}]},"system":"https://bonnie-fhir.healthit.gov/","value":"60f82c2f98086b570510e2c4"}],"active":true,"name":[{"use":"usual","family":"DENEXPass-LCG","given":["tPADuringInPatientEnc1DayAfterAdmit"]}],"gender":"female","birthDate":"1975-09-26"},"request":{"method":"PUT","url":"Patient/b3043789-f91a-42f6-848d-6bfd7df331fe"}},{"fullUrl":"https://madie.cms.gov/Encounter/5ce6d13eb84846725ea458eb","resource":{"resourceType":"Encounter","id":"21ca3448-51fb-40c7-9921-eaa5ab9194b9","meta":{"profile":["http://hl7.org/fhir/us/qicore/StructureDefinition/qicore-encounter"]},"status":"finished","class":{"system":"http://terminology.hl7.org/CodeSystem/v3-ActCode","code":"EMER","display":"emergency"},"type":[{"coding":[{"system":"http://snomed.info/sct","code":"4525004"}]}],"subject":{"reference":"Patient/b3043789-f91a-42f6-848d-6bfd7df331fe"},"period":{"start":"2025-10-10T04:00:00+00:00","end":"2025-10-10T10:30:00+00:00"},"length":{"value":0,"unit":"days"}},"request":{"method":"PUT","url":"Encounter/21ca3448-51fb-40c7-9921-eaa5ab9194b9"}},{"fullUrl":"https://madie.cms.gov/Encounter/5ce6d13eb84846725ea458ec","resource":{"resourceType":"Encounter","id":"1343d9e2-0a1b-4662-a55f-95c7cdc267ff","meta":{"profile":["http://hl7.org/fhir/us/qicore/StructureDefinition/qicore-encounter"]},"status":"finished","class":{"system":"http://terminology.hl7.org/CodeSystem/v3-ActCode","code":"IMP","display":"inpatient encounter"},"type":[{"coding":[{"system":"http://snomed.info/sct","code":"32485007"}]}],"subject":{"reference":"Patient/b3043789-f91a-42f6-848d-6bfd7df331fe"},"period":{"start":"2025-10-11T11:00:00+00:00","end":"2025-10-14T11:30:00+00:00"},"length":{"value":3,"unit":"days"},"diagnosis":[{"condition":{"reference":"Condition/ischemic-stroke-6d69"},"use":{"coding":[{"system":"http://terminology.hl7.org/CodeSystem/diagnosis-role","code":"billing","display":"Billing"}]},"rank":1}]},"request":{"method":"PUT","url":"Encounter/1343d9e2-0a1b-4662-a55f-95c7cdc267ff"}},{"fullUrl":"https://madie.cms.gov/Procedure/5e27158629969c0000f91cc9","resource":{"resourceType":"Procedure","id":"72e4f999-99e4-4a1a-b8c7-552c2dca7443","meta":{"profile":["http://hl7.org/fhir/us/qicore/StructureDefinition/qicore-procedure"]},"extension":[{"url":"http://hl7.org/fhir/us/qicore/StructureDefinition/qicore-recorded","valueDateTime":"2025-11-19T09:35:00-04:00"}],"status":"completed","code":{"coding":[{"system":"http://snomed.info/sct","code":"307521008"}]},"subject":{"reference":"Patient/b3043789-f91a-42f6-848d-6bfd7df331fe"},"performedPeriod":{"start":"2025-10-12T11:00:00+00:00","end":"2025-10-14T11:30:00+00:00"}},"request":{"method":"PUT","url":"Procedure/72e4f999-99e4-4a1a-b8c7-552c2dca7443"}},{"fullUrl":"https://madie.cms.gov/Condition/ischemic-stroke-6d69","resource":{"resourceType":"Condition","id":"b5bac793-9250-4e14-962f-73888bbf10b0","meta":{"profile":["http://hl7.org/fhir/us/qicore/StructureDefinition/qicore-condition"]},"clinicalStatus":{"coding":[{"system":"http://terminology.hl7.org/CodeSystem/condition-clinical","code":"active"}]},"verificationStatus":{"coding":[{"system":"http://terminology.hl7.org/CodeSystem/condition-ver-status","code":"confirmed"}]},"category":[{"coding":[{"system":"http://terminology.hl7.org/CodeSystem/condition-category","code":"encounter-diagnosis","display":"Encounter Diagnosis"}]}],"code":{"coding":[{"system":"http://snomed.info/sct","version":"2020-09","code":"111297002","display":"Nonparalytic stroke (disorder)","userSelected":true}]},"subject":{"reference":"Patient/b3043789-f91a-42f6-848d-6bfd7df331fe"},"recordedDate":"2025-08-13T08:00:00.000+00:00"},"request":{"method":"PUT","url":"Condition/b5bac793-9250-4e14-962f-73888bbf10b0"}},{"fullUrl":"https://madie.cms.gov/Coverage/1","resource":{"resourceType":"Coverage","id":"d939a90d-397e-4ce7-853f-878a31887dc3","meta":{"profile":["http://hl7.org/fhir/us/qicore/StructureDefinition/qicore-coverage"]},"status":"active","beneficiary":{"reference":"Patient/b3043789-f91a-42f6-848d-6bfd7df331fe"},"payor":[{"reference":"Organization/77e4d06f-5e3c-436a-a598-80cefcca5028"}]},"request":{"method":"PUT","url":"Coverage/d939a90d-397e-4ce7-853f-878a31887dc3"}},{"fullUrl":"https://madie.cms.gov/Organization/123456","resource":{"resourceType":"Organization","id":"77e4d06f-5e3c-436a-a598-80cefcca5028","meta":{"profile":["http://hl7.org/fhir/us/qicore/StructureDefinition/qicore-organization"]},"identifier":[{"use":"temp","system":"urn:oid:2.16.840.1.113883.4.4","value":"21-3259825"}],"active":true,"type":[{"coding":[{"system":"http://terminology.hl7.org/CodeSystem/organization-type","code":"pay","display":"Payer"}]}],"name":"Blue Cross Blue Shield of Texas","telecom":[{"system":"phone","value":"(+1) 972-766-6900"}],"address":[{"use":"billing","type":"postal","line":["P.O. Box 660044"],"city":"Dallas","state":"TX","postalCode":"75266-0044","country":"USA"}]},"request":{"method":"PUT","url":"Organization/77e4d06f-5e3c-436a-a598-80cefcca5028"}},{"fullUrl":"https://madie.cms.gov/Practitioner/practitioner-123456","resource":{"resourceType":"Practitioner","id":"b914b71e-4d3b-434a-af81-8d31a5856449","identifier":[{"system":"http://hl7.org/fhir/sid/us-npi","value":"123456"}],"name":[{"family":"Evil","prefix":["Dr"]}]},"request":{"method":"PUT","url":"Practitioner/b914b71e-4d3b-434a-af81-8d31a5856449"}},{"fullUrl":"https://madie.cms.gov/MeasureReport/22c8c66d-5284-4d7c-822b-74ffbd819cc5","resource":{"resourceType":"MeasureReport","id":"22c8c66d-5284-4d7c-822b-74ffbd819cc5","meta":{"profile":["http://hl7.org/fhir/us/cqfmeasures/StructureDefinition/test-case-cqfm"]},"contained":[{"resourceType":"Parameters","id":"75c69d00-c36a-40e3-ac64-b440505a9fcf-parameters","parameter":[{"name":"subject","valueString":"b3043789-f91a-42f6-848d-6bfd7df331fe"}]}],"extension":[{"url":"http://hl7.org/fhir/us/cqfmeasures/StructureDefinition/cqfm-inputParameters","valueReference":{"reference":"#75c69d00-c36a-40e3-ac64-b440505a9fcf-parameters"}},{"url":"http://hl7.org/fhir/us/cqfmeasures/StructureDefinition/cqfm-testCaseDescription","valueMarkdown":" Patient received tPA  one day after admission to inpatient hospitalization \n"}],"modifierExtension":[{"url":"http://hl7.org/fhir/us/cqfmeasures/StructureDefinition/cqfm-isTestCase","valueBoolean":true}],"status":"complete","type":"individual","measure":"https://madie.cms.gov/Measure/AntithromboticTherapyByEndofHospitalDay2FHIR","period":{"start":"2025-01-01","end":"2025-12-31"},"group":[{"population":[{"code":{"coding":[{"system":"http://terminology.hl7.org/CodeSystem/measure-population","code":"initial-population","display":"Initial Population"}]},"count":1},{"code":{"coding":[{"system":"http://terminology.hl7.org/CodeSystem/measure-population","code":"denominator","display":"Denominator"}]},"count":1},{"code":{"coding":[{"system":"http://terminology.hl7.org/CodeSystem/measure-population","code":"denominator-exclusion","display":"Denominator Exclusion"}]},"count":1},{"code":{"coding":[{"system":"http://terminology.hl7.org/CodeSystem/measure-population","code":"numerator","display":"Numerator"}]},"count":0},{"code":{"coding":[{"system":"http://terminology.hl7.org/CodeSystem/measure-population","code":"denominator-exception","display":"Denominator Exception"}]},"count":0}]}]},"request":{"method":"PUT","url":"MeasureReport/22c8c66d-5284-4d7c-822b-74ffbd819cc5"}}]}