{"resourceType":"Bundle","id":"tests-7317795b-638b-4d0c-9e9e-b55ade45958c-bundle","type":"transaction","entry":[{"fullUrl":"https://madie.cms.gov/Patient/7317795b-638b-4d0c-9e9e-b55ade45958c","resource":{"resourceType":"Patient","id":"7317795b-638b-4d0c-9e9e-b55ade45958c","meta":{"profile":["http://hl7.org/fhir/us/qicore/StructureDefinition/qicore-patient"]},"text":{"status":"generated","div":"<div xmlns=\"http://www.w3.org/1999/xhtml\"><div class=\"hapiHeaderText\">LOS&lt;1Day_EDB4EncIP <b>DENEXPASS </b></div><table class=\"hapiPropertyTable\"><tbody><tr><td>Identifier</td><td>dc28722d00f645d5350fffd17d1a4d70</td></tr><tr><td>Date of birth</td><td><span>21 August 1993</span></td></tr></tbody></table></div>"},"extension":[{"url":"http://hl7.org/fhir/us/core/StructureDefinition/us-core-race","extension":[{"url":"ombCategory","valueCoding":{"system":"urn:oid:2.16.840.1.113883.6.238","code":"1002-5","display":"American Indian or Alaska Native","userSelected":true}},{"url":"text","valueString":"American Indian or Alaska Native"}]},{"url":"http://hl7.org/fhir/us/core/StructureDefinition/us-core-ethnicity","extension":[{"url":"ombCategory","valueCoding":{"system":"urn:oid:2.16.840.1.113883.6.238","code":"2186-5","display":"Not Hispanic or Latino","userSelected":true}},{"url":"text","valueString":"Not Hispanic or Latino"}]}],"identifier":[{"type":{"coding":[{"system":"http://terminology.hl7.org/CodeSystem/v2-0203","code":"MR"}]},"system":"https://bonnie-fhir.healthit.gov/","value":"60f82c2d98086b570510e257"}],"active":true,"name":[{"use":"usual","family":"DENEXPass","given":["LOS<1Day_EDB4EncIP"]}],"gender":"male","birthDate":"1993-08-21"},"request":{"method":"PUT","url":"Patient/7317795b-638b-4d0c-9e9e-b55ade45958c"}},{"fullUrl":"https://madie.cms.gov/Encounter/5c954892b848462de0ae61b6","resource":{"resourceType":"Encounter","id":"ed460210-639f-47c4-86c7-183248aea49b","meta":{"profile":["http://hl7.org/fhir/us/qicore/StructureDefinition/qicore-encounter"]},"status":"finished","class":{"system":"http://terminology.hl7.org/CodeSystem/v3-ActCode","code":"EMER","display":"emergency"},"type":[{"coding":[{"system":"http://snomed.info/sct","code":"4525004"}]}],"subject":{"reference":"Patient/7317795b-638b-4d0c-9e9e-b55ade45958c"},"period":{"start":"2025-08-20T08:00:00+00:00","end":"2025-08-20T21:00:00+00:00"},"length":{"value":0,"unit":"days"}},"request":{"method":"PUT","url":"Encounter/ed460210-639f-47c4-86c7-183248aea49b"}},{"fullUrl":"https://madie.cms.gov/Encounter/5c954892b848462de0ae61b7","resource":{"resourceType":"Encounter","id":"83034131-8b08-4c3c-a2d4-5bb6e5f19830","meta":{"profile":["http://hl7.org/fhir/us/qicore/StructureDefinition/qicore-encounter"]},"status":"finished","class":{"system":"http://terminology.hl7.org/CodeSystem/v3-ActCode","code":"IMP","display":"inpatient encounter"},"type":[{"coding":[{"system":"http://snomed.info/sct","code":"32485007"}]}],"subject":{"reference":"Patient/7317795b-638b-4d0c-9e9e-b55ade45958c"},"period":{"start":"2025-08-20T22:00:00+00:00","end":"2025-08-20T23:59:00+00:00"},"length":{"value":0,"unit":"days"},"diagnosis":[{"condition":{"reference":"Condition/ischemic-stroke-2d5a"},"use":{"coding":[{"system":"http://terminology.hl7.org/CodeSystem/diagnosis-role","code":"billing","display":"Billing"}]},"rank":1}]},"request":{"method":"PUT","url":"Encounter/83034131-8b08-4c3c-a2d4-5bb6e5f19830"}},{"fullUrl":"https://madie.cms.gov/Coverage/5e20a3661c76ba6c5896ebba","resource":{"resourceType":"Coverage","id":"570c0088-2c2e-4f73-adde-d352987667e0","status":"active","beneficiary":{"reference":"Patient/7317795b-638b-4d0c-9e9e-b55ade45958c"},"period":{"start":"1993-08-21T07:00:00+00:00"},"payor":[{"reference":"Organization/41c75c00-82d9-4ab2-98f6-cfaf7fc3381d"}]},"request":{"method":"PUT","url":"Coverage/570c0088-2c2e-4f73-adde-d352987667e0"}},{"fullUrl":"https://madie.cms.gov/Condition/ischemic-stroke-2d5a","resource":{"resourceType":"Condition","id":"5af8f2e6-a364-417c-b239-b93217263411","meta":{"profile":["http://hl7.org/fhir/us/qicore/StructureDefinition/qicore-condition"]},"clinicalStatus":{"coding":[{"system":"http://terminology.hl7.org/CodeSystem/condition-clinical","code":"active"}]},"verificationStatus":{"coding":[{"system":"http://terminology.hl7.org/CodeSystem/condition-ver-status","code":"confirmed"}]},"category":[{"coding":[{"system":"http://terminology.hl7.org/CodeSystem/condition-category","code":"encounter-diagnosis","display":"Encounter Diagnosis"}]}],"code":{"coding":[{"system":"http://snomed.info/sct","version":"2020-09","code":"111297002","display":"Nonparalytic stroke (disorder)","userSelected":true}]},"subject":{"reference":"Patient/7317795b-638b-4d0c-9e9e-b55ade45958c"},"recordedDate":"2025-08-13T08:00:00.000+00:00"},"request":{"method":"PUT","url":"Condition/5af8f2e6-a364-417c-b239-b93217263411"}},{"fullUrl":"https://madie.cms.gov/Organization/123456","resource":{"resourceType":"Organization","id":"41c75c00-82d9-4ab2-98f6-cfaf7fc3381d","meta":{"profile":["http://hl7.org/fhir/us/qicore/StructureDefinition/qicore-organization"]},"identifier":[{"use":"temp","system":"urn:oid:2.16.840.1.113883.4.4","value":"21-3259825"}],"active":true,"type":[{"coding":[{"system":"http://terminology.hl7.org/CodeSystem/organization-type","code":"pay","display":"Payer"}]}],"name":"Blue Cross Blue Shield of Texas","telecom":[{"system":"phone","value":"(+1) 972-766-6900"}],"address":[{"use":"billing","type":"postal","line":["P.O. Box 660044"],"city":"Dallas","state":"TX","postalCode":"75266-0044","country":"USA"}]},"request":{"method":"PUT","url":"Organization/41c75c00-82d9-4ab2-98f6-cfaf7fc3381d"}},{"fullUrl":"https://madie.cms.gov/MeasureReport/3f34b827-5b1a-4699-a7f4-aa5c3ae51a4a","resource":{"resourceType":"MeasureReport","id":"3f34b827-5b1a-4699-a7f4-aa5c3ae51a4a","meta":{"profile":["http://hl7.org/fhir/us/cqfmeasures/StructureDefinition/test-case-cqfm"]},"contained":[{"resourceType":"Parameters","id":"1aaa090f-1233-45aa-b053-f9a2e775ea77-parameters","parameter":[{"name":"subject","valueString":"7317795b-638b-4d0c-9e9e-b55ade45958c"}]}],"extension":[{"url":"http://hl7.org/fhir/us/cqfmeasures/StructureDefinition/cqfm-inputParameters","valueReference":{"reference":"#1aaa090f-1233-45aa-b053-f9a2e775ea77-parameters"}},{"url":"http://hl7.org/fhir/us/cqfmeasures/StructureDefinition/cqfm-testCaseDescription","valueMarkdown":"LOS < 1 day, timing starts with ED visit since ED ends concurrent with IP Encounter start. global.Hospitalization ( =Ed +IP)\n"}],"modifierExtension":[{"url":"http://hl7.org/fhir/us/cqfmeasures/StructureDefinition/cqfm-isTestCase","valueBoolean":true}],"status":"complete","type":"individual","measure":"https://madie.cms.gov/Measure/AntithromboticTherapyByEndofHospitalDay2FHIR","period":{"start":"2025-01-01","end":"2025-12-31"},"group":[{"population":[{"code":{"coding":[{"system":"http://terminology.hl7.org/CodeSystem/measure-population","code":"initial-population","display":"Initial Population"}]},"count":1},{"code":{"coding":[{"system":"http://terminology.hl7.org/CodeSystem/measure-population","code":"denominator","display":"Denominator"}]},"count":1},{"code":{"coding":[{"system":"http://terminology.hl7.org/CodeSystem/measure-population","code":"denominator-exclusion","display":"Denominator Exclusion"}]},"count":1},{"code":{"coding":[{"system":"http://terminology.hl7.org/CodeSystem/measure-population","code":"numerator","display":"Numerator"}]},"count":0},{"code":{"coding":[{"system":"http://terminology.hl7.org/CodeSystem/measure-population","code":"denominator-exception","display":"Denominator Exception"}]},"count":0}]}]},"request":{"method":"PUT","url":"MeasureReport/3f34b827-5b1a-4699-a7f4-aa5c3ae51a4a"}}]}