{"resourceType":"Bundle","id":"tests-2505f602-4b0b-4e31-bd98-83ea0fac484f-bundle","type":"transaction","entry":[{"fullUrl":"https://madie.cms.gov/Patient/2505f602-4b0b-4e31-bd98-83ea0fac484f","resource":{"resourceType":"Patient","id":"2505f602-4b0b-4e31-bd98-83ea0fac484f","meta":{"profile":["http://hl7.org/fhir/us/qicore/StructureDefinition/qicore-patient"]},"text":{"status":"generated","div":"<div xmlns=\"http://www.w3.org/1999/xhtml\"><div class=\"hapiHeaderText\">CMP&lt;1day_DuringEncIP <b>DENEXPASS </b></div><table class=\"hapiPropertyTable\"><tbody><tr><td>Identifier</td><td>29ee7c03f9bc2d520cd864a0cadbd62a</td></tr><tr><td>Date of birth</td><td><span>26 September 1975</span></td></tr></tbody></table></div>"},"extension":[{"url":"http://hl7.org/fhir/us/core/StructureDefinition/us-core-race","extension":[{"url":"ombCategory","valueCoding":{"system":"urn:oid:2.16.840.1.113883.6.238","code":"2054-5","display":"Black or African American","userSelected":true}},{"url":"text","valueString":"Black or African American"}]},{"url":"http://hl7.org/fhir/us/core/StructureDefinition/us-core-ethnicity","extension":[{"url":"ombCategory","valueCoding":{"system":"urn:oid:2.16.840.1.113883.6.238","code":"2186-5","display":"Not Hispanic or Latino","userSelected":true}},{"url":"text","valueString":"Not Hispanic or Latino"}]}],"identifier":[{"type":{"coding":[{"system":"http://terminology.hl7.org/CodeSystem/v2-0203","code":"MR"}]},"system":"https://bonnie-fhir.healthit.gov/","value":"60f82c2e98086b570510e288"}],"active":true,"name":[{"use":"usual","family":"DENEXPass","given":["CMP<1day_DuringEncIP"]}],"gender":"female","birthDate":"1975-09-26"},"request":{"method":"PUT","url":"Patient/2505f602-4b0b-4e31-bd98-83ea0fac484f"}},{"fullUrl":"https://madie.cms.gov/Encounter/5c954892b848462de0ae6218","resource":{"resourceType":"Encounter","id":"47cbc3bb-85ad-42b5-8112-c085a13c015f","meta":{"profile":["http://hl7.org/fhir/us/qicore/StructureDefinition/qicore-encounter"]},"status":"finished","class":{"system":"http://terminology.hl7.org/CodeSystem/v3-ActCode","code":"EMER","display":"emergency","userSelected":true},"type":[{"coding":[{"system":"http://snomed.info/sct","code":"4525004"}]}],"subject":{"reference":"Patient/2505f602-4b0b-4e31-bd98-83ea0fac484f"},"period":{"start":"2025-10-10T04:00:00+00:00","end":"2025-10-10T06:00:00+00:00"},"length":{"value":0,"unit":"days"}},"request":{"method":"PUT","url":"Encounter/47cbc3bb-85ad-42b5-8112-c085a13c015f"}},{"fullUrl":"https://madie.cms.gov/Encounter/5c954892b848462de0ae6219","resource":{"resourceType":"Encounter","id":"b80a4b3b-789a-497c-b8ae-fc851774b493","meta":{"profile":["http://hl7.org/fhir/us/qicore/StructureDefinition/qicore-encounter"]},"status":"finished","class":{"system":"http://terminology.hl7.org/CodeSystem/v3-ActCode","code":"IMP","display":"inpatient encounter","userSelected":true},"type":[{"coding":[{"system":"http://snomed.info/sct","code":"32485007"}]}],"subject":{"reference":"Patient/2505f602-4b0b-4e31-bd98-83ea0fac484f"},"period":{"start":"2025-10-10T06:15:00+00:00","end":"2025-10-11T11:30:00+00:00"},"length":{"value":1,"unit":"days"},"diagnosis":[{"condition":{"reference":"Condition/ischemic-stroke-8a9c"},"use":{"coding":[{"system":"http://terminology.hl7.org/CodeSystem/diagnosis-role","code":"billing","display":"Billing"}]},"rank":1}]},"request":{"method":"PUT","url":"Encounter/b80a4b3b-789a-497c-b8ae-fc851774b493"}},{"fullUrl":"https://madie.cms.gov/Procedure/5c954892b848462de0ae621b","resource":{"resourceType":"Procedure","id":"aa2e13e7-b8a6-4618-8314-1e6e04ab412c","meta":{"profile":["http://hl7.org/fhir/us/qicore/StructureDefinition/qicore-procedure"]},"extension":[{"url":"http://hl7.org/fhir/us/qicore/StructureDefinition/qicore-recorded","valueDateTime":"2025-11-19T09:35:00-04:00"}],"status":"completed","code":{"coding":[{"system":"http://snomed.info/sct","code":"133918004"}]},"subject":{"reference":"Patient/2505f602-4b0b-4e31-bd98-83ea0fac484f"},"performedPeriod":{"start":"2025-10-10T11:14:00+00:00"}},"request":{"method":"PUT","url":"Procedure/aa2e13e7-b8a6-4618-8314-1e6e04ab412c"}},{"fullUrl":"https://madie.cms.gov/Coverage/5e20a36c1c76ba6c5896ebeb","resource":{"resourceType":"Coverage","id":"4f59da3e-d9fa-47b8-a77d-ff0ece812668","status":"active","beneficiary":{"reference":"Patient/2505f602-4b0b-4e31-bd98-83ea0fac484f"},"period":{"start":"1975-09-26T08:00:00+00:00"},"payor":[{"reference":"Organization/33ead57e-5e04-40e4-95ea-bc3cdbd58917"}]},"request":{"method":"PUT","url":"Coverage/4f59da3e-d9fa-47b8-a77d-ff0ece812668"}},{"fullUrl":"https://madie.cms.gov/Condition/ischemic-stroke-8a9c","resource":{"resourceType":"Condition","id":"9dfcbc22-45ea-4314-935f-540fb8aa097a","meta":{"profile":["http://hl7.org/fhir/us/qicore/StructureDefinition/qicore-condition"]},"clinicalStatus":{"coding":[{"system":"http://terminology.hl7.org/CodeSystem/condition-clinical","code":"active"}]},"verificationStatus":{"coding":[{"system":"http://terminology.hl7.org/CodeSystem/condition-ver-status","code":"confirmed"}]},"category":[{"coding":[{"system":"http://terminology.hl7.org/CodeSystem/condition-category","code":"encounter-diagnosis","display":"Encounter Diagnosis"}]}],"code":{"coding":[{"system":"http://snomed.info/sct","version":"2020-09","code":"111297002","display":"Nonparalytic stroke (disorder)","userSelected":true}]},"subject":{"reference":"Patient/2505f602-4b0b-4e31-bd98-83ea0fac484f"},"recordedDate":"2025-08-13T08:00:00.000+00:00"},"request":{"method":"PUT","url":"Condition/9dfcbc22-45ea-4314-935f-540fb8aa097a"}},{"fullUrl":"https://madie.cms.gov/Organization/123456","resource":{"resourceType":"Organization","id":"33ead57e-5e04-40e4-95ea-bc3cdbd58917","meta":{"profile":["http://hl7.org/fhir/us/qicore/StructureDefinition/qicore-organization"]},"identifier":[{"use":"temp","system":"urn:oid:2.16.840.1.113883.4.4","value":"21-3259825"}],"active":true,"type":[{"coding":[{"system":"http://terminology.hl7.org/CodeSystem/organization-type","code":"pay","display":"Payer"}]}],"name":"Blue Cross Blue Shield of Texas","telecom":[{"system":"phone","value":"(+1) 972-766-6900"}],"address":[{"use":"billing","type":"postal","line":["P.O. Box 660044"],"city":"Dallas","state":"TX","postalCode":"75266-0044","country":"USA"}]},"request":{"method":"PUT","url":"Organization/33ead57e-5e04-40e4-95ea-bc3cdbd58917"}},{"fullUrl":"https://madie.cms.gov/MeasureReport/ceba036b-b6e7-426d-bada-c4d2fd35ab56","resource":{"resourceType":"MeasureReport","id":"ceba036b-b6e7-426d-bada-c4d2fd35ab56","meta":{"profile":["http://hl7.org/fhir/us/cqfmeasures/StructureDefinition/test-case-cqfm"]},"contained":[{"resourceType":"Parameters","id":"a4774e6c-9de0-4116-9c62-0d6b94cd0ed2-parameters","parameter":[{"name":"subject","valueString":"2505f602-4b0b-4e31-bd98-83ea0fac484f"}]}],"extension":[{"url":"http://hl7.org/fhir/us/cqfmeasures/StructureDefinition/cqfm-inputParameters","valueReference":{"reference":"#a4774e6c-9de0-4116-9c62-0d6b94cd0ed2-parameters"}},{"url":"http://hl7.org/fhir/us/cqfmeasures/StructureDefinition/cqfm-testCaseDescription","valueMarkdown":"Patient receives comfort measures performed CMP<1day (=0 day)   during Enc IP   global.\"Hospitalization\" =(Ed+IP)\n"}],"modifierExtension":[{"url":"http://hl7.org/fhir/us/cqfmeasures/StructureDefinition/cqfm-isTestCase","valueBoolean":true}],"status":"complete","type":"individual","measure":"https://madie.cms.gov/Measure/AntithromboticTherapyByEndofHospitalDay2FHIR","period":{"start":"2025-01-01","end":"2025-12-31"},"group":[{"population":[{"code":{"coding":[{"system":"http://terminology.hl7.org/CodeSystem/measure-population","code":"initial-population","display":"Initial Population"}]},"count":1},{"code":{"coding":[{"system":"http://terminology.hl7.org/CodeSystem/measure-population","code":"denominator","display":"Denominator"}]},"count":1},{"code":{"coding":[{"system":"http://terminology.hl7.org/CodeSystem/measure-population","code":"denominator-exclusion","display":"Denominator Exclusion"}]},"count":1},{"code":{"coding":[{"system":"http://terminology.hl7.org/CodeSystem/measure-population","code":"numerator","display":"Numerator"}]},"count":0},{"code":{"coding":[{"system":"http://terminology.hl7.org/CodeSystem/measure-population","code":"denominator-exception","display":"Denominator Exception"}]},"count":0}]}]},"request":{"method":"PUT","url":"MeasureReport/ceba036b-b6e7-426d-bada-c4d2fd35ab56"}}]}