{"resourceType":"Bundle","id":"tests-4328b614-e32c-4295-9f63-8d76aa2f584d-bundle","type":"transaction","entry":[{"fullUrl":"https://madie.cms.gov/Patient/4328b614-e32c-4295-9f63-8d76aa2f584d","resource":{"resourceType":"Patient","id":"4328b614-e32c-4295-9f63-8d76aa2f584d","meta":{"profile":["http://hl7.org/fhir/us/qicore/StructureDefinition/qicore-patient"]},"text":{"status":"generated","div":"<div xmlns=\"http://www.w3.org/1999/xhtml\"><div class=\"hapiHeaderText\">CMP_DayOf_RelvPerStart_1minB4EDStart_EDEndLT1hrB4Obs_ObsEndLT1hrB4IP <b>DENEXPASS </b></div><table class=\"hapiPropertyTable\"><tbody><tr><td>Date of birth</td><td><span>01 January 1980</span></td></tr></tbody></table></div>"},"extension":[{"url":"http://hl7.org/fhir/us/core/StructureDefinition/us-core-race","extension":[{"url":"ombCategory","valueCoding":{"system":"urn:oid:2.16.840.1.113883.6.238","code":"2106-3","display":"White","userSelected":true}},{"url":"text","valueString":"White"}]},{"url":"http://hl7.org/fhir/us/core/StructureDefinition/us-core-ethnicity","extension":[{"url":"ombCategory","valueCoding":{"system":"urn:oid:2.16.840.1.113883.6.238","code":"2186-5","display":"Not Hispanic or Latino","userSelected":true}},{"url":"text","valueString":"Not Hispanic or Latino"}]}],"identifier":[{"type":{"coding":[{"system":"http://terminology.hl7.org/CodeSystem/v2-0203","code":"MR"}]},"system":"https://bonnie-fhir.healthit.gov/","value":"60f82c3098086b570510e2d2"}],"active":true,"name":[{"use":"usual","family":"DENEXPass","given":["CMP_DayOf_RelvPerStart_1minB4EDStart_EDEndLT1hrB4Obs_ObsEndLT1hrB4IP"]}],"gender":"female","birthDate":"1980-01-01"},"request":{"method":"PUT","url":"Patient/4328b614-e32c-4295-9f63-8d76aa2f584d"}},{"fullUrl":"https://madie.cms.gov/Encounter/5fb57d5aefbf1a000085c85e","resource":{"resourceType":"Encounter","id":"cd794e80-84af-431e-892f-19ad563ff3ea","meta":{"profile":["http://hl7.org/fhir/us/qicore/StructureDefinition/qicore-encounter"]},"status":"finished","class":{"system":"http://terminology.hl7.org/CodeSystem/v3-ActCode","code":"EMER","display":"emergency"},"type":[{"coding":[{"system":"http://snomed.info/sct","code":"4525004"}]}],"subject":{"reference":"Patient/4328b614-e32c-4295-9f63-8d76aa2f584d"},"period":{"start":"2025-11-18T07:00:00+00:00","end":"2025-11-18T08:01:00+00:00"},"diagnosis":[{"condition":{"reference":"Condition/ischemic-stroke-8aba"},"use":{"coding":[{"system":"http://terminology.hl7.org/CodeSystem/diagnosis-role","code":"billing","display":"Billing"}]},"rank":1}]},"request":{"method":"PUT","url":"Encounter/cd794e80-84af-431e-892f-19ad563ff3ea"}},{"fullUrl":"https://madie.cms.gov/Encounter/5fb57d73efbf1a000085c870","resource":{"resourceType":"Encounter","id":"71aa0b7a-3952-4df8-9da3-fa711c386e91","meta":{"profile":["http://hl7.org/fhir/us/qicore/StructureDefinition/qicore-encounter"]},"status":"finished","class":{"system":"http://terminology.hl7.org/CodeSystem/v3-ActCode","code":"OBSENC","display":"observation encounter"},"type":[{"coding":[{"system":"http://snomed.info/sct","code":"448951000124107"}]}],"subject":{"reference":"Patient/4328b614-e32c-4295-9f63-8d76aa2f584d"},"period":{"start":"2025-11-18T09:00:00+00:00","end":"2025-11-18T10:01:00+00:00"}},"request":{"method":"PUT","url":"Encounter/71aa0b7a-3952-4df8-9da3-fa711c386e91"}},{"fullUrl":"https://madie.cms.gov/Encounter/5fb57d9eefbf1a000085c896","resource":{"resourceType":"Encounter","id":"8a54f391-9e33-495c-81a8-8545cff693a4","meta":{"profile":["http://hl7.org/fhir/us/qicore/StructureDefinition/qicore-encounter"]},"status":"finished","class":{"system":"http://terminology.hl7.org/CodeSystem/v3-ActCode","code":"IMP","display":"inpatient encounter"},"type":[{"coding":[{"system":"http://snomed.info/sct","code":"183452005"}]}],"subject":{"reference":"Patient/4328b614-e32c-4295-9f63-8d76aa2f584d"},"period":{"start":"2025-11-18T11:00:00+00:00","end":"2025-11-20T08:15:00+00:00"},"diagnosis":[{"condition":{"reference":"Condition/ischemic-stroke-8aba"},"use":{"coding":[{"system":"http://terminology.hl7.org/CodeSystem/diagnosis-role","code":"billing","display":"Billing"}]},"rank":1}]},"request":{"method":"PUT","url":"Encounter/8a54f391-9e33-495c-81a8-8545cff693a4"}},{"fullUrl":"https://madie.cms.gov/Procedure/5fb57e1fefbf1a000085c97a","resource":{"resourceType":"Procedure","id":"bc8cc0f1-0cde-44f7-a8ef-1b5855ef7d2f","meta":{"profile":["http://hl7.org/fhir/us/qicore/StructureDefinition/qicore-procedure"]},"extension":[{"url":"http://hl7.org/fhir/us/qicore/StructureDefinition/qicore-recorded","valueDateTime":"2025-11-19T09:35:00-04:00"}],"status":"completed","code":{"coding":[{"system":"http://snomed.info/sct","code":"133918004"}]},"subject":{"reference":"Patient/4328b614-e32c-4295-9f63-8d76aa2f584d"},"performedPeriod":{"start":"2025-11-18T06:59:00+00:00","end":"2025-11-18T08:01:00+00:00"}},"request":{"method":"PUT","url":"Procedure/bc8cc0f1-0cde-44f7-a8ef-1b5855ef7d2f"}},{"fullUrl":"https://madie.cms.gov/Condition/ischemic-stroke-8aba","resource":{"resourceType":"Condition","id":"dd84259a-a9d6-43b1-9813-c94ceaa9c83f","meta":{"profile":["http://hl7.org/fhir/us/qicore/StructureDefinition/qicore-condition"]},"clinicalStatus":{"coding":[{"system":"http://terminology.hl7.org/CodeSystem/condition-clinical","code":"active"}]},"verificationStatus":{"coding":[{"system":"http://terminology.hl7.org/CodeSystem/condition-ver-status","code":"confirmed"}]},"category":[{"coding":[{"system":"http://terminology.hl7.org/CodeSystem/condition-category","code":"encounter-diagnosis","display":"Encounter Diagnosis"}]}],"code":{"coding":[{"system":"http://snomed.info/sct","version":"2020-09","code":"111297002","display":"Nonparalytic stroke (disorder)","userSelected":true}]},"subject":{"reference":"Patient/4328b614-e32c-4295-9f63-8d76aa2f584d"},"recordedDate":"2025-08-13T08:00:00.000+00:00"},"request":{"method":"PUT","url":"Condition/dd84259a-a9d6-43b1-9813-c94ceaa9c83f"}},{"fullUrl":"https://madie.cms.gov/Coverage/1","resource":{"resourceType":"Coverage","id":"c2d2b1d2-b341-4897-b734-ce0049c3644a","meta":{"profile":["http://hl7.org/fhir/us/qicore/StructureDefinition/qicore-coverage"]},"status":"active","beneficiary":{"reference":"Patient/4328b614-e32c-4295-9f63-8d76aa2f584d"},"payor":[{"reference":"Organization/80573fa1-cf83-4e9a-8f21-86a018689678"}]},"request":{"method":"PUT","url":"Coverage/c2d2b1d2-b341-4897-b734-ce0049c3644a"}},{"fullUrl":"https://madie.cms.gov/Organization/123456","resource":{"resourceType":"Organization","id":"80573fa1-cf83-4e9a-8f21-86a018689678","meta":{"profile":["http://hl7.org/fhir/us/qicore/StructureDefinition/qicore-organization"]},"identifier":[{"use":"temp","system":"urn:oid:2.16.840.1.113883.4.4","value":"21-3259825"}],"active":true,"type":[{"coding":[{"system":"http://terminology.hl7.org/CodeSystem/organization-type","code":"pay","display":"Payer"}]}],"name":"Blue Cross Blue Shield of Texas","telecom":[{"system":"phone","value":"(+1) 972-766-6900"}],"address":[{"use":"billing","type":"postal","line":["P.O. Box 660044"],"city":"Dallas","state":"TX","postalCode":"75266-0044","country":"USA"}]},"request":{"method":"PUT","url":"Organization/80573fa1-cf83-4e9a-8f21-86a018689678"}},{"fullUrl":"https://madie.cms.gov/MeasureReport/9def0313-ee7d-43b7-86a1-40ce8b2b204d","resource":{"resourceType":"MeasureReport","id":"9def0313-ee7d-43b7-86a1-40ce8b2b204d","meta":{"profile":["http://hl7.org/fhir/us/cqfmeasures/StructureDefinition/test-case-cqfm"]},"contained":[{"resourceType":"Parameters","id":"300bb7d8-de54-4c79-aff9-f5f6f3eacfad-parameters","parameter":[{"name":"subject","valueString":"4328b614-e32c-4295-9f63-8d76aa2f584d"}]}],"extension":[{"url":"http://hl7.org/fhir/us/cqfmeasures/StructureDefinition/cqfm-inputParameters","valueReference":{"reference":"#300bb7d8-de54-4c79-aff9-f5f6f3eacfad-parameters"}},{"url":"http://hl7.org/fhir/us/cqfmeasures/StructureDefinition/cqfm-testCaseDescription","valueMarkdown":"Patient receives comfort measures performed on the day of hospital arrival, 1 minute before the start of the ED start. ED ends less than 1 hour before Obs Start, Obs ends less than 1 hour before IP start.\n"}],"modifierExtension":[{"url":"http://hl7.org/fhir/us/cqfmeasures/StructureDefinition/cqfm-isTestCase","valueBoolean":true}],"status":"complete","type":"individual","measure":"https://madie.cms.gov/Measure/AntithromboticTherapyByEndofHospitalDay2FHIR","period":{"start":"2025-01-01","end":"2025-12-31"},"group":[{"population":[{"code":{"coding":[{"system":"http://terminology.hl7.org/CodeSystem/measure-population","code":"initial-population","display":"Initial Population"}]},"count":1},{"code":{"coding":[{"system":"http://terminology.hl7.org/CodeSystem/measure-population","code":"denominator","display":"Denominator"}]},"count":1},{"code":{"coding":[{"system":"http://terminology.hl7.org/CodeSystem/measure-population","code":"denominator-exclusion","display":"Denominator Exclusion"}]},"count":1},{"code":{"coding":[{"system":"http://terminology.hl7.org/CodeSystem/measure-population","code":"numerator","display":"Numerator"}]},"count":0},{"code":{"coding":[{"system":"http://terminology.hl7.org/CodeSystem/measure-population","code":"denominator-exception","display":"Denominator Exception"}]},"count":0}]}]},"request":{"method":"PUT","url":"MeasureReport/9def0313-ee7d-43b7-86a1-40ce8b2b204d"}}]}