{"resourceType":"Bundle","id":"tests-763c581d-7398-47e7-ba78-eaa5853df551-bundle","type":"transaction","entry":[{"fullUrl":"https://madie.cms.gov/Patient/763c581d-7398-47e7-ba78-eaa5853df551","resource":{"resourceType":"Patient","id":"763c581d-7398-47e7-ba78-eaa5853df551","meta":{"profile":["http://hl7.org/fhir/us/qicore/StructureDefinition/qicore-patient"]},"text":{"status":"generated","div":"<div xmlns=\"http://www.w3.org/1999/xhtml\"><div class=\"hapiHeaderText\">CMP&gt;1day_duringIP <b>DENEXFAIL </b></div><table class=\"hapiPropertyTable\"><tbody><tr><td>Identifier</td><td>44765b479617151df23dd60d78910085</td></tr><tr><td>Date of birth</td><td><span>26 September 1975</span></td></tr></tbody></table></div>"},"extension":[{"url":"http://hl7.org/fhir/us/core/StructureDefinition/us-core-race","extension":[{"url":"ombCategory","valueCoding":{"system":"urn:oid:2.16.840.1.113883.6.238","code":"1002-5","display":"American Indian or Alaska Native","userSelected":true}},{"url":"text","valueString":"American Indian or Alaska Native"}]},{"url":"http://hl7.org/fhir/us/core/StructureDefinition/us-core-ethnicity","extension":[{"url":"ombCategory","valueCoding":{"system":"urn:oid:2.16.840.1.113883.6.238","code":"2135-2","display":"Hispanic or Latino","userSelected":true}},{"url":"text","valueString":"Hispanic or Latino"}]}],"identifier":[{"type":{"coding":[{"system":"http://terminology.hl7.org/CodeSystem/v2-0203","code":"MR"}]},"system":"https://bonnie-fhir.healthit.gov/","value":"60f82c2e98086b570510e286"}],"active":true,"name":[{"use":"usual","family":"DENEXFail","given":["CMP>1day_duringIP"]}],"gender":"female","birthDate":"1975-09-26"},"request":{"method":"PUT","url":"Patient/763c581d-7398-47e7-ba78-eaa5853df551"}},{"fullUrl":"https://madie.cms.gov/Encounter/5c954893b848462de0ae6255","resource":{"resourceType":"Encounter","id":"0224189b-ed25-45cf-8a46-df79601f2c7c","meta":{"profile":["http://hl7.org/fhir/us/qicore/StructureDefinition/qicore-encounter"]},"status":"finished","class":{"system":"http://terminology.hl7.org/CodeSystem/v3-ActCode","code":"EMER","display":"emergency","userSelected":true},"type":[{"coding":[{"system":"http://snomed.info/sct","code":"4525004"}]}],"subject":{"reference":"Patient/763c581d-7398-47e7-ba78-eaa5853df551"},"period":{"start":"2025-10-10T23:00:00+00:00","end":"2025-10-11T01:00:00+00:00"},"length":{"value":1,"unit":"days"}},"request":{"method":"PUT","url":"Encounter/0224189b-ed25-45cf-8a46-df79601f2c7c"}},{"fullUrl":"https://madie.cms.gov/Encounter/5c954893b848462de0ae6256","resource":{"resourceType":"Encounter","id":"4abf5483-24d1-4619-b3cd-169c2ff4c67c","meta":{"profile":["http://hl7.org/fhir/us/qicore/StructureDefinition/qicore-encounter"]},"status":"finished","class":{"system":"http://terminology.hl7.org/CodeSystem/v3-ActCode","code":"IMP","display":"inpatient encounter","userSelected":true},"type":[{"coding":[{"system":"http://snomed.info/sct","code":"32485007"}]}],"subject":{"reference":"Patient/763c581d-7398-47e7-ba78-eaa5853df551"},"period":{"start":"2025-10-11T01:30:00+00:00","end":"2025-10-14T11:00:00+00:00"},"length":{"value":3,"unit":"days"},"diagnosis":[{"condition":{"reference":"Condition/ischemic-stroke-b87a"},"use":{"coding":[{"system":"http://terminology.hl7.org/CodeSystem/diagnosis-role","code":"billing","display":"Billing"}]},"rank":1}]},"request":{"method":"PUT","url":"Encounter/4abf5483-24d1-4619-b3cd-169c2ff4c67c"}},{"fullUrl":"https://madie.cms.gov/Procedure/5c954893b848462de0ae6258","resource":{"resourceType":"Procedure","id":"73d7c528-e3b1-403d-834b-95cc00e894c4","meta":{"profile":["http://hl7.org/fhir/us/qicore/StructureDefinition/qicore-procedure"]},"extension":[{"url":"http://hl7.org/fhir/us/qicore/StructureDefinition/qicore-recorded","valueDateTime":"2013-04-05T09:35:00-04:00"}],"status":"completed","code":{"coding":[{"system":"http://snomed.info/sct","code":"133918004"}]},"subject":{"reference":"Patient/763c581d-7398-47e7-ba78-eaa5853df551"},"performedPeriod":{"start":"2025-10-12T07:00:00+00:00"}},"request":{"method":"PUT","url":"Procedure/73d7c528-e3b1-403d-834b-95cc00e894c4"}},{"fullUrl":"https://madie.cms.gov/Coverage/5e20a36c1c76ba6c5896ebe9","resource":{"resourceType":"Coverage","id":"b69c3145-3ba3-44c4-bcd6-deefc01bd231","status":"active","beneficiary":{"reference":"Patient/763c581d-7398-47e7-ba78-eaa5853df551"},"period":{"start":"1975-09-26T08:00:00+00:00"},"payor":[{"reference":"Organization/33ead57e-5e04-40e4-95ea-bc3cdbd58917"}]},"request":{"method":"PUT","url":"Coverage/b69c3145-3ba3-44c4-bcd6-deefc01bd231"}},{"fullUrl":"https://madie.cms.gov/Condition/ischemic-stroke-b87a","resource":{"resourceType":"Condition","id":"71e9050f-5126-4fe6-8af8-dbeb02cb0a01","meta":{"profile":["http://hl7.org/fhir/us/qicore/StructureDefinition/qicore-condition"]},"clinicalStatus":{"coding":[{"system":"http://terminology.hl7.org/CodeSystem/condition-clinical","code":"active"}]},"verificationStatus":{"coding":[{"system":"http://terminology.hl7.org/CodeSystem/condition-ver-status","code":"confirmed"}]},"category":[{"coding":[{"system":"http://terminology.hl7.org/CodeSystem/condition-category","code":"encounter-diagnosis","display":"Encounter Diagnosis"}]}],"code":{"coding":[{"system":"http://snomed.info/sct","version":"2020-09","code":"111297002","display":"Nonparalytic stroke (disorder)","userSelected":true}]},"subject":{"reference":"Patient/763c581d-7398-47e7-ba78-eaa5853df551"},"recordedDate":"2025-08-11T08:00:00.000+00:00"},"request":{"method":"PUT","url":"Condition/71e9050f-5126-4fe6-8af8-dbeb02cb0a01"}},{"fullUrl":"https://madie.cms.gov/Organization/123456","resource":{"resourceType":"Organization","id":"33ead57e-5e04-40e4-95ea-bc3cdbd58917","meta":{"profile":["http://hl7.org/fhir/us/qicore/StructureDefinition/qicore-organization"]},"identifier":[{"use":"temp","system":"urn:oid:2.16.840.1.113883.4.4","value":"21-3259825"}],"active":true,"type":[{"coding":[{"system":"http://terminology.hl7.org/CodeSystem/organization-type","code":"pay","display":"Payer"}]}],"name":"Blue Cross Blue Shield of Texas","telecom":[{"system":"phone","value":"(+1) 972-766-6900"}],"address":[{"use":"billing","type":"postal","line":["P.O. Box 660044"],"city":"Dallas","state":"TX","postalCode":"75266-0044","country":"USA"}]},"request":{"method":"PUT","url":"Organization/33ead57e-5e04-40e4-95ea-bc3cdbd58917"}},{"fullUrl":"https://madie.cms.gov/MeasureReport/555cc837-735b-4607-b7a0-2f20630825b0","resource":{"resourceType":"MeasureReport","id":"555cc837-735b-4607-b7a0-2f20630825b0","meta":{"profile":["http://hl7.org/fhir/us/cqfmeasures/StructureDefinition/test-case-cqfm"]},"contained":[{"resourceType":"Parameters","id":"125c1a30-0fef-4d89-b972-b3f68db555d4-parameters","parameter":[{"name":"subject","valueString":"763c581d-7398-47e7-ba78-eaa5853df551"}]}],"extension":[{"url":"http://hl7.org/fhir/us/cqfmeasures/StructureDefinition/cqfm-inputParameters","valueReference":{"reference":"#125c1a30-0fef-4d89-b972-b3f68db555d4-parameters"}},{"url":"http://hl7.org/fhir/us/cqfmeasures/StructureDefinition/cqfm-testCaseDescription","valueMarkdown":"Patient receives comfort measures performed >1 day during EncIP, global.\"Hospitalization\" =(Ed+IP)\n"}],"modifierExtension":[{"url":"http://hl7.org/fhir/us/cqfmeasures/StructureDefinition/cqfm-isTestCase","valueBoolean":true}],"status":"complete","type":"individual","measure":"https://madie.cms.gov/Measure/AntithromboticTherapyByEndofHospitalDay2FHIR","period":{"start":"2025-01-01","end":"2025-12-31"},"group":[{"population":[{"code":{"coding":[{"system":"http://terminology.hl7.org/CodeSystem/measure-population","code":"initial-population","display":"Initial Population"}]},"count":1},{"code":{"coding":[{"system":"http://terminology.hl7.org/CodeSystem/measure-population","code":"denominator","display":"Denominator"}]},"count":1},{"code":{"coding":[{"system":"http://terminology.hl7.org/CodeSystem/measure-population","code":"denominator-exclusion","display":"Denominator Exclusion"}]},"count":0},{"code":{"coding":[{"system":"http://terminology.hl7.org/CodeSystem/measure-population","code":"numerator","display":"Numerator"}]},"count":0},{"code":{"coding":[{"system":"http://terminology.hl7.org/CodeSystem/measure-population","code":"denominator-exception","display":"Denominator Exception"}]},"count":0}]}]},"request":{"method":"PUT","url":"MeasureReport/555cc837-735b-4607-b7a0-2f20630825b0"}}]}