{"resourceType":"Bundle","id":"tests-c014ff5d-792f-45c9-9659-4999537005b0-bundle","type":"transaction","entry":[{"fullUrl":"https://madie.cms.gov/Patient/c014ff5d-792f-45c9-9659-4999537005b0","resource":{"resourceType":"Patient","id":"c014ff5d-792f-45c9-9659-4999537005b0","meta":{"profile":["http://hl7.org/fhir/us/qicore/StructureDefinition/qicore-patient"]},"text":{"status":"generated","div":"<div xmlns=\"http://www.w3.org/1999/xhtml\"><div class=\"hapiHeaderText\">INRDayOfObs_ED&lt;1hrObs&lt;1hrBFEncDayAft <b>DENEXCEPASS </b></div><table class=\"hapiPropertyTable\"><tbody><tr><td>Identifier</td><td>4544f9c471c2652e8cf28f7d498adb0102cf9aa43a574101f4daf3f05c2d1fab</td></tr><tr><td>Date of birth</td><td><span>26 September 1975</span></td></tr></tbody></table></div>"},"extension":[{"url":"http://hl7.org/fhir/us/core/StructureDefinition/us-core-race","extension":[{"url":"ombCategory","valueCoding":{"system":"urn:oid:2.16.840.1.113883.6.238","code":"2054-5","display":"Black or African American","userSelected":true}},{"url":"text","valueString":"Black or African American"}]},{"url":"http://hl7.org/fhir/us/core/StructureDefinition/us-core-ethnicity","extension":[{"url":"ombCategory","valueCoding":{"system":"urn:oid:2.16.840.1.113883.6.238","code":"2186-5","display":"Not Hispanic or Latino","userSelected":true}},{"url":"text","valueString":"Not Hispanic or Latino"}]}],"identifier":[{"type":{"coding":[{"system":"http://terminology.hl7.org/CodeSystem/v2-0203","code":"MR"}]},"system":"https://bonnie-fhir.healthit.gov/","value":"60f82c2f98086b570510e2ac"}],"active":true,"name":[{"use":"usual","family":"DENEXCEPass","given":["INRDayOfObs_ED<1hrObs<1hrBFEncDayAft"]}],"gender":"female","birthDate":"1975-09-26"},"request":{"method":"PUT","url":"Patient/c014ff5d-792f-45c9-9659-4999537005b0"}},{"fullUrl":"https://madie.cms.gov/Encounter/5c954894b848462de0ae62e4","resource":{"resourceType":"Encounter","id":"46db2f6c-7e4d-4603-92f0-5c106ab7c74f","meta":{"profile":["http://hl7.org/fhir/us/qicore/StructureDefinition/qicore-encounter"]},"status":"finished","class":{"system":"http://terminology.hl7.org/CodeSystem/v3-ActCode","code":"EMER","display":"emergency","userSelected":true},"type":[{"coding":[{"system":"http://snomed.info/sct","code":"4525004"}]}],"subject":{"reference":"Patient/c014ff5d-792f-45c9-9659-4999537005b0"},"period":{"start":"2025-10-11T06:15:00+00:00","end":"2025-10-11T06:30:00+00:00"},"length":{"value":0,"unit":"days"}},"request":{"method":"PUT","url":"Encounter/46db2f6c-7e4d-4603-92f0-5c106ab7c74f"}},{"fullUrl":"https://madie.cms.gov/Encounter/5c954894b848462de0ae62e5","resource":{"resourceType":"Encounter","id":"a1c4c413-4696-4e09-85ee-7a6b9aded36f","meta":{"profile":["http://hl7.org/fhir/us/qicore/StructureDefinition/qicore-encounter"]},"status":"finished","class":{"system":"http://terminology.hl7.org/CodeSystem/v3-ActCode","code":"OBSENC","display":"observation encounter","userSelected":true},"type":[{"coding":[{"system":"http://snomed.info/sct","code":"448951000124107"}]}],"subject":{"reference":"Patient/c014ff5d-792f-45c9-9659-4999537005b0"},"period":{"start":"2025-10-11T06:31:00+00:00","end":"2025-10-11T23:59:00+00:00"},"length":{"value":0,"unit":"days"}},"request":{"method":"PUT","url":"Encounter/a1c4c413-4696-4e09-85ee-7a6b9aded36f"}},{"fullUrl":"https://madie.cms.gov/Encounter/5c954894b848462de0ae62e6","resource":{"resourceType":"Encounter","id":"30adaf45-7112-4136-9179-72aa6850a56b","meta":{"profile":["http://hl7.org/fhir/us/qicore/StructureDefinition/qicore-encounter"]},"status":"finished","class":{"system":"http://terminology.hl7.org/CodeSystem/v3-ActCode","code":"IMP","display":"inpatient encounter","userSelected":true},"type":[{"coding":[{"system":"http://snomed.info/sct","code":"32485007"}]}],"subject":{"reference":"Patient/c014ff5d-792f-45c9-9659-4999537005b0"},"period":{"start":"2025-10-12T00:00:00+00:00","end":"2025-10-15T11:30:00+00:00"},"length":{"value":3,"unit":"days"},"diagnosis":[{"condition":{"reference":"Condition/ischemic-stroke-9f16"},"use":{"coding":[{"system":"http://terminology.hl7.org/CodeSystem/diagnosis-role","code":"billing","display":"Billing"}]},"rank":1}]},"request":{"method":"PUT","url":"Encounter/30adaf45-7112-4136-9179-72aa6850a56b"}},{"fullUrl":"https://madie.cms.gov/Observation/5c954894b848462de0ae62e8","resource":{"resourceType":"Observation","id":"d2bb08d2-13d9-4d3d-9b63-c9cf5cebc0c5","meta":{"profile":["http://hl7.org/fhir/us/qicore/StructureDefinition/qicore-observation"]},"status":"final","category":[{"coding":[{"system":"http://terminology.hl7.org/CodeSystem/observation-category","code":"laboratory","display":"Laboratory"}]}],"code":{"coding":[{"system":"http://loinc.org","code":"34714-6"}]},"subject":{"reference":"Patient/c014ff5d-792f-45c9-9659-4999537005b0"},"effectivePeriod":{"start":"2025-10-11T08:00:00+00:00"},"issued":"2025-10-11T23:59:00.000+00:00","valueQuantity":{"value":3.6}},"request":{"method":"PUT","url":"Observation/d2bb08d2-13d9-4d3d-9b63-c9cf5cebc0c5"}},{"fullUrl":"https://madie.cms.gov/Coverage/5e20a3701c76ba6c5896ec0f","resource":{"resourceType":"Coverage","id":"29865694-22be-43f8-a297-e512a32692f6","status":"active","beneficiary":{"reference":"Patient/c014ff5d-792f-45c9-9659-4999537005b0"},"period":{"start":"1975-09-26T08:00:00+00:00"},"payor":[{"reference":"Organization/f6075515-d38f-4624-bde8-a1ce20473a69"}]},"request":{"method":"PUT","url":"Coverage/29865694-22be-43f8-a297-e512a32692f6"}},{"fullUrl":"https://madie.cms.gov/Condition/ischemic-stroke-9f16","resource":{"resourceType":"Condition","id":"81fd9138-bc29-4d0d-9d01-0463d2f525d5","meta":{"profile":["http://hl7.org/fhir/us/qicore/StructureDefinition/qicore-condition"]},"clinicalStatus":{"coding":[{"system":"http://terminology.hl7.org/CodeSystem/condition-clinical","code":"active"}]},"verificationStatus":{"coding":[{"system":"http://terminology.hl7.org/CodeSystem/condition-ver-status","code":"confirmed"}]},"category":[{"coding":[{"system":"http://terminology.hl7.org/CodeSystem/condition-category","code":"encounter-diagnosis","display":"Encounter Diagnosis"}]}],"code":{"coding":[{"system":"http://snomed.info/sct","version":"2020-09","code":"111297002","display":"Nonparalytic stroke (disorder)","userSelected":true}]},"subject":{"reference":"Patient/c014ff5d-792f-45c9-9659-4999537005b0"},"recordedDate":"2025-08-06T08:00:00.000+00:00"},"request":{"method":"PUT","url":"Condition/81fd9138-bc29-4d0d-9d01-0463d2f525d5"}},{"fullUrl":"https://madie.cms.gov/Organization/123456","resource":{"resourceType":"Organization","id":"f6075515-d38f-4624-bde8-a1ce20473a69","meta":{"profile":["http://hl7.org/fhir/us/qicore/StructureDefinition/qicore-organization"]},"identifier":[{"use":"temp","system":"urn:oid:2.16.840.1.113883.4.4","value":"21-3259825"}],"active":true,"type":[{"coding":[{"system":"http://terminology.hl7.org/CodeSystem/organization-type","code":"pay","display":"Payer"}]}],"name":"Blue Cross Blue Shield of Texas","telecom":[{"system":"phone","value":"(+1) 972-766-6900"}],"address":[{"use":"billing","type":"postal","line":["P.O. Box 660044"],"city":"Dallas","state":"TX","postalCode":"75266-0044","country":"USA"}]},"request":{"method":"PUT","url":"Organization/f6075515-d38f-4624-bde8-a1ce20473a69"}},{"fullUrl":"https://madie.cms.gov/MeasureReport/7ee47347-3e3e-4cb2-a625-6f9b25191979","resource":{"resourceType":"MeasureReport","id":"7ee47347-3e3e-4cb2-a625-6f9b25191979","meta":{"profile":["http://hl7.org/fhir/us/cqfmeasures/StructureDefinition/test-case-cqfm"]},"contained":[{"resourceType":"Parameters","id":"7138b995-ba65-45ae-90fc-3f6e87ee8878-parameters","parameter":[{"name":"subject","valueString":"c014ff5d-792f-45c9-9659-4999537005b0"}]}],"extension":[{"url":"http://hl7.org/fhir/us/cqfmeasures/StructureDefinition/cqfm-inputParameters","valueReference":{"reference":"#7138b995-ba65-45ae-90fc-3f6e87ee8878-parameters"}},{"url":"http://hl7.org/fhir/us/cqfmeasures/StructureDefinition/cqfm-testCaseDescription","valueMarkdown":"Patient receives INR day of Obs, ED ends 1 min before Obs start,  ED ends 1 min before observation, Obs ends 1 min before IP start at midnight. Testing Day of operator with HospitalizationWithObservation function.\n"}],"modifierExtension":[{"url":"http://hl7.org/fhir/us/cqfmeasures/StructureDefinition/cqfm-isTestCase","valueBoolean":true}],"status":"complete","type":"individual","measure":"https://madie.cms.gov/Measure/AntithromboticTherapyByEndofHospitalDay2FHIR","period":{"start":"2025-01-01","end":"2025-12-31"},"group":[{"population":[{"code":{"coding":[{"system":"http://terminology.hl7.org/CodeSystem/measure-population","code":"initial-population","display":"Initial Population"}]},"count":1},{"code":{"coding":[{"system":"http://terminology.hl7.org/CodeSystem/measure-population","code":"denominator","display":"Denominator"}]},"count":1},{"code":{"coding":[{"system":"http://terminology.hl7.org/CodeSystem/measure-population","code":"denominator-exclusion","display":"Denominator Exclusion"}]},"count":0},{"code":{"coding":[{"system":"http://terminology.hl7.org/CodeSystem/measure-population","code":"numerator","display":"Numerator"}]},"count":0},{"code":{"coding":[{"system":"http://terminology.hl7.org/CodeSystem/measure-population","code":"denominator-exception","display":"Denominator Exception"}]},"count":1}]}]},"request":{"method":"PUT","url":"MeasureReport/7ee47347-3e3e-4cb2-a625-6f9b25191979"}}]}