{"resourceType":"Bundle","id":"tests-c1ee2b07-f5a7-451c-8bc5-cb97b1cbcca2-bundle","type":"transaction","entry":[{"fullUrl":"https://madie.cms.gov/Patient/c1ee2b07-f5a7-451c-8bc5-cb97b1cbcca2","resource":{"resourceType":"Patient","id":"c1ee2b07-f5a7-451c-8bc5-cb97b1cbcca2","meta":{"profile":["http://hl7.org/fhir/us/qicore/StructureDefinition/qicore-patient"]},"text":{"status":"generated","div":"<div xmlns=\"http://www.w3.org/1999/xhtml\"><div class=\"hapiHeaderText\">MedOrdMedReason_gt1dayduringEncIPwEd <b>DENEXCEPFAIL </b></div><table class=\"hapiPropertyTable\"><tbody><tr><td>Identifier</td><td>d63fda8a0fb72cd195317700f701d509</td></tr><tr><td>Date of birth</td><td><span>26 September 1975</span></td></tr></tbody></table></div>"},"extension":[{"url":"http://hl7.org/fhir/us/core/StructureDefinition/us-core-race","extension":[{"url":"ombCategory","valueCoding":{"system":"urn:oid:2.16.840.1.113883.6.238","code":"2054-5","display":"Black or African American","userSelected":true}},{"url":"text","valueString":"Black or African American"}]},{"url":"http://hl7.org/fhir/us/core/StructureDefinition/us-core-ethnicity","extension":[{"url":"ombCategory","valueCoding":{"system":"urn:oid:2.16.840.1.113883.6.238","code":"2186-5","display":"Not Hispanic or Latino","userSelected":true}},{"url":"text","valueString":"Not Hispanic or Latino"}]}],"identifier":[{"type":{"coding":[{"system":"http://terminology.hl7.org/CodeSystem/v2-0203","code":"MR"}]},"system":"https://bonnie-fhir.healthit.gov/","value":"60f82c2e98086b570510e272"}],"name":[{"use":"usual","family":"DENEXCEPFail","given":["MedOrdMedReason_gt1dayduringEncIPwEd"]}],"gender":"female","birthDate":"1975-09-26"},"request":{"method":"PUT","url":"Patient/c1ee2b07-f5a7-451c-8bc5-cb97b1cbcca2"}},{"fullUrl":"https://madie.cms.gov/Encounter/5c954892b848462de0ae620c","resource":{"resourceType":"Encounter","id":"3a7a4fbc-88f8-4934-b99b-ae7fb0661494","meta":{"profile":["http://hl7.org/fhir/us/qicore/StructureDefinition/qicore-encounter"]},"status":"finished","class":{"system":"http://terminology.hl7.org/CodeSystem/v3-ActCode","code":"EMER","display":"emergency","userSelected":true},"type":[{"coding":[{"system":"http://snomed.info/sct","code":"4525004"}]}],"subject":{"reference":"Patient/c1ee2b07-f5a7-451c-8bc5-cb97b1cbcca2"},"period":{"start":"2025-10-10T08:00:00.000+00:00","end":"2025-10-10T08:15:00.000+00:00"},"length":{"value":0,"unit":"days"}},"request":{"method":"PUT","url":"Encounter/3a7a4fbc-88f8-4934-b99b-ae7fb0661494"}},{"fullUrl":"https://madie.cms.gov/Encounter/5c954892b848462de0ae620d","resource":{"resourceType":"Encounter","id":"e25e4d4a-cddb-450a-8b3b-d4db53bdf276","meta":{"profile":["http://hl7.org/fhir/us/qicore/StructureDefinition/qicore-encounter"]},"status":"finished","class":{"system":"http://terminology.hl7.org/CodeSystem/v3-ActCode","code":"IMP","display":"inpatient encounter","userSelected":true},"type":[{"coding":[{"system":"http://snomed.info/sct","code":"32485007"}]}],"subject":{"reference":"Patient/c1ee2b07-f5a7-451c-8bc5-cb97b1cbcca2"},"period":{"start":"2025-10-10T09:00:00.000+00:00","end":"2025-10-12T11:15:00.000+00:00"},"length":{"value":2,"unit":"days"},"diagnosis":[{"condition":{"reference":"Condition/ischemic-stroke-8b65"},"use":{"coding":[{"system":"http://terminology.hl7.org/CodeSystem/diagnosis-role","code":"billing","display":"Billing"}]},"rank":1}]},"request":{"method":"PUT","url":"Encounter/e25e4d4a-cddb-450a-8b3b-d4db53bdf276"}},{"fullUrl":"https://madie.cms.gov/MedicationRequest/5c954892b848462de0ae620f","resource":{"resourceType":"MedicationRequest","id":"cb45806a-bd1f-4f23-afef-cfc6bfdbf136","meta":{"profile":["http://hl7.org/fhir/us/qicore/StructureDefinition/qicore-mednotrequested"]},"status":"completed","intent":"order","category":[{"coding":[{"system":"http://terminology.hl7.org/CodeSystem/medicationrequest-category","code":"community"}]}],"doNotPerform":true,"medicationCodeableConcept":{"coding":[{"system":"http://www.nlm.nih.gov/research/umls/rxnorm","code":"1037045"}]},"subject":{"reference":"Patient/c1ee2b07-f5a7-451c-8bc5-cb97b1cbcca2"},"authoredOn":"2025-10-12T11:00:00.000+00:00","requester":{"reference":"Practitioner/example"},"reasonCode":[{"coding":[{"system":"http://snomed.info/sct","code":"183932001","display":"Procedure contraindicated (situation)","userSelected":true}]}],"dosageInstruction":[{"timing":{"repeat":{"boundsPeriod":{"start":"2025-10-12T11:00:00.000+00:00"}}}}]},"request":{"method":"PUT","url":"MedicationRequest/cb45806a-bd1f-4f23-afef-cfc6bfdbf136"}},{"fullUrl":"https://madie.cms.gov/Coverage/5e20a36a1c76ba6c5896ebd5","resource":{"resourceType":"Coverage","id":"2941760a-e973-4e12-ae66-ee5560687800","status":"active","beneficiary":{"reference":"Patient/c1ee2b07-f5a7-451c-8bc5-cb97b1cbcca2"},"period":{"start":"1975-09-26T08:00:00+00:00"},"payor":[{"reference":"Organization/024e2731-b045-43bf-80d2-684774c5b51c"}]},"request":{"method":"PUT","url":"Coverage/2941760a-e973-4e12-ae66-ee5560687800"}},{"fullUrl":"https://madie.cms.gov/Condition/ischemic-stroke-8b65","resource":{"resourceType":"Condition","id":"a8f8d767-7a91-49ac-918c-466db489b0a1","meta":{"profile":["http://hl7.org/fhir/us/qicore/StructureDefinition/qicore-condition"]},"clinicalStatus":{"coding":[{"system":"http://terminology.hl7.org/CodeSystem/condition-clinical","code":"active"}]},"verificationStatus":{"coding":[{"system":"http://terminology.hl7.org/CodeSystem/condition-ver-status","code":"confirmed"}]},"category":[{"coding":[{"system":"http://terminology.hl7.org/CodeSystem/condition-category","code":"encounter-diagnosis","display":"Encounter Diagnosis"}]}],"code":{"coding":[{"system":"http://snomed.info/sct","version":"2020-09","code":"111297002","display":"Nonparalytic stroke (disorder)","userSelected":true}]},"subject":{"reference":"Patient/c1ee2b07-f5a7-451c-8bc5-cb97b1cbcca2"},"recordedDate":"2025-07-28T08:00:00.000+00:00"},"request":{"method":"PUT","url":"Condition/a8f8d767-7a91-49ac-918c-466db489b0a1"}},{"fullUrl":"https://madie.cms.gov/Organization/123456","resource":{"resourceType":"Organization","id":"024e2731-b045-43bf-80d2-684774c5b51c","meta":{"profile":["http://hl7.org/fhir/us/qicore/StructureDefinition/qicore-organization"]},"identifier":[{"use":"temp","system":"urn:oid:2.16.840.1.113883.4.4","value":"21-3259825"}],"active":true,"type":[{"coding":[{"system":"http://terminology.hl7.org/CodeSystem/organization-type","code":"pay","display":"Payer"}]}],"name":"Blue Cross Blue Shield of Texas","telecom":[{"system":"phone","value":"(+1) 972-766-6900"}],"address":[{"use":"billing","type":"postal","line":["P.O. Box 660044"],"city":"Dallas","state":"TX","postalCode":"75266-0044","country":"USA"}]},"request":{"method":"PUT","url":"Organization/024e2731-b045-43bf-80d2-684774c5b51c"}},{"fullUrl":"https://madie.cms.gov/MeasureReport/ee34a11c-b3d7-4bf7-8e98-c44667789942","resource":{"resourceType":"MeasureReport","id":"ee34a11c-b3d7-4bf7-8e98-c44667789942","meta":{"profile":["http://hl7.org/fhir/us/cqfmeasures/StructureDefinition/test-case-cqfm"]},"contained":[{"resourceType":"Parameters","id":"108e3731-aa0b-4899-8051-db7afd458c63-parameters","parameter":[{"name":"subject","valueString":"c1ee2b07-f5a7-451c-8bc5-cb97b1cbcca2"}]}],"extension":[{"url":"http://hl7.org/fhir/us/cqfmeasures/StructureDefinition/cqfm-inputParameters","valueReference":{"reference":"#108e3731-aa0b-4899-8051-db7afd458c63-parameters"}},{"url":"http://hl7.org/fhir/us/cqfmeasures/StructureDefinition/cqfm-testCaseDescription","valueMarkdown":"ED visit AND antithrombotic is not ordered due to medical reason but > 1 day after start of ED visit,  global.\"Hospitalization\" =(Ed+IP)\n"}],"modifierExtension":[{"url":"http://hl7.org/fhir/us/cqfmeasures/StructureDefinition/cqfm-isTestCase","valueBoolean":true}],"status":"complete","type":"individual","measure":"https://madie.cms.gov/Measure/AntithromboticTherapyByEndofHospitalDay2FHIR","period":{"start":"2025-01-01","end":"2025-12-31"},"group":[{"population":[{"code":{"coding":[{"system":"http://terminology.hl7.org/CodeSystem/measure-population","code":"initial-population","display":"Initial Population"}]},"count":1},{"code":{"coding":[{"system":"http://terminology.hl7.org/CodeSystem/measure-population","code":"denominator","display":"Denominator"}]},"count":1},{"code":{"coding":[{"system":"http://terminology.hl7.org/CodeSystem/measure-population","code":"denominator-exclusion","display":"Denominator Exclusion"}]},"count":0},{"code":{"coding":[{"system":"http://terminology.hl7.org/CodeSystem/measure-population","code":"numerator","display":"Numerator"}]},"count":0},{"code":{"coding":[{"system":"http://terminology.hl7.org/CodeSystem/measure-population","code":"denominator-exception","display":"Denominator Exception"}]},"count":0}]}]},"request":{"method":"PUT","url":"MeasureReport/ee34a11c-b3d7-4bf7-8e98-c44667789942"}}]}