{
  "resourceType": "Bundle",
  "id": "k1f044ef3e654daa2251",
  "type": "transaction",
  "entry": [ {
    "fullUrl": "https://madie.cms.gov/Patient/1e4bf1ad-f3bf-42ef-a6c5-e31f53f3b1ac",
    "resource": {
      "resourceType": "Patient",
      "id": "1e4bf1ad-f3bf-42ef-a6c5-e31f53f3b1ac",
      "meta": {
        "profile": [ "http://hl7.org/fhir/us/qicore/StructureDefinition/qicore-patient" ]
      },
      "extension": [ {
        "url": "http://hl7.org/fhir/us/core/StructureDefinition/us-core-race",
        "extension": [ {
          "url": "ombCategory",
          "valueCoding": {
            "system": "urn:oid:2.16.840.1.113883.6.238",
            "code": "1002-5",
            "display": "American Indian or Alaska Native",
            "userSelected": true
          }
        }, {
          "url": "text",
          "valueString": "American Indian or Alaska Native"
        } ]
      }, {
        "url": "http://hl7.org/fhir/us/core/StructureDefinition/us-core-ethnicity",
        "extension": [ {
          "url": "ombCategory",
          "valueCoding": {
            "system": "urn:oid:2.16.840.1.113883.6.238",
            "code": "2135-2",
            "display": "Hispanic or Latino",
            "userSelected": true
          }
        }, {
          "url": "text",
          "valueString": "Hispanic or Latino"
        } ]
      } ],
      "identifier": [ {
        "type": {
          "coding": [ {
            "system": "http://terminology.hl7.org/CodeSystem/v2-0203",
            "code": "MR"
          } ]
        },
        "system": "https://bonnie-fhir.healthit.gov/",
        "value": "59fb518f-98e4-4bd4-ba95-517d0ebf86e7"
      } ],
      "name": [ {
        "family": "DENEXCL11PASS",
        "given": [ "HospiceEncounterPeformedBeforeED" ]
      } ],
      "gender": "male",
      "birthDate": "1979-05-05"
    },
    "request": {
      "method": "PUT",
      "url": "Patient/1e4bf1ad-f3bf-42ef-a6c5-e31f53f3b1ac"
    }
  }, {
    "fullUrl": "https://madie.cms.gov/Encounter/b635357e-4434-4aab-b62a-26fbdc9b6cbb",
    "resource": {
      "resourceType": "Encounter",
      "id": "b635357e-4434-4aab-b62a-26fbdc9b6cbb",
      "meta": {
        "profile": [ "http://hl7.org/fhir/us/qicore/StructureDefinition/qicore-encounter" ]
      },
      "status": "finished",
      "class": {
        "system": "http://terminology.hl7.org/CodeSystem/v3-ActCode",
        "code": "EMER",
        "display": "emergency",
        "userSelected": true
      },
      "type": [ {
        "coding": [ {
          "system": "http://snomed.info/sct",
          "version": "2020-09",
          "code": "4525004",
          "display": "Emergency department patient visit",
          "userSelected": true
        } ]
      } ],
      "subject": {
        "reference": "Patient/1e4bf1ad-f3bf-42ef-a6c5-e31f53f3b1ac"
      },
      "period": {
        "start": "2026-10-09T05:00:00.000+00:00",
        "end": "2026-10-13T17:00:00.000+00:00"
      },
      "reasonCode": [ {
        "coding": [ {
          "system": "http://hl7.org/fhir/sid/icd-10-cm",
          "code": "I21.21",
          "display": "ST elevation (STEMI) myocardial infarction involving left circumflex coronary artery",
          "userSelected": true
        } ]
      } ]
    },
    "request": {
      "method": "PUT",
      "url": "Encounter/b635357e-4434-4aab-b62a-26fbdc9b6cbb"
    }
  }, {
    "fullUrl": "https://madie.cms.gov/Encounter/07c4a869-9b36-42b0-89b0-8ff549a6e6c3",
    "resource": {
      "resourceType": "Encounter",
      "id": "07c4a869-9b36-42b0-89b0-8ff549a6e6c3",
      "meta": {
        "profile": [ "http://hl7.org/fhir/us/qicore/StructureDefinition/qicore-encounter" ]
      },
      "status": "finished",
      "class": {
        "system": "http://terminology.hl7.org/CodeSystem/v3-ActCode",
        "code": "EMER",
        "display": "emergency",
        "userSelected": true
      },
      "type": [ {
        "coding": [ {
          "system": "http://snomed.info/sct",
          "code": "183921001",
          "display": "Admission to hospice for respite (procedure)",
          "userSelected": true
        } ]
      } ],
      "subject": {
        "reference": "Patient/1e4bf1ad-f3bf-42ef-a6c5-e31f53f3b1ac"
      },
      "period": {
        "start": "2026-09-16T02:00:00.000+00:00",
        "end": "2026-09-16T06:00:00.000+00:00"
      }
    },
    "request": {
      "method": "PUT",
      "url": "Encounter/07c4a869-9b36-42b0-89b0-8ff549a6e6c3"
    }
  }, {
    "fullUrl": "https://madie.cms.gov/MeasureReport/3d163a48-f7ad-41aa-ad08-304483818bb4",
    "resource": {
      "resourceType": "MeasureReport",
      "id": "3d163a48-f7ad-41aa-ad08-304483818bb4",
      "meta": {
        "profile": [ "http://hl7.org/fhir/us/cqfmeasures/StructureDefinition/test-case-cqfm" ]
      },
      "contained": [ {
        "resourceType": "Parameters",
        "id": "e10986bc-9ee0-4481-9dbe-6fed2cf91143-parameters",
        "parameter": [ {
          "name": "subject",
          "valueString": "1e4bf1ad-f3bf-42ef-a6c5-e31f53f3b1ac"
        } ]
      } ],
      "extension": [ {
        "url": "http://hl7.org/fhir/us/cqfmeasures/StructureDefinition/cqfm-inputParameters",
        "valueReference": {
          "reference": "#e10986bc-9ee0-4481-9dbe-6fed2cf91143-parameters"
        }
      }, {
        "url": "http://hl7.org/fhir/us/cqfmeasures/StructureDefinition/cqfm-testCaseDescription",
        "valueMarkdown": "Patients has hospice encounter performed before ED"
      } ],
      "modifierExtension": [ {
        "url": "http://hl7.org/fhir/us/cqfmeasures/StructureDefinition/cqfm-isTestCase",
        "valueBoolean": true
      } ],
      "status": "complete",
      "type": "individual",
      "measure": "https://madie.cms.gov/Measure/CMS996FHIRAptTxforSTEMI",
      "period": {
        "start": "2026-01-01",
        "end": "2026-12-31"
      },
      "group": [ {
        "population": [ {
          "code": {
            "coding": [ {
              "system": "http://terminology.hl7.org/CodeSystem/measure-population",
              "code": "initial-population",
              "display": "Initial Population"
            } ]
          },
          "count": 1
        }, {
          "code": {
            "coding": [ {
              "system": "http://terminology.hl7.org/CodeSystem/measure-population",
              "code": "denominator",
              "display": "Denominator"
            } ]
          },
          "count": 1
        }, {
          "code": {
            "coding": [ {
              "system": "http://terminology.hl7.org/CodeSystem/measure-population",
              "code": "denominator-exclusion",
              "display": "Denominator Exclusion"
            } ]
          },
          "count": 1
        }, {
          "code": {
            "coding": [ {
              "system": "http://terminology.hl7.org/CodeSystem/measure-population",
              "code": "numerator",
              "display": "Numerator"
            } ]
          },
          "count": 0
        }, {
          "code": {
            "coding": [ {
              "system": "http://terminology.hl7.org/CodeSystem/measure-population",
              "code": "denominator-exception",
              "display": "Denominator Exception"
            } ]
          },
          "count": 0
        } ]
      } ],
      "evaluatedResource": [ {
        "reference": "Patient/1e4bf1ad-f3bf-42ef-a6c5-e31f53f3b1ac"
      }, {
        "reference": "Encounter/b635357e-4434-4aab-b62a-26fbdc9b6cbb"
      }, {
        "reference": "Encounter/07c4a869-9b36-42b0-89b0-8ff549a6e6c3"
      } ]
    },
    "request": {
      "method": "PUT",
      "url": "MeasureReport/3d163a48-f7ad-41aa-ad08-304483818bb4"
    }
  } ]
}