{"resourceType":"Bundle","id":"tests-7e69124d-ff34-4daf-b626-08d1283f71ba-bundle","type":"transaction","entry":[{"fullUrl":"https://madie.cms.gov/Patient/7e69124d-ff34-4daf-b626-08d1283f71ba","resource":{"resourceType":"Patient","id":"7e69124d-ff34-4daf-b626-08d1283f71ba","meta":{"profile":["http://hl7.org/fhir/us/qicore/StructureDefinition/qicore-patient"]},"extension":[{"url":"http://hl7.org/fhir/us/core/StructureDefinition/us-core-race","extension":[{"url":"ombCategory","valueCoding":{"system":"urn:oid:2.16.840.1.113883.6.238","code":"2028-9","display":"Asian"}},{"url":"text","valueString":"Asian"}]},{"url":"http://hl7.org/fhir/us/core/StructureDefinition/us-core-ethnicity","extension":[{"url":"ombCategory","valueCoding":{"system":"urn:oid:2.16.840.1.113883.6.238","code":"2135-2","display":"Hispanic or Latino"}},{"url":"text","valueString":"Hispanic or Latino"}]}],"identifier":[{"system":"http://hospital.smarthealthit.org","value":"999999995"}],"name":[{"family":"Bertha","given":["Betty"]}],"gender":"female","birthDate":"1958-12-31"},"request":{"method":"PUT","url":"Patient/7e69124d-ff34-4daf-b626-08d1283f71ba"}},{"fullUrl":"https://madie.cms.gov/Encounter/Encounter-12","resource":{"resourceType":"Encounter","id":"a1398b0c-17f9-4bad-81e9-34605d35149c","meta":{"profile":["http://hl7.org/fhir/us/qicore/StructureDefinition/qicore-encounter"]},"status":"finished","class":{"system":"http://terminology.hl7.org/CodeSystem/v3-ActCode","code":"AMB","display":"ambulatory"},"type":[{"coding":[{"system":"http://snomed.info/sct","code":"185460008","display":"Home visit request by patient (procedure)"}]}],"subject":{"reference":"Patient/7e69124d-ff34-4daf-b626-08d1283f71ba"},"period":{"start":"2025-01-01T00:00:00.000Z","end":"2025-01-01T00:15:00.000Z"}},"request":{"method":"PUT","url":"Encounter/a1398b0c-17f9-4bad-81e9-34605d35149c"}},{"fullUrl":"https://madie.cms.gov/Condition/Condition-10","resource":{"resourceType":"Condition","id":"b4a23d21-f169-4dc4-b609-4f90aedaf983","meta":{"profile":["http://hl7.org/fhir/us/qicore/StructureDefinition/qicore-condition"]},"clinicalStatus":{"coding":[{"system":"http://terminology.hl7.org/CodeSystem/condition-clinical","code":"active"}]},"category":[{"coding":[{"system":"http://terminology.hl7.org/CodeSystem/condition-category","code":"problem-list-item","display":"Problem List Item"}]}],"code":{"coding":[{"system":"http://snomed.info/sct","code":"102781000119107","display":"Sensory neuropathy due to type 1 diabetes mellitus (disorder)"}]},"subject":{"reference":"Patient/7e69124d-ff34-4daf-b626-08d1283f71ba"},"onsetDateTime":"2025-01-01T23:59:00.000Z"},"request":{"method":"PUT","url":"Condition/b4a23d21-f169-4dc4-b609-4f90aedaf983"}},{"fullUrl":"https://madie.cms.gov/Condition/Condition-11","resource":{"resourceType":"Condition","id":"b73a1ae3-263c-4db0-be3b-878d7fd29109","meta":{"profile":["http://hl7.org/fhir/us/qicore/StructureDefinition/qicore-condition"]},"clinicalStatus":{"coding":[{"system":"http://terminology.hl7.org/CodeSystem/condition-clinical","code":"active"}]},"category":[{"coding":[{"system":"http://terminology.hl7.org/CodeSystem/condition-category","code":"problem-list-item","display":"Problem List Item"}]}],"code":{"coding":[{"system":"http://snomed.info/sct","code":"101421000119107","display":"Dementia due to Parkinson's disease (disorder)"}]},"subject":{"reference":"Patient/7e69124d-ff34-4daf-b626-08d1283f71ba"},"onsetDateTime":"2024-12-31T23:59:00.000Z"},"request":{"method":"PUT","url":"Condition/b73a1ae3-263c-4db0-be3b-878d7fd29109"}},{"fullUrl":"https://madie.cms.gov/Encounter/Encounter-13","resource":{"resourceType":"Encounter","id":"a27de200-db75-4458-927d-9b2142b38120","meta":{"profile":["http://hl7.org/fhir/us/qicore/StructureDefinition/qicore-encounter"]},"status":"finished","class":{"system":"http://terminology.hl7.org/CodeSystem/v3-ActCode","code":"AMB","display":"ambulatory"},"type":[{"coding":[{"system":"http://snomed.info/sct","code":"4525004","display":"Emergency department patient visit (procedure)"}]}],"subject":{"reference":"Patient/7e69124d-ff34-4daf-b626-08d1283f71ba"},"period":{"start":"2024-12-31T00:00:00.000Z","end":"2025-01-01T01:00:00.000Z"},"diagnosis":[{"condition":{"reference":"Condition/Condition-11"}}]},"request":{"method":"PUT","url":"Encounter/a27de200-db75-4458-927d-9b2142b38120"}},{"fullUrl":"https://madie.cms.gov/Encounter/Encounter-14","resource":{"resourceType":"Encounter","id":"d3b31b25-caae-47f8-8d77-03d2a3d0c358","meta":{"profile":["http://hl7.org/fhir/us/qicore/StructureDefinition/qicore-encounter"]},"status":"finished","class":{"system":"http://terminology.hl7.org/CodeSystem/v3-ActCode","code":"AMB","display":"ambulatory"},"type":[{"coding":[{"system":"http://snomed.info/sct","code":"4525004","display":"Emergency department patient visit (procedure)"}]}],"subject":{"reference":"Patient/7e69124d-ff34-4daf-b626-08d1283f71ba"},"period":{"start":"2025-05-01T00:00:00.000Z","end":"2025-05-01T01:00:00.000Z"},"diagnosis":[{"condition":{"reference":"Condition/Condition-11"}}]},"request":{"method":"PUT","url":"Encounter/d3b31b25-caae-47f8-8d77-03d2a3d0c358"}},{"fullUrl":"https://madie.cms.gov/DeviceRequest/DeviceRequest-3","resource":{"resourceType":"DeviceRequest","id":"9a7b4a1e-7e0d-448c-b196-1ca4aee8e096","meta":{"profile":["http://hl7.org/fhir/us/qicore/StructureDefinition/qicore-devicerequest"]},"status":"completed","intent":"order","codeCodeableConcept":{"coding":[{"system":"http://snomed.info/sct","code":"183240000","display":"Self-propelled wheelchair (physical object)"}]},"subject":{"reference":"Patient/7e69124d-ff34-4daf-b626-08d1283f71ba"},"authoredOn":"2025-11-01T23:59:00.000Z"},"request":{"method":"PUT","url":"DeviceRequest/9a7b4a1e-7e0d-448c-b196-1ca4aee8e096"}},{"fullUrl":"https://madie.cms.gov/MeasureReport/10f8dbd3-c6ea-47f5-a9b1-96bdfd094ebd","resource":{"resourceType":"MeasureReport","id":"10f8dbd3-c6ea-47f5-a9b1-96bdfd094ebd","meta":{"profile":["http://hl7.org/fhir/us/cqfmeasures/StructureDefinition/test-case-cqfm"]},"contained":[{"resourceType":"Parameters","id":"a385eb1e-cc38-4582-b8c9-df739f7b9206-parameters","parameter":[{"name":"subject","valueString":"7e69124d-ff34-4daf-b626-08d1283f71ba"}]}],"extension":[{"url":"http://hl7.org/fhir/us/cqfmeasures/StructureDefinition/cqfm-inputParameters","valueReference":{"reference":"#a385eb1e-cc38-4582-b8c9-df739f7b9206-parameters"}},{"url":"http://hl7.org/fhir/us/cqfmeasures/StructureDefinition/cqfm-testCaseDescription","valueMarkdown":"Frailty device request and mod ext not performed"}],"modifierExtension":[{"url":"http://hl7.org/fhir/us/cqfmeasures/StructureDefinition/cqfm-isTestCase","valueBoolean":true}],"status":"complete","type":"individual","measure":"https://madie.cms.gov/Measure/DiabetesGlycemicStatusAssessmentGreaterThan9PercentFHIR","period":{"start":"2025-01-01","end":"2025-12-31"},"group":[{"population":[{"code":{"coding":[{"system":"http://terminology.hl7.org/CodeSystem/measure-population","code":"initial-population","display":"Initial Population"}]},"count":1},{"code":{"coding":[{"system":"http://terminology.hl7.org/CodeSystem/measure-population","code":"denominator","display":"Denominator"}]},"count":1},{"code":{"coding":[{"system":"http://terminology.hl7.org/CodeSystem/measure-population","code":"denominator-exclusion","display":"Denominator Exclusion"}]},"count":1},{"code":{"coding":[{"system":"http://terminology.hl7.org/CodeSystem/measure-population","code":"numerator","display":"Numerator"}]},"count":0}]}]},"request":{"method":"PUT","url":"MeasureReport/10f8dbd3-c6ea-47f5-a9b1-96bdfd094ebd"}}]}