{"resourceType":"Bundle","id":"tests-7e69124d-ff34-4daf-b626-08d1283f71ba-bundle","type":"transaction","entry":[{"fullUrl":"https://madie.cms.gov/Patient/7e69124d-ff34-4daf-b626-08d1283f71ba","resource":{"resourceType":"Patient","id":"7e69124d-ff34-4daf-b626-08d1283f71ba","meta":{"profile":["http://hl7.org/fhir/us/qicore/StructureDefinition/qicore-patient"]},"extension":[{"url":"http://hl7.org/fhir/us/core/StructureDefinition/us-core-race","extension":[{"url":"ombCategory","valueCoding":{"system":"urn:oid:2.16.840.1.113883.6.238","code":"2028-9","display":"Asian"}},{"url":"text","valueString":"Asian"}]},{"url":"http://hl7.org/fhir/us/core/StructureDefinition/us-core-ethnicity","extension":[{"url":"ombCategory","valueCoding":{"system":"urn:oid:2.16.840.1.113883.6.238","code":"2135-2","display":"Hispanic or Latino"}},{"url":"text","valueString":"Hispanic or Latino"}]}],"identifier":[{"system":"http://hospital.smarthealthit.org","value":"999999995"}],"name":[{"family":"Bertha","given":["Betty"]}],"gender":"female","birthDate":"1958-12-31"},"request":{"method":"PUT","url":"Patient/7e69124d-ff34-4daf-b626-08d1283f71ba"}},{"fullUrl":"https://madie.cms.gov/Encounter/Encounter-12","resource":{"resourceType":"Encounter","id":"f222fa6c-1561-44b0-9b8c-c3cc69f4b3e8","meta":{"profile":["http://hl7.org/fhir/us/qicore/StructureDefinition/qicore-encounter"]},"status":"finished","class":{"system":"http://terminology.hl7.org/CodeSystem/v3-ActCode","code":"AMB","display":"ambulatory"},"type":[{"coding":[{"system":"http://snomed.info/sct","code":"185460008","display":"Home visit request by patient (procedure)"}]}],"subject":{"reference":"Patient/7e69124d-ff34-4daf-b626-08d1283f71ba"},"period":{"start":"2025-01-01T00:00:00.000Z","end":"2025-01-01T00:15:00.000Z"}},"request":{"method":"PUT","url":"Encounter/f222fa6c-1561-44b0-9b8c-c3cc69f4b3e8"}},{"fullUrl":"https://madie.cms.gov/Condition/Condition-10","resource":{"resourceType":"Condition","id":"6d0e64b8-bcd6-4e53-98d8-e6317b14136d","meta":{"profile":["http://hl7.org/fhir/us/qicore/StructureDefinition/qicore-condition"]},"clinicalStatus":{"coding":[{"system":"http://terminology.hl7.org/CodeSystem/condition-clinical","code":"active"}]},"category":[{"coding":[{"system":"http://terminology.hl7.org/CodeSystem/condition-category","code":"problem-list-item","display":"Problem List Item"}]}],"code":{"coding":[{"system":"http://snomed.info/sct","code":"102781000119107","display":"Sensory neuropathy due to type 1 diabetes mellitus (disorder)"}]},"subject":{"reference":"Patient/7e69124d-ff34-4daf-b626-08d1283f71ba"},"onsetDateTime":"2025-01-01T23:59:00.000Z"},"request":{"method":"PUT","url":"Condition/6d0e64b8-bcd6-4e53-98d8-e6317b14136d"}},{"fullUrl":"https://madie.cms.gov/Condition/Condition-11","resource":{"resourceType":"Condition","id":"9702c2ef-c9dc-4040-be09-30c1049d22fe","meta":{"profile":["http://hl7.org/fhir/us/qicore/StructureDefinition/qicore-condition"]},"clinicalStatus":{"coding":[{"system":"http://terminology.hl7.org/CodeSystem/condition-clinical","code":"active"}]},"category":[{"coding":[{"system":"http://terminology.hl7.org/CodeSystem/condition-category","code":"problem-list-item","display":"Problem List Item"}]}],"code":{"coding":[{"system":"http://snomed.info/sct","code":"101421000119107","display":"Dementia due to Parkinson's disease (disorder)"}]},"subject":{"reference":"Patient/7e69124d-ff34-4daf-b626-08d1283f71ba"},"onsetDateTime":"2024-12-31T23:59:00.000Z"},"request":{"method":"PUT","url":"Condition/9702c2ef-c9dc-4040-be09-30c1049d22fe"}},{"fullUrl":"https://madie.cms.gov/Encounter/Encounter-13","resource":{"resourceType":"Encounter","id":"3d594124-a6ed-4932-aa38-a3ca0ca9f0ad","meta":{"profile":["http://hl7.org/fhir/us/qicore/StructureDefinition/qicore-encounter"]},"status":"finished","class":{"system":"http://terminology.hl7.org/CodeSystem/v3-ActCode","code":"AMB","display":"ambulatory"},"type":[{"coding":[{"system":"http://snomed.info/sct","code":"4525004","display":"Emergency department patient visit (procedure)"}]}],"subject":{"reference":"Patient/7e69124d-ff34-4daf-b626-08d1283f71ba"},"period":{"start":"2024-12-31T00:00:00.000Z","end":"2025-01-01T01:00:00.000Z"},"diagnosis":[{"condition":{"reference":"Condition/Condition-11"}}]},"request":{"method":"PUT","url":"Encounter/3d594124-a6ed-4932-aa38-a3ca0ca9f0ad"}},{"fullUrl":"https://madie.cms.gov/Encounter/Encounter-14","resource":{"resourceType":"Encounter","id":"f76214e5-8867-4199-b2c3-eeda7badd7b9","meta":{"profile":["http://hl7.org/fhir/us/qicore/StructureDefinition/qicore-encounter"]},"status":"finished","class":{"system":"http://terminology.hl7.org/CodeSystem/v3-ActCode","code":"AMB","display":"ambulatory"},"type":[{"coding":[{"system":"http://snomed.info/sct","code":"4525004","display":"Emergency department patient visit (procedure)"}]}],"subject":{"reference":"Patient/7e69124d-ff34-4daf-b626-08d1283f71ba"},"period":{"start":"2025-05-01T00:00:00.000Z","end":"2025-05-01T01:00:00.000Z"},"diagnosis":[{"condition":{"reference":"Condition/Condition-11"}}]},"request":{"method":"PUT","url":"Encounter/f76214e5-8867-4199-b2c3-eeda7badd7b9"}},{"fullUrl":"https://madie.cms.gov/DeviceRequest/DeviceRequest-3","resource":{"resourceType":"DeviceRequest","id":"bb3272cf-d934-4392-926f-1d81bb20aeed","meta":{"profile":["http://hl7.org/fhir/us/qicore/StructureDefinition/qicore-devicerequest"]},"status":"completed","intent":"order","codeCodeableConcept":{"coding":[{"system":"http://snomed.info/sct","code":"183240000","display":"Self-propelled wheelchair (physical object)"}]},"subject":{"reference":"Patient/7e69124d-ff34-4daf-b626-08d1283f71ba"},"authoredOn":"2025-11-01T23:59:00.000Z"},"request":{"method":"PUT","url":"DeviceRequest/bb3272cf-d934-4392-926f-1d81bb20aeed"}},{"fullUrl":"https://madie.cms.gov/MeasureReport/10f8dbd3-c6ea-47f5-a9b1-96bdfd094ebd","resource":{"resourceType":"MeasureReport","id":"10f8dbd3-c6ea-47f5-a9b1-96bdfd094ebd","meta":{"profile":["http://hl7.org/fhir/us/cqfmeasures/StructureDefinition/test-case-cqfm"]},"contained":[{"resourceType":"Parameters","id":"a385eb1e-cc38-4582-b8c9-df739f7b9206-parameters","parameter":[{"name":"subject","valueString":"7e69124d-ff34-4daf-b626-08d1283f71ba"}]}],"extension":[{"url":"http://hl7.org/fhir/us/cqfmeasures/StructureDefinition/cqfm-inputParameters","valueReference":{"reference":"#a385eb1e-cc38-4582-b8c9-df739f7b9206-parameters"}},{"url":"http://hl7.org/fhir/us/cqfmeasures/StructureDefinition/cqfm-testCaseDescription","valueMarkdown":"Frailty device request and mod ext not performed"}],"modifierExtension":[{"url":"http://hl7.org/fhir/us/cqfmeasures/StructureDefinition/cqfm-isTestCase","valueBoolean":true}],"status":"complete","type":"individual","measure":"https://madie.cms.gov/Measure/DiabetesGlycemicStatusAssessmentGreaterThan9PercentFHIR","period":{"start":"2025-01-01","end":"2025-12-31"},"group":[{"population":[{"code":{"coding":[{"system":"http://terminology.hl7.org/CodeSystem/measure-population","code":"initial-population","display":"Initial Population"}]},"count":1},{"code":{"coding":[{"system":"http://terminology.hl7.org/CodeSystem/measure-population","code":"denominator","display":"Denominator"}]},"count":1},{"code":{"coding":[{"system":"http://terminology.hl7.org/CodeSystem/measure-population","code":"denominator-exclusion","display":"Denominator Exclusion"}]},"count":1},{"code":{"coding":[{"system":"http://terminology.hl7.org/CodeSystem/measure-population","code":"numerator","display":"Numerator"}]},"count":0}]}]},"request":{"method":"PUT","url":"MeasureReport/10f8dbd3-c6ea-47f5-a9b1-96bdfd094ebd"}}]}