{"resourceType":"Bundle","id":"tests-85b60f52-7b08-46f3-946b-cb317b28acf5-bundle","type":"transaction","entry":[{"fullUrl":"https://madie.cms.gov/Patient/85b60f52-7b08-46f3-946b-cb317b28acf5","resource":{"resourceType":"Patient","id":"85b60f52-7b08-46f3-946b-cb317b28acf5","meta":{"profile":["http://hl7.org/fhir/us/qicore/StructureDefinition/qicore-patient"]},"extension":[{"url":"http://hl7.org/fhir/us/core/StructureDefinition/us-core-race","extension":[{"url":"ombCategory","valueCoding":{"system":"urn:oid:2.16.840.1.113883.6.238","code":"2028-9","display":"Asian"}},{"url":"text","valueString":"Asian"}]},{"url":"http://hl7.org/fhir/us/core/StructureDefinition/us-core-ethnicity","extension":[{"url":"ombCategory","valueCoding":{"system":"urn:oid:2.16.840.1.113883.6.238","code":"2135-2","display":"Hispanic or Latino"}},{"url":"text","valueString":"Hispanic or Latino"}]}],"identifier":[{"system":"http://hospital.smarthealthit.org","value":"999999995"}],"name":[{"family":"Bertha","given":["Betty"]}],"gender":"female","birthDate":"1958-12-31"},"request":{"method":"PUT","url":"Patient/85b60f52-7b08-46f3-946b-cb317b28acf5"}},{"fullUrl":"https://madie.cms.gov/Encounter/Encounter-51","resource":{"resourceType":"Encounter","id":"b92f98fb-ca64-4215-807f-6259eb34049f","meta":{"profile":["http://hl7.org/fhir/us/qicore/StructureDefinition/qicore-encounter"]},"status":"finished","class":{"system":"http://terminology.hl7.org/CodeSystem/v3-ActCode","code":"AMB","display":"ambulatory"},"type":[{"coding":[{"system":"http://snomed.info/sct","code":"185460008","display":"Home visit request by patient (procedure)"}]}],"subject":{"reference":"Patient/85b60f52-7b08-46f3-946b-cb317b28acf5"},"period":{"start":"2025-01-01T00:00:00.000Z","end":"2025-01-01T00:15:00.000Z"}},"request":{"method":"PUT","url":"Encounter/b92f98fb-ca64-4215-807f-6259eb34049f"}},{"fullUrl":"https://madie.cms.gov/Condition/Condition-45","resource":{"resourceType":"Condition","id":"0c84172b-8d0a-4733-89b8-bedcb7b23282","meta":{"profile":["http://hl7.org/fhir/us/qicore/StructureDefinition/qicore-condition"]},"clinicalStatus":{"coding":[{"system":"http://terminology.hl7.org/CodeSystem/condition-clinical","code":"active"}]},"category":[{"coding":[{"system":"http://terminology.hl7.org/CodeSystem/condition-category","code":"problem-list-item","display":"Problem List Item"}]}],"code":{"coding":[{"system":"http://snomed.info/sct","code":"102781000119107","display":"Sensory neuropathy due to type 1 diabetes mellitus (disorder)"}]},"subject":{"reference":"Patient/85b60f52-7b08-46f3-946b-cb317b28acf5"},"onsetDateTime":"2025-01-01T23:59:00.000Z"},"request":{"method":"PUT","url":"Condition/0c84172b-8d0a-4733-89b8-bedcb7b23282"}},{"fullUrl":"https://madie.cms.gov/Condition/Condition-46","resource":{"resourceType":"Condition","id":"9cee4d51-cd24-41e4-a8be-78252f5f66c2","meta":{"profile":["http://hl7.org/fhir/us/qicore/StructureDefinition/qicore-condition"]},"clinicalStatus":{"coding":[{"system":"http://terminology.hl7.org/CodeSystem/condition-clinical","code":"active"}]},"category":[{"coding":[{"system":"http://terminology.hl7.org/CodeSystem/condition-category","code":"problem-list-item","display":"Problem List Item"}]}],"code":{"coding":[{"system":"http://snomed.info/sct","code":"101421000119107","display":"Dementia due to Parkinson's disease (disorder)"}]},"subject":{"reference":"Patient/85b60f52-7b08-46f3-946b-cb317b28acf5"},"onsetDateTime":"2024-12-31T23:59:59.000Z"},"request":{"method":"PUT","url":"Condition/9cee4d51-cd24-41e4-a8be-78252f5f66c2"}},{"fullUrl":"https://madie.cms.gov/Encounter/Encounter-52","resource":{"resourceType":"Encounter","id":"cf40d75c-15bf-4dfa-87d7-6b47356b630a","meta":{"profile":["http://hl7.org/fhir/us/qicore/StructureDefinition/qicore-encounter"]},"status":"finished","class":{"system":"http://terminology.hl7.org/CodeSystem/v3-ActCode","code":"AMB","display":"ambulatory"},"type":[{"coding":[{"system":"http://snomed.info/sct","code":"183450002","display":"Admission to burn unit (procedure)"}]}],"subject":{"reference":"Patient/85b60f52-7b08-46f3-946b-cb317b28acf5"},"period":{"start":"2025-05-01T00:00:00.000Z","end":"2025-05-01T01:00:00.000Z"},"diagnosis":[{"condition":{"reference":"Condition/Condition-46"}}]},"request":{"method":"PUT","url":"Encounter/cf40d75c-15bf-4dfa-87d7-6b47356b630a"}},{"fullUrl":"https://madie.cms.gov/DeviceRequest/DeviceRequest-5","resource":{"resourceType":"DeviceRequest","id":"71949ff6-e94d-422f-8ff3-df44e6b9a158","meta":{"profile":["http://hl7.org/fhir/us/qicore/StructureDefinition/qicore-devicerequest"]},"modifierExtension":[{"url":"http://hl7.org/fhir/us/qicore/StructureDefinition/qicore-doNotPeform","valueBoolean":false}],"status":"completed","intent":"order","codeCodeableConcept":{"coding":[{"system":"http://snomed.info/sct","code":"183240000","display":"Self-propelled wheelchair (physical object)"}]},"subject":{"reference":"Patient/85b60f52-7b08-46f3-946b-cb317b28acf5"},"authoredOn":"2025-11-01T23:59:00.000Z"},"request":{"method":"PUT","url":"DeviceRequest/71949ff6-e94d-422f-8ff3-df44e6b9a158"}},{"fullUrl":"https://madie.cms.gov/MeasureReport/0175d510-7237-451f-af21-082d73e22772","resource":{"resourceType":"MeasureReport","id":"0175d510-7237-451f-af21-082d73e22772","meta":{"profile":["http://hl7.org/fhir/us/cqfmeasures/StructureDefinition/test-case-cqfm"]},"contained":[{"resourceType":"Parameters","id":"8fd793ac-9ec2-45c2-ae4f-d1414fc2c717-parameters","parameter":[{"name":"subject","valueString":"85b60f52-7b08-46f3-946b-cb317b28acf5"}]}],"extension":[{"url":"http://hl7.org/fhir/us/cqfmeasures/StructureDefinition/cqfm-inputParameters","valueReference":{"reference":"#8fd793ac-9ec2-45c2-ae4f-d1414fc2c717-parameters"}},{"url":"http://hl7.org/fhir/us/cqfmeasures/StructureDefinition/cqfm-testCaseDescription","valueMarkdown":"One inpatient visit during the MP"}],"modifierExtension":[{"url":"http://hl7.org/fhir/us/cqfmeasures/StructureDefinition/cqfm-isTestCase","valueBoolean":true}],"status":"complete","type":"individual","measure":"https://madie.cms.gov/Measure/DiabetesGlycemicStatusAssessmentGreaterThan9PercentFHIR","period":{"start":"2025-01-01","end":"2025-12-31"},"group":[{"population":[{"code":{"coding":[{"system":"http://terminology.hl7.org/CodeSystem/measure-population","code":"initial-population","display":"Initial Population"}]},"count":1},{"code":{"coding":[{"system":"http://terminology.hl7.org/CodeSystem/measure-population","code":"denominator","display":"Denominator"}]},"count":1},{"code":{"coding":[{"system":"http://terminology.hl7.org/CodeSystem/measure-population","code":"denominator-exclusion","display":"Denominator Exclusion"}]},"count":1},{"code":{"coding":[{"system":"http://terminology.hl7.org/CodeSystem/measure-population","code":"numerator","display":"Numerator"}]},"count":0}]}]},"request":{"method":"PUT","url":"MeasureReport/0175d510-7237-451f-af21-082d73e22772"}}]}