{"resourceType":"Bundle","id":"tests-3b62b0a8-44f2-4365-bcb9-7cadef5bab2e-bundle","type":"transaction","entry":[{"fullUrl":"https://madie.cms.gov/Patient/3b62b0a8-44f2-4365-bcb9-7cadef5bab2e","resource":{"resourceType":"Patient","id":"3b62b0a8-44f2-4365-bcb9-7cadef5bab2e","meta":{"profile":["http://hl7.org/fhir/us/qicore/StructureDefinition/qicore-patient"]},"extension":[{"url":"http://hl7.org/fhir/us/core/StructureDefinition/us-core-race","extension":[{"url":"ombCategory","valueCoding":{"system":"urn:oid:2.16.840.1.113883.6.238","code":"2028-9","display":"Asian"}},{"url":"text","valueString":"Asian"}]},{"url":"http://hl7.org/fhir/us/core/StructureDefinition/us-core-ethnicity","extension":[{"url":"ombCategory","valueCoding":{"system":"urn:oid:2.16.840.1.113883.6.238","code":"2135-2","display":"Hispanic or Latino"}},{"url":"text","valueString":"Hispanic or Latino"}]}],"identifier":[{"system":"http://hospital.smarthealthit.org","value":"999999995"}],"name":[{"family":"Bertha","given":["Betty"]}],"gender":"female","birthDate":"1958-12-31"},"request":{"method":"PUT","url":"Patient/3b62b0a8-44f2-4365-bcb9-7cadef5bab2e"}},{"fullUrl":"https://madie.cms.gov/Encounter/Encounter-19","resource":{"resourceType":"Encounter","id":"a79631d2-a293-4d06-b424-d82a75ba7056","meta":{"profile":["http://hl7.org/fhir/us/qicore/StructureDefinition/qicore-encounter"]},"status":"finished","class":{"system":"http://terminology.hl7.org/CodeSystem/v3-ActCode","code":"AMB","display":"ambulatory"},"type":[{"coding":[{"system":"http://snomed.info/sct","code":"185460008","display":"Home visit request by patient (procedure)"}]}],"subject":{"reference":"Patient/3b62b0a8-44f2-4365-bcb9-7cadef5bab2e"},"period":{"start":"2025-01-01T00:00:00.000Z","end":"2025-01-01T00:15:00.000Z"}},"request":{"method":"PUT","url":"Encounter/a79631d2-a293-4d06-b424-d82a75ba7056"}},{"fullUrl":"https://madie.cms.gov/Condition/Condition-15","resource":{"resourceType":"Condition","id":"5ef16e1f-6a81-4444-81e5-04b88df8674d","meta":{"profile":["http://hl7.org/fhir/us/qicore/StructureDefinition/qicore-condition"]},"clinicalStatus":{"coding":[{"system":"http://terminology.hl7.org/CodeSystem/condition-clinical","code":"active"}]},"category":[{"coding":[{"system":"http://terminology.hl7.org/CodeSystem/condition-category","code":"problem-list-item","display":"Problem List Item"}]}],"code":{"coding":[{"system":"http://snomed.info/sct","code":"102781000119107","display":"Sensory neuropathy due to type 1 diabetes mellitus (disorder)"}]},"subject":{"reference":"Patient/3b62b0a8-44f2-4365-bcb9-7cadef5bab2e"},"onsetDateTime":"2025-01-01T23:59:00.000Z"},"request":{"method":"PUT","url":"Condition/5ef16e1f-6a81-4444-81e5-04b88df8674d"}},{"fullUrl":"https://madie.cms.gov/MedicationRequest/MedicationRequest-4","resource":{"resourceType":"MedicationRequest","id":"b99e3e0c-9207-40aa-86f5-a6ef4559fea4","meta":{"profile":["http://hl7.org/fhir/us/qicore/StructureDefinition/qicore-medicationrequest"]},"status":"active","intent":"order","doNotPerform":false,"medicationCodeableConcept":{"coding":[{"system":"http://www.nlm.nih.gov/research/umls/rxnorm","code":"312836","display":"rivastigmine 6 MG Oral Capsule"}]},"subject":{"reference":"Patient/3b62b0a8-44f2-4365-bcb9-7cadef5bab2e"},"authoredOn":"2025-01-01T00:00:00.000Z","requester":{"reference":"Practitioner/example"},"dispenseRequest":{"expectedSupplyDuration":{"value":90,"system":"http://unitsofmeasure.org","code":"days"}}},"request":{"method":"PUT","url":"MedicationRequest/b99e3e0c-9207-40aa-86f5-a6ef4559fea4"}},{"fullUrl":"https://madie.cms.gov/Observation/Observation-3","resource":{"resourceType":"Observation","id":"1157cfe4-6c54-48b3-9c33-151391aee015","meta":{"profile":["http://hl7.org/fhir/us/qicore/StructureDefinition/qicore-observation"]},"status":"final","category":[{"coding":[{"system":"http://terminology.hl7.org/CodeSystem/observation-category","code":"survey"}]}],"code":{"coding":[{"system":"http://hl7.org/fhir/sid/icd-10-cm","code":"R26.89","display":"Other abnormalities of gait and mobility"}]},"subject":{"reference":"Patient/3b62b0a8-44f2-4365-bcb9-7cadef5bab2e"},"effectivePeriod":{"start":"2025-01-01T00:00:00.000Z","end":"2025-01-02T00:00:00.000Z"}},"request":{"method":"PUT","url":"Observation/1157cfe4-6c54-48b3-9c33-151391aee015"}},{"fullUrl":"https://madie.cms.gov/MeasureReport/3d8bcb24-f727-4276-991d-397a51de70f1","resource":{"resourceType":"MeasureReport","id":"3d8bcb24-f727-4276-991d-397a51de70f1","meta":{"profile":["http://hl7.org/fhir/us/cqfmeasures/StructureDefinition/test-case-cqfm"]},"contained":[{"resourceType":"Parameters","id":"e2079a72-35b3-49c7-a2c4-3477d315f39e-parameters","parameter":[{"name":"subject","valueString":"3b62b0a8-44f2-4365-bcb9-7cadef5bab2e"}]}],"extension":[{"url":"http://hl7.org/fhir/us/cqfmeasures/StructureDefinition/cqfm-inputParameters","valueReference":{"reference":"#e2079a72-35b3-49c7-a2c4-3477d315f39e-parameters"}},{"url":"http://hl7.org/fhir/us/cqfmeasures/StructureDefinition/cqfm-testCaseDescription","valueMarkdown":"Frailty symptom overlaps the MP"}],"modifierExtension":[{"url":"http://hl7.org/fhir/us/cqfmeasures/StructureDefinition/cqfm-isTestCase","valueBoolean":true}],"status":"complete","type":"individual","measure":"https://madie.cms.gov/Measure/DiabetesGlycemicStatusAssessmentGreaterThan9PercentFHIR","period":{"start":"2025-01-01","end":"2025-12-31"},"group":[{"population":[{"code":{"coding":[{"system":"http://terminology.hl7.org/CodeSystem/measure-population","code":"initial-population","display":"Initial Population"}]},"count":1},{"code":{"coding":[{"system":"http://terminology.hl7.org/CodeSystem/measure-population","code":"denominator","display":"Denominator"}]},"count":1},{"code":{"coding":[{"system":"http://terminology.hl7.org/CodeSystem/measure-population","code":"denominator-exclusion","display":"Denominator Exclusion"}]},"count":1},{"code":{"coding":[{"system":"http://terminology.hl7.org/CodeSystem/measure-population","code":"numerator","display":"Numerator"}]},"count":0}]}]},"request":{"method":"PUT","url":"MeasureReport/3d8bcb24-f727-4276-991d-397a51de70f1"}}]}