{"resourceType":"Bundle","id":"tests-ac4d7076-d1cb-44c6-a94f-c2c86266d53b-bundle","type":"transaction","entry":[{"fullUrl":"https://madie.cms.gov/Patient/ac4d7076-d1cb-44c6-a94f-c2c86266d53b","resource":{"resourceType":"Patient","id":"ac4d7076-d1cb-44c6-a94f-c2c86266d53b","meta":{"profile":["http://hl7.org/fhir/us/qicore/StructureDefinition/qicore-patient"]},"extension":[{"url":"http://hl7.org/fhir/us/core/StructureDefinition/us-core-race","extension":[{"url":"ombCategory","valueCoding":{"system":"urn:oid:2.16.840.1.113883.6.238","code":"2028-9","display":"Asian","userSelected":true}},{"url":"text","valueString":"Asian"}]},{"url":"http://hl7.org/fhir/us/core/StructureDefinition/us-core-ethnicity","extension":[{"url":"ombCategory","valueCoding":{"system":"urn:oid:2.16.840.1.113883.6.238","code":"2135-2","display":"Hispanic or Latino","userSelected":true}},{"url":"text","valueString":"Hispanic or Latino"}]}],"identifier":[{"type":{"coding":[{"system":"http://terminology.hl7.org/CodeSystem/v2-0203","code":"MR"}]},"system":"http://hospital.smarthealthit.org","value":"999999995"}],"name":[{"family":"Bertha","given":["Betty"]}],"gender":"female","birthDate":"1957-12-31"},"request":{"method":"PUT","url":"Patient/ac4d7076-d1cb-44c6-a94f-c2c86266d53b"}},{"fullUrl":"https://madie.cms.gov/Encounter/Encounter-6","resource":{"resourceType":"Encounter","id":"460eb17a-0f0d-4fc8-bcf7-a43c08f5f30f","meta":{"profile":["http://hl7.org/fhir/us/qicore/StructureDefinition/qicore-encounter"]},"status":"finished","class":{"system":"http://terminology.hl7.org/CodeSystem/v3-ActCode","code":"AMB","display":"ambulatory"},"type":[{"coding":[{"system":"http://snomed.info/sct","code":"185460008","display":"Home visit request by patient (procedure)"}]}],"subject":{"reference":"Patient/ac4d7076-d1cb-44c6-a94f-c2c86266d53b"},"period":{"start":"2025-01-01T00:00:00.000Z","end":"2025-01-01T00:15:00.000Z"}},"request":{"method":"PUT","url":"Encounter/460eb17a-0f0d-4fc8-bcf7-a43c08f5f30f"}},{"fullUrl":"https://madie.cms.gov/Condition/Condition-6","resource":{"resourceType":"Condition","id":"2b716117-ef88-4eac-b060-b52db5c5d090","meta":{"profile":["http://hl7.org/fhir/us/qicore/StructureDefinition/qicore-condition"]},"clinicalStatus":{"coding":[{"system":"http://terminology.hl7.org/CodeSystem/condition-clinical","code":"active"}]},"category":[{"coding":[{"system":"http://terminology.hl7.org/CodeSystem/condition-category","code":"problem-list-item","display":"Problem List Item"}]}],"code":{"coding":[{"system":"http://snomed.info/sct","code":"102781000119107","display":"Sensory neuropathy due to type 1 diabetes mellitus (disorder)"}]},"subject":{"reference":"Patient/ac4d7076-d1cb-44c6-a94f-c2c86266d53b"},"onsetDateTime":"2025-01-01T23:59:00.000Z"},"request":{"method":"PUT","url":"Condition/2b716117-ef88-4eac-b060-b52db5c5d090"}},{"fullUrl":"https://madie.cms.gov/Condition/Condition-7","resource":{"resourceType":"Condition","id":"39d2f41c-389f-42c2-abb6-e524db868ec7","meta":{"profile":["http://hl7.org/fhir/us/qicore/StructureDefinition/qicore-condition"]},"clinicalStatus":{"coding":[{"system":"http://terminology.hl7.org/CodeSystem/condition-clinical","code":"active"}]},"category":[{"coding":[{"system":"http://terminology.hl7.org/CodeSystem/condition-category","code":"problem-list-item","display":"Problem List Item"}]}],"code":{"coding":[{"system":"http://snomed.info/sct","code":"101421000119107","display":"Dementia due to Parkinson's disease (disorder)"}]},"subject":{"reference":"Patient/ac4d7076-d1cb-44c6-a94f-c2c86266d53b"},"onsetDateTime":"2024-12-31T23:59:59.000Z"},"request":{"method":"PUT","url":"Condition/39d2f41c-389f-42c2-abb6-e524db868ec7"}},{"fullUrl":"https://madie.cms.gov/Encounter/Encounter-7","resource":{"resourceType":"Encounter","id":"4bb88631-2789-4aeb-a8ee-d2ac87a3a8c3","meta":{"profile":["http://hl7.org/fhir/us/qicore/StructureDefinition/qicore-encounter"]},"status":"finished","class":{"system":"http://terminology.hl7.org/CodeSystem/v3-ActCode","code":"AMB","display":"ambulatory"},"type":[{"coding":[{"system":"http://snomed.info/sct","code":"4525004","display":"Emergency department patient visit (procedure)"}]}],"subject":{"reference":"Patient/ac4d7076-d1cb-44c6-a94f-c2c86266d53b"},"period":{"start":"2024-12-31T00:00:00.000Z","end":"2025-01-01T01:00:00.000Z"},"diagnosis":[{"condition":{"reference":"Condition/Condition-7"}}]},"request":{"method":"PUT","url":"Encounter/4bb88631-2789-4aeb-a8ee-d2ac87a3a8c3"}},{"fullUrl":"https://madie.cms.gov/Encounter/Encounter-8","resource":{"resourceType":"Encounter","id":"37ad3bea-1c4c-43c9-b62a-0028a66acb73","meta":{"profile":["http://hl7.org/fhir/us/qicore/StructureDefinition/qicore-encounter"]},"status":"finished","class":{"system":"http://terminology.hl7.org/CodeSystem/v3-ActCode","code":"AMB","display":"ambulatory"},"type":[{"coding":[{"system":"http://snomed.info/sct","code":"4525004","display":"Emergency department patient visit (procedure)"}]}],"subject":{"reference":"Patient/ac4d7076-d1cb-44c6-a94f-c2c86266d53b"},"period":{"start":"2025-05-01T00:00:00.000Z","end":"2025-05-01T01:00:00.000Z"},"diagnosis":[{"condition":{"reference":"Condition/Condition-7"}}]},"request":{"method":"PUT","url":"Encounter/37ad3bea-1c4c-43c9-b62a-0028a66acb73"}},{"fullUrl":"https://madie.cms.gov/DeviceRequest/DeviceRequest-1","resource":{"resourceType":"DeviceRequest","id":"c95b46c4-a7c6-4f79-91b9-b59dfa2e95d1","meta":{"profile":["http://hl7.org/fhir/us/qicore/StructureDefinition/qicore-devicerequest"]},"modifierExtension":[{"url":"http://hl7.org/fhir/us/qicore/StructureDefinition/qicore-doNotPeform","valueBoolean":false}],"status":"completed","intent":"order","codeCodeableConcept":{"coding":[{"system":"http://snomed.info/sct","code":"183240000","display":"Self-propelled wheelchair (physical object)"}]},"subject":{"reference":"Patient/ac4d7076-d1cb-44c6-a94f-c2c86266d53b"},"authoredOn":"2025-11-01T23:59:00.000Z"},"request":{"method":"PUT","url":"DeviceRequest/c95b46c4-a7c6-4f79-91b9-b59dfa2e95d1"}},{"fullUrl":"https://madie.cms.gov/MeasureReport/7e61c8a7-3351-40fc-a503-8e7ff45f28ed","resource":{"resourceType":"MeasureReport","id":"7e61c8a7-3351-40fc-a503-8e7ff45f28ed","meta":{"profile":["http://hl7.org/fhir/us/cqfmeasures/StructureDefinition/test-case-cqfm"]},"contained":[{"resourceType":"Parameters","id":"7f55befb-cf41-42fe-a3d1-d300503a7919-parameters","parameter":[{"name":"subject","valueString":"ac4d7076-d1cb-44c6-a94f-c2c86266d53b"}]}],"extension":[{"url":"http://hl7.org/fhir/us/cqfmeasures/StructureDefinition/cqfm-inputParameters","valueReference":{"reference":"#7f55befb-cf41-42fe-a3d1-d300503a7919-parameters"}},{"url":"http://hl7.org/fhir/us/cqfmeasures/StructureDefinition/cqfm-testCaseDescription","valueMarkdown":"Two outpatient visits on different days of service"}],"modifierExtension":[{"url":"http://hl7.org/fhir/us/cqfmeasures/StructureDefinition/cqfm-isTestCase","valueBoolean":true}],"status":"complete","type":"individual","measure":"https://madie.cms.gov/Measure/DiabetesGlycemicStatusAssessmentGreaterThan9PercentFHIR","period":{"start":"2025-01-01","end":"2025-12-31"},"group":[{"population":[{"code":{"coding":[{"system":"http://terminology.hl7.org/CodeSystem/measure-population","code":"initial-population","display":"Initial Population"}]},"count":1},{"code":{"coding":[{"system":"http://terminology.hl7.org/CodeSystem/measure-population","code":"denominator","display":"Denominator"}]},"count":1},{"code":{"coding":[{"system":"http://terminology.hl7.org/CodeSystem/measure-population","code":"denominator-exclusion","display":"Denominator Exclusion"}]},"count":1},{"code":{"coding":[{"system":"http://terminology.hl7.org/CodeSystem/measure-population","code":"numerator","display":"Numerator"}]},"count":0}]}]},"request":{"method":"PUT","url":"MeasureReport/7e61c8a7-3351-40fc-a503-8e7ff45f28ed"}}]}