{"resourceType":"Bundle","id":"tests-9bff7002-9697-407d-a42b-9debdafc9695-bundle","type":"transaction","entry":[{"fullUrl":"https://madie.cms.gov/Patient/9bff7002-9697-407d-a42b-9debdafc9695","resource":{"resourceType":"Patient","id":"9bff7002-9697-407d-a42b-9debdafc9695","meta":{"profile":["http://hl7.org/fhir/us/qicore/StructureDefinition/qicore-patient"]},"extension":[{"url":"http://hl7.org/fhir/us/core/StructureDefinition/us-core-race","extension":[{"url":"ombCategory","valueCoding":{"system":"urn:oid:2.16.840.1.113883.6.238","code":"2076-8","display":"Native Hawaiian or Other Pacific Islander"}},{"url":"text","valueString":"Other Race"}]},{"url":"http://hl7.org/fhir/us/core/StructureDefinition/us-core-ethnicity","extension":[{"url":"ombCategory","valueCoding":{"system":"urn:oid:2.16.840.1.113883.6.238","code":"2135-2","display":"Hispanic or Latino","userSelected":true}},{"url":"text","valueString":"Hispanic or Latino"}]}],"identifier":[{"type":{"coding":[{"system":"http://terminology.hl7.org/CodeSystem/v2-0203","code":"MR"}]},"system":"https://bonnie-fhir.healthit.gov/","value":"60abce8bcd7f9706e4189cfd"}],"name":[{"family":"DENOMPass","given":["ADTMultipleOccurencesNoDexa"]}],"gender":"male","birthDate":"1949-07-09"},"request":{"method":"PUT","url":"Patient/9bff7002-9697-407d-a42b-9debdafc9695"}},{"fullUrl":"https://madie.cms.gov/Encounter/zd6313d21312","resource":{"resourceType":"Encounter","id":"0855a725-f8b8-4e5a-a9dd-8f5dd4f3ed87","meta":{"profile":["http://hl7.org/fhir/us/qicore/StructureDefinition/qicore-encounter"]},"status":"finished","class":{"system":"http://terminology.hl7.org/CodeSystem/v3-ActCode","code":"AMB","display":"ambulatory"},"type":[{"coding":[{"system":"http://snomed.info/sct","version":"http://snomed.info/sct/731000124108/version/20240401","code":"185463005","display":"Visit out of hours (procedure)"}]}],"subject":{"reference":"Patient/9bff7002-9697-407d-a42b-9debdafc9695"},"period":{"start":"2025-02-03T08:00:00+00:00","end":"2025-02-03T08:45:00+00:00"}},"request":{"method":"PUT","url":"Encounter/0855a725-f8b8-4e5a-a9dd-8f5dd4f3ed87"}},{"fullUrl":"https://madie.cms.gov/MedicationRequest/54112322","resource":{"resourceType":"MedicationRequest","id":"9960b0ee-7b6e-44d8-af56-7da91086d2be","meta":{"profile":["http://hl7.org/fhir/us/qicore/StructureDefinition/qicore-medicationrequest"]},"status":"active","intent":"order","doNotPerform":false,"medicationCodeableConcept":{"coding":[{"system":"http://www.nlm.nih.gov/research/umls/rxnorm","version":"2025-01","code":"314008","display":"goserelin 10.8 MG Drug Implant"}]},"subject":{"reference":"Patient/9bff7002-9697-407d-a42b-9debdafc9695"},"authoredOn":"2024-09-01T08:00:00.000+00:00","requester":{"reference":"http://myGoodHealthcare.com/fhir/Practitioner/646346"},"dosageInstruction":[{"timing":{"repeat":{"boundsPeriod":{"start":"2024-09-03T08:00:00.000+00:00","end":"2024-09-03T09:00:00.000+00:00"}}}}]},"request":{"method":"PUT","url":"MedicationRequest/9960b0ee-7b6e-44d8-af56-7da91086d2be"}},{"fullUrl":"https://madie.cms.gov/Condition/321321215","resource":{"resourceType":"Condition","id":"9cac6696-1a01-49ae-b0c9-c31c3c4f0bc5","meta":{"profile":["http://hl7.org/fhir/us/qicore/StructureDefinition/qicore-condition"]},"clinicalStatus":{"coding":[{"system":"http://terminology.hl7.org/CodeSystem/condition-clinical","code":"active"}]},"verificationStatus":{"coding":[{"system":"http://terminology.hl7.org/CodeSystem/condition-ver-status","code":"confirmed"}]},"category":[{"coding":[{"system":"http://terminology.hl7.org/CodeSystem/condition-category","code":"problem-list-item","display":"Problem List Item"}]}],"code":{"coding":[{"system":"http://snomed.info/sct","version":"http://snomed.info/sct/731000124108/version/20240401","code":"254900004","display":"Carcinoma of prostate (disorder)"}]},"subject":{"reference":"Patient/9bff7002-9697-407d-a42b-9debdafc9695"},"onsetPeriod":{"start":"2025-01-03T08:00:00.000+00:00"}},"request":{"method":"PUT","url":"Condition/9cac6696-1a01-49ae-b0c9-c31c3c4f0bc5"}},{"fullUrl":"https://madie.cms.gov/MedicationRequest/54112321","resource":{"resourceType":"MedicationRequest","id":"8413c7e6-eb36-417e-b8c0-75c70de50bd3","meta":{"profile":["http://hl7.org/fhir/us/qicore/StructureDefinition/qicore-medicationrequest"]},"status":"active","intent":"order","medicationCodeableConcept":{"coding":[{"system":"http://www.nlm.nih.gov/research/umls/rxnorm","version":"2025-01","code":"314008","display":"goserelin 10.8 MG Drug Implant"}]},"subject":{"reference":"Patient/9bff7002-9697-407d-a42b-9debdafc9695"},"authoredOn":"2025-02-01T08:00:00.000+00:00","requester":{"reference":"http://myGoodHealthcare.com/fhir/Practitioner/646346"},"dosageInstruction":[{"timing":{"repeat":{"boundsPeriod":{"start":"2025-03-03T08:00:00.000+00:00","end":"2025-03-03T09:00:00.000+00:00"}}}}]},"request":{"method":"PUT","url":"MedicationRequest/8413c7e6-eb36-417e-b8c0-75c70de50bd3"}},{"fullUrl":"https://madie.cms.gov/Practitioner/646346","resource":{"resourceType":"Practitioner","id":"63905de8-3784-4cf3-a411-2ef39fd0459e","meta":{"profile":["http://hl7.org/fhir/us/qicore/StructureDefinition/qicore-practitioner"]},"identifier":[{"use":"temp","system":"urn:oid:2.16.840.1.113883.4.336","value":"Practitioner-23"}],"active":true,"name":[{"family":"Careful","given":["Adam"],"prefix":["Dr"]}],"address":[{"use":"home","line":["534 Erewhon St"],"city":"PleasantVille","state":"UT","postalCode":"84414"}],"qualification":[{"identifier":[{"system":"http://example.org/UniversityIdentifier","value":"12345"}],"code":{"coding":[{"system":"http://terminology.hl7.org/CodeSystem/v2-0360|2.7","code":"BS","display":"Bachelor of Science"}],"text":"Bachelor of Science"},"period":{"start":"1995"},"issuer":{"display":"Example University"}}]},"request":{"method":"PUT","url":"Practitioner/63905de8-3784-4cf3-a411-2ef39fd0459e"}},{"fullUrl":"https://madie.cms.gov/ServiceRequest/3213214575","resource":{"resourceType":"ServiceRequest","id":"b80bd7b2-0384-4996-ac51-736dbb37e4cc","meta":{"profile":["http://hl7.org/fhir/us/qicore/StructureDefinition/qicore-servicerequest"]},"status":"active","intent":"order","code":{"coding":[{"system":"http://snomed.info/sct","code":"456381000124102","display":"Injection of leuprolide acetate for twelve month period (regime/therapy)"}]},"subject":{"reference":"Patient/9bff7002-9697-407d-a42b-9debdafc9695"},"authoredOn":"2025-03-03T08:00:00.000+00:00"},"request":{"method":"PUT","url":"ServiceRequest/b80bd7b2-0384-4996-ac51-736dbb37e4cc"}},{"fullUrl":"https://madie.cms.gov/MeasureReport/5b16f415-1984-4fdb-b07e-233a02fa5474","resource":{"resourceType":"MeasureReport","id":"5b16f415-1984-4fdb-b07e-233a02fa5474","meta":{"profile":["http://hl7.org/fhir/us/cqfmeasures/StructureDefinition/test-case-cqfm"]},"contained":[{"resourceType":"Parameters","id":"86f492cf-1259-42c6-8068-34c8f480451e-parameters","parameter":[{"name":"subject","valueString":"9bff7002-9697-407d-a42b-9debdafc9695"}]}],"extension":[{"url":"http://hl7.org/fhir/us/cqfmeasures/StructureDefinition/cqfm-inputParameters","valueReference":{"reference":"#86f492cf-1259-42c6-8068-34c8f480451e-parameters"}},{"url":"http://hl7.org/fhir/us/cqfmeasures/StructureDefinition/cqfm-testCaseDescription","valueMarkdown":"Male with encounter in MP, Dx: Prostate Cancer.  Procedure Order in MP.  Androgen Deprivation Therapy For Urology Care given multiple times with no Dexa. Passes DENOM as should."}],"modifierExtension":[{"url":"http://hl7.org/fhir/us/cqfmeasures/StructureDefinition/cqfm-isTestCase","valueBoolean":true}],"status":"complete","type":"individual","measure":"https://madie.cms.gov/Measure/BoneDensityProstateCancerAndrogenDeprivationTherapyFHIR","period":{"start":"2025-01-01","end":"2025-12-31"},"group":[{"population":[{"code":{"coding":[{"system":"http://terminology.hl7.org/CodeSystem/measure-population","code":"initial-population","display":"Initial Population"}]},"count":1},{"code":{"coding":[{"system":"http://terminology.hl7.org/CodeSystem/measure-population","code":"denominator","display":"Denominator"}]},"count":1},{"code":{"coding":[{"system":"http://terminology.hl7.org/CodeSystem/measure-population","code":"numerator","display":"Numerator"}]},"count":0},{"code":{"coding":[{"system":"http://terminology.hl7.org/CodeSystem/measure-population","code":"denominator-exception","display":"Denominator Exception"}]},"count":0}]}]},"request":{"method":"PUT","url":"MeasureReport/5b16f415-1984-4fdb-b07e-233a02fa5474"}}]}