{"resourceType":"Bundle","id":"tests-9bff7002-9697-407d-a42b-9debdafc9695-bundle","type":"transaction","entry":[{"fullUrl":"https://madie.cms.gov/Patient/9bff7002-9697-407d-a42b-9debdafc9695","resource":{"resourceType":"Patient","id":"9bff7002-9697-407d-a42b-9debdafc9695","meta":{"profile":["http://hl7.org/fhir/us/qicore/StructureDefinition/qicore-patient"]},"extension":[{"url":"http://hl7.org/fhir/us/core/StructureDefinition/us-core-race","extension":[{"url":"ombCategory","valueCoding":{"system":"urn:oid:2.16.840.1.113883.6.238","code":"2076-8","display":"Native Hawaiian or Other Pacific Islander"}},{"url":"text","valueString":"Other Race"}]},{"url":"http://hl7.org/fhir/us/core/StructureDefinition/us-core-ethnicity","extension":[{"url":"ombCategory","valueCoding":{"system":"urn:oid:2.16.840.1.113883.6.238","code":"2135-2","display":"Hispanic or Latino","userSelected":true}},{"url":"text","valueString":"Hispanic or Latino"}]}],"identifier":[{"type":{"coding":[{"system":"http://terminology.hl7.org/CodeSystem/v2-0203","code":"MR"}]},"system":"https://bonnie-fhir.healthit.gov/","value":"60abce8bcd7f9706e4189cfd"}],"name":[{"family":"DENOMPass","given":["ADTMultipleOccurencesNoDexa"]}],"gender":"male","birthDate":"1949-07-09"},"request":{"method":"PUT","url":"Patient/9bff7002-9697-407d-a42b-9debdafc9695"}},{"fullUrl":"https://madie.cms.gov/Encounter/zd6313d21312","resource":{"resourceType":"Encounter","id":"ce59dd09-1d10-4955-b285-8485437c1e49","meta":{"profile":["http://hl7.org/fhir/us/qicore/StructureDefinition/qicore-encounter"]},"status":"finished","class":{"system":"http://terminology.hl7.org/CodeSystem/v3-ActCode","code":"AMB","display":"ambulatory"},"type":[{"coding":[{"system":"http://snomed.info/sct","version":"http://snomed.info/sct/731000124108/version/20240401","code":"185463005","display":"Visit out of hours (procedure)"}]}],"subject":{"reference":"Patient/9bff7002-9697-407d-a42b-9debdafc9695"},"period":{"start":"2025-02-03T08:00:00+00:00","end":"2025-02-03T08:45:00+00:00"}},"request":{"method":"PUT","url":"Encounter/ce59dd09-1d10-4955-b285-8485437c1e49"}},{"fullUrl":"https://madie.cms.gov/MedicationRequest/54112322","resource":{"resourceType":"MedicationRequest","id":"f43dbd20-edb7-47ba-942d-cd435abec1d3","meta":{"profile":["http://hl7.org/fhir/us/qicore/StructureDefinition/qicore-medicationrequest"]},"status":"active","intent":"order","doNotPerform":false,"medicationCodeableConcept":{"coding":[{"system":"http://www.nlm.nih.gov/research/umls/rxnorm","version":"2025-01","code":"314008","display":"goserelin 10.8 MG Drug Implant"}]},"subject":{"reference":"Patient/9bff7002-9697-407d-a42b-9debdafc9695"},"authoredOn":"2024-09-01T08:00:00.000+00:00","requester":{"reference":"http://myGoodHealthcare.com/fhir/Practitioner/646346"},"dosageInstruction":[{"timing":{"repeat":{"boundsPeriod":{"start":"2024-09-03T08:00:00.000+00:00","end":"2024-09-03T09:00:00.000+00:00"}}}}]},"request":{"method":"PUT","url":"MedicationRequest/f43dbd20-edb7-47ba-942d-cd435abec1d3"}},{"fullUrl":"https://madie.cms.gov/Condition/321321215","resource":{"resourceType":"Condition","id":"cce272cd-c934-4a13-a47e-46db2de35992","meta":{"profile":["http://hl7.org/fhir/us/qicore/StructureDefinition/qicore-condition"]},"clinicalStatus":{"coding":[{"system":"http://terminology.hl7.org/CodeSystem/condition-clinical","code":"active"}]},"verificationStatus":{"coding":[{"system":"http://terminology.hl7.org/CodeSystem/condition-ver-status","code":"confirmed"}]},"category":[{"coding":[{"system":"http://terminology.hl7.org/CodeSystem/condition-category","code":"problem-list-item","display":"Problem List Item"}]}],"code":{"coding":[{"system":"http://snomed.info/sct","version":"http://snomed.info/sct/731000124108/version/20240401","code":"254900004","display":"Carcinoma of prostate (disorder)"}]},"subject":{"reference":"Patient/9bff7002-9697-407d-a42b-9debdafc9695"},"onsetPeriod":{"start":"2025-01-03T08:00:00.000+00:00"}},"request":{"method":"PUT","url":"Condition/cce272cd-c934-4a13-a47e-46db2de35992"}},{"fullUrl":"https://madie.cms.gov/MedicationRequest/54112321","resource":{"resourceType":"MedicationRequest","id":"4f1da3bf-86ee-41f0-9095-39ca6a172bbb","meta":{"profile":["http://hl7.org/fhir/us/qicore/StructureDefinition/qicore-medicationrequest"]},"status":"active","intent":"order","medicationCodeableConcept":{"coding":[{"system":"http://www.nlm.nih.gov/research/umls/rxnorm","version":"2025-01","code":"314008","display":"goserelin 10.8 MG Drug Implant"}]},"subject":{"reference":"Patient/9bff7002-9697-407d-a42b-9debdafc9695"},"authoredOn":"2025-02-01T08:00:00.000+00:00","requester":{"reference":"http://myGoodHealthcare.com/fhir/Practitioner/646346"},"dosageInstruction":[{"timing":{"repeat":{"boundsPeriod":{"start":"2025-03-03T08:00:00.000+00:00","end":"2025-03-03T09:00:00.000+00:00"}}}}]},"request":{"method":"PUT","url":"MedicationRequest/4f1da3bf-86ee-41f0-9095-39ca6a172bbb"}},{"fullUrl":"https://madie.cms.gov/Practitioner/646346","resource":{"resourceType":"Practitioner","id":"42a4f58a-228a-4f33-8bc3-188e6c56dc9e","meta":{"profile":["http://hl7.org/fhir/us/qicore/StructureDefinition/qicore-practitioner"]},"identifier":[{"use":"temp","system":"urn:oid:2.16.840.1.113883.4.336","value":"Practitioner-23"}],"active":true,"name":[{"family":"Careful","given":["Adam"],"prefix":["Dr"]}],"address":[{"use":"home","line":["534 Erewhon St"],"city":"PleasantVille","state":"UT","postalCode":"84414"}],"qualification":[{"identifier":[{"system":"http://example.org/UniversityIdentifier","value":"12345"}],"code":{"coding":[{"system":"http://terminology.hl7.org/CodeSystem/v2-0360|2.7","code":"BS","display":"Bachelor of Science"}],"text":"Bachelor of Science"},"period":{"start":"1995"},"issuer":{"display":"Example University"}}]},"request":{"method":"PUT","url":"Practitioner/42a4f58a-228a-4f33-8bc3-188e6c56dc9e"}},{"fullUrl":"https://madie.cms.gov/ServiceRequest/3213214575","resource":{"resourceType":"ServiceRequest","id":"2c08a0b3-9a6e-4886-bece-21cf1c47163b","meta":{"profile":["http://hl7.org/fhir/us/qicore/StructureDefinition/qicore-servicerequest"]},"status":"active","intent":"order","code":{"coding":[{"system":"http://snomed.info/sct","code":"456381000124102","display":"Injection of leuprolide acetate for twelve month period (regime/therapy)"}]},"subject":{"reference":"Patient/9bff7002-9697-407d-a42b-9debdafc9695"},"authoredOn":"2025-03-03T08:00:00.000+00:00"},"request":{"method":"PUT","url":"ServiceRequest/2c08a0b3-9a6e-4886-bece-21cf1c47163b"}},{"fullUrl":"https://madie.cms.gov/MeasureReport/5b16f415-1984-4fdb-b07e-233a02fa5474","resource":{"resourceType":"MeasureReport","id":"5b16f415-1984-4fdb-b07e-233a02fa5474","meta":{"profile":["http://hl7.org/fhir/us/cqfmeasures/StructureDefinition/test-case-cqfm"]},"contained":[{"resourceType":"Parameters","id":"86f492cf-1259-42c6-8068-34c8f480451e-parameters","parameter":[{"name":"subject","valueString":"9bff7002-9697-407d-a42b-9debdafc9695"}]}],"extension":[{"url":"http://hl7.org/fhir/us/cqfmeasures/StructureDefinition/cqfm-inputParameters","valueReference":{"reference":"#86f492cf-1259-42c6-8068-34c8f480451e-parameters"}},{"url":"http://hl7.org/fhir/us/cqfmeasures/StructureDefinition/cqfm-testCaseDescription","valueMarkdown":"Male with encounter in MP, Dx: Prostate Cancer.  Procedure Order in MP.  Androgen Deprivation Therapy For Urology Care given multiple times with no Dexa. Passes DENOM as should."}],"modifierExtension":[{"url":"http://hl7.org/fhir/us/cqfmeasures/StructureDefinition/cqfm-isTestCase","valueBoolean":true}],"status":"complete","type":"individual","measure":"https://madie.cms.gov/Measure/BoneDensityProstateCancerAndrogenDeprivationTherapyFHIR","period":{"start":"2025-01-01","end":"2025-12-31"},"group":[{"population":[{"code":{"coding":[{"system":"http://terminology.hl7.org/CodeSystem/measure-population","code":"initial-population","display":"Initial Population"}]},"count":1},{"code":{"coding":[{"system":"http://terminology.hl7.org/CodeSystem/measure-population","code":"denominator","display":"Denominator"}]},"count":1},{"code":{"coding":[{"system":"http://terminology.hl7.org/CodeSystem/measure-population","code":"numerator","display":"Numerator"}]},"count":0},{"code":{"coding":[{"system":"http://terminology.hl7.org/CodeSystem/measure-population","code":"denominator-exception","display":"Denominator Exception"}]},"count":0}]}]},"request":{"method":"PUT","url":"MeasureReport/5b16f415-1984-4fdb-b07e-233a02fa5474"}}]}