{"resourceType":"Bundle","id":"tests-72a0fde9-7145-4b6c-ac08-75d41d04f910-bundle","type":"transaction","entry":[{"fullUrl":"https://madie.cms.gov/Patient/72a0fde9-7145-4b6c-ac08-75d41d04f910","resource":{"resourceType":"Patient","id":"72a0fde9-7145-4b6c-ac08-75d41d04f910","meta":{"profile":["http://hl7.org/fhir/us/qicore/StructureDefinition/qicore-patient"]},"extension":[{"url":"http://hl7.org/fhir/us/core/StructureDefinition/us-core-race","extension":[{"url":"ombCategory","valueCoding":{"system":"urn:oid:2.16.840.1.113883.6.238","code":"1002-5","display":"American Indian or Alaska Native","userSelected":true}},{"url":"detailed","valueCoding":{"system":"urn:oid:2.16.840.1.113883.6.238","code":"1004-1","display":"American Indian","userSelected":true}},{"url":"text","valueString":"American Indian"}]},{"url":"http://hl7.org/fhir/us/core/StructureDefinition/us-core-ethnicity","extension":[{"url":"ombCategory","valueCoding":{"system":"urn:oid:2.16.840.1.113883.6.238","code":"2135-2","display":"Hispanic or Latino","userSelected":true}},{"url":"detailed","valueCoding":{"system":"urn:oid:2.16.840.1.113883.6.238","code":"2153-5","display":"Mexican American Indian","userSelected":true}},{"url":"text","valueString":"Hispanic or Latino: Mexican American Indian"}]}],"identifier":[{"type":{"coding":[{"system":"http://terminology.hl7.org/CodeSystem/v2-0203","code":"MR"}]},"system":"https://bonnie-fhir.healthit.gov/","value":"4161651341613146161"}],"name":[{"family":"DENOMPass","given":["MedReqEventEndofMP"]}],"gender":"male","birthDate":"1961-07-19"},"request":{"method":"PUT","url":"Patient/72a0fde9-7145-4b6c-ac08-75d41d04f910"}},{"fullUrl":"https://madie.cms.gov/Encounter/464564","resource":{"resourceType":"Encounter","id":"ad667741-ef4f-46cb-b7b5-ec7be1916b41","meta":{"profile":["http://hl7.org/fhir/us/qicore/StructureDefinition/qicore-encounter"]},"status":"finished","class":{"system":"http://terminology.hl7.org/CodeSystem/v3-ActCode","code":"AMB","display":"ambulatory"},"type":[{"coding":[{"system":"http://snomed.info/sct","version":"http://snomed.info/sct/731000124108/version/20240401","code":"185463005","display":"Visit out of hours (procedure)","userSelected":true}]}],"subject":{"reference":"Patient/72a0fde9-7145-4b6c-ac08-75d41d04f910"},"period":{"start":"2025-03-03T08:00:00.000+00:00","end":"2025-03-03T08:15:00.000+00:00"}},"request":{"method":"PUT","url":"Encounter/ad667741-ef4f-46cb-b7b5-ec7be1916b41"}},{"fullUrl":"https://madie.cms.gov/Condition/16351465","resource":{"resourceType":"Condition","id":"1986c44b-f87a-4cfa-a0b6-1d5cd74e6f26","meta":{"profile":["http://hl7.org/fhir/us/qicore/StructureDefinition/qicore-condition"]},"clinicalStatus":{"coding":[{"system":"http://terminology.hl7.org/CodeSystem/condition-clinical","code":"active","display":"Active","userSelected":true}]},"verificationStatus":{"coding":[{"system":"http://terminology.hl7.org/CodeSystem/condition-ver-status","code":"confirmed","display":"Confirmed","userSelected":true}]},"category":[{"coding":[{"system":"http://terminology.hl7.org/CodeSystem/condition-category","code":"problem-list-item","display":"Problem List Item"}]}],"code":{"coding":[{"system":"http://snomed.info/sct","version":"http://snomed.info/sct/731000124108/version/20240401","code":"254900004","display":"Carcinoma of prostate (disorder)","userSelected":true}]},"subject":{"reference":"Patient/72a0fde9-7145-4b6c-ac08-75d41d04f910"},"onsetPeriod":{"start":"2025-03-03T08:00:00.000+00:00"}},"request":{"method":"PUT","url":"Condition/1986c44b-f87a-4cfa-a0b6-1d5cd74e6f26"}},{"fullUrl":"https://madie.cms.gov/MedicationRequest/98948641","resource":{"resourceType":"MedicationRequest","id":"7073c657-326a-496b-8ad2-b2206627eb91","meta":{"profile":["http://hl7.org/fhir/us/qicore/StructureDefinition/qicore-medicationrequest"]},"status":"active","intent":"order","medicationCodeableConcept":{"coding":[{"system":"http://www.nlm.nih.gov/research/umls/rxnorm","version":"2025-01","code":"752884","display":"0.375 ML leuprolide acetate 120 MG/ML Prefilled Syringe","userSelected":true}]},"subject":{"reference":"Patient/72a0fde9-7145-4b6c-ac08-75d41d04f910"},"authoredOn":"2025-03-03T08:00:00.000+00:00","requester":{"reference":"http://myGoodHealthcare.com/fhir/Practitioner/646346"},"dosageInstruction":[{"timing":{"event":["2026-01-03T08:00:00.000+00:00","2025-12-03T08:00:00.000+00:00"]}}]},"request":{"method":"PUT","url":"MedicationRequest/7073c657-326a-496b-8ad2-b2206627eb91"}},{"fullUrl":"https://madie.cms.gov/ServiceRequest/587458","resource":{"resourceType":"ServiceRequest","id":"ce832e22-b83d-4896-bb36-33a40e23182c","meta":{"profile":["http://hl7.org/fhir/us/qicore/StructureDefinition/qicore-servicerequest"]},"status":"active","intent":"order","code":{"coding":[{"system":"http://snomed.info/sct","code":"456381000124102","display":"Injection of leuprolide acetate for twelve month period (regime/therapy)"}]},"subject":{"reference":"Patient/72a0fde9-7145-4b6c-ac08-75d41d04f910"},"authoredOn":"2025-03-03T08:00:00.000+00:00"},"request":{"method":"PUT","url":"ServiceRequest/ce832e22-b83d-4896-bb36-33a40e23182c"}},{"fullUrl":"https://madie.cms.gov/Coverage/651651646818","resource":{"resourceType":"Coverage","id":"1d1e06b6-7757-4fd6-9af7-0c8356f218c5","meta":{"profile":["http://hl7.org/fhir/us/qicore/StructureDefinition/qicore-coverage"]},"identifier":[{"system":"http://benefitsinc.com/certificate","value":"12345"}],"status":"active","type":{"coding":[{"system":"https://nahdo.org/sopt","version":"9.2","code":"6","display":"BLUE CROSS/BLUE SHIELD"}]},"beneficiary":{"reference":"Patient/72a0fde9-7145-4b6c-ac08-75d41d04f910"},"period":{"start":"2011-05-23"},"payor":[{"reference":"Organization/db141f66-a1cc-407b-9e95-adac27adee14"}]},"request":{"method":"PUT","url":"Coverage/1d1e06b6-7757-4fd6-9af7-0c8356f218c5"}},{"fullUrl":"https://madie.cms.gov/Organization/6446561684616121253","resource":{"resourceType":"Organization","id":"db141f66-a1cc-407b-9e95-adac27adee14","meta":{"profile":["http://hl7.org/fhir/us/qicore/StructureDefinition/qicore-organization"]},"identifier":[{"use":"temp","system":"http://hl7.org/fhir/sid/us-npi","value":"BCBST-NPI"}],"active":true,"name":"Blue Cross Blue Shield Tennessee","telecom":[{"system":"phone","value":"(+1) 800-468-9698"}],"address":[{"line":["1 Cameron Hill Circle, Suite 0002"],"city":"Chattanooga","state":"TN","postalCode":"37402-0002","country":"USA"}]},"request":{"method":"PUT","url":"Organization/db141f66-a1cc-407b-9e95-adac27adee14"}},{"fullUrl":"https://madie.cms.gov/MeasureReport/9c43118c-3d14-4712-adeb-3935f223b903","resource":{"resourceType":"MeasureReport","id":"9c43118c-3d14-4712-adeb-3935f223b903","meta":{"profile":["http://hl7.org/fhir/us/cqfmeasures/StructureDefinition/test-case-cqfm"]},"contained":[{"resourceType":"Parameters","id":"fc81d401-8139-4440-a5aa-b386d9e41f4c-parameters","parameter":[{"name":"subject","valueString":"72a0fde9-7145-4b6c-ac08-75d41d04f910"}]}],"extension":[{"url":"http://hl7.org/fhir/us/cqfmeasures/StructureDefinition/cqfm-inputParameters","valueReference":{"reference":"#fc81d401-8139-4440-a5aa-b386d9e41f4c-parameters"}},{"url":"http://hl7.org/fhir/us/cqfmeasures/StructureDefinition/cqfm-testCaseDescription","valueMarkdown":"Test of FirstADT definition medication request using event dates with order at end of measurement period and PCa with no end date. "}],"modifierExtension":[{"url":"http://hl7.org/fhir/us/cqfmeasures/StructureDefinition/cqfm-isTestCase","valueBoolean":true}],"status":"complete","type":"individual","measure":"https://madie.cms.gov/Measure/BoneDensityProstateCancerAndrogenDeprivationTherapyFHIR","period":{"start":"2025-01-01","end":"2025-12-31"},"group":[{"population":[{"code":{"coding":[{"system":"http://terminology.hl7.org/CodeSystem/measure-population","code":"initial-population","display":"Initial Population"}]},"count":1},{"code":{"coding":[{"system":"http://terminology.hl7.org/CodeSystem/measure-population","code":"denominator","display":"Denominator"}]},"count":1},{"code":{"coding":[{"system":"http://terminology.hl7.org/CodeSystem/measure-population","code":"numerator","display":"Numerator"}]},"count":0},{"code":{"coding":[{"system":"http://terminology.hl7.org/CodeSystem/measure-population","code":"denominator-exception","display":"Denominator Exception"}]},"count":0}]}]},"request":{"method":"PUT","url":"MeasureReport/9c43118c-3d14-4712-adeb-3935f223b903"}}]}