{"resourceType":"Bundle","id":"tests-6ab3d053-be78-49e8-b9a0-7e5a32dcf682-bundle","type":"transaction","entry":[{"fullUrl":"https://madie.cms.gov/Patient/6ab3d053-be78-49e8-b9a0-7e5a32dcf682","resource":{"resourceType":"Patient","id":"6ab3d053-be78-49e8-b9a0-7e5a32dcf682","meta":{"profile":["http://hl7.org/fhir/us/qicore/StructureDefinition/qicore-patient"]},"extension":[{"url":"http://hl7.org/fhir/us/core/StructureDefinition/us-core-race","extension":[{"url":"ombCategory","valueCoding":{"system":"urn:oid:2.16.840.1.113883.6.238","code":"2028-9","display":"Asian","userSelected":true}},{"url":"text","valueString":"Asian"}]},{"url":"http://hl7.org/fhir/us/core/StructureDefinition/us-core-ethnicity","extension":[{"url":"ombCategory","valueCoding":{"system":"urn:oid:2.16.840.1.113883.6.238","code":"2186-5","display":"Not Hispanic or Latino","userSelected":true}},{"url":"text","valueString":"Not Hispanic or Latino"}]}],"identifier":[{"type":{"coding":[{"system":"http://terminology.hl7.org/CodeSystem/v2-0203","code":"MR"}]},"system":"https://bonnie-fhir.healthit.gov/","value":"610d3a53be3d5dcbc43d6777"}],"name":[{"family":"IPFail","given":["DxDayAfterMPEdge"]}],"gender":"female","birthDate":"1968-03-02"},"request":{"method":"PUT","url":"Patient/6ab3d053-be78-49e8-b9a0-7e5a32dcf682"}},{"fullUrl":"https://madie.cms.gov/Encounter/300320001","resource":{"resourceType":"Encounter","id":"d1eac9fb-f408-43b2-a551-bbf7bcc34079","meta":{"profile":["http://hl7.org/fhir/us/qicore/StructureDefinition/qicore-encounter"]},"status":"finished","class":{"system":"http://terminology.hl7.org/CodeSystem/v3-ActCode","code":"AMB","display":"ambulatory","userSelected":true},"type":[{"coding":[{"system":"http://snomed.info/sct","version":"http://snomed.info/sct/731000124108/version/202303","code":"185460008","display":"Home visit request by patient (procedure)","userSelected":true}]}],"subject":{"reference":"Patient/6ab3d053-be78-49e8-b9a0-7e5a32dcf682"},"period":{"start":"2025-08-06T08:00:00.000+00:00","end":"2025-08-10T08:15:00.000+00:00"}},"request":{"method":"PUT","url":"Encounter/d1eac9fb-f408-43b2-a551-bbf7bcc34079"}},{"fullUrl":"https://madie.cms.gov/Condition/300320002","resource":{"resourceType":"Condition","id":"2cfab1bc-e8b8-4a2d-a19e-89f31e456f75","meta":{"profile":["http://hl7.org/fhir/us/qicore/StructureDefinition/qicore-condition"]},"clinicalStatus":{"coding":[{"system":"http://terminology.hl7.org/CodeSystem/condition-clinical","code":"active","display":"active","userSelected":true}]},"category":[{"coding":[{"system":"http://terminology.hl7.org/CodeSystem/condition-category","code":"problem-list-item","display":"Problem List Item"}]}],"code":{"coding":[{"system":"http://snomed.info/sct","version":"http://snomed.info/sct/731000124108/version/202303","code":"10349009","display":"Multi-infarct dementia with delirium (disorder)","userSelected":true}]},"subject":{"reference":"Patient/6ab3d053-be78-49e8-b9a0-7e5a32dcf682"},"onsetDateTime":"2026-01-01T00:00:00.000+00:00"},"request":{"method":"PUT","url":"Condition/2cfab1bc-e8b8-4a2d-a19e-89f31e456f75"}},{"fullUrl":"https://madie.cms.gov/Encounter/300320003","resource":{"resourceType":"Encounter","id":"d84f7716-5bf2-4d14-85af-e4cb1bc169ec","meta":{"profile":["http://hl7.org/fhir/us/qicore/StructureDefinition/qicore-encounter"]},"status":"finished","class":{"system":"http://terminology.hl7.org/CodeSystem/v3-ActCode","code":"AMB","display":"ambulatory","userSelected":true},"type":[{"coding":[{"system":"http://snomed.info/sct","version":"http://snomed.info/sct/731000124108/version/202303","code":"185316007","display":"Indirect encounter (procedure)","userSelected":true}]}],"subject":{"reference":"Patient/6ab3d053-be78-49e8-b9a0-7e5a32dcf682"},"period":{"start":"2025-08-06T08:00:00.000+00:00","end":"2025-08-10T08:15:00.000+00:00"},"diagnosis":[{"condition":{"reference":"Condition/dementia-mental-degenerations-5d61"}}]},"request":{"method":"PUT","url":"Encounter/d84f7716-5bf2-4d14-85af-e4cb1bc169ec"}},{"fullUrl":"https://madie.cms.gov/Condition/300320004","resource":{"resourceType":"Condition","id":"ca918525-e06a-40aa-95d5-083fe96e9599","category":[{"coding":[{"system":"http://terminology.hl7.org/CodeSystem/condition-category","code":"encounter-diagnosis","display":"Encounter Diagnosis"}]}],"code":{"coding":[{"system":"http://snomed.info/sct","version":"http://snomed.info/sct/731000124108/version/202303","code":"10349009","display":"Multi-infarct dementia with delirium (disorder)","userSelected":true}]},"subject":{"reference":"Patient/6ab3d053-be78-49e8-b9a0-7e5a32dcf682"},"onsetPeriod":{"start":"2023-08-05T08:00:00.000+00:00","end":"2023-08-11T08:15:00.000+00:00"}},"request":{"method":"PUT","url":"Condition/ca918525-e06a-40aa-95d5-083fe96e9599"}},{"fullUrl":"https://madie.cms.gov/Coverage/300320005","resource":{"resourceType":"Coverage","id":"831a5f27-fa1a-4434-be10-41cd4ee6661d","meta":{"profile":["http://hl7.org/fhir/us/qicore/StructureDefinition/qicore-coverage"]},"status":"active","beneficiary":{"reference":"Patient/6ab3d053-be78-49e8-b9a0-7e5a32dcf682"},"relationship":{"coding":[{"system":"http://terminology.hl7.org/CodeSystem/subscriber-relationship","code":"self"}]},"period":{"start":"2015-05-23","end":"2025-05-23"},"payor":[{"reference":"Organization/db141f66-a1cc-407b-9e95-adac27adee14"}]},"request":{"method":"PUT","url":"Coverage/831a5f27-fa1a-4434-be10-41cd4ee6661d"}},{"fullUrl":"https://madie.cms.gov/Organization/123456","resource":{"resourceType":"Organization","id":"db141f66-a1cc-407b-9e95-adac27adee14","meta":{"profile":["http://hl7.org/fhir/us/qicore/StructureDefinition/qicore-organization"]},"identifier":[{"use":"temp","system":"urn:oid:2.16.840.1.113883.4.4","value":"21-3259825"}],"active":true,"type":[{"coding":[{"system":"http://terminology.hl7.org/CodeSystem/organization-type","code":"pay","display":"Payer"}]}],"name":"Blue Cross Blue Shield of Texas","telecom":[{"system":"phone","value":"(+1) 972-766-6900"}],"address":[{"use":"billing","type":"postal","line":["P.O. Box 660044"],"city":"Dallas","state":"TX","postalCode":"75266-0044","country":"USA"}]},"request":{"method":"PUT","url":"Organization/db141f66-a1cc-407b-9e95-adac27adee14"}},{"fullUrl":"https://madie.cms.gov/Practitioner/practitioner-123456","resource":{"resourceType":"Practitioner","id":"75f87f27-a8ae-4e5c-b51e-926d9dcf0430","identifier":[{"system":"http://hl7.org/fhir/sid/us-npi","value":"123456"}],"name":[{"family":"Evil","prefix":["Dr"]}]},"request":{"method":"PUT","url":"Practitioner/75f87f27-a8ae-4e5c-b51e-926d9dcf0430"}},{"fullUrl":"https://madie.cms.gov/MeasureReport/b4ee0fb3-9dff-431a-9477-9a7d45c0ac46","resource":{"resourceType":"MeasureReport","id":"b4ee0fb3-9dff-431a-9477-9a7d45c0ac46","meta":{"profile":["http://hl7.org/fhir/us/cqfmeasures/StructureDefinition/test-case-cqfm"]},"contained":[{"resourceType":"Parameters","id":"40c214c6-608d-4476-8f43-14e4d4e2ab3d-parameters","parameter":[{"name":"subject","valueString":"6ab3d053-be78-49e8-b9a0-7e5a32dcf682"}]}],"extension":[{"url":"http://hl7.org/fhir/us/cqfmeasures/StructureDefinition/cqfm-inputParameters","valueReference":{"reference":"#40c214c6-608d-4476-8f43-14e4d4e2ab3d-parameters"}},{"url":"http://hl7.org/fhir/us/cqfmeasures/StructureDefinition/cqfm-testCaseDescription","valueMarkdown":"Patient has a  Dementia Diagnosis which does not qualify due to onset being day after MP edge"}],"modifierExtension":[{"url":"http://hl7.org/fhir/us/cqfmeasures/StructureDefinition/cqfm-isTestCase","valueBoolean":true}],"status":"complete","type":"individual","measure":"https://madie.cms.gov/Measure/DementiaCognitiveAssessmentFHIR","period":{"start":"2025-01-01","end":"2025-12-31"},"group":[{"population":[{"code":{"coding":[{"system":"http://terminology.hl7.org/CodeSystem/measure-population","code":"initial-population","display":"Initial Population"}]},"count":0},{"code":{"coding":[{"system":"http://terminology.hl7.org/CodeSystem/measure-population","code":"denominator","display":"Denominator"}]},"count":0},{"code":{"coding":[{"system":"http://terminology.hl7.org/CodeSystem/measure-population","code":"numerator","display":"Numerator"}]},"count":0},{"code":{"coding":[{"system":"http://terminology.hl7.org/CodeSystem/measure-population","code":"denominator-exception","display":"Denominator Exception"}]},"count":0}]}]},"request":{"method":"PUT","url":"MeasureReport/b4ee0fb3-9dff-431a-9477-9a7d45c0ac46"}}]}