{"resourceType":"Bundle","id":"tests-3141c630-3718-4ac6-a0cc-299a9805007f-bundle","type":"transaction","entry":[{"fullUrl":"https://madie.cms.gov/Patient/3141c630-3718-4ac6-a0cc-299a9805007f","resource":{"resourceType":"Patient","id":"3141c630-3718-4ac6-a0cc-299a9805007f","meta":{"profile":["http://hl7.org/fhir/us/qicore/StructureDefinition/qicore-patient"]},"extension":[{"url":"http://hl7.org/fhir/us/core/StructureDefinition/us-core-race","extension":[{"url":"ombCategory","valueCoding":{"system":"urn:oid:2.16.840.1.113883.6.238","code":"2028-9","display":"Asian","userSelected":true}},{"url":"text","valueString":"Asian"}]},{"url":"http://hl7.org/fhir/us/core/StructureDefinition/us-core-ethnicity","extension":[{"url":"ombCategory","valueCoding":{"system":"urn:oid:2.16.840.1.113883.6.238","code":"2186-5","display":"Not Hispanic or Latino","userSelected":true}},{"url":"text","valueString":"Not Hispanic or Latino"}]}],"identifier":[{"type":{"coding":[{"system":"http://terminology.hl7.org/CodeSystem/v2-0203","code":"MR"}]},"system":"https://bonnie-fhir.healthit.gov/","value":"610d3a53be3d5dcbc43d6777"}],"name":[{"family":"IPPass","given":["DementiaDxStartsFirstDayofMPEdge"]}],"gender":"female","birthDate":"1968-03-02"},"request":{"method":"PUT","url":"Patient/3141c630-3718-4ac6-a0cc-299a9805007f"}},{"fullUrl":"https://madie.cms.gov/Encounter/300320001","resource":{"resourceType":"Encounter","id":"c589e278-c75b-4fbe-82d1-71b99113bb8b","meta":{"profile":["http://hl7.org/fhir/us/qicore/StructureDefinition/qicore-encounter"]},"status":"finished","class":{"system":"http://terminology.hl7.org/CodeSystem/v3-ActCode","code":"AMB","display":"ambulatory","userSelected":true},"type":[{"coding":[{"system":"http://snomed.info/sct","version":"http://snomed.info/sct/731000124108/version/202303","code":"185460008","display":"Home visit request by patient (procedure)","userSelected":true}]}],"subject":{"reference":"Patient/3141c630-3718-4ac6-a0cc-299a9805007f"},"period":{"start":"2025-08-06T08:00:00.000+00:00","end":"2025-08-10T08:15:00.000+00:00"}},"request":{"method":"PUT","url":"Encounter/c589e278-c75b-4fbe-82d1-71b99113bb8b"}},{"fullUrl":"https://madie.cms.gov/Condition/300320002","resource":{"resourceType":"Condition","id":"f839df70-e93b-4ae1-bb07-5aef1e394f89","meta":{"profile":["http://hl7.org/fhir/us/qicore/StructureDefinition/qicore-condition"]},"clinicalStatus":{"coding":[{"system":"http://terminology.hl7.org/CodeSystem/condition-clinical","code":"active","display":"active","userSelected":true}]},"category":[{"coding":[{"system":"http://terminology.hl7.org/CodeSystem/condition-category","code":"problem-list-item","display":"Problem List Item"}]}],"code":{"coding":[{"system":"http://snomed.info/sct","version":"http://snomed.info/sct/731000124108/version/202303","code":"10349009","display":"Multi-infarct dementia with delirium (disorder)","userSelected":true}]},"subject":{"reference":"Patient/3141c630-3718-4ac6-a0cc-299a9805007f"},"onsetDateTime":"2025-01-01T00:00:00.000+00:00"},"request":{"method":"PUT","url":"Condition/f839df70-e93b-4ae1-bb07-5aef1e394f89"}},{"fullUrl":"https://madie.cms.gov/Encounter/300320003","resource":{"resourceType":"Encounter","id":"2c8ef519-a620-4f95-a6fc-103bb6e1efe3","meta":{"profile":["http://hl7.org/fhir/us/qicore/StructureDefinition/qicore-encounter"]},"status":"finished","class":{"system":"http://terminology.hl7.org/CodeSystem/v3-ActCode","code":"AMB","display":"ambulatory","userSelected":true},"type":[{"coding":[{"system":"http://snomed.info/sct","version":"http://snomed.info/sct/731000124108/version/202303","code":"185316007","display":"Indirect encounter (procedure)","userSelected":true}]}],"subject":{"reference":"Patient/3141c630-3718-4ac6-a0cc-299a9805007f"},"period":{"start":"2025-08-06T08:00:00.000+00:00","end":"2025-08-10T08:15:00.000+00:00"},"diagnosis":[{"condition":{"reference":"Condition/dementia-mental-degenerations-5d61"}}]},"request":{"method":"PUT","url":"Encounter/2c8ef519-a620-4f95-a6fc-103bb6e1efe3"}},{"fullUrl":"https://madie.cms.gov/Condition/300320004","resource":{"resourceType":"Condition","id":"a696a3d9-3f9c-45b4-9c49-a5939925ac6e","category":[{"coding":[{"system":"http://terminology.hl7.org/CodeSystem/condition-category","code":"encounter-diagnosis","display":"Encounter Diagnosis"}]}],"code":{"coding":[{"system":"http://snomed.info/sct","version":"http://snomed.info/sct/731000124108/version/202303","code":"10349009","display":"Multi-infarct dementia with delirium (disorder)","userSelected":true}]},"subject":{"reference":"Patient/3141c630-3718-4ac6-a0cc-299a9805007f"},"onsetPeriod":{"start":"2023-08-05T08:00:00.000+00:00","end":"2023-08-11T08:15:00.000+00:00"}},"request":{"method":"PUT","url":"Condition/a696a3d9-3f9c-45b4-9c49-a5939925ac6e"}},{"fullUrl":"https://madie.cms.gov/Coverage/300320005","resource":{"resourceType":"Coverage","id":"58417291-7d78-427c-a721-74c643484069","meta":{"profile":["http://hl7.org/fhir/us/qicore/StructureDefinition/qicore-coverage"]},"status":"active","beneficiary":{"reference":"Patient/3141c630-3718-4ac6-a0cc-299a9805007f"},"relationship":{"coding":[{"system":"http://terminology.hl7.org/CodeSystem/subscriber-relationship","code":"self"}]},"period":{"start":"2015-05-23","end":"2025-05-23"},"payor":[{"reference":"Organization/f6075515-d38f-4624-bde8-a1ce20473a69"}]},"request":{"method":"PUT","url":"Coverage/58417291-7d78-427c-a721-74c643484069"}},{"fullUrl":"https://madie.cms.gov/Organization/123456","resource":{"resourceType":"Organization","id":"f6075515-d38f-4624-bde8-a1ce20473a69","meta":{"profile":["http://hl7.org/fhir/us/qicore/StructureDefinition/qicore-organization"]},"identifier":[{"use":"temp","system":"urn:oid:2.16.840.1.113883.4.4","value":"21-3259825"}],"active":true,"type":[{"coding":[{"system":"http://terminology.hl7.org/CodeSystem/organization-type","code":"pay","display":"Payer"}]}],"name":"Blue Cross Blue Shield of Texas","telecom":[{"system":"phone","value":"(+1) 972-766-6900"}],"address":[{"use":"billing","type":"postal","line":["P.O. Box 660044"],"city":"Dallas","state":"TX","postalCode":"75266-0044","country":"USA"}]},"request":{"method":"PUT","url":"Organization/f6075515-d38f-4624-bde8-a1ce20473a69"}},{"fullUrl":"https://madie.cms.gov/Practitioner/practitioner-123456","resource":{"resourceType":"Practitioner","id":"ae4e4b7a-691b-411c-945c-f80e1f0a7f8a","identifier":[{"system":"http://hl7.org/fhir/sid/us-npi","value":"123456"}],"name":[{"family":"Evil","prefix":["Dr"]}]},"request":{"method":"PUT","url":"Practitioner/ae4e4b7a-691b-411c-945c-f80e1f0a7f8a"}},{"fullUrl":"https://madie.cms.gov/MeasureReport/f31f2b9e-9c13-4b50-8e95-ed75c73f92c8","resource":{"resourceType":"MeasureReport","id":"f31f2b9e-9c13-4b50-8e95-ed75c73f92c8","meta":{"profile":["http://hl7.org/fhir/us/cqfmeasures/StructureDefinition/test-case-cqfm"]},"contained":[{"resourceType":"Parameters","id":"3e860865-234b-43bb-957f-69a4f5c0854f-parameters","parameter":[{"name":"subject","valueString":"3141c630-3718-4ac6-a0cc-299a9805007f"}]}],"extension":[{"url":"http://hl7.org/fhir/us/cqfmeasures/StructureDefinition/cqfm-inputParameters","valueReference":{"reference":"#3e860865-234b-43bb-957f-69a4f5c0854f-parameters"}},{"url":"http://hl7.org/fhir/us/cqfmeasures/StructureDefinition/cqfm-testCaseDescription","valueMarkdown":"Dementia Diagnosis begins exactly at start of MP with Home Visit and Patient Provider Interaction"}],"modifierExtension":[{"url":"http://hl7.org/fhir/us/cqfmeasures/StructureDefinition/cqfm-isTestCase","valueBoolean":true}],"status":"complete","type":"individual","measure":"https://madie.cms.gov/Measure/DementiaCognitiveAssessmentFHIR","period":{"start":"2025-01-01","end":"2025-12-31"},"group":[{"population":[{"code":{"coding":[{"system":"http://terminology.hl7.org/CodeSystem/measure-population","code":"initial-population","display":"Initial Population"}]},"count":1},{"code":{"coding":[{"system":"http://terminology.hl7.org/CodeSystem/measure-population","code":"denominator","display":"Denominator"}]},"count":1},{"code":{"coding":[{"system":"http://terminology.hl7.org/CodeSystem/measure-population","code":"numerator","display":"Numerator"}]},"count":0},{"code":{"coding":[{"system":"http://terminology.hl7.org/CodeSystem/measure-population","code":"denominator-exception","display":"Denominator Exception"}]},"count":0}]}]},"request":{"method":"PUT","url":"MeasureReport/f31f2b9e-9c13-4b50-8e95-ed75c73f92c8"}}]}