{"resourceType":"Bundle","id":"tests-8a182f57-a9c7-4feb-a887-0de5975301a2-bundle","type":"transaction","entry":[{"fullUrl":"https://madie.cms.gov/Patient/8a182f57-a9c7-4feb-a887-0de5975301a2","resource":{"resourceType":"Patient","id":"8a182f57-a9c7-4feb-a887-0de5975301a2","meta":{"profile":["http://hl7.org/fhir/us/qicore/StructureDefinition/qicore-patient"]},"extension":[{"url":"http://hl7.org/fhir/us/core/StructureDefinition/us-core-race","extension":[{"url":"ombCategory","valueCoding":{"system":"urn:oid:2.16.840.1.113883.6.238","code":"1002-5","display":"American Indian or Alaska Native","userSelected":true}},{"url":"text","valueString":"American Indian or Alaska Native"}]},{"url":"http://hl7.org/fhir/us/core/StructureDefinition/us-core-ethnicity","extension":[{"url":"ombCategory","valueCoding":{"system":"urn:oid:2.16.840.1.113883.6.238","code":"2135-2","display":"Hispanic or Latino","userSelected":true}},{"url":"text","valueString":"Hispanic or Latino"}]}],"identifier":[{"type":{"coding":[{"system":"http://terminology.hl7.org/CodeSystem/v2-0203","code":"MR"}]},"system":"https://bonnie-fhir.healthit.gov/","value":"642713b678c9438489949adf"}],"name":[{"family":"NUMERPass","given":["Assessment1MinB4EncounterEdge"]}],"gender":"female","birthDate":"1978-01-02"},"request":{"method":"PUT","url":"Patient/8a182f57-a9c7-4feb-a887-0de5975301a2"}},{"fullUrl":"https://madie.cms.gov/Condition/300230001","resource":{"resourceType":"Condition","id":"059cb418-bc99-43e9-b356-6755b1b5d528","meta":{"profile":["http://hl7.org/fhir/us/qicore/StructureDefinition/qicore-condition"]},"clinicalStatus":{"coding":[{"system":"http://terminology.hl7.org/CodeSystem/condition-clinical","code":"active","display":"Active","userSelected":true}]},"verificationStatus":{"coding":[{"system":"http://terminology.hl7.org/CodeSystem/condition-ver-status","code":"confirmed","display":"Confirmed","userSelected":true}]},"category":[{"coding":[{"system":"http://terminology.hl7.org/CodeSystem/condition-category","code":"encounter-diagnosis","display":"Encounter Diagnosis","userSelected":true}]}],"code":{"coding":[{"system":"http://hl7.org/fhir/sid/icd-10-cm","version":"2023","code":"G31.83","userSelected":true}]},"subject":{"reference":"Patient/8a182f57-a9c7-4feb-a887-0de5975301a2"},"onsetPeriod":{"start":"2021-03-30T08:00:00.000+00:00"}},"request":{"method":"PUT","url":"Condition/059cb418-bc99-43e9-b356-6755b1b5d528"}},{"fullUrl":"https://madie.cms.gov/Encounter/300230002","resource":{"resourceType":"Encounter","id":"4a64c40f-ac7d-40bc-a91b-2b66ace24494","meta":{"profile":["http://hl7.org/fhir/us/qicore/StructureDefinition/qicore-encounter"]},"status":"finished","class":{"system":"http://terminology.hl7.org/CodeSystem/v3-ActCode","code":"AMB","display":"ambulatory","userSelected":true},"type":[{"coding":[{"system":"http://www.ama-assn.org/go/cpt","version":"2023","code":"99212","userSelected":true}]}],"subject":{"reference":"Patient/8a182f57-a9c7-4feb-a887-0de5975301a2"},"period":{"start":"2025-03-31T08:00:00.000+00:00","end":"2025-03-31T08:35:00.000+00:00"}},"request":{"method":"PUT","url":"Encounter/4a64c40f-ac7d-40bc-a91b-2b66ace24494"}},{"fullUrl":"https://madie.cms.gov/Encounter/300230003","resource":{"resourceType":"Encounter","id":"83787f67-2c11-40de-98ee-5a899c4525bb","meta":{"profile":["http://hl7.org/fhir/us/qicore/StructureDefinition/qicore-encounter"]},"status":"finished","class":{"system":"http://terminology.hl7.org/CodeSystem/v3-ActCode","code":"AMB","display":"ambulatory","userSelected":true},"type":[{"coding":[{"system":"http://snomed.info/sct","version":"http://snomed.info/sct/731000124108/version/202303","code":"185463005","display":"Visit out of hours (procedure)","userSelected":true}]}],"subject":{"reference":"Patient/8a182f57-a9c7-4feb-a887-0de5975301a2"},"period":{"start":"2025-08-31T08:00:00.000+00:00","end":"2025-08-31T08:35:00.000+00:00"}},"request":{"method":"PUT","url":"Encounter/83787f67-2c11-40de-98ee-5a899c4525bb"}},{"fullUrl":"https://madie.cms.gov/Observation/300230004","resource":{"resourceType":"Observation","id":"f9d07978-e204-4718-8f63-80018b54d467","meta":{"profile":["http://hl7.org/fhir/us/qicore/StructureDefinition/qicore-observation"]},"status":"amended","category":[{"coding":[{"system":"http://terminology.hl7.org/CodeSystem/observation-category","code":"survey","display":"Survey","userSelected":true}]}],"code":{"coding":[{"system":"http://loinc.org","version":"2.73","code":"58151-2","display":"Prior assessment Brief Interview for Mental Status (BIMS) summary score [MDSv3]","userSelected":true}]},"subject":{"reference":"Patient/8a182f57-a9c7-4feb-a887-0de5975301a2"},"effectiveDateTime":"2025-08-31T08:34:00.000+00:00","issued":"2025-08-31T08:34:00.000+00:00","valueInteger":26},"request":{"method":"PUT","url":"Observation/f9d07978-e204-4718-8f63-80018b54d467"}},{"fullUrl":"https://madie.cms.gov/Coverage/300230005","resource":{"resourceType":"Coverage","id":"f7adae9c-9a0f-4302-87c4-cf18b1d6f640","meta":{"profile":["http://hl7.org/fhir/us/qicore/StructureDefinition/qicore-coverage"]},"status":"active","beneficiary":{"reference":"Patient/8a182f57-a9c7-4feb-a887-0de5975301a2"},"payor":[{"reference":"Organization/a6c3e6fa-301e-4714-9d04-3dde9a7e7c49"}]},"request":{"method":"PUT","url":"Coverage/f7adae9c-9a0f-4302-87c4-cf18b1d6f640"}},{"fullUrl":"https://madie.cms.gov/Organization/123456","resource":{"resourceType":"Organization","id":"a6c3e6fa-301e-4714-9d04-3dde9a7e7c49","meta":{"profile":["http://hl7.org/fhir/us/qicore/StructureDefinition/qicore-organization"]},"identifier":[{"use":"temp","system":"urn:oid:2.16.840.1.113883.4.4","value":"21-3259825"}],"active":true,"type":[{"coding":[{"system":"http://terminology.hl7.org/CodeSystem/organization-type","code":"pay","display":"Payer"}]}],"name":"Blue Cross Blue Shield of Texas","telecom":[{"system":"phone","value":"(+1) 972-766-6900"}],"address":[{"use":"billing","type":"postal","line":["P.O. Box 660044"],"city":"Dallas","state":"TX","postalCode":"75266-0044","country":"USA"}]},"request":{"method":"PUT","url":"Organization/a6c3e6fa-301e-4714-9d04-3dde9a7e7c49"}},{"fullUrl":"https://madie.cms.gov/Practitioner/practitioner-123456","resource":{"resourceType":"Practitioner","id":"a69f9f4a-90e7-432a-94f1-019843ff9b5f","identifier":[{"system":"http://hl7.org/fhir/sid/us-npi","value":"123456"}],"name":[{"family":"Evil","prefix":["Dr"]}]},"request":{"method":"PUT","url":"Practitioner/a69f9f4a-90e7-432a-94f1-019843ff9b5f"}},{"fullUrl":"https://madie.cms.gov/MeasureReport/9e5670d4-41b0-49dc-ad15-0005560f6534","resource":{"resourceType":"MeasureReport","id":"9e5670d4-41b0-49dc-ad15-0005560f6534","meta":{"profile":["http://hl7.org/fhir/us/cqfmeasures/StructureDefinition/test-case-cqfm"]},"contained":[{"resourceType":"Parameters","id":"72e58e0a-2d7e-448e-8a05-6552f65f0c67-parameters","parameter":[{"name":"subject","valueString":"8a182f57-a9c7-4feb-a887-0de5975301a2"}]}],"extension":[{"url":"http://hl7.org/fhir/us/cqfmeasures/StructureDefinition/cqfm-inputParameters","valueReference":{"reference":"#72e58e0a-2d7e-448e-8a05-6552f65f0c67-parameters"}},{"url":"http://hl7.org/fhir/us/cqfmeasures/StructureDefinition/cqfm-testCaseDescription","valueMarkdown":"Assessment is performed in last minute before end of Visit"}],"modifierExtension":[{"url":"http://hl7.org/fhir/us/cqfmeasures/StructureDefinition/cqfm-isTestCase","valueBoolean":true}],"status":"complete","type":"individual","measure":"https://madie.cms.gov/Measure/DementiaCognitiveAssessmentFHIR","period":{"start":"2025-01-01","end":"2025-12-31"},"group":[{"population":[{"code":{"coding":[{"system":"http://terminology.hl7.org/CodeSystem/measure-population","code":"initial-population","display":"Initial Population"}]},"count":1},{"code":{"coding":[{"system":"http://terminology.hl7.org/CodeSystem/measure-population","code":"denominator","display":"Denominator"}]},"count":1},{"code":{"coding":[{"system":"http://terminology.hl7.org/CodeSystem/measure-population","code":"numerator","display":"Numerator"}]},"count":1},{"code":{"coding":[{"system":"http://terminology.hl7.org/CodeSystem/measure-population","code":"denominator-exception","display":"Denominator Exception"}]},"count":0}]}]},"request":{"method":"PUT","url":"MeasureReport/9e5670d4-41b0-49dc-ad15-0005560f6534"}}]}