{
  "resourceType": "Bundle",
  "id": "6179ea13ad1a790b7af75251",
  "type": "transaction",
  "entry": [ {
    "fullUrl": "https://madie.cms.gov/Patient/6484a0f5-3f9c-4df9-94b3-2f5c9b95638a",
    "resource": {
      "resourceType": "Patient",
      "id": "6484a0f5-3f9c-4df9-94b3-2f5c9b95638a",
      "meta": {
        "profile": [ "http://hl7.org/fhir/us/qicore/StructureDefinition/qicore-patient" ]
      },
      "extension": [ {
        "url": "http://hl7.org/fhir/us/core/StructureDefinition/us-core-race",
        "extension": [ {
          "url": "ombCategory",
          "valueCoding": {
            "system": "urn:oid:2.16.840.1.113883.6.238",
            "code": "2076-8",
            "display": "Native Hawaiian or Other Pacific Islander",
            "userSelected": true
          }
        }, {
          "url": "text",
          "valueString": "Native Hawaiian or Other Pacific Islander"
        } ]
      }, {
        "url": "http://hl7.org/fhir/us/core/StructureDefinition/us-core-ethnicity",
        "extension": [ {
          "url": "ombCategory",
          "valueCoding": {
            "system": "urn:oid:2.16.840.1.113883.6.238",
            "code": "2186-5",
            "display": "Not Hispanic or Latino",
            "userSelected": true
          }
        }, {
          "url": "text",
          "valueString": "Not Hispanic or Latino"
        } ]
      } ],
      "identifier": [ {
        "type": {
          "coding": [ {
            "system": "http://terminology.hl7.org/CodeSystem/v2-0203",
            "code": "MR"
          } ]
        },
        "system": "https://bonnie-fhir.healthit.gov/",
        "value": "6179ea13ad1a790b7af75251"
      } ],
      "name": [ {
        "family": "DenExcl2Fail",
        "given": [ "PxExclStartsBeforeEndsBeforeED" ]
      } ],
      "gender": "female",
      "birthDate": "1985-12-02"
    },
    "request": {
      "method": "PUT",
      "url": "Patient/6484a0f5-3f9c-4df9-94b3-2f5c9b95638a"
    }
  }, {
    "fullUrl": "https://madie.cms.gov/Encounter/ed73386f-59e0-4967-b55e-bc8f3b8c8082",
    "resource": {
      "resourceType": "Encounter",
      "id": "ed73386f-59e0-4967-b55e-bc8f3b8c8082",
      "meta": {
        "profile": [ "http://hl7.org/fhir/us/qicore/StructureDefinition/qicore-encounter" ]
      },
      "status": "finished",
      "class": {
        "system": "http://terminology.hl7.org/CodeSystem/v3-ActCode",
        "code": "EMER",
        "display": "emergency",
        "userSelected": true
      },
      "type": [ {
        "coding": [ {
          "system": "http://snomed.info/sct",
          "version": "2020-09",
          "code": "4525004",
          "display": "Emergency department patient visit (procedure)",
          "userSelected": true
        } ]
      } ],
      "subject": {
        "reference": "Patient/6484a0f5-3f9c-4df9-94b3-2f5c9b95638a"
      },
      "period": {
        "start": "2026-10-09T08:05:00.000+00:00",
        "end": "2026-10-10T07:15:00.000+00:00"
      }
    },
    "request": {
      "method": "PUT",
      "url": "Encounter/ed73386f-59e0-4967-b55e-bc8f3b8c8082"
    }
  }, {
    "fullUrl": "https://madie.cms.gov/Condition/85b4a92d-1c22-4199-a364-4964dd354ae6",
    "resource": {
      "resourceType": "Condition",
      "id": "85b4a92d-1c22-4199-a364-4964dd354ae6",
      "meta": {
        "profile": [ "http://hl7.org/fhir/us/qicore/StructureDefinition/qicore-condition" ]
      },
      "clinicalStatus": {
        "coding": [ {
          "system": "http://terminology.hl7.org/CodeSystem/condition-clinical",
          "code": "active",
          "display": "active",
          "userSelected": true
        } ]
      },
      "category": [ {
        "coding": [ {
          "system": "http://terminology.hl7.org/CodeSystem/condition-category",
          "code": "encounter-diagnosis",
          "display": "Encounter Diagnosis",
          "userSelected": true
        } ]
      } ],
      "code": {
        "coding": [ {
          "system": "http://snomed.info/sct",
          "version": "2020-09",
          "code": "401303003",
          "display": "Acute ST segment elevation myocardial infarction (disorder)",
          "userSelected": true
        } ]
      },
      "subject": {
        "reference": "Patient/6484a0f5-3f9c-4df9-94b3-2f5c9b95638a"
      },
      "onsetDateTime": "2026-10-09T08:30:00.000+00:00"
    },
    "request": {
      "method": "PUT",
      "url": "Condition/85b4a92d-1c22-4199-a364-4964dd354ae6"
    }
  }, {
    "fullUrl": "https://madie.cms.gov/Procedure/8c7ee8aa-9839-4b28-9c8d-1882da4f05c4",
    "resource": {
      "resourceType": "Procedure",
      "id": "8c7ee8aa-9839-4b28-9c8d-1882da4f05c4",
      "meta": {
        "profile": [ "http://hl7.org/fhir/us/qicore/StructureDefinition/qicore-procedure" ]
      },
      "extension": [ {
        "url": "http://hl7.org/fhir/us/qicore/StructureDefinition/qicore-recorded",
        "valueDateTime": "2026-10-02T09:15:00.000+00:00"
      } ],
      "status": "completed",
      "category": {
        "coding": [ {
          "system": "http://snomed.info/sct",
          "code": "387713003",
          "display": "Surgical procedure",
          "userSelected": true
        } ]
      },
      "code": {
        "coding": [ {
          "system": "http://www.icd10data.com/icd10pcs",
          "code": "5A1955Z",
          "userSelected": true
        } ]
      },
      "subject": {
        "reference": "Patient/6484a0f5-3f9c-4df9-94b3-2f5c9b95638a"
      },
      "performedPeriod": {
        "start": "2026-10-01T13:15:00.000+00:00",
        "end": "2026-10-02T09:15:00.000+00:00"
      }
    },
    "request": {
      "method": "PUT",
      "url": "Procedure/8c7ee8aa-9839-4b28-9c8d-1882da4f05c4"
    }
  }, {
    "fullUrl": "https://madie.cms.gov/MeasureReport/ea176d29-c1f2-4bd6-8f1f-cfcdd3bdac5f",
    "resource": {
      "resourceType": "MeasureReport",
      "id": "ea176d29-c1f2-4bd6-8f1f-cfcdd3bdac5f",
      "meta": {
        "profile": [ "http://hl7.org/fhir/us/cqfmeasures/StructureDefinition/test-case-cqfm" ]
      },
      "contained": [ {
        "resourceType": "Parameters",
        "id": "ae465f75-61cc-46bc-9dae-38c502d01d68-parameters",
        "parameter": [ {
          "name": "subject",
          "valueString": "6484a0f5-3f9c-4df9-94b3-2f5c9b95638a"
        } ]
      } ],
      "extension": [ {
        "url": "http://hl7.org/fhir/us/cqfmeasures/StructureDefinition/cqfm-inputParameters",
        "valueReference": {
          "reference": "#ae465f75-61cc-46bc-9dae-38c502d01d68-parameters"
        }
      }, {
        "url": "http://hl7.org/fhir/us/cqfmeasures/StructureDefinition/cqfm-testCaseDescription",
        "valueMarkdown": "Patient has endotracheal intubation (exclusion procedure) that starts before and ends before the ED encounter"
      } ],
      "modifierExtension": [ {
        "url": "http://hl7.org/fhir/us/cqfmeasures/StructureDefinition/cqfm-isTestCase",
        "valueBoolean": true
      } ],
      "status": "complete",
      "type": "individual",
      "measure": "https://madie.cms.gov/Measure/CMS996FHIRAptTxforSTEMI",
      "period": {
        "start": "2026-01-01",
        "end": "2026-12-31"
      },
      "group": [ {
        "population": [ {
          "code": {
            "coding": [ {
              "system": "http://terminology.hl7.org/CodeSystem/measure-population",
              "code": "initial-population",
              "display": "Initial Population"
            } ]
          },
          "count": 1
        }, {
          "code": {
            "coding": [ {
              "system": "http://terminology.hl7.org/CodeSystem/measure-population",
              "code": "denominator",
              "display": "Denominator"
            } ]
          },
          "count": 1
        }, {
          "code": {
            "coding": [ {
              "system": "http://terminology.hl7.org/CodeSystem/measure-population",
              "code": "denominator-exclusion",
              "display": "Denominator Exclusion"
            } ]
          },
          "count": 0
        }, {
          "code": {
            "coding": [ {
              "system": "http://terminology.hl7.org/CodeSystem/measure-population",
              "code": "numerator",
              "display": "Numerator"
            } ]
          },
          "count": 0
        }, {
          "code": {
            "coding": [ {
              "system": "http://terminology.hl7.org/CodeSystem/measure-population",
              "code": "denominator-exception",
              "display": "Denominator Exception"
            } ]
          },
          "count": 0
        } ]
      } ],
      "evaluatedResource": [ {
        "reference": "Patient/6484a0f5-3f9c-4df9-94b3-2f5c9b95638a"
      }, {
        "reference": "Encounter/ed73386f-59e0-4967-b55e-bc8f3b8c8082"
      }, {
        "reference": "Condition/85b4a92d-1c22-4199-a364-4964dd354ae6"
      }, {
        "reference": "Procedure/8c7ee8aa-9839-4b28-9c8d-1882da4f05c4"
      } ]
    },
    "request": {
      "method": "PUT",
      "url": "MeasureReport/ea176d29-c1f2-4bd6-8f1f-cfcdd3bdac5f"
    }
  } ]
}