{"resourceType":"Bundle","id":"tests-9f77830b-ff7c-4060-bf38-295b215ab56d-bundle","type":"transaction","entry":[{"fullUrl":"https://madie.cms.gov/Patient/9f77830b-ff7c-4060-bf38-295b215ab56d","resource":{"resourceType":"Patient","id":"9f77830b-ff7c-4060-bf38-295b215ab56d","meta":{"profile":["http://hl7.org/fhir/us/qicore/StructureDefinition/qicore-patient"]},"extension":[{"url":"http://hl7.org/fhir/us/core/StructureDefinition/us-core-race","extension":[{"url":"ombCategory","valueCoding":{"system":"urn:oid:2.16.840.1.113883.6.238","code":"1002-5","display":"American Indian or Alaska Native","userSelected":true}},{"url":"text","valueString":"American Indian or Alaska Native"}]},{"url":"http://hl7.org/fhir/us/core/StructureDefinition/us-core-ethnicity","extension":[{"url":"ombCategory","valueCoding":{"system":"urn:oid:2.16.840.1.113883.6.238","code":"2135-2","display":"Hispanic or Latino","userSelected":true}},{"url":"text","valueString":"Hispanic or Latino"}]}],"identifier":[{"type":{"coding":[{"system":"http://terminology.hl7.org/CodeSystem/v2-0203","code":"MR"}]},"system":"https://bonnie-fhir.healthit.gov/","value":"661476b015ed5841a5547ebf"}],"name":[{"family":"NUMERStrat4Pass","given":["EDLOS481MinutesLastDayMP"]}],"gender":"male","birthDate":"2007-01-01"},"request":{"method":"PUT","url":"Patient/9f77830b-ff7c-4060-bf38-295b215ab56d"}},{"fullUrl":"https://madie.cms.gov/Encounter/949b59a1-3ee1-4b5e-92d9-d0e3cc0c65ee","resource":{"resourceType":"Encounter","id":"949b59a1-3ee1-4b5e-92d9-d0e3cc0c65ee","meta":{"profile":["http://hl7.org/fhir/us/qicore/StructureDefinition/qicore-encounter"]},"status":"finished","class":{"system":"http://terminology.hl7.org/CodeSystem/v3-ActCode","code":"EMER","display":"emergency department"},"type":[{"coding":[{"system":"http://snomed.info/sct","version":"2023-09","code":"4525004","display":"Emergency department patient visit (procedure)","userSelected":true}]}],"subject":{"reference":"Patient/9f77830b-ff7c-4060-bf38-295b215ab56d"},"period":{"start":"2026-01-01T06:00:00.000+00:00","end":"2026-01-01T14:01:00.000+00:00"},"diagnosis":[{"condition":{"reference":"Condition/82514f33-f3fd-4854-87d6-9bcee6e02dba"},"use":{"coding":[{"system":"http://terminology.hl7.org/CodeSystem/diagnosis-role","code":"billing"}]},"rank":1}],"location":[{"location":{"reference":"Location/34fa4130-fa43-44cb-a263-9bfff6a6d470"},"period":{"start":"2026-01-01T06:00:00.000+00:00","end":"2026-01-01T14:01:00.000+00:00"}}]},"request":{"method":"PUT","url":"Encounter/949b59a1-3ee1-4b5e-92d9-d0e3cc0c65ee"}},{"fullUrl":"https://madie.cms.gov/Location/34fa4130-fa43-44cb-a263-9bfff6a6d470","resource":{"resourceType":"Location","id":"34fa4130-fa43-44cb-a263-9bfff6a6d470","meta":{"profile":["http://hl7.org/fhir/us/qicore/StructureDefinition/qicore-location"]},"identifier":[{"use":"usual","system":"http://exampleoflocation.com","value":"B1-S.F2"}],"name":"Medical Surgical East, first floor","type":[{"coding":[{"system":"https://www.cdc.gov/nhsn/cdaportal/terminology/codesystem/hsloc.html","version":"2022","code":"1108-0","display":"Emergency Department","userSelected":true}]}]},"request":{"method":"PUT","url":"Location/34fa4130-fa43-44cb-a263-9bfff6a6d470"}},{"fullUrl":"https://madie.cms.gov/Condition/82514f33-f3fd-4854-87d6-9bcee6e02dba","resource":{"resourceType":"Condition","id":"82514f33-f3fd-4854-87d6-9bcee6e02dba","meta":{"profile":["http://hl7.org/fhir/us/qicore/StructureDefinition/qicore-condition"]},"category":[{"coding":[{"system":"http://terminology.hl7.org/CodeSystem/condition-category","code":"encounter-diagnosis","display":"Encounter Diagnosis"}]}],"code":{"coding":[{"system":"http://snomed.info/sct","version":"2023-09","code":"10349009","display":"Multi-infarct dementia with delirium (disorder)","userSelected":true}]},"subject":{"reference":"Patient/9f77830b-ff7c-4060-bf38-295b215ab56d"},"recordedDate":"2026-04-09T08:00:00.000+00:00"},"request":{"method":"PUT","url":"Condition/82514f33-f3fd-4854-87d6-9bcee6e02dba"}},{"fullUrl":"https://madie.cms.gov/Coverage/3171ed17-8ef0-4a0d-9a9a-28e31d0eff23","resource":{"resourceType":"Coverage","id":"3171ed17-8ef0-4a0d-9a9a-28e31d0eff23","meta":{"profile":["http://hl7.org/fhir/us/qicore/StructureDefinition/qicore-coverage"]},"status":"active","beneficiary":{"reference":"Patient/9f77830b-ff7c-4060-bf38-295b215ab56d"},"payor":[{"reference":"Organization/4da248b0-6e59-49b7-b80e-338aa21d299f"}]},"request":{"method":"PUT","url":"Coverage/3171ed17-8ef0-4a0d-9a9a-28e31d0eff23"}},{"fullUrl":"https://madie.cms.gov/Organization/145f6db9-404e-4478-a56f-bdcca22e3853","resource":{"resourceType":"Organization","id":"4da248b0-6e59-49b7-b80e-338aa21d299f","meta":{"profile":["http://hl7.org/fhir/us/qicore/StructureDefinition/qicore-organization"]},"identifier":[{"use":"temp","system":"urn:oid:2.16.840.1.113883.4.4","value":"21-3259825"}],"active":true,"type":[{"coding":[{"system":"http://terminology.hl7.org/CodeSystem/organization-type","code":"pay","display":"Payer"}]}],"name":"Blue Cross Blue Shield of Texas","telecom":[{"system":"phone","value":"(+1) 972-766-6900"}],"address":[{"use":"billing","type":"postal","line":["P.O. Box 660044"],"city":"Dallas","state":"TX","postalCode":"75266-0044","country":"USA"}]},"request":{"method":"PUT","url":"Organization/4da248b0-6e59-49b7-b80e-338aa21d299f"}},{"fullUrl":"https://madie.cms.gov/Practitioner/677d25b2-91ce-4843-87f9-e031b62d3957","resource":{"resourceType":"Practitioner","id":"677d25b2-91ce-4843-87f9-e031b62d3957","meta":{"profile":["http://hl7.org/fhir/us/qicore/StructureDefinition/qicore-practitioner"]},"identifier":[{"system":"http://hl7.org/fhir/sid/us-npi","value":"123456"}],"name":[{"family":"Evil","prefix":["Dr"]}]},"request":{"method":"PUT","url":"Practitioner/677d25b2-91ce-4843-87f9-e031b62d3957"}},{"fullUrl":"https://madie.cms.gov/MeasureReport/08ff2c25-ed14-4c57-91ee-53d4c7ee10e5","resource":{"resourceType":"MeasureReport","id":"08ff2c25-ed14-4c57-91ee-53d4c7ee10e5","meta":{"profile":["http://hl7.org/fhir/us/cqfmeasures/StructureDefinition/test-case-cqfm"]},"contained":[{"resourceType":"Parameters","id":"d2ac48d5-575a-4b94-b882-623c16a2cde3-parameters","parameter":[{"name":"subject","valueString":"9f77830b-ff7c-4060-bf38-295b215ab56d"}]}],"extension":[{"url":"http://hl7.org/fhir/us/cqfmeasures/StructureDefinition/cqfm-inputParameters","valueReference":{"reference":"#d2ac48d5-575a-4b94-b882-623c16a2cde3-parameters"}},{"url":"http://hl7.org/fhir/us/cqfmeasures/StructureDefinition/cqfm-testCaseDescription","valueMarkdown":"Adult, age 18, ED enc, LOS 481 minutes. last day MP, pt. mental health dx"}],"modifierExtension":[{"url":"http://hl7.org/fhir/us/cqfmeasures/StructureDefinition/cqfm-isTestCase","valueBoolean":true}],"status":"complete","type":"individual","measure":"https://madie.cms.gov/Measure/CMS1244ECCQHOQRFHIR","period":{"start":"2026-01-01","end":"2026-12-31"},"group":[{"population":[{"code":{"coding":[{"system":"http://terminology.hl7.org/CodeSystem/measure-population","code":"initial-population","display":"Initial Population"}]},"count":1},{"code":{"coding":[{"system":"http://terminology.hl7.org/CodeSystem/measure-population","code":"denominator","display":"Denominator"}]},"count":1},{"code":{"coding":[{"system":"http://terminology.hl7.org/CodeSystem/measure-population","code":"numerator","display":"Numerator"}]},"count":1}]}]},"request":{"method":"PUT","url":"MeasureReport/08ff2c25-ed14-4c57-91ee-53d4c7ee10e5"}}]}