{"resourceType":"Bundle","id":"tests-c3284314-fe9b-408a-9b26-a21830f84432-bundle","type":"transaction","entry":[{"fullUrl":"https://madie.cms.gov/Patient/c3284314-fe9b-408a-9b26-a21830f84432","resource":{"resourceType":"Patient","id":"c3284314-fe9b-408a-9b26-a21830f84432","meta":{"profile":["http://hl7.org/fhir/us/qicore/StructureDefinition/qicore-patient"]},"extension":[{"url":"http://hl7.org/fhir/us/core/StructureDefinition/us-core-race","extension":[{"url":"ombCategory","valueCoding":{"system":"urn:oid:2.16.840.1.113883.6.238","code":"1002-5","display":"American Indian or Alaska Native","userSelected":true}},{"url":"text","valueString":"American Indian or Alaska Native"}]},{"url":"http://hl7.org/fhir/us/core/StructureDefinition/us-core-ethnicity","extension":[{"url":"ombCategory","valueCoding":{"system":"urn:oid:2.16.840.1.113883.6.238","code":"2135-2","display":"Hispanic or Latino","userSelected":true}},{"url":"text","valueString":"Hispanic or Latino"}]}],"identifier":[{"type":{"coding":[{"system":"http://terminology.hl7.org/CodeSystem/v2-0203","code":"MR"}]},"system":"https://bonnie-fhir.healthit.gov/","value":"661476b015ed5841a5547ebf"}],"name":[{"family":"NUMERStrat3Pass","given":["EDObsBoarded"]}],"gender":"male","birthDate":"2009-01-01"},"request":{"method":"PUT","url":"Patient/c3284314-fe9b-408a-9b26-a21830f84432"}},{"fullUrl":"https://madie.cms.gov/Encounter/385ac8c1-b4b0-4248-b146-4f0426b5f0f4","resource":{"resourceType":"Encounter","id":"385ac8c1-b4b0-4248-b146-4f0426b5f0f4","meta":{"profile":["http://hl7.org/fhir/us/qicore/StructureDefinition/qicore-encounter"]},"status":"finished","class":{"system":"http://terminology.hl7.org/CodeSystem/v3-ActCode","code":"EMER","display":"emergency department"},"type":[{"coding":[{"system":"http://snomed.info/sct","version":"2023-09","code":"4525004","display":"Emergency department patient visit (procedure)","userSelected":true}]}],"subject":{"reference":"Patient/c3284314-fe9b-408a-9b26-a21830f84432"},"period":{"start":"2026-01-01T00:00:00.000+00:00","end":"2026-01-01T06:00:00.000+00:00"},"diagnosis":[{"condition":{"reference":"Condition/non-behavioral-health-diagnosis-without-substance-use-disorders-8a64"},"use":{"coding":[{"system":"http://terminology.hl7.org/CodeSystem/diagnosis-role","code":"billing"}]},"rank":1}],"location":[{"location":{"reference":"Location/16f12aa6-05fc-407e-8c65-a11804954abd"},"period":{"start":"2026-01-01T00:00:00.000+00:00","end":"2026-01-01T06:01:00.000+00:00"}}]},"request":{"method":"PUT","url":"Encounter/385ac8c1-b4b0-4248-b146-4f0426b5f0f4"}},{"fullUrl":"https://madie.cms.gov/Encounter/d7a8990d-cebc-4406-b4dc-87219dcb708e","resource":{"resourceType":"Encounter","id":"d7a8990d-cebc-4406-b4dc-87219dcb708e","meta":{"profile":["http://hl7.org/fhir/us/qicore/StructureDefinition/qicore-encounter"]},"status":"finished","class":{"system":"http://terminology.hl7.org/CodeSystem/v3-ActCode","code":"IMP","display":"inpatient encounter"},"type":[{"coding":[{"system":"http://snomed.info/sct","version":"2023-09","code":"183452005","display":"Emergency hospital admission (procedure)","userSelected":true}]}],"subject":{"reference":"Patient/c3284314-fe9b-408a-9b26-a21830f84432"},"period":{"start":"2026-01-01T05:00:00.000+00:00","end":"2026-01-03T06:15:00.000+00:00"}},"request":{"method":"PUT","url":"Encounter/d7a8990d-cebc-4406-b4dc-87219dcb708e"}},{"fullUrl":"https://madie.cms.gov/ServiceRequest/2954c100-e232-4168-bea8-d8569293b9c1","resource":{"resourceType":"ServiceRequest","id":"2954c100-e232-4168-bea8-d8569293b9c1","meta":{"profile":["http://hl7.org/fhir/us/qicore/StructureDefinition/qicore-servicerequest"]},"status":"active","intent":"order","code":{"coding":[{"system":"http://snomed.info/sct","code":"5751000175101","display":"Patient bed assigned (finding)","userSelected":true}]},"subject":{"reference":"Patient/c3284314-fe9b-408a-9b26-a21830f84432"},"authoredOn":"2026-01-01T02:00:00.000+00:00"},"request":{"method":"PUT","url":"ServiceRequest/2954c100-e232-4168-bea8-d8569293b9c1"}},{"fullUrl":"https://madie.cms.gov/Location/16f12aa6-05fc-407e-8c65-a11804954abd","resource":{"resourceType":"Location","id":"16f12aa6-05fc-407e-8c65-a11804954abd","meta":{"profile":["http://hl7.org/fhir/us/qicore/StructureDefinition/qicore-location"]},"identifier":[{"use":"usual","system":"http://exampleoflocation.com","value":"B1-S.F2"}],"name":"Medical Surgical East, first floor","type":[{"coding":[{"system":"https://www.cdc.gov/nhsn/cdaportal/terminology/codesystem/hsloc.html","version":"2022","code":"1108-0","display":"Emergency Department","userSelected":true}]}]},"request":{"method":"PUT","url":"Location/16f12aa6-05fc-407e-8c65-a11804954abd"}},{"fullUrl":"https://madie.cms.gov/Coverage/8a696a5f-c8b6-40a5-95e7-89e3d527aa3a","resource":{"resourceType":"Coverage","id":"8a696a5f-c8b6-40a5-95e7-89e3d527aa3a","meta":{"profile":["http://hl7.org/fhir/us/qicore/StructureDefinition/qicore-coverage"]},"status":"active","beneficiary":{"reference":"Patient/c3284314-fe9b-408a-9b26-a21830f84432"},"payor":[{"reference":"Organization/e75793c9-fdf6-463a-8c1d-4ee44320dc25"}]},"request":{"method":"PUT","url":"Coverage/8a696a5f-c8b6-40a5-95e7-89e3d527aa3a"}},{"fullUrl":"https://madie.cms.gov/Condition/3a618b1c-1c21-4ec1-979e-4b106520a727","resource":{"resourceType":"Condition","id":"3a618b1c-1c21-4ec1-979e-4b106520a727","meta":{"profile":["http://hl7.org/fhir/us/qicore/StructureDefinition/qicore-condition"]},"category":[{"coding":[{"system":"http://terminology.hl7.org/CodeSystem/condition-category","code":"encounter-diagnosis","display":"Encounter Diagnosis"}]}],"code":{"coding":[{"system":"http://snomed.info/sct","version":"2023-09","code":"10674711000119105","display":"Acute severe exacerbation of asthma co-occurrent with allergic rhinitis (disorder)","userSelected":true}]},"subject":{"reference":"Patient/c3284314-fe9b-408a-9b26-a21830f84432"},"recordedDate":"2026-01-01T08:00:00.000+00:00"},"request":{"method":"PUT","url":"Condition/3a618b1c-1c21-4ec1-979e-4b106520a727"}},{"fullUrl":"https://madie.cms.gov/ServiceRequest/99d45c25-e0b7-4d94-8050-8ac65e7ab829","resource":{"resourceType":"ServiceRequest","id":"99d45c25-e0b7-4d94-8050-8ac65e7ab829","meta":{"profile":["http://hl7.org/fhir/us/qicore/StructureDefinition/qicore-servicerequest"]},"status":"active","intent":"order","code":{"coding":[{"system":"http://www.ama-assn.org/go/cpt","version":"2024","code":"99221","display":"Initial hospital inpatient or observation care, per day, for the evaluation and management of a patient, which requires a medically appropriate history and/or examination and straightforward or low level medical decision making. When using total time on the date of the encounter for code selection, 40 minutes must be met or exceeded.","userSelected":true}]},"subject":{"reference":"Patient/c3284314-fe9b-408a-9b26-a21830f84432"},"authoredOn":"2026-01-01T02:00:00.000+00:00"},"request":{"method":"PUT","url":"ServiceRequest/99d45c25-e0b7-4d94-8050-8ac65e7ab829"}},{"fullUrl":"https://madie.cms.gov/Organization/b3efdbec-aa86-41fc-a5e3-8d45d3c9974e","resource":{"resourceType":"Organization","id":"e75793c9-fdf6-463a-8c1d-4ee44320dc25","meta":{"profile":["http://hl7.org/fhir/us/qicore/StructureDefinition/qicore-organization"]},"identifier":[{"use":"temp","system":"urn:oid:2.16.840.1.113883.4.4","value":"21-3259825"}],"active":true,"type":[{"coding":[{"system":"http://terminology.hl7.org/CodeSystem/organization-type","code":"pay","display":"Payer"}]}],"name":"Blue Cross Blue Shield of Texas","telecom":[{"system":"phone","value":"(+1) 972-766-6900"}],"address":[{"use":"billing","type":"postal","line":["P.O. Box 660044"],"city":"Dallas","state":"TX","postalCode":"75266-0044","country":"USA"}]},"request":{"method":"PUT","url":"Organization/e75793c9-fdf6-463a-8c1d-4ee44320dc25"}},{"fullUrl":"https://madie.cms.gov/Practitioner/19d3dd3e-8f61-41ab-a811-c73e3306f217","resource":{"resourceType":"Practitioner","id":"19d3dd3e-8f61-41ab-a811-c73e3306f217","meta":{"profile":["http://hl7.org/fhir/us/qicore/StructureDefinition/qicore-practitioner"]},"identifier":[{"system":"http://hl7.org/fhir/sid/us-npi","value":"123456"}],"name":[{"family":"Evil","prefix":["Dr"]}]},"request":{"method":"PUT","url":"Practitioner/19d3dd3e-8f61-41ab-a811-c73e3306f217"}},{"fullUrl":"https://madie.cms.gov/MeasureReport/8e6a915a-ec51-47e4-8b93-65236da28dc9","resource":{"resourceType":"MeasureReport","id":"8e6a915a-ec51-47e4-8b93-65236da28dc9","meta":{"profile":["http://hl7.org/fhir/us/cqfmeasures/StructureDefinition/test-case-cqfm"]},"contained":[{"resourceType":"Parameters","id":"1eaf14f0-bd66-470b-890c-7f6127b3f752-parameters","parameter":[{"name":"subject","valueString":"c3284314-fe9b-408a-9b26-a21830f84432"}]}],"extension":[{"url":"http://hl7.org/fhir/us/cqfmeasures/StructureDefinition/cqfm-inputParameters","valueReference":{"reference":"#1eaf14f0-bd66-470b-890c-7f6127b3f752-parameters"}},{"url":"http://hl7.org/fhir/us/cqfmeasures/StructureDefinition/cqfm-testCaseDescription","valueMarkdown":"Child, ED observation order during ED enc where patient was boarded 6 hrs 1 min; Enc 8 hrs, enc departure 8 hrs 1 min. dx asthma "}],"modifierExtension":[{"url":"http://hl7.org/fhir/us/cqfmeasures/StructureDefinition/cqfm-isTestCase","valueBoolean":true}],"status":"complete","type":"individual","measure":"https://madie.cms.gov/Measure/CMS1244ECCQHOQRFHIR","period":{"start":"2026-01-01","end":"2026-12-31"},"group":[{"population":[{"code":{"coding":[{"system":"http://terminology.hl7.org/CodeSystem/measure-population","code":"initial-population","display":"Initial Population"}]},"count":1},{"code":{"coding":[{"system":"http://terminology.hl7.org/CodeSystem/measure-population","code":"denominator","display":"Denominator"}]},"count":1},{"code":{"coding":[{"system":"http://terminology.hl7.org/CodeSystem/measure-population","code":"numerator","display":"Numerator"}]},"count":0}]}]},"request":{"method":"PUT","url":"MeasureReport/8e6a915a-ec51-47e4-8b93-65236da28dc9"}}]}