{"resourceType":"Bundle","id":"tests-b312fbc9-083f-4832-8d7c-d3e64df4145b-bundle","type":"transaction","entry":[{"fullUrl":"https://madie.cms.gov/Patient/b312fbc9-083f-4832-8d7c-d3e64df4145b","resource":{"resourceType":"Patient","id":"b312fbc9-083f-4832-8d7c-d3e64df4145b","meta":{"profile":["http://hl7.org/fhir/us/qicore/StructureDefinition/qicore-patient"]},"extension":[{"url":"http://hl7.org/fhir/us/core/StructureDefinition/us-core-race","extension":[{"url":"ombCategory","valueCoding":{"system":"urn:oid:2.16.840.1.113883.6.238","code":"1002-5","display":"American Indian or Alaska Native","userSelected":true}},{"url":"text","valueString":"American Indian or Alaska Native"}]},{"url":"http://hl7.org/fhir/us/core/StructureDefinition/us-core-ethnicity","extension":[{"url":"ombCategory","valueCoding":{"system":"urn:oid:2.16.840.1.113883.6.238","code":"2135-2","display":"Hispanic or Latino","userSelected":true}},{"url":"text","valueString":"Hispanic or Latino"}]}],"identifier":[{"type":{"coding":[{"system":"http://terminology.hl7.org/CodeSystem/v2-0203","code":"MR"}]},"system":"https://bonnie-fhir.healthit.gov/","value":"661476b015ed5841a5547ebf"}],"name":[{"family":"NUMERStrat4Pass","given":["BedAssignment"]}],"gender":"male","birthDate":"2008-01-01"},"request":{"method":"PUT","url":"Patient/b312fbc9-083f-4832-8d7c-d3e64df4145b"}},{"fullUrl":"https://madie.cms.gov/Encounter/2fcfd1dc-6276-4188-bcd7-f07769a92936","resource":{"resourceType":"Encounter","id":"2fcfd1dc-6276-4188-bcd7-f07769a92936","meta":{"profile":["http://hl7.org/fhir/us/qicore/StructureDefinition/qicore-encounter"]},"status":"finished","class":{"system":"http://terminology.hl7.org/CodeSystem/v3-ActCode","code":"EMER","display":"emergency department"},"type":[{"coding":[{"system":"http://snomed.info/sct","version":"2023-09","code":"4525004","display":"Emergency department patient visit (procedure)","userSelected":true}]}],"subject":{"reference":"Patient/b312fbc9-083f-4832-8d7c-d3e64df4145b"},"period":{"start":"2026-01-01T00:00:00.000+00:00","end":"2026-01-01T06:00:00.000+00:00"},"diagnosis":[{"condition":{"reference":"Condition/339e803e-e06e-40aa-965f-f423e0b780f5"},"use":{"coding":[{"system":"http://terminology.hl7.org/CodeSystem/diagnosis-role","code":"billing"}]},"rank":1}],"location":[{"location":{"reference":"Location/9e851431-da75-4d41-a767-f420550ff625"},"period":{"start":"2026-01-01T00:00:00.000+00:00","end":"2026-01-01T06:01:00.000+00:00"}}]},"request":{"method":"PUT","url":"Encounter/2fcfd1dc-6276-4188-bcd7-f07769a92936"}},{"fullUrl":"https://madie.cms.gov/Encounter/63ff1736-a2ff-4289-a020-7a68b3123fb1","resource":{"resourceType":"Encounter","id":"63ff1736-a2ff-4289-a020-7a68b3123fb1","meta":{"profile":["http://hl7.org/fhir/us/qicore/StructureDefinition/qicore-encounter"]},"status":"finished","class":{"system":"http://terminology.hl7.org/CodeSystem/v3-ActCode","code":"IMP","display":"inpatient encounter"},"type":[{"coding":[{"system":"http://snomed.info/sct","version":"2023-09","code":"183452005","display":"Emergency hospital admission (procedure)","userSelected":true}]}],"subject":{"reference":"Patient/b312fbc9-083f-4832-8d7c-d3e64df4145b"},"period":{"start":"2026-01-01T05:00:00.000+00:00","end":"2026-01-03T06:15:00.000+00:00"}},"request":{"method":"PUT","url":"Encounter/63ff1736-a2ff-4289-a020-7a68b3123fb1"}},{"fullUrl":"https://madie.cms.gov/ServiceRequest/9db7e38e-7840-487a-9f6e-31e3f48a8c0b","resource":{"resourceType":"ServiceRequest","id":"9db7e38e-7840-487a-9f6e-31e3f48a8c0b","meta":{"profile":["http://hl7.org/fhir/us/qicore/StructureDefinition/qicore-servicerequest"]},"status":"active","intent":"order","code":{"coding":[{"system":"http://snomed.info/sct","code":"5751000175101","display":"Patient bed assigned (finding)","userSelected":true}]},"subject":{"reference":"Patient/b312fbc9-083f-4832-8d7c-d3e64df4145b"},"authoredOn":"2026-01-01T02:00:00.000+00:00"},"request":{"method":"PUT","url":"ServiceRequest/9db7e38e-7840-487a-9f6e-31e3f48a8c0b"}},{"fullUrl":"https://madie.cms.gov/Location/9e851431-da75-4d41-a767-f420550ff625","resource":{"resourceType":"Location","id":"9e851431-da75-4d41-a767-f420550ff625","meta":{"profile":["http://hl7.org/fhir/us/qicore/StructureDefinition/qicore-location"]},"identifier":[{"use":"usual","system":"http://exampleoflocation.com","value":"B1-S.F2"}],"name":"Medical Surgical East, first floor","type":[{"coding":[{"system":"https://www.cdc.gov/nhsn/cdaportal/terminology/codesystem/hsloc.html","version":"2022","code":"1108-0","display":"Emergency Department","userSelected":true}]}]},"request":{"method":"PUT","url":"Location/9e851431-da75-4d41-a767-f420550ff625"}},{"fullUrl":"https://madie.cms.gov/Coverage/dc1c23c1-f341-4bf6-b581-14ca42fd33d9","resource":{"resourceType":"Coverage","id":"dc1c23c1-f341-4bf6-b581-14ca42fd33d9","meta":{"profile":["http://hl7.org/fhir/us/qicore/StructureDefinition/qicore-coverage"]},"status":"active","beneficiary":{"reference":"Patient/b312fbc9-083f-4832-8d7c-d3e64df4145b"},"payor":[{"reference":"Organization/db141f66-a1cc-407b-9e95-adac27adee14"}]},"request":{"method":"PUT","url":"Coverage/dc1c23c1-f341-4bf6-b581-14ca42fd33d9"}},{"fullUrl":"https://madie.cms.gov/Condition/339e803e-e06e-40aa-965f-f423e0b780f5","resource":{"resourceType":"Condition","id":"339e803e-e06e-40aa-965f-f423e0b780f5","meta":{"profile":["http://hl7.org/fhir/us/qicore/StructureDefinition/qicore-condition"]},"category":[{"coding":[{"system":"http://terminology.hl7.org/CodeSystem/condition-category","code":"encounter-diagnosis","display":"Encounter Diagnosis"}]}],"code":{"coding":[{"system":"http://snomed.info/sct","version":"2023-09","code":"10349009","display":"Multi-infarct dementia with delirium (disorder)","userSelected":true}]},"subject":{"reference":"Patient/b312fbc9-083f-4832-8d7c-d3e64df4145b"},"recordedDate":"2026-01-01T08:00:00.000+00:00"},"request":{"method":"PUT","url":"Condition/339e803e-e06e-40aa-965f-f423e0b780f5"}},{"fullUrl":"https://madie.cms.gov/Organization/1b535e71-7615-4956-8d16-0f0e25c66abf","resource":{"resourceType":"Organization","id":"db141f66-a1cc-407b-9e95-adac27adee14","meta":{"profile":["http://hl7.org/fhir/us/qicore/StructureDefinition/qicore-organization"]},"identifier":[{"use":"temp","system":"urn:oid:2.16.840.1.113883.4.4","value":"21-3259825"}],"active":true,"type":[{"coding":[{"system":"http://terminology.hl7.org/CodeSystem/organization-type","code":"pay","display":"Payer"}]}],"name":"Blue Cross Blue Shield of Texas","telecom":[{"system":"phone","value":"(+1) 972-766-6900"}],"address":[{"use":"billing","type":"postal","line":["P.O. Box 660044"],"city":"Dallas","state":"TX","postalCode":"75266-0044","country":"USA"}]},"request":{"method":"PUT","url":"Organization/db141f66-a1cc-407b-9e95-adac27adee14"}},{"fullUrl":"https://madie.cms.gov/Practitioner/8f2b67f9-39f6-4855-9db3-f174a936cfef","resource":{"resourceType":"Practitioner","id":"8f2b67f9-39f6-4855-9db3-f174a936cfef","meta":{"profile":["http://hl7.org/fhir/us/qicore/StructureDefinition/qicore-practitioner"]},"identifier":[{"system":"http://hl7.org/fhir/sid/us-npi","value":"123456"}],"name":[{"family":"Evil","prefix":["Dr"]}]},"request":{"method":"PUT","url":"Practitioner/8f2b67f9-39f6-4855-9db3-f174a936cfef"}},{"fullUrl":"https://madie.cms.gov/MeasureReport/8da2c626-96ee-448e-af64-003ef81ea12d","resource":{"resourceType":"MeasureReport","id":"8da2c626-96ee-448e-af64-003ef81ea12d","meta":{"profile":["http://hl7.org/fhir/us/cqfmeasures/StructureDefinition/test-case-cqfm"]},"contained":[{"resourceType":"Parameters","id":"47b1a9b4-d977-491b-8948-9b32e2e9c477-parameters","parameter":[{"name":"subject","valueString":"b312fbc9-083f-4832-8d7c-d3e64df4145b"}]}],"extension":[{"url":"http://hl7.org/fhir/us/cqfmeasures/StructureDefinition/cqfm-inputParameters","valueReference":{"reference":"#47b1a9b4-d977-491b-8948-9b32e2e9c477-parameters"}},{"url":"http://hl7.org/fhir/us/cqfmeasures/StructureDefinition/cqfm-testCaseDescription","valueMarkdown":"Adult, age 18,  ED enc first minute of MP,  bed assignment 241 mins before ED departure with behavioral health disorder"}],"modifierExtension":[{"url":"http://hl7.org/fhir/us/cqfmeasures/StructureDefinition/cqfm-isTestCase","valueBoolean":true}],"status":"complete","type":"individual","measure":"https://madie.cms.gov/Measure/CMS1244ECCQHOQRFHIR","period":{"start":"2026-01-01","end":"2026-12-31"},"group":[{"population":[{"code":{"coding":[{"system":"http://terminology.hl7.org/CodeSystem/measure-population","code":"initial-population","display":"Initial Population"}]},"count":1},{"code":{"coding":[{"system":"http://terminology.hl7.org/CodeSystem/measure-population","code":"denominator","display":"Denominator"}]},"count":1},{"code":{"coding":[{"system":"http://terminology.hl7.org/CodeSystem/measure-population","code":"numerator","display":"Numerator"}]},"count":1}]}]},"request":{"method":"PUT","url":"MeasureReport/8da2c626-96ee-448e-af64-003ef81ea12d"}}]}