{"resourceType":"Bundle","id":"tests-77bbd0e5-2a32-49f7-bddc-f079dfeadbb4-bundle","type":"transaction","entry":[{"fullUrl":"https://madie.cms.gov/Patient/77bbd0e5-2a32-49f7-bddc-f079dfeadbb4","resource":{"resourceType":"Patient","id":"77bbd0e5-2a32-49f7-bddc-f079dfeadbb4","meta":{"profile":["http://hl7.org/fhir/us/qicore/StructureDefinition/qicore-patient"]},"extension":[{"url":"http://hl7.org/fhir/us/core/StructureDefinition/us-core-race","extension":[{"url":"ombCategory","valueCoding":{"system":"urn:oid:2.16.840.1.113883.6.238","code":"1002-5","display":"American Indian or Alaska Native","userSelected":true}},{"url":"text","valueString":"American Indian or Alaska Native"}]},{"url":"http://hl7.org/fhir/us/core/StructureDefinition/us-core-ethnicity","extension":[{"url":"ombCategory","valueCoding":{"system":"urn:oid:2.16.840.1.113883.6.238","code":"2135-2","display":"Hispanic or Latino","userSelected":true}},{"url":"text","valueString":"Hispanic or Latino"}]}],"identifier":[{"type":{"coding":[{"system":"http://terminology.hl7.org/CodeSystem/v2-0203","code":"MR"}]},"system":"https://bonnie-fhir.healthit.gov/","value":"661476b015ed5841a5547ebf"}],"name":[{"family":"NUMERStrat1Pass","given":["AdmitInpatientPerformedBoardedTimeGreater240Min"]}],"gender":"male","birthDate":"2010-01-01"},"request":{"method":"PUT","url":"Patient/77bbd0e5-2a32-49f7-bddc-f079dfeadbb4"}},{"fullUrl":"https://madie.cms.gov/Encounter/17790b10-0c5f-439f-abb1-939ec2c18183","resource":{"resourceType":"Encounter","id":"17790b10-0c5f-439f-abb1-939ec2c18183","meta":{"profile":["http://hl7.org/fhir/us/qicore/StructureDefinition/qicore-encounter"]},"status":"finished","class":{"system":"http://terminology.hl7.org/CodeSystem/v3-ActCode","code":"IMP","display":"inpatient encounter"},"type":[{"coding":[{"system":"http://snomed.info/sct","version":"2023-09","code":"4525004","display":"Emergency department patient visit (procedure)","userSelected":true}]}],"subject":{"reference":"Patient/77bbd0e5-2a32-49f7-bddc-f079dfeadbb4"},"period":{"start":"2026-01-01T06:00:00.000+00:00","end":"2026-01-01T13:15:00.000+00:00"},"diagnosis":[{"condition":{"reference":"Condition/1b8831d5-35ca-4a02-861f-27c6a5f0e120"},"use":{"coding":[{"system":"http://terminology.hl7.org/CodeSystem/diagnosis-role","code":"billing"}]},"rank":1}],"location":[{"location":{"reference":"Location/9b897b16-9840-4533-863a-993479b5a0e4"},"period":{"start":"2026-01-01T06:00:00.000+00:00","end":"2026-01-01T13:15:00.000+00:00"}}]},"request":{"method":"PUT","url":"Encounter/17790b10-0c5f-439f-abb1-939ec2c18183"}},{"fullUrl":"https://madie.cms.gov/Encounter/1aa2e2c3-d964-42f6-8c1f-37dade0ad7d4","resource":{"resourceType":"Encounter","id":"1aa2e2c3-d964-42f6-8c1f-37dade0ad7d4","meta":{"profile":["http://hl7.org/fhir/us/qicore/StructureDefinition/qicore-encounter"]},"status":"finished","class":{"system":"http://terminology.hl7.org/CodeSystem/v3-ActCode","code":"IMP","display":"inpatient encounter"},"type":[{"coding":[{"system":"http://snomed.info/sct","version":"2023-09","code":"183452005","display":"Emergency hospital admission (procedure)","userSelected":true}]}],"subject":{"reference":"Patient/77bbd0e5-2a32-49f7-bddc-f079dfeadbb4"},"period":{"start":"2026-01-01T09:00:00.000+00:00","end":"2026-01-03T06:15:00.000+00:00"}},"request":{"method":"PUT","url":"Encounter/1aa2e2c3-d964-42f6-8c1f-37dade0ad7d4"}},{"fullUrl":"https://madie.cms.gov/Condition/1b8831d5-35ca-4a02-861f-27c6a5f0e120","resource":{"resourceType":"Condition","id":"1b8831d5-35ca-4a02-861f-27c6a5f0e120","meta":{"profile":["http://hl7.org/fhir/us/qicore/StructureDefinition/qicore-condition"]},"category":[{"coding":[{"system":"http://terminology.hl7.org/CodeSystem/condition-category","code":"encounter-diagnosis","display":"Encounter Diagnosis"}]}],"code":{"coding":[{"system":"http://snomed.info/sct","version":"2023-09","code":"10660471000119109","display":"Ulcer of left foot due to type 2 diabetes mellitus (disorder)","userSelected":true}]},"subject":{"reference":"Patient/77bbd0e5-2a32-49f7-bddc-f079dfeadbb4"},"recordedDate":"2026-01-01T08:00:00.000+00:00"},"request":{"method":"PUT","url":"Condition/1b8831d5-35ca-4a02-861f-27c6a5f0e120"}},{"fullUrl":"https://madie.cms.gov/Location/9b897b16-9840-4533-863a-993479b5a0e4","resource":{"resourceType":"Location","id":"9b897b16-9840-4533-863a-993479b5a0e4","meta":{"profile":["http://hl7.org/fhir/us/qicore/StructureDefinition/qicore-location"]},"identifier":[{"use":"usual","system":"http://exampleoflocation.com","value":"B1-S.F2"}],"name":"Medical Surgical East, first floor","type":[{"coding":[{"system":"https://www.cdc.gov/nhsn/cdaportal/terminology/codesystem/hsloc.html","version":"2022","code":"1108-0","display":"Emergency Department","userSelected":true}]}]},"request":{"method":"PUT","url":"Location/9b897b16-9840-4533-863a-993479b5a0e4"}},{"fullUrl":"https://madie.cms.gov/Coverage/01ea5633-6474-40a3-b17d-cf53ef566ab9","resource":{"resourceType":"Coverage","id":"01ea5633-6474-40a3-b17d-cf53ef566ab9","meta":{"profile":["http://hl7.org/fhir/us/qicore/StructureDefinition/qicore-coverage"]},"status":"active","beneficiary":{"reference":"Patient/77bbd0e5-2a32-49f7-bddc-f079dfeadbb4"},"payor":[{"reference":"Organization/4da248b0-6e59-49b7-b80e-338aa21d299f"}]},"request":{"method":"PUT","url":"Coverage/01ea5633-6474-40a3-b17d-cf53ef566ab9"}},{"fullUrl":"https://madie.cms.gov/Organization/729a530f-d75c-436e-b960-512d30074d74","resource":{"resourceType":"Organization","id":"4da248b0-6e59-49b7-b80e-338aa21d299f","meta":{"profile":["http://hl7.org/fhir/us/qicore/StructureDefinition/qicore-organization"]},"identifier":[{"use":"temp","system":"urn:oid:2.16.840.1.113883.4.4","value":"21-3259825"}],"active":true,"type":[{"coding":[{"system":"http://terminology.hl7.org/CodeSystem/organization-type","code":"pay","display":"Payer"}]}],"name":"Blue Cross Blue Shield of Texas","telecom":[{"system":"phone","value":"(+1) 972-766-6900"}],"address":[{"use":"billing","type":"postal","line":["P.O. Box 660044"],"city":"Dallas","state":"TX","postalCode":"75266-0044","country":"USA"}]},"request":{"method":"PUT","url":"Organization/4da248b0-6e59-49b7-b80e-338aa21d299f"}},{"fullUrl":"https://madie.cms.gov/Practitioner/0861cd35-b279-4d22-bd70-dc8ffbe73612","resource":{"resourceType":"Practitioner","id":"0861cd35-b279-4d22-bd70-dc8ffbe73612","meta":{"profile":["http://hl7.org/fhir/us/qicore/StructureDefinition/qicore-practitioner"]},"identifier":[{"system":"http://hl7.org/fhir/sid/us-npi","value":"123456"}],"name":[{"family":"Evil","prefix":["Dr"]}]},"request":{"method":"PUT","url":"Practitioner/0861cd35-b279-4d22-bd70-dc8ffbe73612"}},{"fullUrl":"https://madie.cms.gov/MeasureReport/265aca96-6259-4d0a-b1ab-b3708efc20f3","resource":{"resourceType":"MeasureReport","id":"265aca96-6259-4d0a-b1ab-b3708efc20f3","meta":{"profile":["http://hl7.org/fhir/us/cqfmeasures/StructureDefinition/test-case-cqfm"]},"contained":[{"resourceType":"Parameters","id":"fef5ca06-0f87-4b35-9764-98ff27d37fcc-parameters","parameter":[{"name":"subject","valueString":"77bbd0e5-2a32-49f7-bddc-f079dfeadbb4"}]}],"extension":[{"url":"http://hl7.org/fhir/us/cqfmeasures/StructureDefinition/cqfm-inputParameters","valueReference":{"reference":"#fef5ca06-0f87-4b35-9764-98ff27d37fcc-parameters"}},{"url":"http://hl7.org/fhir/us/cqfmeasures/StructureDefinition/cqfm-testCaseDescription","valueMarkdown":"Child, age 17, Admitted Inpatient (resource: encounter) Performed Boarded Time Greater 240 Min without mental illness"}],"modifierExtension":[{"url":"http://hl7.org/fhir/us/cqfmeasures/StructureDefinition/cqfm-isTestCase","valueBoolean":true}],"status":"complete","type":"individual","measure":"https://madie.cms.gov/Measure/CMS1244ECCQHOQRFHIR","period":{"start":"2026-01-01","end":"2026-12-31"},"group":[{"population":[{"code":{"coding":[{"system":"http://terminology.hl7.org/CodeSystem/measure-population","code":"initial-population","display":"Initial Population"}]},"count":1},{"code":{"coding":[{"system":"http://terminology.hl7.org/CodeSystem/measure-population","code":"denominator","display":"Denominator"}]},"count":1},{"code":{"coding":[{"system":"http://terminology.hl7.org/CodeSystem/measure-population","code":"numerator","display":"Numerator"}]},"count":1}]}]},"request":{"method":"PUT","url":"MeasureReport/265aca96-6259-4d0a-b1ab-b3708efc20f3"}}]}