{"resourceType":"Bundle","id":"tests-cc01e29c-7ebb-4876-b63a-29de550c62f9-bundle","type":"transaction","entry":[{"fullUrl":"https://madie.cms.gov/Patient/cc01e29c-7ebb-4876-b63a-29de550c62f9","resource":{"resourceType":"Patient","id":"cc01e29c-7ebb-4876-b63a-29de550c62f9","meta":{"profile":["http://hl7.org/fhir/us/qicore/StructureDefinition/qicore-patient"]},"extension":[{"url":"http://hl7.org/fhir/us/core/StructureDefinition/us-core-race","extension":[{"url":"ombCategory","valueCoding":{"system":"urn:oid:2.16.840.1.113883.6.238","code":"1002-5","display":"American Indian or Alaska Native","userSelected":true}},{"url":"text","valueString":"American Indian or Alaska Native"}]},{"url":"http://hl7.org/fhir/us/core/StructureDefinition/us-core-ethnicity","extension":[{"url":"ombCategory","valueCoding":{"system":"urn:oid:2.16.840.1.113883.6.238","code":"2135-2","display":"Hispanic or Latino","userSelected":true}},{"url":"text","valueString":"Hispanic or Latino"}]}],"identifier":[{"type":{"coding":[{"system":"http://terminology.hl7.org/CodeSystem/v2-0203","code":"MR"}]},"system":"https://bonnie-fhir.healthit.gov/","value":"661476b015ed5841a5547ebf"}],"name":[{"family":"NUMERStrat3Pass","given":["EDLOS481MinutesLastDayMP"]}],"gender":"male","birthDate":"2010-01-01"},"request":{"method":"PUT","url":"Patient/cc01e29c-7ebb-4876-b63a-29de550c62f9"}},{"fullUrl":"https://madie.cms.gov/Encounter/9e6e1628-2563-4d66-93f3-be3abc9b2dda","resource":{"resourceType":"Encounter","id":"9e6e1628-2563-4d66-93f3-be3abc9b2dda","meta":{"profile":["http://hl7.org/fhir/us/qicore/StructureDefinition/qicore-encounter"]},"status":"finished","class":{"system":"http://terminology.hl7.org/CodeSystem/v3-ActCode","code":"EMER","display":"emergency department"},"type":[{"coding":[{"system":"http://snomed.info/sct","version":"2023-09","code":"4525004","display":"Emergency department patient visit (procedure)","userSelected":true}]}],"subject":{"reference":"Patient/cc01e29c-7ebb-4876-b63a-29de550c62f9"},"period":{"start":"2026-01-01T06:00:00.000+00:00","end":"2026-01-01T14:01:00.000+00:00"},"diagnosis":[{"condition":{"reference":"Condition/a5d52c24-86ac-4618-8e8d-cabf30abdc9b"},"use":{"coding":[{"system":"http://terminology.hl7.org/CodeSystem/diagnosis-role","code":"billing"}]},"rank":1}],"location":[{"location":{"reference":"Location/083ec435-39e6-48c5-a5df-40e746634503"},"period":{"start":"2026-01-01T06:00:00.000+00:00","end":"2026-01-01T14:01:00.000+00:00"}}]},"request":{"method":"PUT","url":"Encounter/9e6e1628-2563-4d66-93f3-be3abc9b2dda"}},{"fullUrl":"https://madie.cms.gov/Location/083ec435-39e6-48c5-a5df-40e746634503","resource":{"resourceType":"Location","id":"083ec435-39e6-48c5-a5df-40e746634503","meta":{"profile":["http://hl7.org/fhir/us/qicore/StructureDefinition/qicore-location"]},"identifier":[{"use":"usual","system":"http://exampleoflocation.com","value":"B1-S.F2"}],"name":"Medical Surgical East, first floor","type":[{"coding":[{"system":"https://www.cdc.gov/nhsn/cdaportal/terminology/codesystem/hsloc.html","version":"2022","code":"1108-0","display":"Emergency Department","userSelected":true}]}]},"request":{"method":"PUT","url":"Location/083ec435-39e6-48c5-a5df-40e746634503"}},{"fullUrl":"https://madie.cms.gov/Condition/a5d52c24-86ac-4618-8e8d-cabf30abdc9b","resource":{"resourceType":"Condition","id":"a5d52c24-86ac-4618-8e8d-cabf30abdc9b","meta":{"profile":["http://hl7.org/fhir/us/qicore/StructureDefinition/qicore-condition"]},"category":[{"coding":[{"system":"http://terminology.hl7.org/CodeSystem/condition-category","code":"encounter-diagnosis","display":"Encounter Diagnosis"}]}],"code":{"coding":[{"system":"http://snomed.info/sct","version":"2023-09","code":"10349009","display":"Multi-infarct dementia with delirium (disorder)","userSelected":true}]},"subject":{"reference":"Patient/cc01e29c-7ebb-4876-b63a-29de550c62f9"},"recordedDate":"2026-04-09T08:00:00.000+00:00"},"request":{"method":"PUT","url":"Condition/a5d52c24-86ac-4618-8e8d-cabf30abdc9b"}},{"fullUrl":"https://madie.cms.gov/Coverage/b6fe9dd7-a731-43c5-9549-846c0d5a9862","resource":{"resourceType":"Coverage","id":"b6fe9dd7-a731-43c5-9549-846c0d5a9862","meta":{"profile":["http://hl7.org/fhir/us/qicore/StructureDefinition/qicore-coverage"]},"status":"active","beneficiary":{"reference":"Patient/cc01e29c-7ebb-4876-b63a-29de550c62f9"},"payor":[{"reference":"Organization/f4907415-83c5-4eae-ab0b-cb63a840880d"}]},"request":{"method":"PUT","url":"Coverage/b6fe9dd7-a731-43c5-9549-846c0d5a9862"}},{"fullUrl":"https://madie.cms.gov/Organization/9444dbf8-3616-4bd9-8cc5-2aa59ebb4bc5","resource":{"resourceType":"Organization","id":"f4907415-83c5-4eae-ab0b-cb63a840880d","meta":{"profile":["http://hl7.org/fhir/us/qicore/StructureDefinition/qicore-organization"]},"identifier":[{"use":"temp","system":"urn:oid:2.16.840.1.113883.4.4","value":"21-3259825"}],"active":true,"type":[{"coding":[{"system":"http://terminology.hl7.org/CodeSystem/organization-type","code":"pay","display":"Payer"}]}],"name":"Blue Cross Blue Shield of Texas","telecom":[{"system":"phone","value":"(+1) 972-766-6900"}],"address":[{"use":"billing","type":"postal","line":["P.O. Box 660044"],"city":"Dallas","state":"TX","postalCode":"75266-0044","country":"USA"}]},"request":{"method":"PUT","url":"Organization/f4907415-83c5-4eae-ab0b-cb63a840880d"}},{"fullUrl":"https://madie.cms.gov/Practitioner/7092f181-c92a-4cab-83e6-0c14fd24493d","resource":{"resourceType":"Practitioner","id":"7092f181-c92a-4cab-83e6-0c14fd24493d","meta":{"profile":["http://hl7.org/fhir/us/qicore/StructureDefinition/qicore-practitioner"]},"identifier":[{"system":"http://hl7.org/fhir/sid/us-npi","value":"123456"}],"name":[{"family":"Evil","prefix":["Dr"]}]},"request":{"method":"PUT","url":"Practitioner/7092f181-c92a-4cab-83e6-0c14fd24493d"}},{"fullUrl":"https://madie.cms.gov/MeasureReport/becffab2-8cbe-4f96-8374-1b9134650d4b","resource":{"resourceType":"MeasureReport","id":"becffab2-8cbe-4f96-8374-1b9134650d4b","meta":{"profile":["http://hl7.org/fhir/us/cqfmeasures/StructureDefinition/test-case-cqfm"]},"contained":[{"resourceType":"Parameters","id":"3fb54740-85ad-420b-adae-cb8db1b32a1c-parameters","parameter":[{"name":"subject","valueString":"cc01e29c-7ebb-4876-b63a-29de550c62f9"}]}],"extension":[{"url":"http://hl7.org/fhir/us/cqfmeasures/StructureDefinition/cqfm-inputParameters","valueReference":{"reference":"#3fb54740-85ad-420b-adae-cb8db1b32a1c-parameters"}},{"url":"http://hl7.org/fhir/us/cqfmeasures/StructureDefinition/cqfm-testCaseDescription","valueMarkdown":"Child, age 17, ED enc, last day MP, LOS 481 minutes. pt. mental health dx"}],"modifierExtension":[{"url":"http://hl7.org/fhir/us/cqfmeasures/StructureDefinition/cqfm-isTestCase","valueBoolean":true}],"status":"complete","type":"individual","measure":"https://madie.cms.gov/Measure/CMS1244ECCQHOQRFHIR","period":{"start":"2026-01-01","end":"2026-12-31"},"group":[{"population":[{"code":{"coding":[{"system":"http://terminology.hl7.org/CodeSystem/measure-population","code":"initial-population","display":"Initial Population"}]},"count":1},{"code":{"coding":[{"system":"http://terminology.hl7.org/CodeSystem/measure-population","code":"denominator","display":"Denominator"}]},"count":1},{"code":{"coding":[{"system":"http://terminology.hl7.org/CodeSystem/measure-population","code":"numerator","display":"Numerator"}]},"count":1}]}]},"request":{"method":"PUT","url":"MeasureReport/becffab2-8cbe-4f96-8374-1b9134650d4b"}}]}