{"resourceType":"Bundle","id":"tests-024c02ed-8819-45da-a027-ed5fa4369c90-bundle","type":"transaction","entry":[{"fullUrl":"https://madie.cms.gov/Patient/024c02ed-8819-45da-a027-ed5fa4369c90","resource":{"resourceType":"Patient","id":"024c02ed-8819-45da-a027-ed5fa4369c90","meta":{"profile":["http://hl7.org/fhir/us/qicore/StructureDefinition/qicore-patient"]},"extension":[{"url":"http://hl7.org/fhir/us/core/StructureDefinition/us-core-race","extension":[{"url":"ombCategory","valueCoding":{"system":"urn:oid:2.16.840.1.113883.6.238","code":"1002-5","display":"American Indian or Alaska Native","userSelected":true}},{"url":"text","valueString":"American Indian or Alaska Native"}]},{"url":"http://hl7.org/fhir/us/core/StructureDefinition/us-core-ethnicity","extension":[{"url":"ombCategory","valueCoding":{"system":"urn:oid:2.16.840.1.113883.6.238","code":"2135-2","display":"Hispanic or Latino","userSelected":true}},{"url":"text","valueString":"Hispanic or Latino"}]}],"identifier":[{"type":{"coding":[{"system":"http://terminology.hl7.org/CodeSystem/v2-0203","code":"MR"}]},"system":"https://bonnie-fhir.healthit.gov/","value":"661476b015ed5841a5547ebf"}],"name":[{"family":"NUMERStrat2Pass","given":["AdmittedInpatient"]}],"gender":"male","birthDate":"2008-01-01"},"request":{"method":"PUT","url":"Patient/024c02ed-8819-45da-a027-ed5fa4369c90"}},{"fullUrl":"https://madie.cms.gov/Encounter/c341378d-b329-4cad-918f-673b90c0c12e","resource":{"resourceType":"Encounter","id":"c341378d-b329-4cad-918f-673b90c0c12e","meta":{"profile":["http://hl7.org/fhir/us/qicore/StructureDefinition/qicore-encounter"]},"status":"finished","class":{"system":"http://terminology.hl7.org/CodeSystem/v3-ActCode","code":"EMER","display":"emergency department"},"type":[{"coding":[{"system":"http://snomed.info/sct","version":"2023-09","code":"4525004","display":"Emergency department patient visit (procedure)","userSelected":true}]}],"subject":{"reference":"Patient/024c02ed-8819-45da-a027-ed5fa4369c90"},"period":{"start":"2026-01-01T06:00:00.000+00:00","end":"2026-01-01T13:15:00.000+00:00"},"diagnosis":[{"condition":{"reference":"Condition/0cfdccf4-b67d-48b5-8e49-0f4feec927cc"},"use":{"coding":[{"system":"http://terminology.hl7.org/CodeSystem/diagnosis-role","code":"billing"}]},"rank":1}],"location":[{"location":{"reference":"Location/8adaf455-5c0c-431b-835e-142e973528bc"},"period":{"start":"2026-01-01T06:00:00.000+00:00","end":"2026-01-01T13:15:00.000+00:00"}}]},"request":{"method":"PUT","url":"Encounter/c341378d-b329-4cad-918f-673b90c0c12e"}},{"fullUrl":"https://madie.cms.gov/Condition/0cfdccf4-b67d-48b5-8e49-0f4feec927cc","resource":{"resourceType":"Condition","id":"0cfdccf4-b67d-48b5-8e49-0f4feec927cc","meta":{"profile":["http://hl7.org/fhir/us/qicore/StructureDefinition/qicore-condition"]},"category":[{"coding":[{"system":"http://terminology.hl7.org/CodeSystem/condition-category","code":"encounter-diagnosis","display":"Encounter Diagnosis"}]}],"code":{"coding":[{"system":"http://snomed.info/sct","version":"2023-09","code":"10660471000119109","display":"Ulcer of left foot due to type 2 diabetes mellitus (disorder)","userSelected":true}]},"subject":{"reference":"Patient/024c02ed-8819-45da-a027-ed5fa4369c90"},"recordedDate":"2026-01-01T08:00:00.000+00:00"},"request":{"method":"PUT","url":"Condition/0cfdccf4-b67d-48b5-8e49-0f4feec927cc"}},{"fullUrl":"https://madie.cms.gov/Encounter/ce3f86f8-cb45-406f-acb2-2d7b5e20cd56","resource":{"resourceType":"Encounter","id":"ce3f86f8-cb45-406f-acb2-2d7b5e20cd56","meta":{"profile":["http://hl7.org/fhir/us/qicore/StructureDefinition/qicore-encounter"]},"status":"finished","class":{"system":"http://terminology.hl7.org/CodeSystem/v3-ActCode","code":"IMP","display":"inpatient encounter"},"type":[{"coding":[{"system":"http://snomed.info/sct","version":"2023-09","code":"183452005","display":"Emergency hospital admission (procedure)","userSelected":true}]}],"subject":{"reference":"Patient/024c02ed-8819-45da-a027-ed5fa4369c90"},"period":{"start":"2026-01-01T09:00:00.000+00:00","end":"2026-01-03T06:15:00.000+00:00"}},"request":{"method":"PUT","url":"Encounter/ce3f86f8-cb45-406f-acb2-2d7b5e20cd56"}},{"fullUrl":"https://madie.cms.gov/Location/8adaf455-5c0c-431b-835e-142e973528bc","resource":{"resourceType":"Location","id":"8adaf455-5c0c-431b-835e-142e973528bc","meta":{"profile":["http://hl7.org/fhir/us/qicore/StructureDefinition/qicore-location"]},"identifier":[{"use":"usual","system":"http://exampleoflocation.com","value":"B1-S.F2"}],"name":"Medical Surgical East, first floor","type":[{"coding":[{"system":"https://www.cdc.gov/nhsn/cdaportal/terminology/codesystem/hsloc.html","version":"2022","code":"1108-0","display":"Emergency Department","userSelected":true}]}]},"request":{"method":"PUT","url":"Location/8adaf455-5c0c-431b-835e-142e973528bc"}},{"fullUrl":"https://madie.cms.gov/Coverage/c17120f3-d5a8-455e-adb4-f87512cfaafb","resource":{"resourceType":"Coverage","id":"c17120f3-d5a8-455e-adb4-f87512cfaafb","meta":{"profile":["http://hl7.org/fhir/us/qicore/StructureDefinition/qicore-coverage"]},"status":"active","beneficiary":{"reference":"Patient/024c02ed-8819-45da-a027-ed5fa4369c90"},"payor":[{"reference":"Organization/db141f66-a1cc-407b-9e95-adac27adee14"}]},"request":{"method":"PUT","url":"Coverage/c17120f3-d5a8-455e-adb4-f87512cfaafb"}},{"fullUrl":"https://madie.cms.gov/Organization/9e899609-359d-4e05-afae-58a693c435ec","resource":{"resourceType":"Organization","id":"db141f66-a1cc-407b-9e95-adac27adee14","meta":{"profile":["http://hl7.org/fhir/us/qicore/StructureDefinition/qicore-organization"]},"identifier":[{"use":"temp","system":"urn:oid:2.16.840.1.113883.4.4","value":"21-3259825"}],"active":true,"type":[{"coding":[{"system":"http://terminology.hl7.org/CodeSystem/organization-type","code":"pay","display":"Payer"}]}],"name":"Blue Cross Blue Shield of Texas","telecom":[{"system":"phone","value":"(+1) 972-766-6900"}],"address":[{"use":"billing","type":"postal","line":["P.O. Box 660044"],"city":"Dallas","state":"TX","postalCode":"75266-0044","country":"USA"}]},"request":{"method":"PUT","url":"Organization/db141f66-a1cc-407b-9e95-adac27adee14"}},{"fullUrl":"https://madie.cms.gov/Practitioner/5addca82-eef1-4a99-91e0-6cbd54340f33","resource":{"resourceType":"Practitioner","id":"5addca82-eef1-4a99-91e0-6cbd54340f33","meta":{"profile":["http://hl7.org/fhir/us/qicore/StructureDefinition/qicore-practitioner"]},"identifier":[{"system":"http://hl7.org/fhir/sid/us-npi","value":"123456"}],"name":[{"family":"Evil","prefix":["Dr"]}]},"request":{"method":"PUT","url":"Practitioner/5addca82-eef1-4a99-91e0-6cbd54340f33"}},{"fullUrl":"https://madie.cms.gov/MeasureReport/d74f10f7-58e2-4d24-91dd-8cad17b73da3","resource":{"resourceType":"MeasureReport","id":"d74f10f7-58e2-4d24-91dd-8cad17b73da3","meta":{"profile":["http://hl7.org/fhir/us/cqfmeasures/StructureDefinition/test-case-cqfm"]},"contained":[{"resourceType":"Parameters","id":"6ce4c331-9d15-4a07-8049-e28fa167137c-parameters","parameter":[{"name":"subject","valueString":"024c02ed-8819-45da-a027-ed5fa4369c90"}]}],"extension":[{"url":"http://hl7.org/fhir/us/cqfmeasures/StructureDefinition/cqfm-inputParameters","valueReference":{"reference":"#6ce4c331-9d15-4a07-8049-e28fa167137c-parameters"}},{"url":"http://hl7.org/fhir/us/cqfmeasures/StructureDefinition/cqfm-testCaseDescription","valueMarkdown":"Adult, age 18, ED enc first day of MP,  admitted to inpatient (resource: encounter) without psych dx"}],"modifierExtension":[{"url":"http://hl7.org/fhir/us/cqfmeasures/StructureDefinition/cqfm-isTestCase","valueBoolean":true}],"status":"complete","type":"individual","measure":"https://madie.cms.gov/Measure/CMS1244ECCQHOQRFHIR","period":{"start":"2026-01-01","end":"2026-12-31"},"group":[{"population":[{"code":{"coding":[{"system":"http://terminology.hl7.org/CodeSystem/measure-population","code":"initial-population","display":"Initial Population"}]},"count":1},{"code":{"coding":[{"system":"http://terminology.hl7.org/CodeSystem/measure-population","code":"denominator","display":"Denominator"}]},"count":1},{"code":{"coding":[{"system":"http://terminology.hl7.org/CodeSystem/measure-population","code":"numerator","display":"Numerator"}]},"count":1}]}]},"request":{"method":"PUT","url":"MeasureReport/d74f10f7-58e2-4d24-91dd-8cad17b73da3"}}]}