{"resourceType":"Bundle","id":"tests-16cffb87-15ea-48b7-bd68-f211f48d6f19-bundle","type":"transaction","entry":[{"fullUrl":"https://madie.cms.gov/Patient/16cffb87-15ea-48b7-bd68-f211f48d6f19","resource":{"resourceType":"Patient","id":"16cffb87-15ea-48b7-bd68-f211f48d6f19","meta":{"profile":["http://hl7.org/fhir/us/qicore/StructureDefinition/qicore-patient"]},"extension":[{"url":"http://hl7.org/fhir/us/core/StructureDefinition/us-core-race","extension":[{"url":"ombCategory","valueCoding":{"system":"urn:oid:2.16.840.1.113883.6.238","code":"1002-5","display":"American Indian or Alaska Native","userSelected":true}},{"url":"text","valueString":"American Indian or Alaska Native"}]},{"url":"http://hl7.org/fhir/us/core/StructureDefinition/us-core-ethnicity","extension":[{"url":"ombCategory","valueCoding":{"system":"urn:oid:2.16.840.1.113883.6.238","code":"2135-2","display":"Hispanic or Latino","userSelected":true}},{"url":"text","valueString":"Hispanic or Latino"}]}],"identifier":[{"type":{"coding":[{"system":"http://terminology.hl7.org/CodeSystem/v2-0203","code":"MR"}]},"system":"https://bonnie-fhir.healthit.gov/","value":"661581c7db207d74c03b8a65"}],"name":[{"family":"NUMERStrat4Pass","given":["LWBS"]}],"gender":"male","birthDate":"2008-01-01"},"request":{"method":"PUT","url":"Patient/16cffb87-15ea-48b7-bd68-f211f48d6f19"}},{"fullUrl":"https://madie.cms.gov/Encounter/12f3c3a3-b675-47b6-a65b-d00a865452f9","resource":{"resourceType":"Encounter","id":"12f3c3a3-b675-47b6-a65b-d00a865452f9","meta":{"profile":["http://hl7.org/fhir/us/qicore/StructureDefinition/qicore-encounter"]},"status":"finished","class":{"system":"http://terminology.hl7.org/CodeSystem/v3-ActCode","code":"EMER","display":"emergency"},"type":[{"coding":[{"system":"http://snomed.info/sct","version":"2023-09","code":"225390008","display":"Triage (procedure)","userSelected":true}]}],"subject":{"reference":"Patient/16cffb87-15ea-48b7-bd68-f211f48d6f19"},"period":{"start":"2026-12-31T08:00:00.000+00:00","end":"2026-12-31T08:15:00.000+00:00"},"diagnosis":[{"condition":{"reference":"Condition/7e8d3f6b-40b7-4094-9827-a21d49e9227e"},"use":{"coding":[{"system":"http://terminology.hl7.org/CodeSystem/diagnosis-role","code":"billing"}]},"rank":1}],"hospitalization":{"dischargeDisposition":{"coding":[{"system":"http://snomed.info/sct","code":"21541000119102","display":"Patient left without being seen (finding)","userSelected":true}]}}},"request":{"method":"PUT","url":"Encounter/12f3c3a3-b675-47b6-a65b-d00a865452f9"}},{"fullUrl":"https://madie.cms.gov/Condition/7e8d3f6b-40b7-4094-9827-a21d49e9227e","resource":{"resourceType":"Condition","id":"7e8d3f6b-40b7-4094-9827-a21d49e9227e","meta":{"profile":["http://hl7.org/fhir/us/qicore/StructureDefinition/qicore-condition"]},"category":[{"coding":[{"system":"http://terminology.hl7.org/CodeSystem/condition-category","code":"encounter-diagnosis","display":"Encounter Diagnosis"}]}],"code":{"coding":[{"system":"http://snomed.info/sct","version":"2023-09","code":"10349009","display":"Multi-infarct dementia with delirium (disorder)","userSelected":true}]},"subject":{"reference":"Patient/16cffb87-15ea-48b7-bd68-f211f48d6f19"},"recordedDate":"2026-04-09T08:00:00.000+00:00"},"request":{"method":"PUT","url":"Condition/7e8d3f6b-40b7-4094-9827-a21d49e9227e"}},{"fullUrl":"https://madie.cms.gov/Coverage/8681db12-f9ce-4cdd-a209-392827cecbaa","resource":{"resourceType":"Coverage","id":"8681db12-f9ce-4cdd-a209-392827cecbaa","meta":{"profile":["http://hl7.org/fhir/us/qicore/StructureDefinition/qicore-coverage"]},"status":"active","beneficiary":{"reference":"Patient/16cffb87-15ea-48b7-bd68-f211f48d6f19"},"payor":[{"reference":"Organization/db141f66-a1cc-407b-9e95-adac27adee14"}]},"request":{"method":"PUT","url":"Coverage/8681db12-f9ce-4cdd-a209-392827cecbaa"}},{"fullUrl":"https://madie.cms.gov/Organization/ee9c8d5d-bc66-45a9-8e1e-26b2566c4a3b","resource":{"resourceType":"Organization","id":"db141f66-a1cc-407b-9e95-adac27adee14","meta":{"profile":["http://hl7.org/fhir/us/qicore/StructureDefinition/qicore-organization"]},"identifier":[{"use":"temp","system":"urn:oid:2.16.840.1.113883.4.4","value":"21-3259825"}],"active":true,"type":[{"coding":[{"system":"http://terminology.hl7.org/CodeSystem/organization-type","code":"pay","display":"Payer"}]}],"name":"Blue Cross Blue Shield of Texas","telecom":[{"system":"phone","value":"(+1) 972-766-6900"}],"address":[{"use":"billing","type":"postal","line":["P.O. Box 660044"],"city":"Dallas","state":"TX","postalCode":"75266-0044","country":"USA"}]},"request":{"method":"PUT","url":"Organization/db141f66-a1cc-407b-9e95-adac27adee14"}},{"fullUrl":"https://madie.cms.gov/Practitioner/e34dc7a1-c511-431d-beb1-169d9586f84a","resource":{"resourceType":"Practitioner","id":"e34dc7a1-c511-431d-beb1-169d9586f84a","meta":{"profile":["http://hl7.org/fhir/us/qicore/StructureDefinition/qicore-practitioner"]},"identifier":[{"system":"http://hl7.org/fhir/sid/us-npi","value":"123456"}],"name":[{"family":"Evil","prefix":["Dr"]}]},"request":{"method":"PUT","url":"Practitioner/e34dc7a1-c511-431d-beb1-169d9586f84a"}},{"fullUrl":"https://madie.cms.gov/MeasureReport/f728cb3e-8062-4db2-a3a3-7379229e45ad","resource":{"resourceType":"MeasureReport","id":"f728cb3e-8062-4db2-a3a3-7379229e45ad","meta":{"profile":["http://hl7.org/fhir/us/cqfmeasures/StructureDefinition/test-case-cqfm"]},"contained":[{"resourceType":"Parameters","id":"668cce5b-ba59-42d4-9189-11cc82dd5ceb-parameters","parameter":[{"name":"subject","valueString":"16cffb87-15ea-48b7-bd68-f211f48d6f19"}]}],"extension":[{"url":"http://hl7.org/fhir/us/cqfmeasures/StructureDefinition/cqfm-inputParameters","valueReference":{"reference":"#668cce5b-ba59-42d4-9189-11cc82dd5ceb-parameters"}},{"url":"http://hl7.org/fhir/us/cqfmeasures/StructureDefinition/cqfm-testCaseDescription","valueMarkdown":"Adult, age 18, ED enc last day of MP, LWBS with mental health diagnosis"}],"modifierExtension":[{"url":"http://hl7.org/fhir/us/cqfmeasures/StructureDefinition/cqfm-isTestCase","valueBoolean":true}],"status":"complete","type":"individual","measure":"https://madie.cms.gov/Measure/CMS1244ECCQHOQRFHIR","period":{"start":"2026-01-01","end":"2026-12-31"},"group":[{"population":[{"code":{"coding":[{"system":"http://terminology.hl7.org/CodeSystem/measure-population","code":"initial-population","display":"Initial Population"}]},"count":1},{"code":{"coding":[{"system":"http://terminology.hl7.org/CodeSystem/measure-population","code":"denominator","display":"Denominator"}]},"count":1},{"code":{"coding":[{"system":"http://terminology.hl7.org/CodeSystem/measure-population","code":"numerator","display":"Numerator"}]},"count":1}]}]},"request":{"method":"PUT","url":"MeasureReport/f728cb3e-8062-4db2-a3a3-7379229e45ad"}}]}