{"resourceType":"Bundle","id":"tests-42be9d46-4c2f-4493-8299-d33dcbb7170e-bundle","type":"transaction","entry":[{"fullUrl":"https://madie.cms.gov/Patient/42be9d46-4c2f-4493-8299-d33dcbb7170e","resource":{"resourceType":"Patient","id":"42be9d46-4c2f-4493-8299-d33dcbb7170e","meta":{"profile":["http://hl7.org/fhir/us/qicore/StructureDefinition/qicore-patient"]},"extension":[{"url":"http://hl7.org/fhir/us/core/StructureDefinition/us-core-race","extension":[{"url":"ombCategory","valueCoding":{"system":"urn:oid:2.16.840.1.113883.6.238","code":"1002-5","display":"American Indian or Alaska Native","userSelected":true}},{"url":"text","valueString":"American Indian or Alaska Native"}]},{"url":"http://hl7.org/fhir/us/core/StructureDefinition/us-core-ethnicity","extension":[{"url":"ombCategory","valueCoding":{"system":"urn:oid:2.16.840.1.113883.6.238","code":"2135-2","display":"Hispanic or Latino","userSelected":true}},{"url":"text","valueString":"Hispanic or Latino"}]}],"identifier":[{"type":{"coding":[{"system":"http://terminology.hl7.org/CodeSystem/v2-0203","code":"MR"}]},"system":"https://bonnie-fhir.healthit.gov/","value":"661476b015ed5841a5547ebf"}],"name":[{"family":"NUMERStrat4Pass","given":["EDObsBoarded"]}],"gender":"male","birthDate":"2008-01-01"},"request":{"method":"PUT","url":"Patient/42be9d46-4c2f-4493-8299-d33dcbb7170e"}},{"fullUrl":"https://madie.cms.gov/Encounter/761221d1-cf33-4f9f-8e1b-068de60fa434","resource":{"resourceType":"Encounter","id":"761221d1-cf33-4f9f-8e1b-068de60fa434","meta":{"profile":["http://hl7.org/fhir/us/qicore/StructureDefinition/qicore-encounter"]},"status":"finished","class":{"system":"http://terminology.hl7.org/CodeSystem/v3-ActCode","code":"EMER","display":"emergency department"},"type":[{"coding":[{"system":"http://snomed.info/sct","version":"2023-09","code":"4525004","display":"Emergency department patient visit (procedure)","userSelected":true}]}],"subject":{"reference":"Patient/42be9d46-4c2f-4493-8299-d33dcbb7170e"},"period":{"start":"2026-01-01T00:00:00.000+00:00","end":"2026-01-01T06:00:00.000+00:00"},"diagnosis":[{"condition":{"reference":"Condition/d74f3d46-ee4b-477e-8e9a-3171799db6ef"},"use":{"coding":[{"system":"http://terminology.hl7.org/CodeSystem/diagnosis-role","code":"billing"}]},"rank":1}],"location":[{"location":{"reference":"Location/66aedd4f-8568-4f85-983f-eb318334f7d7"},"period":{"start":"2026-01-01T00:00:00.000+00:00","end":"2026-01-01T06:01:00.000+00:00"}}]},"request":{"method":"PUT","url":"Encounter/761221d1-cf33-4f9f-8e1b-068de60fa434"}},{"fullUrl":"https://madie.cms.gov/Encounter/8d6e2561-adf6-4923-ae17-1932a8b4c425","resource":{"resourceType":"Encounter","id":"8d6e2561-adf6-4923-ae17-1932a8b4c425","meta":{"profile":["http://hl7.org/fhir/us/qicore/StructureDefinition/qicore-encounter"]},"status":"finished","class":{"system":"http://terminology.hl7.org/CodeSystem/v3-ActCode","code":"IMP","display":"inpatient encounter"},"type":[{"coding":[{"system":"http://snomed.info/sct","version":"2023-09","code":"183452005","display":"Emergency hospital admission (procedure)","userSelected":true}]}],"subject":{"reference":"Patient/42be9d46-4c2f-4493-8299-d33dcbb7170e"},"period":{"start":"2026-01-01T05:00:00.000+00:00","end":"2026-01-03T06:15:00.000+00:00"}},"request":{"method":"PUT","url":"Encounter/8d6e2561-adf6-4923-ae17-1932a8b4c425"}},{"fullUrl":"https://madie.cms.gov/ServiceRequest/469fb729-3631-4e8c-b64e-d80a17fa75f3","resource":{"resourceType":"ServiceRequest","id":"469fb729-3631-4e8c-b64e-d80a17fa75f3","meta":{"profile":["http://hl7.org/fhir/us/qicore/StructureDefinition/qicore-servicerequest"]},"status":"active","intent":"order","code":{"coding":[{"system":"http://snomed.info/sct","code":"5751000175101","display":"Patient bed assigned (finding)","userSelected":true}]},"subject":{"reference":"Patient/42be9d46-4c2f-4493-8299-d33dcbb7170e"},"authoredOn":"2026-01-01T02:00:00.000+00:00"},"request":{"method":"PUT","url":"ServiceRequest/469fb729-3631-4e8c-b64e-d80a17fa75f3"}},{"fullUrl":"https://madie.cms.gov/Location/66aedd4f-8568-4f85-983f-eb318334f7d7","resource":{"resourceType":"Location","id":"66aedd4f-8568-4f85-983f-eb318334f7d7","meta":{"profile":["http://hl7.org/fhir/us/qicore/StructureDefinition/qicore-location"]},"identifier":[{"use":"usual","system":"http://exampleoflocation.com","value":"B1-S.F2"}],"name":"Medical Surgical East, first floor","type":[{"coding":[{"system":"https://www.cdc.gov/nhsn/cdaportal/terminology/codesystem/hsloc.html","version":"2022","code":"1108-0","display":"Emergency Department","userSelected":true}]}]},"request":{"method":"PUT","url":"Location/66aedd4f-8568-4f85-983f-eb318334f7d7"}},{"fullUrl":"https://madie.cms.gov/Coverage/0a6ab8cc-7bc5-4c5c-a4ee-edec2859c770","resource":{"resourceType":"Coverage","id":"0a6ab8cc-7bc5-4c5c-a4ee-edec2859c770","meta":{"profile":["http://hl7.org/fhir/us/qicore/StructureDefinition/qicore-coverage"]},"status":"active","beneficiary":{"reference":"Patient/42be9d46-4c2f-4493-8299-d33dcbb7170e"},"payor":[{"reference":"Organization/e75793c9-fdf6-463a-8c1d-4ee44320dc25"}]},"request":{"method":"PUT","url":"Coverage/0a6ab8cc-7bc5-4c5c-a4ee-edec2859c770"}},{"fullUrl":"https://madie.cms.gov/Condition/d74f3d46-ee4b-477e-8e9a-3171799db6ef","resource":{"resourceType":"Condition","id":"d74f3d46-ee4b-477e-8e9a-3171799db6ef","meta":{"profile":["http://hl7.org/fhir/us/qicore/StructureDefinition/qicore-condition"]},"category":[{"coding":[{"system":"http://terminology.hl7.org/CodeSystem/condition-category","code":"encounter-diagnosis","display":"Encounter Diagnosis"}]}],"code":{"coding":[{"system":"http://snomed.info/sct","version":"2023-09","code":"10349009","display":"Multi-infarct dementia with delirium (disorder)","userSelected":true}]},"subject":{"reference":"Patient/42be9d46-4c2f-4493-8299-d33dcbb7170e"},"recordedDate":"2026-01-01T08:00:00.000+00:00"},"request":{"method":"PUT","url":"Condition/d74f3d46-ee4b-477e-8e9a-3171799db6ef"}},{"fullUrl":"https://madie.cms.gov/Encounter/497a0cf6-4b1d-4a10-8ffa-0e12df67e215","resource":{"resourceType":"Encounter","id":"497a0cf6-4b1d-4a10-8ffa-0e12df67e215","meta":{"profile":["http://hl7.org/fhir/us/qicore/StructureDefinition/qicore-encounter"]},"status":"finished","class":{"system":"http://terminology.hl7.org/CodeSystem/v3-ActCode","code":"EMER","display":"emergency"},"type":[{"coding":[{"system":"http://www.ama-assn.org/go/cpt","version":"2024","code":"99221","display":"Initial hospital inpatient or observation care, per day, for the evaluation and management of a patient, which requires a medically appropriate history and/or examination and straightforward or low level medical decision making. When using total time on the date of the encounter for code selection, 40 minutes must be met or exceeded.","userSelected":true}]}],"subject":{"reference":"Patient/42be9d46-4c2f-4493-8299-d33dcbb7170e"},"period":{"start":"2026-01-01T01:01:00.000+00:00","end":"2026-01-01T05:59:00.000+00:00"}},"request":{"method":"PUT","url":"Encounter/497a0cf6-4b1d-4a10-8ffa-0e12df67e215"}},{"fullUrl":"https://madie.cms.gov/Organization/68427f53-7d76-41fc-8286-f361c7d711ee","resource":{"resourceType":"Organization","id":"e75793c9-fdf6-463a-8c1d-4ee44320dc25","meta":{"profile":["http://hl7.org/fhir/us/qicore/StructureDefinition/qicore-organization"]},"identifier":[{"use":"temp","system":"urn:oid:2.16.840.1.113883.4.4","value":"21-3259825"}],"active":true,"type":[{"coding":[{"system":"http://terminology.hl7.org/CodeSystem/organization-type","code":"pay","display":"Payer"}]}],"name":"Blue Cross Blue Shield of Texas","telecom":[{"system":"phone","value":"(+1) 972-766-6900"}],"address":[{"use":"billing","type":"postal","line":["P.O. Box 660044"],"city":"Dallas","state":"TX","postalCode":"75266-0044","country":"USA"}]},"request":{"method":"PUT","url":"Organization/e75793c9-fdf6-463a-8c1d-4ee44320dc25"}},{"fullUrl":"https://madie.cms.gov/Practitioner/19a66429-3f08-4162-9ff4-5708e06b9ad9","resource":{"resourceType":"Practitioner","id":"19a66429-3f08-4162-9ff4-5708e06b9ad9","meta":{"profile":["http://hl7.org/fhir/us/qicore/StructureDefinition/qicore-practitioner"]},"identifier":[{"system":"http://hl7.org/fhir/sid/us-npi","value":"123456"}],"name":[{"family":"Evil","prefix":["Dr"]}]},"request":{"method":"PUT","url":"Practitioner/19a66429-3f08-4162-9ff4-5708e06b9ad9"}},{"fullUrl":"https://madie.cms.gov/MeasureReport/dc0bacf1-0d58-4d5f-a2e0-ce1d7457aa66","resource":{"resourceType":"MeasureReport","id":"dc0bacf1-0d58-4d5f-a2e0-ce1d7457aa66","meta":{"profile":["http://hl7.org/fhir/us/cqfmeasures/StructureDefinition/test-case-cqfm"]},"contained":[{"resourceType":"Parameters","id":"0841ef3f-a5d8-4fdb-a25e-1474afb7f9b1-parameters","parameter":[{"name":"subject","valueString":"42be9d46-4c2f-4493-8299-d33dcbb7170e"}]}],"extension":[{"url":"http://hl7.org/fhir/us/cqfmeasures/StructureDefinition/cqfm-inputParameters","valueReference":{"reference":"#0841ef3f-a5d8-4fdb-a25e-1474afb7f9b1-parameters"}},{"url":"http://hl7.org/fhir/us/cqfmeasures/StructureDefinition/cqfm-testCaseDescription","valueMarkdown":"Adult, ED observation during ED enc where patient was boarded 6 hrs 1 min; Enc 8 hrs, enc departure 8 hrs 1 min."}],"modifierExtension":[{"url":"http://hl7.org/fhir/us/cqfmeasures/StructureDefinition/cqfm-isTestCase","valueBoolean":true}],"status":"complete","type":"individual","measure":"https://madie.cms.gov/Measure/CMS1244ECCQHOQRFHIR","period":{"start":"2026-01-01","end":"2026-12-31"},"group":[{"population":[{"code":{"coding":[{"system":"http://terminology.hl7.org/CodeSystem/measure-population","code":"initial-population","display":"Initial Population"}]},"count":1},{"code":{"coding":[{"system":"http://terminology.hl7.org/CodeSystem/measure-population","code":"denominator","display":"Denominator"}]},"count":1},{"code":{"coding":[{"system":"http://terminology.hl7.org/CodeSystem/measure-population","code":"numerator","display":"Numerator"}]},"count":0}]}]},"request":{"method":"PUT","url":"MeasureReport/dc0bacf1-0d58-4d5f-a2e0-ce1d7457aa66"}}]}