{"resourceType":"Bundle","id":"tests-3ee1e306-f3db-4d13-b6ab-b1388a23b378-bundle","type":"transaction","entry":[{"fullUrl":"https://madie.cms.gov/Patient/3ee1e306-f3db-4d13-b6ab-b1388a23b378","resource":{"resourceType":"Patient","id":"3ee1e306-f3db-4d13-b6ab-b1388a23b378","meta":{"profile":["http://hl7.org/fhir/us/qicore/StructureDefinition/qicore-patient"]},"extension":[{"url":"http://hl7.org/fhir/us/core/StructureDefinition/us-core-race","extension":[{"url":"ombCategory","valueCoding":{"system":"urn:oid:2.16.840.1.113883.6.238","code":"1002-5","display":"American Indian or Alaska Native","userSelected":true}},{"url":"text","valueString":"American Indian or Alaska Native"}]},{"url":"http://hl7.org/fhir/us/core/StructureDefinition/us-core-ethnicity","extension":[{"url":"ombCategory","valueCoding":{"system":"urn:oid:2.16.840.1.113883.6.238","code":"2135-2","display":"Hispanic or Latino","userSelected":true}},{"url":"text","valueString":"Hispanic or Latino"}]}],"identifier":[{"type":{"coding":[{"system":"http://terminology.hl7.org/CodeSystem/v2-0203","code":"MR"}]},"system":"https://bonnie-fhir.healthit.gov/","value":"661476b015ed5841a5547ebf"}],"name":[{"family":"NUMERStrat4Pass","given":["AdmittedInpatient"]}],"gender":"male","birthDate":"2008-01-01"},"request":{"method":"PUT","url":"Patient/3ee1e306-f3db-4d13-b6ab-b1388a23b378"}},{"fullUrl":"https://madie.cms.gov/Encounter/a19e9745-488d-4b47-b021-5449471f256a","resource":{"resourceType":"Encounter","id":"a19e9745-488d-4b47-b021-5449471f256a","meta":{"profile":["http://hl7.org/fhir/us/qicore/StructureDefinition/qicore-encounter"]},"status":"finished","class":{"system":"http://terminology.hl7.org/CodeSystem/v3-ActCode","code":"EMER","display":"emergency department"},"type":[{"coding":[{"system":"http://snomed.info/sct","version":"2023-09","code":"4525004","display":"Emergency department patient visit (procedure)","userSelected":true}]}],"subject":{"reference":"Patient/3ee1e306-f3db-4d13-b6ab-b1388a23b378"},"period":{"start":"2026-01-01T06:00:00.000+00:00","end":"2026-01-01T13:15:00.000+00:00"},"diagnosis":[{"condition":{"reference":"Condition/b0f8401e-d872-4434-a0ba-647c24f7a3a8"},"use":{"coding":[{"system":"http://terminology.hl7.org/CodeSystem/diagnosis-role","code":"billing"}]},"rank":1}],"location":[{"location":{"reference":"Location/2a682ebb-8767-411f-9ded-4926ba1265a1"},"period":{"start":"2026-01-01T06:00:00.000+00:00","end":"2026-01-01T13:15:00.000+00:00"}}]},"request":{"method":"PUT","url":"Encounter/a19e9745-488d-4b47-b021-5449471f256a"}},{"fullUrl":"https://madie.cms.gov/Encounter/b129f803-99d5-4e5b-9af3-d19b362ca2ff","resource":{"resourceType":"Encounter","id":"b129f803-99d5-4e5b-9af3-d19b362ca2ff","meta":{"profile":["http://hl7.org/fhir/us/qicore/StructureDefinition/qicore-encounter"]},"status":"finished","class":{"system":"http://terminology.hl7.org/CodeSystem/v3-ActCode","code":"IMP","display":"inpatient encounter"},"type":[{"coding":[{"system":"http://snomed.info/sct","version":"2023-09","code":"183452005","display":"Emergency hospital admission (procedure)","userSelected":true}]}],"subject":{"reference":"Patient/3ee1e306-f3db-4d13-b6ab-b1388a23b378"},"period":{"start":"2026-01-01T09:00:00.000+00:00","end":"2026-01-03T06:15:00.000+00:00"}},"request":{"method":"PUT","url":"Encounter/b129f803-99d5-4e5b-9af3-d19b362ca2ff"}},{"fullUrl":"https://madie.cms.gov/Location/2a682ebb-8767-411f-9ded-4926ba1265a1","resource":{"resourceType":"Location","id":"2a682ebb-8767-411f-9ded-4926ba1265a1","meta":{"profile":["http://hl7.org/fhir/us/qicore/StructureDefinition/qicore-location"]},"identifier":[{"use":"usual","system":"http://exampleoflocation.com","value":"B1-S.F2"}],"name":"Medical Surgical East, first floor","type":[{"coding":[{"system":"https://www.cdc.gov/nhsn/cdaportal/terminology/codesystem/hsloc.html","version":"2022","code":"1108-0","display":"Emergency Department","userSelected":true}]}]},"request":{"method":"PUT","url":"Location/2a682ebb-8767-411f-9ded-4926ba1265a1"}},{"fullUrl":"https://madie.cms.gov/Coverage/7b190e41-3f5e-4d7f-9e88-82c060afade9","resource":{"resourceType":"Coverage","id":"7b190e41-3f5e-4d7f-9e88-82c060afade9","meta":{"profile":["http://hl7.org/fhir/us/qicore/StructureDefinition/qicore-coverage"]},"status":"active","beneficiary":{"reference":"Patient/3ee1e306-f3db-4d13-b6ab-b1388a23b378"},"payor":[{"reference":"Organization/e75793c9-fdf6-463a-8c1d-4ee44320dc25"}]},"request":{"method":"PUT","url":"Coverage/7b190e41-3f5e-4d7f-9e88-82c060afade9"}},{"fullUrl":"https://madie.cms.gov/Condition/b0f8401e-d872-4434-a0ba-647c24f7a3a8","resource":{"resourceType":"Condition","id":"b0f8401e-d872-4434-a0ba-647c24f7a3a8","meta":{"profile":["http://hl7.org/fhir/us/qicore/StructureDefinition/qicore-condition"]},"category":[{"coding":[{"system":"http://terminology.hl7.org/CodeSystem/condition-category","code":"encounter-diagnosis","display":"Encounter Diagnosis"}]}],"code":{"coding":[{"system":"http://snomed.info/sct","version":"2023-09","code":"10349009","display":"Multi-infarct dementia with delirium (disorder)","userSelected":true}]},"subject":{"reference":"Patient/3ee1e306-f3db-4d13-b6ab-b1388a23b378"},"recordedDate":"2026-04-09T08:00:00.000+00:00"},"request":{"method":"PUT","url":"Condition/b0f8401e-d872-4434-a0ba-647c24f7a3a8"}},{"fullUrl":"https://madie.cms.gov/Organization/738581f5-3e27-4955-9c5b-4c2faea89e5a","resource":{"resourceType":"Organization","id":"e75793c9-fdf6-463a-8c1d-4ee44320dc25","meta":{"profile":["http://hl7.org/fhir/us/qicore/StructureDefinition/qicore-organization"]},"identifier":[{"use":"temp","system":"urn:oid:2.16.840.1.113883.4.4","value":"21-3259825"}],"active":true,"type":[{"coding":[{"system":"http://terminology.hl7.org/CodeSystem/organization-type","code":"pay","display":"Payer"}]}],"name":"Blue Cross Blue Shield of Texas","telecom":[{"system":"phone","value":"(+1) 972-766-6900"}],"address":[{"use":"billing","type":"postal","line":["P.O. Box 660044"],"city":"Dallas","state":"TX","postalCode":"75266-0044","country":"USA"}]},"request":{"method":"PUT","url":"Organization/e75793c9-fdf6-463a-8c1d-4ee44320dc25"}},{"fullUrl":"https://madie.cms.gov/Practitioner/69eec276-5a63-4010-8fff-f98ed7d79f5a","resource":{"resourceType":"Practitioner","id":"69eec276-5a63-4010-8fff-f98ed7d79f5a","meta":{"profile":["http://hl7.org/fhir/us/qicore/StructureDefinition/qicore-practitioner"]},"identifier":[{"system":"http://hl7.org/fhir/sid/us-npi","value":"123456"}],"name":[{"family":"Evil","prefix":["Dr"]}]},"request":{"method":"PUT","url":"Practitioner/69eec276-5a63-4010-8fff-f98ed7d79f5a"}},{"fullUrl":"https://madie.cms.gov/MeasureReport/16bf0fb7-6597-4cdb-82d9-5ac7b4795692","resource":{"resourceType":"MeasureReport","id":"16bf0fb7-6597-4cdb-82d9-5ac7b4795692","meta":{"profile":["http://hl7.org/fhir/us/cqfmeasures/StructureDefinition/test-case-cqfm"]},"contained":[{"resourceType":"Parameters","id":"b8471ae3-4d75-40fe-bf05-a277240ac5ea-parameters","parameter":[{"name":"subject","valueString":"3ee1e306-f3db-4d13-b6ab-b1388a23b378"}]}],"extension":[{"url":"http://hl7.org/fhir/us/cqfmeasures/StructureDefinition/cqfm-inputParameters","valueReference":{"reference":"#b8471ae3-4d75-40fe-bf05-a277240ac5ea-parameters"}},{"url":"http://hl7.org/fhir/us/cqfmeasures/StructureDefinition/cqfm-testCaseDescription","valueMarkdown":"Adult, age 18 ED enc first day of MP,  admitted to inpatient (resource: encounter) with behavioral health dx"}],"modifierExtension":[{"url":"http://hl7.org/fhir/us/cqfmeasures/StructureDefinition/cqfm-isTestCase","valueBoolean":true}],"status":"complete","type":"individual","measure":"https://madie.cms.gov/Measure/CMS1244ECCQHOQRFHIR","period":{"start":"2026-01-01","end":"2026-12-31"},"group":[{"population":[{"code":{"coding":[{"system":"http://terminology.hl7.org/CodeSystem/measure-population","code":"initial-population","display":"Initial Population"}]},"count":1},{"code":{"coding":[{"system":"http://terminology.hl7.org/CodeSystem/measure-population","code":"denominator","display":"Denominator"}]},"count":1},{"code":{"coding":[{"system":"http://terminology.hl7.org/CodeSystem/measure-population","code":"numerator","display":"Numerator"}]},"count":1}]}]},"request":{"method":"PUT","url":"MeasureReport/16bf0fb7-6597-4cdb-82d9-5ac7b4795692"}}]}