{"resourceType":"Bundle","id":"tests-e982ec87-76b0-4fe2-b437-ac0503cf2159-bundle","type":"transaction","entry":[{"fullUrl":"https://madie.cms.gov/Patient/e982ec87-76b0-4fe2-b437-ac0503cf2159","resource":{"resourceType":"Patient","id":"e982ec87-76b0-4fe2-b437-ac0503cf2159","meta":{"profile":["http://hl7.org/fhir/us/qicore/StructureDefinition/qicore-patient"]},"extension":[{"url":"http://hl7.org/fhir/us/core/StructureDefinition/us-core-race","extension":[{"url":"ombCategory","valueCoding":{"system":"urn:oid:2.16.840.1.113883.6.238","code":"1002-5","display":"American Indian or Alaska Native","userSelected":true}},{"url":"text","valueString":"American Indian or Alaska Native"}]},{"url":"http://hl7.org/fhir/us/core/StructureDefinition/us-core-ethnicity","extension":[{"url":"ombCategory","valueCoding":{"system":"urn:oid:2.16.840.1.113883.6.238","code":"2135-2","display":"Hispanic or Latino","userSelected":true}},{"url":"text","valueString":"Hispanic or Latino"}]}],"identifier":[{"type":{"coding":[{"system":"http://terminology.hl7.org/CodeSystem/v2-0203","code":"MR"}]},"system":"https://bonnie-fhir.healthit.gov/","value":"6627b12aa014f18eaf21b2c4"}],"name":[{"family":"NUMERStrat1Pass","given":["BedAssigned"]}],"gender":"male","birthDate":"2009-01-01"},"request":{"method":"PUT","url":"Patient/e982ec87-76b0-4fe2-b437-ac0503cf2159"}},{"fullUrl":"https://madie.cms.gov/Encounter/d24c2f6c-7549-40db-840d-9def5ae610c6","resource":{"resourceType":"Encounter","id":"d24c2f6c-7549-40db-840d-9def5ae610c6","meta":{"profile":["http://hl7.org/fhir/us/qicore/StructureDefinition/qicore-encounter"]},"status":"finished","class":{"system":"http://terminology.hl7.org/CodeSystem/v3-ActCode","code":"AMB","display":"ambulatory"},"type":[{"coding":[{"system":"http://snomed.info/sct","version":"2023-09","code":"4525004","display":"Emergency department patient visit (procedure)","userSelected":true}]}],"subject":{"reference":"Patient/e982ec87-76b0-4fe2-b437-ac0503cf2159"},"period":{"start":"2026-01-01T01:00:00.000+00:00","end":"2026-01-01T06:01:00.000+00:00"},"diagnosis":[{"condition":{"reference":"Condition/7dfd9639-2724-4f8e-a183-249aecee6fbd"},"use":{"coding":[{"system":"http://terminology.hl7.org/CodeSystem/diagnosis-role","code":"billing"}]},"rank":1}],"location":[{"location":{"reference":"Location/b73fdb16-32e4-48f1-920d-8e232a5708e0"},"period":{"start":"2026-01-01T01:00:00.000+00:00","end":"2026-01-01T06:01:00.000+00:00"}}]},"request":{"method":"PUT","url":"Encounter/d24c2f6c-7549-40db-840d-9def5ae610c6"}},{"fullUrl":"https://madie.cms.gov/Condition/7dfd9639-2724-4f8e-a183-249aecee6fbd","resource":{"resourceType":"Condition","id":"7dfd9639-2724-4f8e-a183-249aecee6fbd","meta":{"profile":["http://hl7.org/fhir/us/qicore/StructureDefinition/qicore-condition"]},"category":[{"coding":[{"system":"http://terminology.hl7.org/CodeSystem/condition-category","code":"encounter-diagnosis","display":"Encounter Diagnosis"}]}],"code":{"coding":[{"system":"http://snomed.info/sct","version":"2023-09","code":"10660471000119109","display":"Ulcer of left foot due to type 2 diabetes mellitus (disorder)","userSelected":true}]},"subject":{"reference":"Patient/e982ec87-76b0-4fe2-b437-ac0503cf2159"},"recordedDate":"2026-01-01T08:00:00.000+00:00"},"request":{"method":"PUT","url":"Condition/7dfd9639-2724-4f8e-a183-249aecee6fbd"}},{"fullUrl":"https://madie.cms.gov/ServiceRequest/1399db0f-68c2-48b3-9d66-ed3a5bf48c93","resource":{"resourceType":"ServiceRequest","id":"1399db0f-68c2-48b3-9d66-ed3a5bf48c93","meta":{"profile":["http://hl7.org/fhir/us/qicore/StructureDefinition/qicore-servicerequest"]},"status":"active","intent":"order","code":{"coding":[{"system":"http://snomed.info/sct","code":"5751000175101","display":"Patient bed assigned (finding)","userSelected":true}]},"subject":{"reference":"Patient/e982ec87-76b0-4fe2-b437-ac0503cf2159"},"authoredOn":"2026-01-01T02:00:00.000+00:00"},"request":{"method":"PUT","url":"ServiceRequest/1399db0f-68c2-48b3-9d66-ed3a5bf48c93"}},{"fullUrl":"https://madie.cms.gov/Location/b73fdb16-32e4-48f1-920d-8e232a5708e0","resource":{"resourceType":"Location","id":"b73fdb16-32e4-48f1-920d-8e232a5708e0","meta":{"profile":["http://hl7.org/fhir/us/qicore/StructureDefinition/qicore-location"]},"identifier":[{"use":"usual","system":"http://exampleoflocation.com","value":"B1-S.F2"}],"name":"Medical Surgical East, first floor","type":[{"coding":[{"system":"https://www.cdc.gov/nhsn/cdaportal/terminology/codesystem/hsloc.html","version":"2022","code":"1108-0","display":"Emergency Department","userSelected":true}]}]},"request":{"method":"PUT","url":"Location/b73fdb16-32e4-48f1-920d-8e232a5708e0"}},{"fullUrl":"https://madie.cms.gov/Encounter/0ff4ecb4-0711-4ead-a11b-d970baa997d4","resource":{"resourceType":"Encounter","id":"0ff4ecb4-0711-4ead-a11b-d970baa997d4","meta":{"profile":["http://hl7.org/fhir/us/qicore/StructureDefinition/qicore-encounter"]},"status":"finished","class":{"system":"http://terminology.hl7.org/CodeSystem/v3-ActCode","code":"IMP","display":"inpatient"},"type":[{"coding":[{"system":"http://snomed.info/sct","version":"2023-09","code":"183452005","display":"Emergency hospital admission (procedure)","userSelected":true}]}],"subject":{"reference":"Patient/e982ec87-76b0-4fe2-b437-ac0503cf2159"},"period":{"start":"2026-01-01T05:00:00.000+00:00","end":"2026-01-04T07:15:00.000+00:00"}},"request":{"method":"PUT","url":"Encounter/0ff4ecb4-0711-4ead-a11b-d970baa997d4"}},{"fullUrl":"https://madie.cms.gov/Coverage/b1bf3c4f-1023-4d85-9d2c-a202fa8730f1","resource":{"resourceType":"Coverage","id":"b1bf3c4f-1023-4d85-9d2c-a202fa8730f1","meta":{"profile":["http://hl7.org/fhir/us/qicore/StructureDefinition/qicore-coverage"]},"status":"active","beneficiary":{"reference":"Patient/e982ec87-76b0-4fe2-b437-ac0503cf2159"},"payor":[{"reference":"Organization/db141f66-a1cc-407b-9e95-adac27adee14"}]},"request":{"method":"PUT","url":"Coverage/b1bf3c4f-1023-4d85-9d2c-a202fa8730f1"}},{"fullUrl":"https://madie.cms.gov/Organization/f2ad848a-5460-4789-b68f-15f071d74251","resource":{"resourceType":"Organization","id":"db141f66-a1cc-407b-9e95-adac27adee14","meta":{"profile":["http://hl7.org/fhir/us/qicore/StructureDefinition/qicore-organization"]},"identifier":[{"use":"temp","system":"urn:oid:2.16.840.1.113883.4.4","value":"21-3259825"}],"active":true,"type":[{"coding":[{"system":"http://terminology.hl7.org/CodeSystem/organization-type","code":"pay","display":"Payer"}]}],"name":"Blue Cross Blue Shield of Texas","telecom":[{"system":"phone","value":"(+1) 972-766-6900"}],"address":[{"use":"billing","type":"postal","line":["P.O. Box 660044"],"city":"Dallas","state":"TX","postalCode":"75266-0044","country":"USA"}]},"request":{"method":"PUT","url":"Organization/db141f66-a1cc-407b-9e95-adac27adee14"}},{"fullUrl":"https://madie.cms.gov/Practitioner/58c034f5-ec4d-4ea8-81c7-1c1dd976612a","resource":{"resourceType":"Practitioner","id":"58c034f5-ec4d-4ea8-81c7-1c1dd976612a","meta":{"profile":["http://hl7.org/fhir/us/qicore/StructureDefinition/qicore-practitioner"]},"identifier":[{"system":"http://hl7.org/fhir/sid/us-npi","value":"123456"}],"name":[{"family":"Evil","prefix":["Dr"]}]},"request":{"method":"PUT","url":"Practitioner/58c034f5-ec4d-4ea8-81c7-1c1dd976612a"}},{"fullUrl":"https://madie.cms.gov/MeasureReport/707254ab-89ab-4115-9108-8dabbeb5643f","resource":{"resourceType":"MeasureReport","id":"707254ab-89ab-4115-9108-8dabbeb5643f","meta":{"profile":["http://hl7.org/fhir/us/cqfmeasures/StructureDefinition/test-case-cqfm"]},"contained":[{"resourceType":"Parameters","id":"6dd92f15-0210-4db6-8424-f888cb681d55-parameters","parameter":[{"name":"subject","valueString":"e982ec87-76b0-4fe2-b437-ac0503cf2159"}]}],"extension":[{"url":"http://hl7.org/fhir/us/cqfmeasures/StructureDefinition/cqfm-inputParameters","valueReference":{"reference":"#6dd92f15-0210-4db6-8424-f888cb681d55-parameters"}},{"url":"http://hl7.org/fhir/us/cqfmeasures/StructureDefinition/cqfm-testCaseDescription","valueMarkdown":"Enc 1st minute of 1st day of MP; diabetic ulcer, no mental illness, admitted inpatient"}],"modifierExtension":[{"url":"http://hl7.org/fhir/us/cqfmeasures/StructureDefinition/cqfm-isTestCase","valueBoolean":true}],"status":"complete","type":"individual","measure":"https://madie.cms.gov/Measure/CMS1244ECCQHOQRFHIR","period":{"start":"2026-01-01","end":"2026-12-31"},"group":[{"population":[{"code":{"coding":[{"system":"http://terminology.hl7.org/CodeSystem/measure-population","code":"initial-population","display":"Initial Population"}]},"count":1},{"code":{"coding":[{"system":"http://terminology.hl7.org/CodeSystem/measure-population","code":"denominator","display":"Denominator"}]},"count":1},{"code":{"coding":[{"system":"http://terminology.hl7.org/CodeSystem/measure-population","code":"numerator","display":"Numerator"}]},"count":1}]}]},"request":{"method":"PUT","url":"MeasureReport/707254ab-89ab-4115-9108-8dabbeb5643f"}}]}