{"resourceType":"Bundle","id":"tests-cc00e728-de5f-4df8-abcb-1e610496be66-bundle","type":"transaction","entry":[{"fullUrl":"https://madie.cms.gov/Patient/cc00e728-de5f-4df8-abcb-1e610496be66","resource":{"resourceType":"Patient","id":"cc00e728-de5f-4df8-abcb-1e610496be66","meta":{"profile":["http://hl7.org/fhir/us/qicore/StructureDefinition/qicore-patient"]},"extension":[{"url":"http://hl7.org/fhir/us/core/StructureDefinition/us-core-race","extension":[{"url":"ombCategory","valueCoding":{"system":"urn:oid:2.16.840.1.113883.6.238","code":"2076-8","display":"Native Hawaiian or Other Pacific Islander","userSelected":true}},{"url":"text","valueString":"Native Hawaiian or Other Pacific Islander"}]},{"url":"http://hl7.org/fhir/us/core/StructureDefinition/us-core-ethnicity","extension":[{"url":"ombCategory","valueCoding":{"system":"urn:oid:2.16.840.1.113883.6.238","code":"2186-5","display":"Not Hispanic or Latino","userSelected":true}},{"url":"text","valueString":"Not Hispanic or Latino"}]}],"identifier":[{"type":{"coding":[{"system":"http://terminology.hl7.org/CodeSystem/v2-0203","code":"MR"}]},"system":"https://bonnie-fhir.healthit.gov/","value":"661579e3db207d74c03b8a54"}],"name":[{"family":"NUMERStrat1Fail","given":["TimeToTx60Min"]}],"gender":"female","birthDate":"2009-12-31"},"request":{"method":"PUT","url":"Patient/cc00e728-de5f-4df8-abcb-1e610496be66"}},{"fullUrl":"https://madie.cms.gov/Encounter/b8cc16e9-51a3-4da2-aa7f-46e776dac28e","resource":{"resourceType":"Encounter","id":"b8cc16e9-51a3-4da2-aa7f-46e776dac28e","meta":{"profile":["http://hl7.org/fhir/us/qicore/StructureDefinition/qicore-encounter"]},"status":"finished","class":{"system":"http://terminology.hl7.org/CodeSystem/v3-ActCode","code":"EMER","display":"emergency"},"type":[{"coding":[{"system":"http://snomed.info/sct","version":"2023-09","code":"4525004","display":"Emergency department patient visit (procedure)","userSelected":true}]}],"subject":{"reference":"Patient/cc00e728-de5f-4df8-abcb-1e610496be66"},"period":{"start":"2026-01-01T08:00:00.000+00:00","end":"2026-01-01T12:15:00.000+00:00"},"location":[{"location":{"reference":"Location/35b992f5-3e09-405d-a31e-bdd38a0dea86"},"period":{"start":"2026-01-01T07:45:00.000+00:00","end":"2026-01-01T12:15:00.000+00:00"}},{"location":{"reference":"Location/eec0de8c-c178-4453-993f-6bb920bfe0e3"},"period":{"start":"2026-01-01T08:45:00.000+00:00","end":"2026-01-01T12:15:00.000+00:00"}}]},"request":{"method":"PUT","url":"Encounter/b8cc16e9-51a3-4da2-aa7f-46e776dac28e"}},{"fullUrl":"https://madie.cms.gov/Location/35b992f5-3e09-405d-a31e-bdd38a0dea86","resource":{"resourceType":"Location","id":"35b992f5-3e09-405d-a31e-bdd38a0dea86","meta":{"profile":["http://hl7.org/fhir/us/qicore/StructureDefinition/qicore-location"]},"identifier":[{"use":"usual","system":"http://exampleoflocation.com","value":"B1-S.F1"}],"name":"Medical Surgical East, first floor","type":[{"coding":[{"system":"https://www.cdc.gov/nhsn/cdaportal/terminology/codesystem/hsloc.html","version":"2022","code":"1108-0","display":"Emergency Department","userSelected":true}]}]},"request":{"method":"PUT","url":"Location/35b992f5-3e09-405d-a31e-bdd38a0dea86"}},{"fullUrl":"https://madie.cms.gov/Location/eec0de8c-c178-4453-993f-6bb920bfe0e3","resource":{"resourceType":"Location","id":"eec0de8c-c178-4453-993f-6bb920bfe0e3","meta":{"profile":["http://hl7.org/fhir/us/qicore/StructureDefinition/qicore-location"]},"identifier":[{"use":"usual","system":"http://exampleoflocation.com","value":"B1-S.F2"}],"name":"Medical Surgical East, first floor","type":[{"coding":[{"system":"https://www.cdc.gov/nhsn/cdaportal/terminology/codesystem/hsloc.html","version":"2022","code":"1209-6","display":"Treatment Room","userSelected":true}]}]},"request":{"method":"PUT","url":"Location/eec0de8c-c178-4453-993f-6bb920bfe0e3"}},{"fullUrl":"https://madie.cms.gov/Condition/eab072b5-84fd-4d37-a517-0b786aa97af8","resource":{"resourceType":"Condition","id":"eab072b5-84fd-4d37-a517-0b786aa97af8","meta":{"profile":["http://hl7.org/fhir/us/qicore/StructureDefinition/qicore-condition"]},"category":[{"coding":[{"system":"http://terminology.hl7.org/CodeSystem/condition-category","code":"encounter-diagnosis","display":"Encounter Diagnosis"}]}],"code":{"coding":[{"system":"http://snomed.info/sct","version":"2023-09","code":"10660471000119109","display":"Ulcer of left foot due to type 2 diabetes mellitus (disorder)","userSelected":true}]},"subject":{"reference":"Patient/cc00e728-de5f-4df8-abcb-1e610496be66"},"recordedDate":"2026-01-01T08:00:00.000+00:00"},"request":{"method":"PUT","url":"Condition/eab072b5-84fd-4d37-a517-0b786aa97af8"}},{"fullUrl":"https://madie.cms.gov/Location/645e1f76-9d21-4ede-8f16-342d3efb48a0","resource":{"resourceType":"Location","id":"645e1f76-9d21-4ede-8f16-342d3efb48a0","meta":{"profile":["http://hl7.org/fhir/us/qicore/StructureDefinition/qicore-location"]},"identifier":[{"use":"usual","system":"http://exampleoflocation.com","value":"B1-S.F2"}],"name":"Medical Surgical East, first floor","type":[{"coding":[{"system":"https://www.cdc.gov/nhsn/cdaportal/terminology/codesystem/hsloc.html","version":"2022","code":"1108-0","display":"Emergency Department","userSelected":true}]}]},"request":{"method":"PUT","url":"Location/645e1f76-9d21-4ede-8f16-342d3efb48a0"}},{"fullUrl":"https://madie.cms.gov/Location/5cfbfd4d-066e-41d6-a7ca-ee427cb6a25f","resource":{"resourceType":"Location","id":"5cfbfd4d-066e-41d6-a7ca-ee427cb6a25f","meta":{"profile":["http://hl7.org/fhir/us/qicore/StructureDefinition/qicore-location"]},"identifier":[{"use":"usual","system":"http://exampleoflocation.com","value":"B1-S.F2"}],"name":"Medical Surgical East, first floor","type":[{"coding":[{"system":"https://www.cdc.gov/nhsn/cdaportal/terminology/codesystem/hsloc.html","version":"2022","code":"1108-0","display":"Emergency Department","userSelected":true}]}]},"request":{"method":"PUT","url":"Location/5cfbfd4d-066e-41d6-a7ca-ee427cb6a25f"}},{"fullUrl":"https://madie.cms.gov/Coverage/eadac413-fb0a-4792-94d7-a32baeeb4963","resource":{"resourceType":"Coverage","id":"eadac413-fb0a-4792-94d7-a32baeeb4963","meta":{"profile":["http://hl7.org/fhir/us/qicore/StructureDefinition/qicore-coverage"]},"status":"active","beneficiary":{"reference":"Patient/cc00e728-de5f-4df8-abcb-1e610496be66"},"payor":[{"reference":"Organization/db141f66-a1cc-407b-9e95-adac27adee14"}]},"request":{"method":"PUT","url":"Coverage/eadac413-fb0a-4792-94d7-a32baeeb4963"}},{"fullUrl":"https://madie.cms.gov/Organization/95b34ff2-30e3-4554-8b77-0c81ffff87f5","resource":{"resourceType":"Organization","id":"db141f66-a1cc-407b-9e95-adac27adee14","meta":{"profile":["http://hl7.org/fhir/us/qicore/StructureDefinition/qicore-organization"]},"identifier":[{"use":"temp","system":"urn:oid:2.16.840.1.113883.4.4","value":"21-3259825"}],"active":true,"type":[{"coding":[{"system":"http://terminology.hl7.org/CodeSystem/organization-type","code":"pay","display":"Payer"}]}],"name":"Blue Cross Blue Shield of Texas","telecom":[{"system":"phone","value":"(+1) 972-766-6900"}],"address":[{"use":"billing","type":"postal","line":["P.O. Box 660044"],"city":"Dallas","state":"TX","postalCode":"75266-0044","country":"USA"}]},"request":{"method":"PUT","url":"Organization/db141f66-a1cc-407b-9e95-adac27adee14"}},{"fullUrl":"https://madie.cms.gov/Practitioner/87b92809-1147-469f-870b-d8f2cf064166","resource":{"resourceType":"Practitioner","id":"87b92809-1147-469f-870b-d8f2cf064166","meta":{"profile":["http://hl7.org/fhir/us/qicore/StructureDefinition/qicore-practitioner"]},"identifier":[{"system":"http://hl7.org/fhir/sid/us-npi","value":"123456"}],"name":[{"family":"Evil","prefix":["Dr"]}]},"request":{"method":"PUT","url":"Practitioner/87b92809-1147-469f-870b-d8f2cf064166"}},{"fullUrl":"https://madie.cms.gov/MeasureReport/a3c66b15-f830-4707-9d30-fe4af18aa87b","resource":{"resourceType":"MeasureReport","id":"a3c66b15-f830-4707-9d30-fe4af18aa87b","meta":{"profile":["http://hl7.org/fhir/us/cqfmeasures/StructureDefinition/test-case-cqfm"]},"contained":[{"resourceType":"Parameters","id":"bd7b8eb3-3f88-48b8-b0a8-fc939225e388-parameters","parameter":[{"name":"subject","valueString":"cc00e728-de5f-4df8-abcb-1e610496be66"}]}],"extension":[{"url":"http://hl7.org/fhir/us/cqfmeasures/StructureDefinition/cqfm-inputParameters","valueReference":{"reference":"#bd7b8eb3-3f88-48b8-b0a8-fc939225e388-parameters"}},{"url":"http://hl7.org/fhir/us/cqfmeasures/StructureDefinition/cqfm-testCaseDescription","valueMarkdown":"Child ED enc first day of MP, time to tx 60minutes. "}],"modifierExtension":[{"url":"http://hl7.org/fhir/us/cqfmeasures/StructureDefinition/cqfm-isTestCase","valueBoolean":true}],"status":"complete","type":"individual","measure":"https://madie.cms.gov/Measure/CMS1244ECCQHOQRFHIR","period":{"start":"2026-01-01","end":"2026-12-31"},"group":[{"population":[{"code":{"coding":[{"system":"http://terminology.hl7.org/CodeSystem/measure-population","code":"initial-population","display":"Initial Population"}]},"count":1},{"code":{"coding":[{"system":"http://terminology.hl7.org/CodeSystem/measure-population","code":"denominator","display":"Denominator"}]},"count":1},{"code":{"coding":[{"system":"http://terminology.hl7.org/CodeSystem/measure-population","code":"numerator","display":"Numerator"}]},"count":0}]}]},"request":{"method":"PUT","url":"MeasureReport/a3c66b15-f830-4707-9d30-fe4af18aa87b"}}]}