{"resourceType":"Bundle","id":"tests-66803f75-5dc5-43fb-9844-f18d765a64ec-bundle","type":"transaction","entry":[{"fullUrl":"https://madie.cms.gov/Patient/66803f75-5dc5-43fb-9844-f18d765a64ec","resource":{"resourceType":"Patient","id":"66803f75-5dc5-43fb-9844-f18d765a64ec","meta":{"profile":["http://hl7.org/fhir/us/qicore/StructureDefinition/qicore-patient"]},"extension":[{"url":"http://hl7.org/fhir/us/core/StructureDefinition/us-core-race","extension":[{"url":"ombCategory","valueCoding":{"system":"urn:oid:2.16.840.1.113883.6.238","code":"1002-5","display":"American Indian or Alaska Native","userSelected":true}},{"url":"text","valueString":"American Indian or Alaska Native"}]},{"url":"http://hl7.org/fhir/us/core/StructureDefinition/us-core-ethnicity","extension":[{"url":"ombCategory","valueCoding":{"system":"urn:oid:2.16.840.1.113883.6.238","code":"2135-2","display":"Hispanic or Latino","userSelected":true}},{"url":"text","valueString":"Hispanic or Latino"}]}],"identifier":[{"type":{"coding":[{"system":"http://terminology.hl7.org/CodeSystem/v2-0203","code":"MR"}]},"system":"https://bonnie-fhir.healthit.gov/","value":"6615806fdb207d74c03b8a5f"}],"name":[{"family":"NUMERStrat2Pass","given":["LWBS"]}],"gender":"male","birthDate":"2007-01-01"},"request":{"method":"PUT","url":"Patient/66803f75-5dc5-43fb-9844-f18d765a64ec"}},{"fullUrl":"https://madie.cms.gov/Encounter/24c92e38-68ba-420b-8552-558012bb8e18","resource":{"resourceType":"Encounter","id":"24c92e38-68ba-420b-8552-558012bb8e18","meta":{"profile":["http://hl7.org/fhir/us/qicore/StructureDefinition/qicore-encounter"]},"status":"finished","class":{"system":"http://terminology.hl7.org/CodeSystem/v3-ActCode","code":"EMER","display":"emergency"},"type":[{"coding":[{"system":"http://snomed.info/sct","version":"2023-09","code":"225390008","display":"Triage (procedure)","userSelected":true}]}],"subject":{"reference":"Patient/66803f75-5dc5-43fb-9844-f18d765a64ec"},"period":{"start":"2026-12-31T08:00:00.000+00:00","end":"2026-12-31T08:15:00.000+00:00"},"hospitalization":{"dischargeDisposition":{"coding":[{"system":"http://snomed.info/sct","code":"21541000119102","display":"Patient left without being seen (finding)","userSelected":true}]}}},"request":{"method":"PUT","url":"Encounter/24c92e38-68ba-420b-8552-558012bb8e18"}},{"fullUrl":"https://madie.cms.gov/Coverage/bcae13db-de46-4b1a-93e5-45bb1e86befa","resource":{"resourceType":"Coverage","id":"bcae13db-de46-4b1a-93e5-45bb1e86befa","meta":{"profile":["http://hl7.org/fhir/us/qicore/StructureDefinition/qicore-coverage"]},"status":"active","beneficiary":{"reference":"Patient/66803f75-5dc5-43fb-9844-f18d765a64ec"},"payor":[{"reference":"Organization/e75793c9-fdf6-463a-8c1d-4ee44320dc25"}]},"request":{"method":"PUT","url":"Coverage/bcae13db-de46-4b1a-93e5-45bb1e86befa"}},{"fullUrl":"https://madie.cms.gov/Organization/2e2cbe3f-71cd-4e57-903e-1dba1a9e6be7","resource":{"resourceType":"Organization","id":"e75793c9-fdf6-463a-8c1d-4ee44320dc25","meta":{"profile":["http://hl7.org/fhir/us/qicore/StructureDefinition/qicore-organization"]},"identifier":[{"use":"temp","system":"urn:oid:2.16.840.1.113883.4.4","value":"21-3259825"}],"active":true,"type":[{"coding":[{"system":"http://terminology.hl7.org/CodeSystem/organization-type","code":"pay","display":"Payer"}]}],"name":"Blue Cross Blue Shield of Texas","telecom":[{"system":"phone","value":"(+1) 972-766-6900"}],"address":[{"use":"billing","type":"postal","line":["P.O. Box 660044"],"city":"Dallas","state":"TX","postalCode":"75266-0044","country":"USA"}]},"request":{"method":"PUT","url":"Organization/e75793c9-fdf6-463a-8c1d-4ee44320dc25"}},{"fullUrl":"https://madie.cms.gov/Practitioner/8efd6465-0086-4f86-8bd6-ebd47320f187","resource":{"resourceType":"Practitioner","id":"8efd6465-0086-4f86-8bd6-ebd47320f187","meta":{"profile":["http://hl7.org/fhir/us/qicore/StructureDefinition/qicore-practitioner"]},"identifier":[{"system":"http://hl7.org/fhir/sid/us-npi","value":"123456"}],"name":[{"family":"Evil","prefix":["Dr"]}]},"request":{"method":"PUT","url":"Practitioner/8efd6465-0086-4f86-8bd6-ebd47320f187"}},{"fullUrl":"https://madie.cms.gov/MeasureReport/f4815588-e02c-4a2c-8731-20257c450044","resource":{"resourceType":"MeasureReport","id":"f4815588-e02c-4a2c-8731-20257c450044","meta":{"profile":["http://hl7.org/fhir/us/cqfmeasures/StructureDefinition/test-case-cqfm"]},"contained":[{"resourceType":"Parameters","id":"87e1205d-2e6c-45f8-9a29-715b90720ca4-parameters","parameter":[{"name":"subject","valueString":"66803f75-5dc5-43fb-9844-f18d765a64ec"}]}],"extension":[{"url":"http://hl7.org/fhir/us/cqfmeasures/StructureDefinition/cqfm-inputParameters","valueReference":{"reference":"#87e1205d-2e6c-45f8-9a29-715b90720ca4-parameters"}},{"url":"http://hl7.org/fhir/us/cqfmeasures/StructureDefinition/cqfm-testCaseDescription","valueMarkdown":"Adult, age 18 ED enc last day of MP, LWBS, no mental illness"}],"modifierExtension":[{"url":"http://hl7.org/fhir/us/cqfmeasures/StructureDefinition/cqfm-isTestCase","valueBoolean":true}],"status":"complete","type":"individual","measure":"https://madie.cms.gov/Measure/CMS1244ECCQHOQRFHIR","period":{"start":"2026-01-01","end":"2026-12-31"},"group":[{"population":[{"code":{"coding":[{"system":"http://terminology.hl7.org/CodeSystem/measure-population","code":"initial-population","display":"Initial Population"}]},"count":1},{"code":{"coding":[{"system":"http://terminology.hl7.org/CodeSystem/measure-population","code":"denominator","display":"Denominator"}]},"count":1},{"code":{"coding":[{"system":"http://terminology.hl7.org/CodeSystem/measure-population","code":"numerator","display":"Numerator"}]},"count":1}]}]},"request":{"method":"PUT","url":"MeasureReport/f4815588-e02c-4a2c-8731-20257c450044"}}]}