{"resourceType":"Bundle","id":"tests-540b665b-e89c-466a-9ef8-758b3883a37c-bundle","type":"transaction","entry":[{"fullUrl":"https://madie.cms.gov/Patient/540b665b-e89c-466a-9ef8-758b3883a37c","resource":{"resourceType":"Patient","id":"540b665b-e89c-466a-9ef8-758b3883a37c","meta":{"profile":["http://hl7.org/fhir/us/qicore/StructureDefinition/qicore-patient"]},"extension":[{"url":"http://hl7.org/fhir/us/core/StructureDefinition/us-core-race","extension":[{"url":"ombCategory","valueCoding":{"system":"urn:oid:2.16.840.1.113883.6.238","code":"1002-5","display":"American Indian or Alaska Native","userSelected":true}},{"url":"text","valueString":"American Indian or Alaska Native"}]},{"url":"http://hl7.org/fhir/us/core/StructureDefinition/us-core-ethnicity","extension":[{"url":"ombCategory","valueCoding":{"system":"urn:oid:2.16.840.1.113883.6.238","code":"2135-2","display":"Hispanic or Latino","userSelected":true}},{"url":"text","valueString":"Hispanic or Latino"}]}],"identifier":[{"type":{"coding":[{"system":"http://terminology.hl7.org/CodeSystem/v2-0203","code":"MR"}]},"system":"https://bonnie-fhir.healthit.gov/","value":"661476b015ed5841a5547ebf"}],"name":[{"family":"NUMERStrat3Fail","given":["EDLOS480Minutes"]}],"gender":"male","birthDate":"2009-01-01"},"request":{"method":"PUT","url":"Patient/540b665b-e89c-466a-9ef8-758b3883a37c"}},{"fullUrl":"https://madie.cms.gov/Encounter/f52ae9fb-8900-43b8-8f05-697e3b0ebe07","resource":{"resourceType":"Encounter","id":"f52ae9fb-8900-43b8-8f05-697e3b0ebe07","meta":{"profile":["http://hl7.org/fhir/us/qicore/StructureDefinition/qicore-encounter"]},"status":"finished","class":{"system":"http://terminology.hl7.org/CodeSystem/v3-ActCode","code":"EMER","display":"emergency department"},"type":[{"coding":[{"system":"http://snomed.info/sct","version":"2023-09","code":"4525004","display":"Emergency department patient visit (procedure)","userSelected":true}]}],"subject":{"reference":"Patient/540b665b-e89c-466a-9ef8-758b3883a37c"},"period":{"start":"2026-01-01T00:00:00.000+00:00","end":"2026-01-01T08:00:00.000+00:00"},"diagnosis":[{"condition":{"reference":"Condition/2f625a2f-4991-4c01-94d7-b52cd6d21217"},"use":{"coding":[{"system":"http://terminology.hl7.org/CodeSystem/diagnosis-role","code":"billing"}]},"rank":1}],"location":[{"location":{"reference":"Location/85e59a87-f113-40d1-85d2-b7edbcd8f729"},"period":{"start":"2026-01-01T00:00:00.000+00:00","end":"2026-01-01T08:00:00.000+00:00"}}]},"request":{"method":"PUT","url":"Encounter/f52ae9fb-8900-43b8-8f05-697e3b0ebe07"}},{"fullUrl":"https://madie.cms.gov/Location/85e59a87-f113-40d1-85d2-b7edbcd8f729","resource":{"resourceType":"Location","id":"85e59a87-f113-40d1-85d2-b7edbcd8f729","meta":{"profile":["http://hl7.org/fhir/us/qicore/StructureDefinition/qicore-location"]},"identifier":[{"use":"usual","system":"http://exampleoflocation.com","value":"B1-S.F2"}],"name":"Medical Surgical East, first floor","type":[{"coding":[{"system":"https://www.cdc.gov/nhsn/cdaportal/terminology/codesystem/hsloc.html","version":"2022","code":"1108-0","display":"Emergency Department","userSelected":true}]}]},"request":{"method":"PUT","url":"Location/85e59a87-f113-40d1-85d2-b7edbcd8f729"}},{"fullUrl":"https://madie.cms.gov/Coverage/15deef15-6caf-4fcd-b90d-fe959dc90121","resource":{"resourceType":"Coverage","id":"15deef15-6caf-4fcd-b90d-fe959dc90121","meta":{"profile":["http://hl7.org/fhir/us/qicore/StructureDefinition/qicore-coverage"]},"status":"active","beneficiary":{"reference":"Patient/540b665b-e89c-466a-9ef8-758b3883a37c"},"payor":[{"reference":"Organization/e75793c9-fdf6-463a-8c1d-4ee44320dc25"}]},"request":{"method":"PUT","url":"Coverage/15deef15-6caf-4fcd-b90d-fe959dc90121"}},{"fullUrl":"https://madie.cms.gov/Condition/2f625a2f-4991-4c01-94d7-b52cd6d21217","resource":{"resourceType":"Condition","id":"2f625a2f-4991-4c01-94d7-b52cd6d21217","meta":{"profile":["http://hl7.org/fhir/us/qicore/StructureDefinition/qicore-condition"]},"category":[{"coding":[{"system":"http://terminology.hl7.org/CodeSystem/condition-category","code":"encounter-diagnosis","display":"Encounter Diagnosis"}]}],"code":{"coding":[{"system":"http://snomed.info/sct","version":"2023-09","code":"10349009","display":"Multi-infarct dementia with delirium (disorder)","userSelected":true}]},"subject":{"reference":"Patient/540b665b-e89c-466a-9ef8-758b3883a37c"},"recordedDate":"2026-04-09T08:00:00.000+00:00"},"request":{"method":"PUT","url":"Condition/2f625a2f-4991-4c01-94d7-b52cd6d21217"}},{"fullUrl":"https://madie.cms.gov/Organization/95756b3c-85e1-4483-acf6-3b95cbf3f021","resource":{"resourceType":"Organization","id":"e75793c9-fdf6-463a-8c1d-4ee44320dc25","meta":{"profile":["http://hl7.org/fhir/us/qicore/StructureDefinition/qicore-organization"]},"identifier":[{"use":"temp","system":"urn:oid:2.16.840.1.113883.4.4","value":"21-3259825"}],"active":true,"type":[{"coding":[{"system":"http://terminology.hl7.org/CodeSystem/organization-type","code":"pay","display":"Payer"}]}],"name":"Blue Cross Blue Shield of Texas","telecom":[{"system":"phone","value":"(+1) 972-766-6900"}],"address":[{"use":"billing","type":"postal","line":["P.O. Box 660044"],"city":"Dallas","state":"TX","postalCode":"75266-0044","country":"USA"}]},"request":{"method":"PUT","url":"Organization/e75793c9-fdf6-463a-8c1d-4ee44320dc25"}},{"fullUrl":"https://madie.cms.gov/Practitioner/7908bbff-1d5d-46c2-a27d-79e68b71fe43","resource":{"resourceType":"Practitioner","id":"7908bbff-1d5d-46c2-a27d-79e68b71fe43","meta":{"profile":["http://hl7.org/fhir/us/qicore/StructureDefinition/qicore-practitioner"]},"identifier":[{"system":"http://hl7.org/fhir/sid/us-npi","value":"123456"}],"name":[{"family":"Evil","prefix":["Dr"]}]},"request":{"method":"PUT","url":"Practitioner/7908bbff-1d5d-46c2-a27d-79e68b71fe43"}},{"fullUrl":"https://madie.cms.gov/MeasureReport/770c21fc-f4cb-41e7-b207-6e6aea944fbd","resource":{"resourceType":"MeasureReport","id":"770c21fc-f4cb-41e7-b207-6e6aea944fbd","meta":{"profile":["http://hl7.org/fhir/us/cqfmeasures/StructureDefinition/test-case-cqfm"]},"contained":[{"resourceType":"Parameters","id":"d00fd1b1-4c1b-4940-b568-6427773902c3-parameters","parameter":[{"name":"subject","valueString":"540b665b-e89c-466a-9ef8-758b3883a37c"}]}],"extension":[{"url":"http://hl7.org/fhir/us/cqfmeasures/StructureDefinition/cqfm-inputParameters","valueReference":{"reference":"#d00fd1b1-4c1b-4940-b568-6427773902c3-parameters"}},{"url":"http://hl7.org/fhir/us/cqfmeasures/StructureDefinition/cqfm-testCaseDescription","valueMarkdown":"ED end first min of MP, ED enc and LOS are 480 minutes"}],"modifierExtension":[{"url":"http://hl7.org/fhir/us/cqfmeasures/StructureDefinition/cqfm-isTestCase","valueBoolean":true}],"status":"complete","type":"individual","measure":"https://madie.cms.gov/Measure/CMS1244ECCQHOQRFHIR","period":{"start":"2026-01-01","end":"2026-12-31"},"group":[{"population":[{"code":{"coding":[{"system":"http://terminology.hl7.org/CodeSystem/measure-population","code":"initial-population","display":"Initial Population"}]},"count":1},{"code":{"coding":[{"system":"http://terminology.hl7.org/CodeSystem/measure-population","code":"denominator","display":"Denominator"}]},"count":1},{"code":{"coding":[{"system":"http://terminology.hl7.org/CodeSystem/measure-population","code":"numerator","display":"Numerator"}]},"count":0}]}]},"request":{"method":"PUT","url":"MeasureReport/770c21fc-f4cb-41e7-b207-6e6aea944fbd"}}]}