{"resourceType":"Bundle","id":"tests-cee26b56-54cf-444e-8944-6edfbd6d2b93-bundle","type":"transaction","entry":[{"fullUrl":"https://madie.cms.gov/Patient/cee26b56-54cf-444e-8944-6edfbd6d2b93","resource":{"resourceType":"Patient","id":"cee26b56-54cf-444e-8944-6edfbd6d2b93","meta":{"profile":["http://hl7.org/fhir/us/qicore/StructureDefinition/qicore-patient"]},"extension":[{"url":"http://hl7.org/fhir/us/core/StructureDefinition/us-core-race","extension":[{"url":"ombCategory","valueCoding":{"system":"urn:oid:2.16.840.1.113883.6.238","code":"1002-5","display":"American Indian or Alaska Native","userSelected":true}},{"url":"text","valueString":"American Indian or Alaska Native"}]},{"url":"http://hl7.org/fhir/us/core/StructureDefinition/us-core-ethnicity","extension":[{"url":"ombCategory","valueCoding":{"system":"urn:oid:2.16.840.1.113883.6.238","code":"2135-2","display":"Hispanic or Latino","userSelected":true}},{"url":"text","valueString":"Hispanic or Latino"}]}],"identifier":[{"type":{"coding":[{"system":"http://terminology.hl7.org/CodeSystem/v2-0203","code":"MR"}]},"system":"https://bonnie-fhir.healthit.gov/","value":"661581c7db207d74c03b8a65"}],"name":[{"family":"NUMERStrat3Pass","given":["LWBS"]}],"gender":"male","birthDate":"2010-01-01"},"request":{"method":"PUT","url":"Patient/cee26b56-54cf-444e-8944-6edfbd6d2b93"}},{"fullUrl":"https://madie.cms.gov/Encounter/843618ca-4a1d-4f0d-a93f-5f7fe318cecd","resource":{"resourceType":"Encounter","id":"843618ca-4a1d-4f0d-a93f-5f7fe318cecd","meta":{"profile":["http://hl7.org/fhir/us/qicore/StructureDefinition/qicore-encounter"]},"status":"finished","class":{"system":"http://terminology.hl7.org/CodeSystem/v3-ActCode","code":"EMER","display":"emergency"},"type":[{"coding":[{"system":"http://snomed.info/sct","version":"2023-09","code":"225390008","display":"Triage (procedure)","userSelected":true}]}],"subject":{"reference":"Patient/cee26b56-54cf-444e-8944-6edfbd6d2b93"},"period":{"start":"2026-12-31T08:00:00.000+00:00","end":"2026-12-31T08:15:00.000+00:00"},"diagnosis":[{"condition":{"reference":"Condition/28c6d0a3-d72c-4c07-b9fc-d13feeedf467"},"use":{"coding":[{"system":"http://terminology.hl7.org/CodeSystem/diagnosis-role","code":"billing"}]},"rank":1}],"hospitalization":{"dischargeDisposition":{"coding":[{"system":"http://snomed.info/sct","code":"21541000119102","display":"Patient left without being seen (finding)","userSelected":true}]}}},"request":{"method":"PUT","url":"Encounter/843618ca-4a1d-4f0d-a93f-5f7fe318cecd"}},{"fullUrl":"https://madie.cms.gov/Condition/28c6d0a3-d72c-4c07-b9fc-d13feeedf467","resource":{"resourceType":"Condition","id":"28c6d0a3-d72c-4c07-b9fc-d13feeedf467","meta":{"profile":["http://hl7.org/fhir/us/qicore/StructureDefinition/qicore-condition"]},"category":[{"coding":[{"system":"http://terminology.hl7.org/CodeSystem/condition-category","code":"encounter-diagnosis","display":"Encounter Diagnosis"}]}],"code":{"coding":[{"system":"http://snomed.info/sct","version":"2023-09","code":"10349009","display":"Multi-infarct dementia with delirium (disorder)","userSelected":true}]},"subject":{"reference":"Patient/cee26b56-54cf-444e-8944-6edfbd6d2b93"},"recordedDate":"2025-04-09T08:00:00.000+00:00"},"request":{"method":"PUT","url":"Condition/28c6d0a3-d72c-4c07-b9fc-d13feeedf467"}},{"fullUrl":"https://madie.cms.gov/Coverage/8c6cdad8-b4c4-414c-915b-55a48053a255","resource":{"resourceType":"Coverage","id":"8c6cdad8-b4c4-414c-915b-55a48053a255","meta":{"profile":["http://hl7.org/fhir/us/qicore/StructureDefinition/qicore-coverage"]},"status":"active","beneficiary":{"reference":"Patient/cee26b56-54cf-444e-8944-6edfbd6d2b93"},"payor":[{"reference":"Organization/e75793c9-fdf6-463a-8c1d-4ee44320dc25"}]},"request":{"method":"PUT","url":"Coverage/8c6cdad8-b4c4-414c-915b-55a48053a255"}},{"fullUrl":"https://madie.cms.gov/Organization/dceb8216-83f9-419a-9f91-45d4cb85a885","resource":{"resourceType":"Organization","id":"e75793c9-fdf6-463a-8c1d-4ee44320dc25","meta":{"profile":["http://hl7.org/fhir/us/qicore/StructureDefinition/qicore-organization"]},"identifier":[{"use":"temp","system":"urn:oid:2.16.840.1.113883.4.4","value":"21-3259825"}],"active":true,"type":[{"coding":[{"system":"http://terminology.hl7.org/CodeSystem/organization-type","code":"pay","display":"Payer"}]}],"name":"Blue Cross Blue Shield of Texas","telecom":[{"system":"phone","value":"(+1) 972-766-6900"}],"address":[{"use":"billing","type":"postal","line":["P.O. Box 660044"],"city":"Dallas","state":"TX","postalCode":"75266-0044","country":"USA"}]},"request":{"method":"PUT","url":"Organization/e75793c9-fdf6-463a-8c1d-4ee44320dc25"}},{"fullUrl":"https://madie.cms.gov/Practitioner/a228101e-db10-4850-a378-ca65605faddf","resource":{"resourceType":"Practitioner","id":"a228101e-db10-4850-a378-ca65605faddf","meta":{"profile":["http://hl7.org/fhir/us/qicore/StructureDefinition/qicore-practitioner"]},"identifier":[{"system":"http://hl7.org/fhir/sid/us-npi","value":"123456"}],"name":[{"family":"Evil","prefix":["Dr"]}]},"request":{"method":"PUT","url":"Practitioner/a228101e-db10-4850-a378-ca65605faddf"}},{"fullUrl":"https://madie.cms.gov/MeasureReport/9ff7b786-773d-42ce-9bce-6946beb0a847","resource":{"resourceType":"MeasureReport","id":"9ff7b786-773d-42ce-9bce-6946beb0a847","meta":{"profile":["http://hl7.org/fhir/us/cqfmeasures/StructureDefinition/test-case-cqfm"]},"contained":[{"resourceType":"Parameters","id":"daa25b5a-046b-4e6c-a787-4cd50c4f78ac-parameters","parameter":[{"name":"subject","valueString":"cee26b56-54cf-444e-8944-6edfbd6d2b93"}]}],"extension":[{"url":"http://hl7.org/fhir/us/cqfmeasures/StructureDefinition/cqfm-inputParameters","valueReference":{"reference":"#daa25b5a-046b-4e6c-a787-4cd50c4f78ac-parameters"}},{"url":"http://hl7.org/fhir/us/cqfmeasures/StructureDefinition/cqfm-testCaseDescription","valueMarkdown":"Child, age 17 ED enc last day of MP,  LWBS, mental illness"}],"modifierExtension":[{"url":"http://hl7.org/fhir/us/cqfmeasures/StructureDefinition/cqfm-isTestCase","valueBoolean":true}],"status":"complete","type":"individual","measure":"https://madie.cms.gov/Measure/CMS1244ECCQHOQRFHIR","period":{"start":"2026-01-01","end":"2026-12-31"},"group":[{"population":[{"code":{"coding":[{"system":"http://terminology.hl7.org/CodeSystem/measure-population","code":"initial-population","display":"Initial Population"}]},"count":1},{"code":{"coding":[{"system":"http://terminology.hl7.org/CodeSystem/measure-population","code":"denominator","display":"Denominator"}]},"count":1},{"code":{"coding":[{"system":"http://terminology.hl7.org/CodeSystem/measure-population","code":"numerator","display":"Numerator"}]},"count":1}]}]},"request":{"method":"PUT","url":"MeasureReport/9ff7b786-773d-42ce-9bce-6946beb0a847"}}]}