{"resourceType":"Bundle","id":"tests-21b841f6-b863-4c1d-8798-41c527b04a92-bundle","type":"transaction","entry":[{"fullUrl":"https://madie.cms.gov/Patient/21b841f6-b863-4c1d-8798-41c527b04a92","resource":{"resourceType":"Patient","id":"21b841f6-b863-4c1d-8798-41c527b04a92","meta":{"profile":["http://hl7.org/fhir/us/qicore/StructureDefinition/qicore-patient"]},"extension":[{"url":"http://hl7.org/fhir/us/core/StructureDefinition/us-core-race","extension":[{"url":"ombCategory","valueCoding":{"system":"urn:oid:2.16.840.1.113883.6.238","code":"1002-5","display":"American Indian or Alaska Native","userSelected":true}},{"url":"text","valueString":"American Indian or Alaska Native"}]},{"url":"http://hl7.org/fhir/us/core/StructureDefinition/us-core-ethnicity","extension":[{"url":"ombCategory","valueCoding":{"system":"urn:oid:2.16.840.1.113883.6.238","code":"2135-2","display":"Hispanic or Latino","userSelected":true}},{"url":"text","valueString":"Hispanic or Latino"}]}],"identifier":[{"type":{"coding":[{"system":"http://terminology.hl7.org/CodeSystem/v2-0203","code":"MR"}]},"system":"https://bonnie-fhir.healthit.gov/","value":"661476b015ed5841a5547ebf"}],"name":[{"family":"NUMERStrat4Fail","given":["AdmitInpatientPerformedBoardedTimeGreater240Min"]}],"gender":"male","birthDate":"2008-01-01"},"request":{"method":"PUT","url":"Patient/21b841f6-b863-4c1d-8798-41c527b04a92"}},{"fullUrl":"https://madie.cms.gov/Encounter/8ab7fa07-be12-4998-8236-740ef9224356","resource":{"resourceType":"Encounter","id":"8ab7fa07-be12-4998-8236-740ef9224356","meta":{"profile":["http://hl7.org/fhir/us/qicore/StructureDefinition/qicore-encounter"]},"status":"finished","class":{"system":"http://terminology.hl7.org/CodeSystem/v3-ActCode","code":"EMER","display":"emergency department"},"type":[{"coding":[{"system":"http://snomed.info/sct","version":"2023-09","code":"4525004","display":"Emergency department patient visit (procedure)","userSelected":true}]}],"subject":{"reference":"Patient/21b841f6-b863-4c1d-8798-41c527b04a92"},"period":{"start":"2026-01-01T00:00:00.000+00:00","end":"2026-01-01T08:00:00.000+00:00"},"diagnosis":[{"condition":{"reference":"Condition/e6d62b27-8c60-4594-8598-a6674b32a18b"},"use":{"coding":[{"system":"http://terminology.hl7.org/CodeSystem/diagnosis-role","code":"billing"}]},"rank":1}],"location":[{"location":{"reference":"Location/f7f43409-a3ea-4be9-9d60-a86ac1e2e8d1"},"period":{"start":"2026-01-01T00:00:00.000+00:00","end":"2026-01-01T08:00:00.000+00:00"}}]},"request":{"method":"PUT","url":"Encounter/8ab7fa07-be12-4998-8236-740ef9224356"}},{"fullUrl":"https://madie.cms.gov/Location/f7f43409-a3ea-4be9-9d60-a86ac1e2e8d1","resource":{"resourceType":"Location","id":"f7f43409-a3ea-4be9-9d60-a86ac1e2e8d1","meta":{"profile":["http://hl7.org/fhir/us/qicore/StructureDefinition/qicore-location"]},"identifier":[{"use":"usual","system":"http://exampleoflocation.com","value":"B1-S.F2"}],"name":"Medical Surgical East, first floor","type":[{"coding":[{"system":"https://www.cdc.gov/nhsn/cdaportal/terminology/codesystem/hsloc.html","version":"2022","code":"1108-0","display":"Emergency Department","userSelected":true}]}]},"request":{"method":"PUT","url":"Location/f7f43409-a3ea-4be9-9d60-a86ac1e2e8d1"}},{"fullUrl":"https://madie.cms.gov/Coverage/bade4d1f-1359-472c-a274-d1a71495b732","resource":{"resourceType":"Coverage","id":"bade4d1f-1359-472c-a274-d1a71495b732","meta":{"profile":["http://hl7.org/fhir/us/qicore/StructureDefinition/qicore-coverage"]},"status":"active","beneficiary":{"reference":"Patient/21b841f6-b863-4c1d-8798-41c527b04a92"},"payor":[{"reference":"Organization/3e899f33-84eb-4634-a770-a5a0bd7a80e7"}]},"request":{"method":"PUT","url":"Coverage/bade4d1f-1359-472c-a274-d1a71495b732"}},{"fullUrl":"https://madie.cms.gov/Condition/e6d62b27-8c60-4594-8598-a6674b32a18b","resource":{"resourceType":"Condition","id":"e6d62b27-8c60-4594-8598-a6674b32a18b","meta":{"profile":["http://hl7.org/fhir/us/qicore/StructureDefinition/qicore-condition"]},"category":[{"coding":[{"system":"http://terminology.hl7.org/CodeSystem/condition-category","code":"encounter-diagnosis","display":"Encounter Diagnosis"}]}],"code":{"coding":[{"system":"http://snomed.info/sct","version":"2023-09","code":"10349009","display":"Multi-infarct dementia with delirium (disorder)","userSelected":true}]},"subject":{"reference":"Patient/21b841f6-b863-4c1d-8798-41c527b04a92"},"recordedDate":"2026-04-09T08:00:00.000+00:00"},"request":{"method":"PUT","url":"Condition/e6d62b27-8c60-4594-8598-a6674b32a18b"}},{"fullUrl":"https://madie.cms.gov/Organization/8af30828-36ea-4102-9593-b55a3799e663","resource":{"resourceType":"Organization","id":"3e899f33-84eb-4634-a770-a5a0bd7a80e7","meta":{"profile":["http://hl7.org/fhir/us/qicore/StructureDefinition/qicore-organization"]},"identifier":[{"use":"temp","system":"urn:oid:2.16.840.1.113883.4.4","value":"21-3259825"}],"active":true,"type":[{"coding":[{"system":"http://terminology.hl7.org/CodeSystem/organization-type","code":"pay","display":"Payer"}]}],"name":"Blue Cross Blue Shield of Texas","telecom":[{"system":"phone","value":"(+1) 972-766-6900"}],"address":[{"use":"billing","type":"postal","line":["P.O. Box 660044"],"city":"Dallas","state":"TX","postalCode":"75266-0044","country":"USA"}]},"request":{"method":"PUT","url":"Organization/3e899f33-84eb-4634-a770-a5a0bd7a80e7"}},{"fullUrl":"https://madie.cms.gov/Practitioner/40abd3c2-c2e9-4f69-84e4-58df3966509c","resource":{"resourceType":"Practitioner","id":"40abd3c2-c2e9-4f69-84e4-58df3966509c","meta":{"profile":["http://hl7.org/fhir/us/qicore/StructureDefinition/qicore-practitioner"]},"identifier":[{"system":"http://hl7.org/fhir/sid/us-npi","value":"123456"}],"name":[{"family":"Evil","prefix":["Dr"]}]},"request":{"method":"PUT","url":"Practitioner/40abd3c2-c2e9-4f69-84e4-58df3966509c"}},{"fullUrl":"https://madie.cms.gov/MeasureReport/abd91929-b9ae-4781-87cf-683149d6b754","resource":{"resourceType":"MeasureReport","id":"abd91929-b9ae-4781-87cf-683149d6b754","meta":{"profile":["http://hl7.org/fhir/us/cqfmeasures/StructureDefinition/test-case-cqfm"]},"contained":[{"resourceType":"Parameters","id":"c514b755-d96e-4b24-a31c-c177f1e9fc5a-parameters","parameter":[{"name":"subject","valueString":"21b841f6-b863-4c1d-8798-41c527b04a92"}]}],"extension":[{"url":"http://hl7.org/fhir/us/cqfmeasures/StructureDefinition/cqfm-inputParameters","valueReference":{"reference":"#c514b755-d96e-4b24-a31c-c177f1e9fc5a-parameters"}},{"url":"http://hl7.org/fhir/us/cqfmeasures/StructureDefinition/cqfm-testCaseDescription","valueMarkdown":"Adult ED enc first minute of MP LOS is 480 minutes"}],"modifierExtension":[{"url":"http://hl7.org/fhir/us/cqfmeasures/StructureDefinition/cqfm-isTestCase","valueBoolean":true}],"status":"complete","type":"individual","measure":"https://madie.cms.gov/Measure/CMS1244ECCQHOQRFHIR","period":{"start":"2026-01-01","end":"2026-12-31"},"group":[{"population":[{"code":{"coding":[{"system":"http://terminology.hl7.org/CodeSystem/measure-population","code":"initial-population","display":"Initial Population"}]},"count":1},{"code":{"coding":[{"system":"http://terminology.hl7.org/CodeSystem/measure-population","code":"denominator","display":"Denominator"}]},"count":1},{"code":{"coding":[{"system":"http://terminology.hl7.org/CodeSystem/measure-population","code":"numerator","display":"Numerator"}]},"count":0}]}]},"request":{"method":"PUT","url":"MeasureReport/abd91929-b9ae-4781-87cf-683149d6b754"}}]}