{"resourceType":"Bundle","id":"tests-5ae9589c-1301-45a0-af30-ac7b679b649f-bundle","type":"transaction","entry":[{"fullUrl":"https://madie.cms.gov/Patient/5ae9589c-1301-45a0-af30-ac7b679b649f","resource":{"resourceType":"Patient","id":"5ae9589c-1301-45a0-af30-ac7b679b649f","meta":{"profile":["http://hl7.org/fhir/us/qicore/StructureDefinition/qicore-patient"]},"extension":[{"url":"http://hl7.org/fhir/us/core/StructureDefinition/us-core-race","extension":[{"url":"ombCategory","valueCoding":{"system":"urn:oid:2.16.840.1.113883.6.238","code":"2076-8","display":"Native Hawaiian or Other Pacific Islander","userSelected":true}},{"url":"text","valueString":"Native Hawaiian or Other Pacific Islander"}]},{"url":"http://hl7.org/fhir/us/core/StructureDefinition/us-core-ethnicity","extension":[{"url":"ombCategory","valueCoding":{"system":"urn:oid:2.16.840.1.113883.6.238","code":"2186-5","display":"Not Hispanic or Latino","userSelected":true}},{"url":"text","valueString":"Not Hispanic or Latino"}]}],"identifier":[{"type":{"coding":[{"system":"http://terminology.hl7.org/CodeSystem/v2-0203","code":"MR"}]},"system":"https://bonnie-fhir.healthit.gov/","value":"661579e3db207d74c03b8a54"}],"name":[{"family":"NUMERStrat2Pass","given":["TimeToTx61Min"]}],"gender":"female","birthDate":"2007-12-31"},"request":{"method":"PUT","url":"Patient/5ae9589c-1301-45a0-af30-ac7b679b649f"}},{"fullUrl":"https://madie.cms.gov/Encounter/3fa33df6-77fc-460b-a11d-7f29d7a525e1","resource":{"resourceType":"Encounter","id":"3fa33df6-77fc-460b-a11d-7f29d7a525e1","meta":{"profile":["http://hl7.org/fhir/us/qicore/StructureDefinition/qicore-encounter"]},"status":"finished","class":{"system":"http://terminology.hl7.org/CodeSystem/v3-ActCode","code":"EMER","display":"emergency"},"type":[{"coding":[{"system":"http://snomed.info/sct","version":"2023-09","code":"4525004","display":"Emergency department patient visit (procedure)","userSelected":true}]}],"subject":{"reference":"Patient/5ae9589c-1301-45a0-af30-ac7b679b649f"},"period":{"start":"2026-01-01T08:00:00.000+00:00","end":"2026-01-01T12:15:00.000+00:00"},"diagnosis":[{"condition":{"reference":"Condition/7d5683e7-85bb-4e48-8f2b-b39ee885c1b9"},"use":{"coding":[{"system":"http://terminology.hl7.org/CodeSystem/diagnosis-role","code":"billing"}]},"rank":1}],"location":[{"location":{"reference":"Location/2503e8d8-f637-4237-9f13-2bf448c31f6f"},"period":{"start":"2026-01-01T07:45:00.000+00:00","end":"2026-01-01T12:15:00.000+00:00"}},{"location":{"reference":"Location/c6ebb22e-29f5-4a25-aca3-4d93d5adb02a"},"period":{"start":"2026-01-01T09:01:00.000+00:00","end":"2026-01-01T12:15:00.000+00:00"}}]},"request":{"method":"PUT","url":"Encounter/3fa33df6-77fc-460b-a11d-7f29d7a525e1"}},{"fullUrl":"https://madie.cms.gov/Location/2503e8d8-f637-4237-9f13-2bf448c31f6f","resource":{"resourceType":"Location","id":"2503e8d8-f637-4237-9f13-2bf448c31f6f","meta":{"profile":["http://hl7.org/fhir/us/qicore/StructureDefinition/qicore-location"]},"identifier":[{"use":"usual","system":"http://exampleoflocation.com","value":"B1-S.F1"}],"name":"Medical Surgical East, first floor","type":[{"coding":[{"system":"https://www.cdc.gov/nhsn/cdaportal/terminology/codesystem/hsloc.html","version":"2022","code":"1108-0","display":"Emergency Department","userSelected":true}]}]},"request":{"method":"PUT","url":"Location/2503e8d8-f637-4237-9f13-2bf448c31f6f"}},{"fullUrl":"https://madie.cms.gov/Location/c6ebb22e-29f5-4a25-aca3-4d93d5adb02a","resource":{"resourceType":"Location","id":"c6ebb22e-29f5-4a25-aca3-4d93d5adb02a","meta":{"profile":["http://hl7.org/fhir/us/qicore/StructureDefinition/qicore-location"]},"identifier":[{"use":"usual","system":"http://exampleoflocation.com","value":"B1-S.F2"}],"name":"Medical Surgical East, first floor","type":[{"coding":[{"system":"https://www.cdc.gov/nhsn/cdaportal/terminology/codesystem/hsloc.html","version":"2022","code":"1209-6","display":"Treatment Room","userSelected":true}]}]},"request":{"method":"PUT","url":"Location/c6ebb22e-29f5-4a25-aca3-4d93d5adb02a"}},{"fullUrl":"https://madie.cms.gov/Condition/7d5683e7-85bb-4e48-8f2b-b39ee885c1b9","resource":{"resourceType":"Condition","id":"7d5683e7-85bb-4e48-8f2b-b39ee885c1b9","meta":{"profile":["http://hl7.org/fhir/us/qicore/StructureDefinition/qicore-condition"]},"category":[{"coding":[{"system":"http://terminology.hl7.org/CodeSystem/condition-category","code":"encounter-diagnosis","display":"Encounter Diagnosis"}]}],"code":{"coding":[{"system":"http://snomed.info/sct","version":"2023-09","code":"10660471000119109","display":"Ulcer of left foot due to type 2 diabetes mellitus (disorder)","userSelected":true}]},"subject":{"reference":"Patient/5ae9589c-1301-45a0-af30-ac7b679b649f"},"recordedDate":"2026-01-01T08:00:00.000+00:00"},"request":{"method":"PUT","url":"Condition/7d5683e7-85bb-4e48-8f2b-b39ee885c1b9"}},{"fullUrl":"https://madie.cms.gov/Location/f578ec63-3387-45ae-bf69-f645363fd366","resource":{"resourceType":"Location","id":"f578ec63-3387-45ae-bf69-f645363fd366","meta":{"profile":["http://hl7.org/fhir/us/qicore/StructureDefinition/qicore-location"]},"identifier":[{"use":"usual","system":"http://exampleoflocation.com","value":"B1-S.F1"}],"name":"Medical Surgical East, first floor","type":[{"coding":[{"system":"https://www.cdc.gov/nhsn/cdaportal/terminology/codesystem/hsloc.html","version":"2022","code":"1108-0","display":"Emergency Department","userSelected":true}]}]},"request":{"method":"PUT","url":"Location/f578ec63-3387-45ae-bf69-f645363fd366"}},{"fullUrl":"https://madie.cms.gov/Location/1ef4e723-6e12-4c6b-bb90-0b34f042022b","resource":{"resourceType":"Location","id":"1ef4e723-6e12-4c6b-bb90-0b34f042022b","meta":{"profile":["http://hl7.org/fhir/us/qicore/StructureDefinition/qicore-location"]},"identifier":[{"use":"usual","system":"http://exampleoflocation.com","value":"B1-S.F2"}],"name":"Medical Surgical East, first floor","type":[{"coding":[{"system":"https://www.cdc.gov/nhsn/cdaportal/terminology/codesystem/hsloc.html","version":"2022","code":"1209-6","display":"Treatment Room","userSelected":true}]}]},"request":{"method":"PUT","url":"Location/1ef4e723-6e12-4c6b-bb90-0b34f042022b"}},{"fullUrl":"https://madie.cms.gov/Coverage/c69e9444-f7b9-4a81-a1eb-0f81c6c7d841","resource":{"resourceType":"Coverage","id":"c69e9444-f7b9-4a81-a1eb-0f81c6c7d841","meta":{"profile":["http://hl7.org/fhir/us/qicore/StructureDefinition/qicore-coverage"]},"status":"active","beneficiary":{"reference":"Patient/5ae9589c-1301-45a0-af30-ac7b679b649f"},"payor":[{"reference":"Organization/e75793c9-fdf6-463a-8c1d-4ee44320dc25"}]},"request":{"method":"PUT","url":"Coverage/c69e9444-f7b9-4a81-a1eb-0f81c6c7d841"}},{"fullUrl":"https://madie.cms.gov/Organization/47ff6e95-e184-4aec-8504-1d51f3f2ade2","resource":{"resourceType":"Organization","id":"e75793c9-fdf6-463a-8c1d-4ee44320dc25","meta":{"profile":["http://hl7.org/fhir/us/qicore/StructureDefinition/qicore-organization"]},"identifier":[{"use":"temp","system":"urn:oid:2.16.840.1.113883.4.4","value":"21-3259825"}],"active":true,"type":[{"coding":[{"system":"http://terminology.hl7.org/CodeSystem/organization-type","code":"pay","display":"Payer"}]}],"name":"Blue Cross Blue Shield of Texas","telecom":[{"system":"phone","value":"(+1) 972-766-6900"}],"address":[{"use":"billing","type":"postal","line":["P.O. Box 660044"],"city":"Dallas","state":"TX","postalCode":"75266-0044","country":"USA"}]},"request":{"method":"PUT","url":"Organization/e75793c9-fdf6-463a-8c1d-4ee44320dc25"}},{"fullUrl":"https://madie.cms.gov/Practitioner/9b72dbd5-8f14-4bdb-8964-4a34e13b232b","resource":{"resourceType":"Practitioner","id":"9b72dbd5-8f14-4bdb-8964-4a34e13b232b","meta":{"profile":["http://hl7.org/fhir/us/qicore/StructureDefinition/qicore-practitioner"]},"identifier":[{"system":"http://hl7.org/fhir/sid/us-npi","value":"123456"}],"name":[{"family":"Evil","prefix":["Dr"]}]},"request":{"method":"PUT","url":"Practitioner/9b72dbd5-8f14-4bdb-8964-4a34e13b232b"}},{"fullUrl":"https://madie.cms.gov/MeasureReport/f0ad7f56-b99c-4ff3-b882-057469aff36d","resource":{"resourceType":"MeasureReport","id":"f0ad7f56-b99c-4ff3-b882-057469aff36d","meta":{"profile":["http://hl7.org/fhir/us/cqfmeasures/StructureDefinition/test-case-cqfm"]},"contained":[{"resourceType":"Parameters","id":"176d2622-c81a-4a77-8c02-838224f7b34e-parameters","parameter":[{"name":"subject","valueString":"5ae9589c-1301-45a0-af30-ac7b679b649f"}]}],"extension":[{"url":"http://hl7.org/fhir/us/cqfmeasures/StructureDefinition/cqfm-inputParameters","valueReference":{"reference":"#176d2622-c81a-4a77-8c02-838224f7b34e-parameters"}},{"url":"http://hl7.org/fhir/us/cqfmeasures/StructureDefinition/cqfm-testCaseDescription","valueMarkdown":"Adult, age 18, Encounter first day of MP, time to treatment 61 minutes, no mental illness"}],"modifierExtension":[{"url":"http://hl7.org/fhir/us/cqfmeasures/StructureDefinition/cqfm-isTestCase","valueBoolean":true}],"status":"complete","type":"individual","measure":"https://madie.cms.gov/Measure/CMS1244ECCQHOQRFHIR","period":{"start":"2026-01-01","end":"2026-12-31"},"group":[{"population":[{"code":{"coding":[{"system":"http://terminology.hl7.org/CodeSystem/measure-population","code":"initial-population","display":"Initial Population"}]},"count":1},{"code":{"coding":[{"system":"http://terminology.hl7.org/CodeSystem/measure-population","code":"denominator","display":"Denominator"}]},"count":1},{"code":{"coding":[{"system":"http://terminology.hl7.org/CodeSystem/measure-population","code":"numerator","display":"Numerator"}]},"count":1}]}]},"request":{"method":"PUT","url":"MeasureReport/f0ad7f56-b99c-4ff3-b882-057469aff36d"}}]}