{"resourceType":"Bundle","id":"tests-74855a5c-bb3b-438a-9eb9-7fdc1994d06d-bundle","type":"transaction","entry":[{"fullUrl":"https://madie.cms.gov/Patient/74855a5c-bb3b-438a-9eb9-7fdc1994d06d","resource":{"resourceType":"Patient","id":"74855a5c-bb3b-438a-9eb9-7fdc1994d06d","meta":{"profile":["http://hl7.org/fhir/us/qicore/StructureDefinition/qicore-patient"]},"extension":[{"url":"http://hl7.org/fhir/us/core/StructureDefinition/us-core-race","extension":[{"url":"ombCategory","valueCoding":{"system":"urn:oid:2.16.840.1.113883.6.238","code":"1002-5","display":"American Indian or Alaska Native","userSelected":true}},{"url":"text","valueString":"American Indian or Alaska Native"}]},{"url":"http://hl7.org/fhir/us/core/StructureDefinition/us-core-ethnicity","extension":[{"url":"ombCategory","valueCoding":{"system":"urn:oid:2.16.840.1.113883.6.238","code":"2135-2","display":"Hispanic or Latino","userSelected":true}},{"url":"text","valueString":"Hispanic or Latino"}]}],"identifier":[{"type":{"coding":[{"system":"http://terminology.hl7.org/CodeSystem/v2-0203","code":"MR"}]},"system":"https://bonnie-fhir.healthit.gov/","value":"661476b015ed5841a5547ebf"}],"name":[{"family":"NUMERStrat3Pass","given":["EDObsBoarded"]}],"gender":"male","birthDate":"2009-01-01"},"request":{"method":"PUT","url":"Patient/74855a5c-bb3b-438a-9eb9-7fdc1994d06d"}},{"fullUrl":"https://madie.cms.gov/Encounter/561b6611-025f-45be-a8bd-f239eeef8912","resource":{"resourceType":"Encounter","id":"561b6611-025f-45be-a8bd-f239eeef8912","meta":{"profile":["http://hl7.org/fhir/us/qicore/StructureDefinition/qicore-encounter"]},"status":"finished","class":{"system":"http://terminology.hl7.org/CodeSystem/v3-ActCode","code":"EMER","display":"emergency department"},"type":[{"coding":[{"system":"http://snomed.info/sct","version":"2023-09","code":"4525004","display":"Emergency department patient visit (procedure)","userSelected":true}]}],"subject":{"reference":"Patient/74855a5c-bb3b-438a-9eb9-7fdc1994d06d"},"period":{"start":"2026-01-01T00:00:00.000+00:00","end":"2026-01-01T06:00:00.000+00:00"},"diagnosis":[{"condition":{"reference":"Condition/non-behavioral-health-diagnosis-without-substance-use-disorders-8a64"},"use":{"coding":[{"system":"http://terminology.hl7.org/CodeSystem/diagnosis-role","code":"billing"}]},"rank":1}],"location":[{"location":{"reference":"Location/39c16409-69a7-4c5c-b155-572c1c9b4658"},"period":{"start":"2026-01-01T00:00:00.000+00:00","end":"2026-01-01T06:01:00.000+00:00"}}]},"request":{"method":"PUT","url":"Encounter/561b6611-025f-45be-a8bd-f239eeef8912"}},{"fullUrl":"https://madie.cms.gov/Encounter/653bc280-81f9-4265-af70-7bb323427f09","resource":{"resourceType":"Encounter","id":"653bc280-81f9-4265-af70-7bb323427f09","meta":{"profile":["http://hl7.org/fhir/us/qicore/StructureDefinition/qicore-encounter"]},"status":"finished","class":{"system":"http://terminology.hl7.org/CodeSystem/v3-ActCode","code":"IMP","display":"inpatient encounter"},"type":[{"coding":[{"system":"http://snomed.info/sct","version":"2023-09","code":"183452005","display":"Emergency hospital admission (procedure)","userSelected":true}]}],"subject":{"reference":"Patient/74855a5c-bb3b-438a-9eb9-7fdc1994d06d"},"period":{"start":"2026-01-01T05:00:00.000+00:00","end":"2026-01-03T06:15:00.000+00:00"}},"request":{"method":"PUT","url":"Encounter/653bc280-81f9-4265-af70-7bb323427f09"}},{"fullUrl":"https://madie.cms.gov/ServiceRequest/8d4871de-af2e-4436-bdff-08210c326370","resource":{"resourceType":"ServiceRequest","id":"8d4871de-af2e-4436-bdff-08210c326370","meta":{"profile":["http://hl7.org/fhir/us/qicore/StructureDefinition/qicore-servicerequest"]},"status":"active","intent":"order","code":{"coding":[{"system":"http://snomed.info/sct","code":"5751000175101","display":"Patient bed assigned (finding)","userSelected":true}]},"subject":{"reference":"Patient/74855a5c-bb3b-438a-9eb9-7fdc1994d06d"},"authoredOn":"2026-01-01T02:00:00.000+00:00"},"request":{"method":"PUT","url":"ServiceRequest/8d4871de-af2e-4436-bdff-08210c326370"}},{"fullUrl":"https://madie.cms.gov/Location/39c16409-69a7-4c5c-b155-572c1c9b4658","resource":{"resourceType":"Location","id":"39c16409-69a7-4c5c-b155-572c1c9b4658","meta":{"profile":["http://hl7.org/fhir/us/qicore/StructureDefinition/qicore-location"]},"identifier":[{"use":"usual","system":"http://exampleoflocation.com","value":"B1-S.F2"}],"name":"Medical Surgical East, first floor","type":[{"coding":[{"system":"https://www.cdc.gov/nhsn/cdaportal/terminology/codesystem/hsloc.html","version":"2022","code":"1108-0","display":"Emergency Department","userSelected":true}]}]},"request":{"method":"PUT","url":"Location/39c16409-69a7-4c5c-b155-572c1c9b4658"}},{"fullUrl":"https://madie.cms.gov/Coverage/3a21a86c-906d-4ba6-9e93-dfe9e00a5049","resource":{"resourceType":"Coverage","id":"3a21a86c-906d-4ba6-9e93-dfe9e00a5049","meta":{"profile":["http://hl7.org/fhir/us/qicore/StructureDefinition/qicore-coverage"]},"status":"active","beneficiary":{"reference":"Patient/74855a5c-bb3b-438a-9eb9-7fdc1994d06d"},"payor":[{"reference":"Organization/4da248b0-6e59-49b7-b80e-338aa21d299f"}]},"request":{"method":"PUT","url":"Coverage/3a21a86c-906d-4ba6-9e93-dfe9e00a5049"}},{"fullUrl":"https://madie.cms.gov/Condition/c4b1de38-4624-4959-9cbd-2e9ee113e3aa","resource":{"resourceType":"Condition","id":"c4b1de38-4624-4959-9cbd-2e9ee113e3aa","meta":{"profile":["http://hl7.org/fhir/us/qicore/StructureDefinition/qicore-condition"]},"category":[{"coding":[{"system":"http://terminology.hl7.org/CodeSystem/condition-category","code":"encounter-diagnosis","display":"Encounter Diagnosis"}]}],"code":{"coding":[{"system":"http://snomed.info/sct","version":"2023-09","code":"10674711000119105","display":"Acute severe exacerbation of asthma co-occurrent with allergic rhinitis (disorder)","userSelected":true}]},"subject":{"reference":"Patient/74855a5c-bb3b-438a-9eb9-7fdc1994d06d"},"recordedDate":"2026-01-01T08:00:00.000+00:00"},"request":{"method":"PUT","url":"Condition/c4b1de38-4624-4959-9cbd-2e9ee113e3aa"}},{"fullUrl":"https://madie.cms.gov/Encounter/5e5d4c9b-7d8f-41d1-b202-d01c8557b72e","resource":{"resourceType":"Encounter","id":"5e5d4c9b-7d8f-41d1-b202-d01c8557b72e","meta":{"profile":["http://hl7.org/fhir/us/qicore/StructureDefinition/qicore-encounter"]},"status":"finished","class":{"system":"http://terminology.hl7.org/CodeSystem/v3-ActCode","code":"EMER","display":"emergency"},"type":[{"coding":[{"system":"http://www.ama-assn.org/go/cpt","version":"2024","code":"99221","display":"Initial hospital inpatient or observation care, per day, for the evaluation and management of a patient, which requires a medically appropriate history and/or examination and straightforward or low level medical decision making. When using total time on the date of the encounter for code selection, 40 minutes must be met or exceeded.","userSelected":true}]}],"subject":{"reference":"Patient/74855a5c-bb3b-438a-9eb9-7fdc1994d06d"},"period":{"start":"2026-01-01T02:01:00.000+00:00","end":"2026-01-01T05:59:00.000+00:00"}},"request":{"method":"PUT","url":"Encounter/5e5d4c9b-7d8f-41d1-b202-d01c8557b72e"}},{"fullUrl":"https://madie.cms.gov/Organization/d3238994-daba-4a24-91b5-30c630e48924","resource":{"resourceType":"Organization","id":"4da248b0-6e59-49b7-b80e-338aa21d299f","meta":{"profile":["http://hl7.org/fhir/us/qicore/StructureDefinition/qicore-organization"]},"identifier":[{"use":"temp","system":"urn:oid:2.16.840.1.113883.4.4","value":"21-3259825"}],"active":true,"type":[{"coding":[{"system":"http://terminology.hl7.org/CodeSystem/organization-type","code":"pay","display":"Payer"}]}],"name":"Blue Cross Blue Shield of Texas","telecom":[{"system":"phone","value":"(+1) 972-766-6900"}],"address":[{"use":"billing","type":"postal","line":["P.O. Box 660044"],"city":"Dallas","state":"TX","postalCode":"75266-0044","country":"USA"}]},"request":{"method":"PUT","url":"Organization/4da248b0-6e59-49b7-b80e-338aa21d299f"}},{"fullUrl":"https://madie.cms.gov/Practitioner/c007cf26-b712-4149-a805-60b748ca0430","resource":{"resourceType":"Practitioner","id":"c007cf26-b712-4149-a805-60b748ca0430","meta":{"profile":["http://hl7.org/fhir/us/qicore/StructureDefinition/qicore-practitioner"]},"identifier":[{"system":"http://hl7.org/fhir/sid/us-npi","value":"123456"}],"name":[{"family":"Evil","prefix":["Dr"]}]},"request":{"method":"PUT","url":"Practitioner/c007cf26-b712-4149-a805-60b748ca0430"}},{"fullUrl":"https://madie.cms.gov/MeasureReport/30a55b8b-9aa6-46ea-99d6-10b908878899","resource":{"resourceType":"MeasureReport","id":"30a55b8b-9aa6-46ea-99d6-10b908878899","meta":{"profile":["http://hl7.org/fhir/us/cqfmeasures/StructureDefinition/test-case-cqfm"]},"contained":[{"resourceType":"Parameters","id":"b816d946-47c6-4f5a-92c5-2e23ef885b9d-parameters","parameter":[{"name":"subject","valueString":"74855a5c-bb3b-438a-9eb9-7fdc1994d06d"}]}],"extension":[{"url":"http://hl7.org/fhir/us/cqfmeasures/StructureDefinition/cqfm-inputParameters","valueReference":{"reference":"#b816d946-47c6-4f5a-92c5-2e23ef885b9d-parameters"}},{"url":"http://hl7.org/fhir/us/cqfmeasures/StructureDefinition/cqfm-testCaseDescription","valueMarkdown":"Child, ED observation during ED enc where patient was boarded 6 hrs 1 min; Enc 8 hrs, enc departure 8 hrs 1 min. dx asthma "}],"modifierExtension":[{"url":"http://hl7.org/fhir/us/cqfmeasures/StructureDefinition/cqfm-isTestCase","valueBoolean":true}],"status":"complete","type":"individual","measure":"https://madie.cms.gov/Measure/CMS1244ECCQHOQRFHIR","period":{"start":"2026-01-01","end":"2026-12-31"},"group":[{"population":[{"code":{"coding":[{"system":"http://terminology.hl7.org/CodeSystem/measure-population","code":"initial-population","display":"Initial Population"}]},"count":1},{"code":{"coding":[{"system":"http://terminology.hl7.org/CodeSystem/measure-population","code":"denominator","display":"Denominator"}]},"count":1},{"code":{"coding":[{"system":"http://terminology.hl7.org/CodeSystem/measure-population","code":"numerator","display":"Numerator"}]},"count":0}]}]},"request":{"method":"PUT","url":"MeasureReport/30a55b8b-9aa6-46ea-99d6-10b908878899"}}]}