{"resourceType":"Bundle","id":"tests-82c3fbd5-6025-4dfd-9a90-881f3df1f97b-bundle","type":"transaction","entry":[{"fullUrl":"https://madie.cms.gov/Patient/82c3fbd5-6025-4dfd-9a90-881f3df1f97b","resource":{"resourceType":"Patient","id":"82c3fbd5-6025-4dfd-9a90-881f3df1f97b","meta":{"profile":["http://hl7.org/fhir/us/qicore/StructureDefinition/qicore-patient"]},"extension":[{"url":"http://hl7.org/fhir/us/core/StructureDefinition/us-core-race","extension":[{"url":"ombCategory","valueCoding":{"system":"urn:oid:2.16.840.1.113883.6.238","code":"1002-5","display":"American Indian or Alaska Native","userSelected":true}},{"url":"text","valueString":"American Indian or Alaska Native"}]},{"url":"http://hl7.org/fhir/us/core/StructureDefinition/us-core-ethnicity","extension":[{"url":"ombCategory","valueCoding":{"system":"urn:oid:2.16.840.1.113883.6.238","code":"2135-2","display":"Hispanic or Latino","userSelected":true}},{"url":"text","valueString":"Hispanic or Latino"}]}],"identifier":[{"type":{"coding":[{"system":"http://terminology.hl7.org/CodeSystem/v2-0203","code":"MR"}]},"system":"https://bonnie-fhir.healthit.gov/","value":"6617e30316793f5a4fae16fe"}],"name":[{"family":"NUMERStrat1Fail","given":["DecisionToAdmitAssessmentOneMinAfterDeparture"]}],"gender":"male","birthDate":"2009-01-01"},"request":{"method":"PUT","url":"Patient/82c3fbd5-6025-4dfd-9a90-881f3df1f97b"}},{"fullUrl":"https://madie.cms.gov/Encounter/2b029a38-aea3-48e7-b573-be45b98b0d6a","resource":{"resourceType":"Encounter","id":"2b029a38-aea3-48e7-b573-be45b98b0d6a","meta":{"profile":["http://hl7.org/fhir/us/qicore/StructureDefinition/qicore-encounter"]},"status":"finished","class":{"system":"http://terminology.hl7.org/CodeSystem/v3-ActCode","code":"EMER","display":"emergency"},"type":[{"coding":[{"system":"http://snomed.info/sct","version":"2023-09","code":"4525004","display":"Emergency department patient visit (procedure)","userSelected":true}]}],"subject":{"reference":"Patient/82c3fbd5-6025-4dfd-9a90-881f3df1f97b"},"period":{"start":"2026-01-01T00:00:00.000+00:00","end":"2026-01-01T06:00:00.000+00:00"},"diagnosis":[{"condition":{"reference":"Condition/behavioral-health-diagnosis-without-substance-use-disorders-9d16"},"use":{"coding":[{"system":"http://terminology.hl7.org/CodeSystem/diagnosis-role","code":"billing"}]},"rank":1}],"location":[{"location":{"reference":"Location/dc979fe5-9b44-4308-9afd-7a300f310fc0"},"period":{"start":"2026-01-01T00:00:00.000+00:00","end":"2026-01-01T06:01:00.000+00:00"}}]},"request":{"method":"PUT","url":"Encounter/2b029a38-aea3-48e7-b573-be45b98b0d6a"}},{"fullUrl":"https://madie.cms.gov/Encounter/a8a6926d-a56c-4441-9956-1167d1cceef8","resource":{"resourceType":"Encounter","id":"a8a6926d-a56c-4441-9956-1167d1cceef8","meta":{"profile":["http://hl7.org/fhir/us/qicore/StructureDefinition/qicore-encounter"]},"status":"finished","class":{"system":"http://terminology.hl7.org/CodeSystem/v3-ActCode","code":"IMP","display":"inpatient"},"type":[{"coding":[{"system":"http://snomed.info/sct","version":"2023-09","code":"183452005","display":"Emergency hospital admission (procedure)","userSelected":true}]}],"subject":{"reference":"Patient/82c3fbd5-6025-4dfd-9a90-881f3df1f97b"},"period":{"start":"2026-01-01T06:00:00.000+00:00","end":"2026-01-03T06:15:00.000+00:00"}},"request":{"method":"PUT","url":"Encounter/a8a6926d-a56c-4441-9956-1167d1cceef8"}},{"fullUrl":"https://madie.cms.gov/Location/dc979fe5-9b44-4308-9afd-7a300f310fc0","resource":{"resourceType":"Location","id":"dc979fe5-9b44-4308-9afd-7a300f310fc0","meta":{"profile":["http://hl7.org/fhir/us/qicore/StructureDefinition/qicore-location"]},"identifier":[{"use":"usual","system":"http://exampleoflocation.com","value":"B1-S.F2"}],"name":"Local ED","type":[{"coding":[{"system":"https://www.cdc.gov/nhsn/cdaportal/terminology/codesystem/hsloc.html","version":"2022","code":"1108-0","display":"Emergency Department","userSelected":true}]}]},"request":{"method":"PUT","url":"Location/dc979fe5-9b44-4308-9afd-7a300f310fc0"}},{"fullUrl":"https://madie.cms.gov/Observation/ece41a2e-8668-46f2-a646-0c85bd48c835","resource":{"resourceType":"Observation","id":"ece41a2e-8668-46f2-a646-0c85bd48c835","meta":{"profile":["http://hl7.org/fhir/us/qicore/StructureDefinition/qicore-observation"]},"status":"final","category":[{"coding":[{"system":"http://terminology.hl7.org/CodeSystem/observation-category","code":"survey","display":"Survey"}]}],"code":{"coding":[{"system":"http://loinc.org","version":"2.76","code":"28568-4","display":"Physician Emergency department Note","userSelected":true}]},"subject":{"reference":"Patient/82c3fbd5-6025-4dfd-9a90-881f3df1f97b"},"effectiveDateTime":"2026-01-01T06:01:00.000+00:00","valueCodeableConcept":{"coding":[{"system":"http://snomed.info/sct","code":"434081000124108","display":"Patient requires hospitalization (finding)","userSelected":true}]}},"request":{"method":"PUT","url":"Observation/ece41a2e-8668-46f2-a646-0c85bd48c835"}},{"fullUrl":"https://madie.cms.gov/Condition/e9e75643-02e4-400a-9080-c8d6a44a5d12","resource":{"resourceType":"Condition","id":"e9e75643-02e4-400a-9080-c8d6a44a5d12","meta":{"profile":["http://hl7.org/fhir/us/qicore/StructureDefinition/qicore-condition"]},"category":[{"coding":[{"system":"http://terminology.hl7.org/CodeSystem/condition-category","code":"encounter-diagnosis","display":"Encounter Diagnosis"}]}],"code":{"coding":[{"system":"http://snomed.info/sct","version":"2023-09","code":"10674711000119105","display":"Acute severe exacerbation of asthma co-occurrent with allergic rhinitis (disorder)","userSelected":true}]},"subject":{"reference":"Patient/82c3fbd5-6025-4dfd-9a90-881f3df1f97b"},"recordedDate":"2025-04-18T08:00:00.000+00:00"},"request":{"method":"PUT","url":"Condition/e9e75643-02e4-400a-9080-c8d6a44a5d12"}},{"fullUrl":"https://madie.cms.gov/Coverage/6cc98ed1-813a-4886-a1b2-3d51e4a36e4c","resource":{"resourceType":"Coverage","id":"6cc98ed1-813a-4886-a1b2-3d51e4a36e4c","meta":{"profile":["http://hl7.org/fhir/us/qicore/StructureDefinition/qicore-coverage"]},"status":"active","beneficiary":{"reference":"Patient/82c3fbd5-6025-4dfd-9a90-881f3df1f97b"},"payor":[{"reference":"Organization/3e899f33-84eb-4634-a770-a5a0bd7a80e7"}]},"request":{"method":"PUT","url":"Coverage/6cc98ed1-813a-4886-a1b2-3d51e4a36e4c"}},{"fullUrl":"https://madie.cms.gov/Organization/ab615153-9813-4d13-a7f2-2f1482ccf23e","resource":{"resourceType":"Organization","id":"3e899f33-84eb-4634-a770-a5a0bd7a80e7","meta":{"profile":["http://hl7.org/fhir/us/qicore/StructureDefinition/qicore-organization"]},"identifier":[{"use":"temp","system":"urn:oid:2.16.840.1.113883.4.4","value":"21-3259825"}],"active":true,"type":[{"coding":[{"system":"http://terminology.hl7.org/CodeSystem/organization-type","code":"pay","display":"Payer"}]}],"name":"Blue Cross Blue Shield of Texas","telecom":[{"system":"phone","value":"(+1) 972-766-6900"}],"address":[{"use":"billing","type":"postal","line":["P.O. Box 660044"],"city":"Dallas","state":"TX","postalCode":"75266-0044","country":"USA"}]},"request":{"method":"PUT","url":"Organization/3e899f33-84eb-4634-a770-a5a0bd7a80e7"}},{"fullUrl":"https://madie.cms.gov/Practitioner/b25a8e8c-52bc-4796-b50b-3382104c270a","resource":{"resourceType":"Practitioner","id":"b25a8e8c-52bc-4796-b50b-3382104c270a","meta":{"profile":["http://hl7.org/fhir/us/qicore/StructureDefinition/qicore-practitioner"]},"identifier":[{"system":"http://hl7.org/fhir/sid/us-npi","value":"123456"}],"name":[{"family":"Evil","prefix":["Dr"]}]},"request":{"method":"PUT","url":"Practitioner/b25a8e8c-52bc-4796-b50b-3382104c270a"}},{"fullUrl":"https://madie.cms.gov/MeasureReport/2e5790a6-c3a1-497f-af96-1f27fff57079","resource":{"resourceType":"MeasureReport","id":"2e5790a6-c3a1-497f-af96-1f27fff57079","meta":{"profile":["http://hl7.org/fhir/us/cqfmeasures/StructureDefinition/test-case-cqfm"]},"contained":[{"resourceType":"Parameters","id":"b274862a-17f7-45fd-ac57-056ddbe581b1-parameters","parameter":[{"name":"subject","valueString":"82c3fbd5-6025-4dfd-9a90-881f3df1f97b"}]}],"extension":[{"url":"http://hl7.org/fhir/us/cqfmeasures/StructureDefinition/cqfm-inputParameters","valueReference":{"reference":"#b274862a-17f7-45fd-ac57-056ddbe581b1-parameters"}},{"url":"http://hl7.org/fhir/us/cqfmeasures/StructureDefinition/cqfm-testCaseDescription","valueMarkdown":"Enc midnight 1st day of MP, decision to admit 1 min after departure"}],"modifierExtension":[{"url":"http://hl7.org/fhir/us/cqfmeasures/StructureDefinition/cqfm-isTestCase","valueBoolean":true}],"status":"complete","type":"individual","measure":"https://madie.cms.gov/Measure/CMS1244ECCQHOQRFHIR","period":{"start":"2026-01-01","end":"2026-12-31"},"group":[{"population":[{"code":{"coding":[{"system":"http://terminology.hl7.org/CodeSystem/measure-population","code":"initial-population","display":"Initial Population"}]},"count":1},{"code":{"coding":[{"system":"http://terminology.hl7.org/CodeSystem/measure-population","code":"denominator","display":"Denominator"}]},"count":1},{"code":{"coding":[{"system":"http://terminology.hl7.org/CodeSystem/measure-population","code":"numerator","display":"Numerator"}]},"count":0}]}]},"request":{"method":"PUT","url":"MeasureReport/2e5790a6-c3a1-497f-af96-1f27fff57079"}}]}