{"resourceType":"Bundle","id":"tests-9fed66ec-d314-4a2e-a6d5-056ec2f702c2-bundle","type":"transaction","entry":[{"fullUrl":"https://madie.cms.gov/Patient/9fed66ec-d314-4a2e-a6d5-056ec2f702c2","resource":{"resourceType":"Patient","id":"9fed66ec-d314-4a2e-a6d5-056ec2f702c2","meta":{"profile":["http://hl7.org/fhir/us/qicore/StructureDefinition/qicore-patient"]},"extension":[{"url":"http://hl7.org/fhir/us/core/StructureDefinition/us-core-race","extension":[{"url":"ombCategory","valueCoding":{"system":"urn:oid:2.16.840.1.113883.6.238","code":"2076-8","display":"Native Hawaiian or Other Pacific Islander","userSelected":true}},{"url":"text","valueString":"Native Hawaiian or Other Pacific Islander"}]},{"url":"http://hl7.org/fhir/us/core/StructureDefinition/us-core-ethnicity","extension":[{"url":"ombCategory","valueCoding":{"system":"urn:oid:2.16.840.1.113883.6.238","code":"2186-5","display":"Not Hispanic or Latino","userSelected":true}},{"url":"text","valueString":"Not Hispanic or Latino"}]}],"identifier":[{"type":{"coding":[{"system":"http://terminology.hl7.org/CodeSystem/v2-0203","code":"MR"}]},"system":"https://bonnie-fhir.healthit.gov/","value":"661579e3db207d74c03b8a55"}],"name":[{"family":"NUMERStrat1Pass","given":["TimeTx61LOS481MinsObsStay"]}],"gender":"other","birthDate":"2009-12-31"},"request":{"method":"PUT","url":"Patient/9fed66ec-d314-4a2e-a6d5-056ec2f702c2"}},{"fullUrl":"https://madie.cms.gov/Encounter/6a053403-58d6-4334-a8d9-12ed4676722b","resource":{"resourceType":"Encounter","id":"6a053403-58d6-4334-a8d9-12ed4676722b","meta":{"profile":["http://hl7.org/fhir/us/qicore/StructureDefinition/qicore-encounter"]},"status":"finished","class":{"system":"http://terminology.hl7.org/CodeSystem/v3-ActCode","code":"EMER","display":"emergency"},"type":[{"coding":[{"system":"http://snomed.info/sct","version":"2023-09","code":"4525004","display":"Emergency department patient visit (procedure)","userSelected":true}]}],"subject":{"reference":"Patient/9fed66ec-d314-4a2e-a6d5-056ec2f702c2"},"period":{"start":"2026-01-01T07:00:00.000+00:00","end":"2026-01-01T15:15:00.000+00:00"},"location":[{"location":{"reference":"Location/d6551ad5-27d4-47d2-9b09-495abb62c526"},"period":{"start":"2026-01-01T07:45:00.000+00:00","end":"2026-01-01T16:15:00.000+00:00"}},{"location":{"reference":"Location/4b6a93cc-82e2-4543-8425-a1e629462ec2"},"period":{"start":"2026-01-01T08:46:00.000+00:00","end":"2026-01-01T12:15:00.000+00:00"}}]},"request":{"method":"PUT","url":"Encounter/6a053403-58d6-4334-a8d9-12ed4676722b"}},{"fullUrl":"https://madie.cms.gov/Location/d6551ad5-27d4-47d2-9b09-495abb62c526","resource":{"resourceType":"Location","id":"d6551ad5-27d4-47d2-9b09-495abb62c526","meta":{"profile":["http://hl7.org/fhir/us/qicore/StructureDefinition/qicore-location"]},"identifier":[{"use":"usual","system":"http://exampleoflocation.com","value":"B1-S.F1"}],"name":"Medical Surgical East, first floor","type":[{"coding":[{"system":"https://www.cdc.gov/nhsn/cdaportal/terminology/codesystem/hsloc.html","version":"2022","code":"1108-0","display":"Emergency Department","userSelected":true}]}]},"request":{"method":"PUT","url":"Location/d6551ad5-27d4-47d2-9b09-495abb62c526"}},{"fullUrl":"https://madie.cms.gov/Encounter/01a9c624-e0f9-4b5f-9d87-a4a07059f8d1","resource":{"resourceType":"Encounter","id":"01a9c624-e0f9-4b5f-9d87-a4a07059f8d1","meta":{"profile":["http://hl7.org/fhir/us/qicore/StructureDefinition/qicore-encounter"]},"status":"finished","class":{"system":"http://terminology.hl7.org/CodeSystem/v3-ActCode","code":"EMER","display":"emergency"},"type":[{"coding":[{"system":"http://www.ama-assn.org/go/cpt","version":"2024","code":"99221","display":"Initial hospital inpatient or observation care, per day, for the evaluation and management of a patient, which requires a medically appropriate history and/or examination and straightforward or low level medical decision making. When using total time on the date of the encounter for code selection, 40 minutes must be met or exceeded.","userSelected":true}]}],"subject":{"reference":"Patient/9fed66ec-d314-4a2e-a6d5-056ec2f702c2"},"period":{"start":"2026-01-01T08:01:00.000+00:00","end":"2026-01-01T12:59:00.000+00:00"}},"request":{"method":"PUT","url":"Encounter/01a9c624-e0f9-4b5f-9d87-a4a07059f8d1"}},{"fullUrl":"https://madie.cms.gov/Location/4b6a93cc-82e2-4543-8425-a1e629462ec2","resource":{"resourceType":"Location","id":"4b6a93cc-82e2-4543-8425-a1e629462ec2","meta":{"profile":["http://hl7.org/fhir/us/qicore/StructureDefinition/qicore-location"]},"identifier":[{"use":"usual","system":"http://exampleoflocation.com","value":"B1-S.F2"}],"name":"Medical Surgical East, first floor","type":[{"coding":[{"system":"https://www.cdc.gov/nhsn/cdaportal/terminology/codesystem/hsloc.html","version":"2022","code":"1209-6","display":"Treatment Room","userSelected":true}]}]},"request":{"method":"PUT","url":"Location/4b6a93cc-82e2-4543-8425-a1e629462ec2"}},{"fullUrl":"https://madie.cms.gov/Condition/30b1593d-e930-480d-9c70-a03ce31c30b0","resource":{"resourceType":"Condition","id":"30b1593d-e930-480d-9c70-a03ce31c30b0","meta":{"profile":["http://hl7.org/fhir/us/qicore/StructureDefinition/qicore-condition"]},"category":[{"coding":[{"system":"http://terminology.hl7.org/CodeSystem/condition-category","code":"encounter-diagnosis","display":"Encounter Diagnosis"}]}],"code":{"coding":[{"system":"http://snomed.info/sct","version":"2023-09","code":"10660471000119109","display":"Ulcer of left foot due to type 2 diabetes mellitus (disorder)","userSelected":true}]},"subject":{"reference":"Patient/9fed66ec-d314-4a2e-a6d5-056ec2f702c2"},"recordedDate":"2026-01-01T08:00:00.000+00:00"},"request":{"method":"PUT","url":"Condition/30b1593d-e930-480d-9c70-a03ce31c30b0"}},{"fullUrl":"https://madie.cms.gov/Location/714c13be-631f-42e7-8bb0-ef232aa2e8d4","resource":{"resourceType":"Location","id":"714c13be-631f-42e7-8bb0-ef232aa2e8d4","meta":{"profile":["http://hl7.org/fhir/us/qicore/StructureDefinition/qicore-location"]},"identifier":[{"use":"usual","system":"http://exampleoflocation.com","value":"B1-S.F2"}],"name":"Medical Surgical East, first floor","type":[{"coding":[{"system":"https://www.cdc.gov/nhsn/cdaportal/terminology/codesystem/hsloc.html","version":"2022","code":"1108-0","display":"Emergency Department","userSelected":true}]}]},"request":{"method":"PUT","url":"Location/714c13be-631f-42e7-8bb0-ef232aa2e8d4"}},{"fullUrl":"https://madie.cms.gov/Location/f357a361-b282-40df-b15d-696f0e87305b","resource":{"resourceType":"Location","id":"f357a361-b282-40df-b15d-696f0e87305b","meta":{"profile":["http://hl7.org/fhir/us/qicore/StructureDefinition/qicore-location"]},"identifier":[{"use":"usual","system":"http://exampleoflocation.com","value":"B1-S.F2"}],"name":"Medical Surgical East, first floor","type":[{"coding":[{"system":"https://www.cdc.gov/nhsn/cdaportal/terminology/codesystem/hsloc.html","version":"2022","code":"1108-0","display":"Emergency Department","userSelected":true}]}]},"request":{"method":"PUT","url":"Location/f357a361-b282-40df-b15d-696f0e87305b"}},{"fullUrl":"https://madie.cms.gov/Coverage/7889a55b-f279-41b7-afef-7d663b3ba5ba","resource":{"resourceType":"Coverage","id":"7889a55b-f279-41b7-afef-7d663b3ba5ba","meta":{"profile":["http://hl7.org/fhir/us/qicore/StructureDefinition/qicore-coverage"]},"status":"active","beneficiary":{"reference":"Patient/9fed66ec-d314-4a2e-a6d5-056ec2f702c2"},"payor":[{"reference":"Organization/3e899f33-84eb-4634-a770-a5a0bd7a80e7"}]},"request":{"method":"PUT","url":"Coverage/7889a55b-f279-41b7-afef-7d663b3ba5ba"}},{"fullUrl":"https://madie.cms.gov/Organization/f1bf67b3-5b7e-485d-80e3-35f0432f5bff","resource":{"resourceType":"Organization","id":"3e899f33-84eb-4634-a770-a5a0bd7a80e7","meta":{"profile":["http://hl7.org/fhir/us/qicore/StructureDefinition/qicore-organization"]},"identifier":[{"use":"temp","system":"urn:oid:2.16.840.1.113883.4.4","value":"21-3259825"}],"active":true,"type":[{"coding":[{"system":"http://terminology.hl7.org/CodeSystem/organization-type","code":"pay","display":"Payer"}]}],"name":"Blue Cross Blue Shield of Texas","telecom":[{"system":"phone","value":"(+1) 972-766-6900"}],"address":[{"use":"billing","type":"postal","line":["P.O. Box 660044"],"city":"Dallas","state":"TX","postalCode":"75266-0044","country":"USA"}]},"request":{"method":"PUT","url":"Organization/3e899f33-84eb-4634-a770-a5a0bd7a80e7"}},{"fullUrl":"https://madie.cms.gov/Practitioner/3564f662-d04e-48fe-870c-ce39346475d1","resource":{"resourceType":"Practitioner","id":"3564f662-d04e-48fe-870c-ce39346475d1","meta":{"profile":["http://hl7.org/fhir/us/qicore/StructureDefinition/qicore-practitioner"]},"identifier":[{"system":"http://hl7.org/fhir/sid/us-npi","value":"123456"}],"name":[{"family":"Evil","prefix":["Dr"]}]},"request":{"method":"PUT","url":"Practitioner/3564f662-d04e-48fe-870c-ce39346475d1"}},{"fullUrl":"https://madie.cms.gov/MeasureReport/3b586c33-7c93-40ea-9577-dc4b4274436d","resource":{"resourceType":"MeasureReport","id":"3b586c33-7c93-40ea-9577-dc4b4274436d","meta":{"profile":["http://hl7.org/fhir/us/cqfmeasures/StructureDefinition/test-case-cqfm"]},"contained":[{"resourceType":"Parameters","id":"4aad8c40-5a03-4d7b-82b4-baea33b951ad-parameters","parameter":[{"name":"subject","valueString":"9fed66ec-d314-4a2e-a6d5-056ec2f702c2"}]}],"extension":[{"url":"http://hl7.org/fhir/us/cqfmeasures/StructureDefinition/cqfm-inputParameters","valueReference":{"reference":"#4aad8c40-5a03-4d7b-82b4-baea33b951ad-parameters"}},{"url":"http://hl7.org/fhir/us/cqfmeasures/StructureDefinition/cqfm-testCaseDescription","valueMarkdown":"Time to ED to treatment, LOS in ED 8hr plus, with min observation stay"}],"modifierExtension":[{"url":"http://hl7.org/fhir/us/cqfmeasures/StructureDefinition/cqfm-isTestCase","valueBoolean":true}],"status":"complete","type":"individual","measure":"https://madie.cms.gov/Measure/CMS1244ECCQHOQRFHIR","period":{"start":"2026-01-01","end":"2026-12-31"},"group":[{"population":[{"code":{"coding":[{"system":"http://terminology.hl7.org/CodeSystem/measure-population","code":"initial-population","display":"Initial Population"}]},"count":1},{"code":{"coding":[{"system":"http://terminology.hl7.org/CodeSystem/measure-population","code":"denominator","display":"Denominator"}]},"count":1},{"code":{"coding":[{"system":"http://terminology.hl7.org/CodeSystem/measure-population","code":"numerator","display":"Numerator"}]},"count":1}]}]},"request":{"method":"PUT","url":"MeasureReport/3b586c33-7c93-40ea-9577-dc4b4274436d"}}]}