{"resourceType":"Bundle","id":"tests-9b5e4d84-366b-4082-8409-b7e18e0a3c45-bundle","type":"transaction","entry":[{"fullUrl":"https://madie.cms.gov/Patient/9b5e4d84-366b-4082-8409-b7e18e0a3c45","resource":{"resourceType":"Patient","id":"9b5e4d84-366b-4082-8409-b7e18e0a3c45","meta":{"profile":["http://hl7.org/fhir/us/qicore/StructureDefinition/qicore-patient"]},"extension":[{"url":"http://hl7.org/fhir/us/core/StructureDefinition/us-core-race","extension":[{"url":"ombCategory","valueCoding":{"system":"urn:oid:2.16.840.1.113883.6.238","code":"1002-5","display":"American Indian or Alaska Native","userSelected":true}},{"url":"text","valueString":"American Indian or Alaska Native"}]},{"url":"http://hl7.org/fhir/us/core/StructureDefinition/us-core-ethnicity","extension":[{"url":"ombCategory","valueCoding":{"system":"urn:oid:2.16.840.1.113883.6.238","code":"2135-2","display":"Hispanic or Latino","userSelected":true}},{"url":"text","valueString":"Hispanic or Latino"}]}],"identifier":[{"type":{"coding":[{"system":"http://terminology.hl7.org/CodeSystem/v2-0203","code":"MR"}]},"system":"https://bonnie-fhir.healthit.gov/","value":"661476b015ed5841a5547ebf"}],"name":[{"family":"NUMERStrat4Pass","given":["Boarded241MinOrderAdmit"]}],"gender":"male","birthDate":"2007-01-01"},"request":{"method":"PUT","url":"Patient/9b5e4d84-366b-4082-8409-b7e18e0a3c45"}},{"fullUrl":"https://madie.cms.gov/Encounter/bd1d9bb8-2646-4ce4-989b-659736dc306b","resource":{"resourceType":"Encounter","id":"bd1d9bb8-2646-4ce4-989b-659736dc306b","meta":{"profile":["http://hl7.org/fhir/us/qicore/StructureDefinition/qicore-encounter"]},"status":"finished","class":{"system":"http://terminology.hl7.org/CodeSystem/v3-ActCode","code":"EMER","display":"emergency department"},"type":[{"coding":[{"system":"http://snomed.info/sct","version":"2023-09","code":"4525004","display":"Emergency department patient visit (procedure)","userSelected":true}]}],"subject":{"reference":"Patient/9b5e4d84-366b-4082-8409-b7e18e0a3c45"},"period":{"start":"2026-01-01T19:58:00.000+00:00","end":"2026-01-01T23:59:00.000+00:00"},"diagnosis":[{"condition":{"reference":"Condition/075c98b3-3f3b-41e2-9325-944e4f712cb3"},"use":{"coding":[{"system":"http://terminology.hl7.org/CodeSystem/diagnosis-role","code":"billing"}]},"rank":1}],"location":[{"location":{"reference":"Location/02eec1a2-8bae-4f30-bdc5-3483b2163e4b"},"period":{"start":"2026-01-01T19:58:00.000+00:00","end":"2026-01-01T23:59:00.000+00:00"}}]},"request":{"method":"PUT","url":"Encounter/bd1d9bb8-2646-4ce4-989b-659736dc306b"}},{"fullUrl":"https://madie.cms.gov/ServiceRequest/039abfbe-c1f1-4f3b-9614-5e6e71e458d0","resource":{"resourceType":"ServiceRequest","id":"039abfbe-c1f1-4f3b-9614-5e6e71e458d0","meta":{"profile":["http://hl7.org/fhir/us/qicore/StructureDefinition/qicore-servicerequest"]},"status":"active","intent":"order","code":{"coding":[{"system":"http://snomed.info/sct","version":"2023-09","code":"19951005","display":"Hospital admission, emergency, from emergency room, medical nature (procedure)","userSelected":true}]},"subject":{"reference":"Patient/9b5e4d84-366b-4082-8409-b7e18e0a3c45"},"authoredOn":"2026-01-01T19:58:00.000+00:00"},"request":{"method":"PUT","url":"ServiceRequest/039abfbe-c1f1-4f3b-9614-5e6e71e458d0"}},{"fullUrl":"https://madie.cms.gov/Location/02eec1a2-8bae-4f30-bdc5-3483b2163e4b","resource":{"resourceType":"Location","id":"02eec1a2-8bae-4f30-bdc5-3483b2163e4b","meta":{"profile":["http://hl7.org/fhir/us/qicore/StructureDefinition/qicore-location"]},"identifier":[{"use":"usual","system":"http://exampleoflocation.com","value":"B1-S.F2"}],"name":"Medical Surgical East, first floor","type":[{"coding":[{"system":"https://www.cdc.gov/nhsn/cdaportal/terminology/codesystem/hsloc.html","version":"2022","code":"1108-0","display":"Emergency Department","userSelected":true}]}]},"request":{"method":"PUT","url":"Location/02eec1a2-8bae-4f30-bdc5-3483b2163e4b"}},{"fullUrl":"https://madie.cms.gov/Coverage/4adc4104-3cc9-40a4-86b5-962b27e4416a","resource":{"resourceType":"Coverage","id":"4adc4104-3cc9-40a4-86b5-962b27e4416a","meta":{"profile":["http://hl7.org/fhir/us/qicore/StructureDefinition/qicore-coverage"]},"status":"active","beneficiary":{"reference":"Patient/9b5e4d84-366b-4082-8409-b7e18e0a3c45"},"payor":[{"reference":"Organization/5ad6ea38-07e9-4482-9e1b-c09eee595be9"}]},"request":{"method":"PUT","url":"Coverage/4adc4104-3cc9-40a4-86b5-962b27e4416a"}},{"fullUrl":"https://madie.cms.gov/Condition/075c98b3-3f3b-41e2-9325-944e4f712cb3","resource":{"resourceType":"Condition","id":"075c98b3-3f3b-41e2-9325-944e4f712cb3","meta":{"profile":["http://hl7.org/fhir/us/qicore/StructureDefinition/qicore-condition"]},"category":[{"coding":[{"system":"http://terminology.hl7.org/CodeSystem/condition-category","code":"encounter-diagnosis","display":"Encounter Diagnosis"}]}],"code":{"coding":[{"system":"http://snomed.info/sct","version":"2023-09","code":"10349009","display":"Multi-infarct dementia with delirium (disorder)","userSelected":true}]},"subject":{"reference":"Patient/9b5e4d84-366b-4082-8409-b7e18e0a3c45"},"recordedDate":"2026-04-09T08:00:00.000+00:00"},"request":{"method":"PUT","url":"Condition/075c98b3-3f3b-41e2-9325-944e4f712cb3"}},{"fullUrl":"https://madie.cms.gov/Encounter/eeb15ef4-1204-4ce1-a052-27e3bb905e3c","resource":{"resourceType":"Encounter","id":"eeb15ef4-1204-4ce1-a052-27e3bb905e3c","meta":{"profile":["http://hl7.org/fhir/us/qicore/StructureDefinition/qicore-encounter"]},"status":"finished","class":{"system":"http://terminology.hl7.org/CodeSystem/v3-ActCode","code":"IMP","display":"inpatient"},"type":[{"coding":[{"system":"http://snomed.info/sct","version":"2023-09","code":"8715000","display":"Hospital admission, elective (procedure)","userSelected":true}]}],"subject":{"reference":"Patient/9b5e4d84-366b-4082-8409-b7e18e0a3c45"},"period":{"start":"2026-01-01T23:59:00.000+00:00","end":"2026-01-03T08:00:00.000+00:00"}},"request":{"method":"PUT","url":"Encounter/eeb15ef4-1204-4ce1-a052-27e3bb905e3c"}},{"fullUrl":"https://madie.cms.gov/Organization/49fadd17-682a-4a63-b017-2141446bb3b8","resource":{"resourceType":"Organization","id":"5ad6ea38-07e9-4482-9e1b-c09eee595be9","meta":{"profile":["http://hl7.org/fhir/us/qicore/StructureDefinition/qicore-organization"]},"identifier":[{"use":"temp","system":"urn:oid:2.16.840.1.113883.4.4","value":"21-3259825"}],"active":true,"type":[{"coding":[{"system":"http://terminology.hl7.org/CodeSystem/organization-type","code":"pay","display":"Payer"}]}],"name":"Blue Cross Blue Shield of Texas","telecom":[{"system":"phone","value":"(+1) 972-766-6900"}],"address":[{"use":"billing","type":"postal","line":["P.O. Box 660044"],"city":"Dallas","state":"TX","postalCode":"75266-0044","country":"USA"}]},"request":{"method":"PUT","url":"Organization/5ad6ea38-07e9-4482-9e1b-c09eee595be9"}},{"fullUrl":"https://madie.cms.gov/Practitioner/ea7c3615-4f8f-4042-91ba-8fb8bd74712f","resource":{"resourceType":"Practitioner","id":"ea7c3615-4f8f-4042-91ba-8fb8bd74712f","meta":{"profile":["http://hl7.org/fhir/us/qicore/StructureDefinition/qicore-practitioner"]},"identifier":[{"system":"http://hl7.org/fhir/sid/us-npi","value":"123456"}],"name":[{"family":"Evil","prefix":["Dr"]}]},"request":{"method":"PUT","url":"Practitioner/ea7c3615-4f8f-4042-91ba-8fb8bd74712f"}},{"fullUrl":"https://madie.cms.gov/MeasureReport/54bb9ef7-0a3c-4e0a-98ed-9753a94d71de","resource":{"resourceType":"MeasureReport","id":"54bb9ef7-0a3c-4e0a-98ed-9753a94d71de","meta":{"profile":["http://hl7.org/fhir/us/cqfmeasures/StructureDefinition/test-case-cqfm"]},"contained":[{"resourceType":"Parameters","id":"9305bb2a-262d-4bfe-a779-ad84c0df621b-parameters","parameter":[{"name":"subject","valueString":"9b5e4d84-366b-4082-8409-b7e18e0a3c45"}]}],"extension":[{"url":"http://hl7.org/fhir/us/cqfmeasures/StructureDefinition/cqfm-inputParameters","valueReference":{"reference":"#9305bb2a-262d-4bfe-a779-ad84c0df621b-parameters"}},{"url":"http://hl7.org/fhir/us/cqfmeasures/StructureDefinition/cqfm-testCaseDescription","valueMarkdown":"Adult, age 18, ED enc, order to admit, boarded 241 minutes (time from decision to admit to departure) , mental illness"}],"modifierExtension":[{"url":"http://hl7.org/fhir/us/cqfmeasures/StructureDefinition/cqfm-isTestCase","valueBoolean":true}],"status":"complete","type":"individual","measure":"https://madie.cms.gov/Measure/CMS1244ECCQHOQRFHIR","period":{"start":"2026-01-01","end":"2026-12-31"},"group":[{"population":[{"code":{"coding":[{"system":"http://terminology.hl7.org/CodeSystem/measure-population","code":"initial-population","display":"Initial Population"}]},"count":1},{"code":{"coding":[{"system":"http://terminology.hl7.org/CodeSystem/measure-population","code":"denominator","display":"Denominator"}]},"count":1},{"code":{"coding":[{"system":"http://terminology.hl7.org/CodeSystem/measure-population","code":"numerator","display":"Numerator"}]},"count":1}]}]},"request":{"method":"PUT","url":"MeasureReport/54bb9ef7-0a3c-4e0a-98ed-9753a94d71de"}}]}