{"resourceType":"Bundle","id":"tests-9bac5045-01af-4350-b54f-63ab17f3ba9f-bundle","type":"transaction","entry":[{"fullUrl":"https://madie.cms.gov/Patient/9bac5045-01af-4350-b54f-63ab17f3ba9f","resource":{"resourceType":"Patient","id":"9bac5045-01af-4350-b54f-63ab17f3ba9f","meta":{"profile":["http://hl7.org/fhir/us/qicore/StructureDefinition/qicore-patient"]},"extension":[{"url":"http://hl7.org/fhir/us/core/StructureDefinition/us-core-race","extension":[{"url":"ombCategory","valueCoding":{"system":"urn:oid:2.16.840.1.113883.6.238","code":"2076-8","display":"Native Hawaiian or Other Pacific Islander","userSelected":true}},{"url":"text","valueString":"Native Hawaiian or Other Pacific Islander"}]},{"url":"http://hl7.org/fhir/us/core/StructureDefinition/us-core-ethnicity","extension":[{"url":"ombCategory","valueCoding":{"system":"urn:oid:2.16.840.1.113883.6.238","code":"2186-5","display":"Not Hispanic or Latino","userSelected":true}},{"url":"text","valueString":"Not Hispanic or Latino"}]}],"identifier":[{"type":{"coding":[{"system":"http://terminology.hl7.org/CodeSystem/v2-0203","code":"MR"}]},"system":"https://bonnie-fhir.healthit.gov/","value":"661579e3db207d74c03b8a54"}],"name":[{"family":"NUMERStrat4Pass","given":["EncStartsB4MP"]}],"gender":"female","birthDate":"2007-12-31"},"request":{"method":"PUT","url":"Patient/9bac5045-01af-4350-b54f-63ab17f3ba9f"}},{"fullUrl":"https://madie.cms.gov/Encounter/28507af5-f878-4e06-a067-86b154193882","resource":{"resourceType":"Encounter","id":"28507af5-f878-4e06-a067-86b154193882","meta":{"profile":["http://hl7.org/fhir/us/qicore/StructureDefinition/qicore-encounter"]},"status":"finished","class":{"system":"http://terminology.hl7.org/CodeSystem/v3-ActCode","code":"EMER","display":"emergency"},"type":[{"coding":[{"system":"http://snomed.info/sct","version":"2023-09","code":"4525004","display":"Emergency department patient visit (procedure)","userSelected":true}]}],"subject":{"reference":"Patient/9bac5045-01af-4350-b54f-63ab17f3ba9f"},"period":{"start":"2025-12-29T08:00:00.000+00:00","end":"2025-12-31T12:15:00.000+00:00"},"diagnosis":[{"condition":{"reference":"Condition/72044a03-7826-4db3-bdf4-3391b8a988b0"},"use":{"coding":[{"system":"http://terminology.hl7.org/CodeSystem/diagnosis-role","code":"billing"}]},"rank":1}],"location":[{"location":{"reference":"Location/2e52e26b-f22f-4aa7-ab4f-c129c604ed8a"},"period":{"start":"2025-12-29T07:45:00.000+00:00","end":"2025-12-31T12:15:00.000+00:00"}},{"location":{"reference":"Location/4dc32149-97b3-447f-821f-d7130d341bf7"},"period":{"start":"2025-12-29T09:01:00.000+00:00","end":"2025-12-31T12:15:00.000+00:00"}}]},"request":{"method":"PUT","url":"Encounter/28507af5-f878-4e06-a067-86b154193882"}},{"fullUrl":"https://madie.cms.gov/Location/2e52e26b-f22f-4aa7-ab4f-c129c604ed8a","resource":{"resourceType":"Location","id":"2e52e26b-f22f-4aa7-ab4f-c129c604ed8a","meta":{"profile":["http://hl7.org/fhir/us/qicore/StructureDefinition/qicore-location"]},"identifier":[{"use":"usual","system":"http://exampleoflocation.com","value":"B1-S.F1"}],"name":"Medical Surgical East, first floor","type":[{"coding":[{"system":"https://www.cdc.gov/nhsn/cdaportal/terminology/codesystem/hsloc.html","version":"2022","code":"1108-0","display":"Emergency Department","userSelected":true}]}]},"request":{"method":"PUT","url":"Location/2e52e26b-f22f-4aa7-ab4f-c129c604ed8a"}},{"fullUrl":"https://madie.cms.gov/Location/4dc32149-97b3-447f-821f-d7130d341bf7","resource":{"resourceType":"Location","id":"4dc32149-97b3-447f-821f-d7130d341bf7","meta":{"profile":["http://hl7.org/fhir/us/qicore/StructureDefinition/qicore-location"]},"identifier":[{"use":"usual","system":"http://exampleoflocation.com","value":"B1-S.F2"}],"name":"Medical Surgical East, first floor","type":[{"coding":[{"system":"https://www.cdc.gov/nhsn/cdaportal/terminology/codesystem/hsloc.html","version":"2022","code":"1209-6","display":"Treatment Room","userSelected":true}]}]},"request":{"method":"PUT","url":"Location/4dc32149-97b3-447f-821f-d7130d341bf7"}},{"fullUrl":"https://madie.cms.gov/Condition/72044a03-7826-4db3-bdf4-3391b8a988b0","resource":{"resourceType":"Condition","id":"72044a03-7826-4db3-bdf4-3391b8a988b0","meta":{"profile":["http://hl7.org/fhir/us/qicore/StructureDefinition/qicore-condition"]},"category":[{"coding":[{"system":"http://terminology.hl7.org/CodeSystem/condition-category","code":"encounter-diagnosis","display":"Encounter Diagnosis"}]}],"code":{"coding":[{"system":"http://snomed.info/sct","version":"2023-09","code":"10349009","display":"Multi-infarct dementia with delirium (disorder)","userSelected":true}]},"subject":{"reference":"Patient/9bac5045-01af-4350-b54f-63ab17f3ba9f"},"recordedDate":"2026-04-09T08:00:00.000+00:00"},"request":{"method":"PUT","url":"Condition/72044a03-7826-4db3-bdf4-3391b8a988b0"}},{"fullUrl":"https://madie.cms.gov/Location/a46e3aea-20ee-43b3-8bb1-535ddb6a9c52","resource":{"resourceType":"Location","id":"a46e3aea-20ee-43b3-8bb1-535ddb6a9c52","meta":{"profile":["http://hl7.org/fhir/us/qicore/StructureDefinition/qicore-location"]},"identifier":[{"use":"usual","system":"http://exampleoflocation.com","value":"B1-S.F2"}],"name":"Medical Surgical East, first floor","type":[{"coding":[{"system":"https://www.cdc.gov/nhsn/cdaportal/terminology/codesystem/hsloc.html","version":"2022","code":"1108-0","display":"Emergency Department","userSelected":true}]}]},"request":{"method":"PUT","url":"Location/a46e3aea-20ee-43b3-8bb1-535ddb6a9c52"}},{"fullUrl":"https://madie.cms.gov/Location/2b0be17c-6c02-44d0-9e48-880a599aae64","resource":{"resourceType":"Location","id":"2b0be17c-6c02-44d0-9e48-880a599aae64","meta":{"profile":["http://hl7.org/fhir/us/qicore/StructureDefinition/qicore-location"]},"identifier":[{"use":"usual","system":"http://exampleoflocation.com","value":"B1-S.F2"}],"name":"Medical Surgical East, first floor","type":[{"coding":[{"system":"https://www.cdc.gov/nhsn/cdaportal/terminology/codesystem/hsloc.html","version":"2022","code":"1209-6","display":"Treatment Room"}]}]},"request":{"method":"PUT","url":"Location/2b0be17c-6c02-44d0-9e48-880a599aae64"}},{"fullUrl":"https://madie.cms.gov/Coverage/d434a6e8-8c0f-4bee-8746-2fb24a1ad290","resource":{"resourceType":"Coverage","id":"d434a6e8-8c0f-4bee-8746-2fb24a1ad290","meta":{"profile":["http://hl7.org/fhir/us/qicore/StructureDefinition/qicore-coverage"]},"status":"active","beneficiary":{"reference":"Patient/9bac5045-01af-4350-b54f-63ab17f3ba9f"},"payor":[{"reference":"Organization/e75793c9-fdf6-463a-8c1d-4ee44320dc25"}]},"request":{"method":"PUT","url":"Coverage/d434a6e8-8c0f-4bee-8746-2fb24a1ad290"}},{"fullUrl":"https://madie.cms.gov/Organization/9788b35f-aa79-4cca-ace5-d3d44e8b6010","resource":{"resourceType":"Organization","id":"e75793c9-fdf6-463a-8c1d-4ee44320dc25","meta":{"profile":["http://hl7.org/fhir/us/qicore/StructureDefinition/qicore-organization"]},"identifier":[{"use":"temp","system":"urn:oid:2.16.840.1.113883.4.4","value":"21-3259825"}],"active":true,"type":[{"coding":[{"system":"http://terminology.hl7.org/CodeSystem/organization-type","code":"pay","display":"Payer"}]}],"name":"Blue Cross Blue Shield of Texas","telecom":[{"system":"phone","value":"(+1) 972-766-6900"}],"address":[{"use":"billing","type":"postal","line":["P.O. Box 660044"],"city":"Dallas","state":"TX","postalCode":"75266-0044","country":"USA"}]},"request":{"method":"PUT","url":"Organization/e75793c9-fdf6-463a-8c1d-4ee44320dc25"}},{"fullUrl":"https://madie.cms.gov/Practitioner/a7496286-e162-4deb-ae72-765c7f0718be","resource":{"resourceType":"Practitioner","id":"a7496286-e162-4deb-ae72-765c7f0718be","meta":{"profile":["http://hl7.org/fhir/us/qicore/StructureDefinition/qicore-practitioner"]},"identifier":[{"system":"http://hl7.org/fhir/sid/us-npi","value":"123456"}],"name":[{"family":"Evil","prefix":["Dr"]}]},"request":{"method":"PUT","url":"Practitioner/a7496286-e162-4deb-ae72-765c7f0718be"}},{"fullUrl":"https://madie.cms.gov/MeasureReport/01b4d818-d568-4700-9831-6a49d9a5739c","resource":{"resourceType":"MeasureReport","id":"01b4d818-d568-4700-9831-6a49d9a5739c","meta":{"profile":["http://hl7.org/fhir/us/cqfmeasures/StructureDefinition/test-case-cqfm"]},"contained":[{"resourceType":"Parameters","id":"8a6e23d1-f645-4ef6-b3c2-041946ab4e98-parameters","parameter":[{"name":"subject","valueString":"9bac5045-01af-4350-b54f-63ab17f3ba9f"}]}],"extension":[{"url":"http://hl7.org/fhir/us/cqfmeasures/StructureDefinition/cqfm-inputParameters","valueReference":{"reference":"#8a6e23d1-f645-4ef6-b3c2-041946ab4e98-parameters"}},{"url":"http://hl7.org/fhir/us/cqfmeasures/StructureDefinition/cqfm-testCaseDescription","valueMarkdown":"12/29/20XX - 12/31/XX Enc starts and ends day before MP. "}],"modifierExtension":[{"url":"http://hl7.org/fhir/us/cqfmeasures/StructureDefinition/cqfm-isTestCase","valueBoolean":true}],"status":"complete","type":"individual","measure":"https://madie.cms.gov/Measure/CMS1244ECCQHOQRFHIR","period":{"start":"2026-01-01","end":"2026-12-31"},"group":[{"population":[{"code":{"coding":[{"system":"http://terminology.hl7.org/CodeSystem/measure-population","code":"initial-population","display":"Initial Population"}]},"count":0},{"code":{"coding":[{"system":"http://terminology.hl7.org/CodeSystem/measure-population","code":"denominator","display":"Denominator"}]},"count":0},{"code":{"coding":[{"system":"http://terminology.hl7.org/CodeSystem/measure-population","code":"numerator","display":"Numerator"}]},"count":0}]}]},"request":{"method":"PUT","url":"MeasureReport/01b4d818-d568-4700-9831-6a49d9a5739c"}}]}