{"resourceType":"Bundle","id":"tests-9ec1a135-fb47-4c1c-8f6b-98afab15274e-bundle","type":"transaction","entry":[{"fullUrl":"https://madie.cms.gov/Patient/9ec1a135-fb47-4c1c-8f6b-98afab15274e","resource":{"resourceType":"Patient","id":"9ec1a135-fb47-4c1c-8f6b-98afab15274e","meta":{"profile":["http://hl7.org/fhir/us/qicore/StructureDefinition/qicore-patient"]},"extension":[{"url":"http://hl7.org/fhir/us/core/StructureDefinition/us-core-race","extension":[{"url":"ombCategory","valueCoding":{"system":"urn:oid:2.16.840.1.113883.6.238","code":"1002-5","display":"American Indian or Alaska Native","userSelected":true}},{"url":"text","valueString":"American Indian or Alaska Native"}]},{"url":"http://hl7.org/fhir/us/core/StructureDefinition/us-core-ethnicity","extension":[{"url":"ombCategory","valueCoding":{"system":"urn:oid:2.16.840.1.113883.6.238","code":"2135-2","display":"Hispanic or Latino","userSelected":true}},{"url":"text","valueString":"Hispanic or Latino"}]}],"identifier":[{"type":{"coding":[{"system":"http://terminology.hl7.org/CodeSystem/v2-0203","code":"MR"}]},"system":"https://bonnie-fhir.healthit.gov/","value":"661476b015ed5841a5547ebf"}],"name":[{"family":"NUMEXStrat3Pass","given":["EDOBSOrderBoarded"]}],"gender":"male","birthDate":"2009-01-01"},"request":{"method":"PUT","url":"Patient/9ec1a135-fb47-4c1c-8f6b-98afab15274e"}},{"fullUrl":"https://madie.cms.gov/Encounter/f2f10652-6481-4ab7-a6dd-612a1e47c81d","resource":{"resourceType":"Encounter","id":"f2f10652-6481-4ab7-a6dd-612a1e47c81d","meta":{"profile":["http://hl7.org/fhir/us/qicore/StructureDefinition/qicore-encounter"]},"status":"finished","class":{"system":"http://terminology.hl7.org/CodeSystem/v3-ActCode","code":"EMER","display":"emergency department"},"type":[{"coding":[{"system":"http://snomed.info/sct","version":"2023-09","code":"4525004","display":"Emergency department patient visit (procedure)","userSelected":true}]}],"subject":{"reference":"Patient/9ec1a135-fb47-4c1c-8f6b-98afab15274e"},"period":{"start":"2026-01-01T00:00:00.000+00:00","end":"2026-01-01T06:00:00.000+00:00"},"diagnosis":[{"condition":{"reference":"Condition/402a778f-7250-4dfd-8ed1-ebca190a4978"},"use":{"coding":[{"system":"http://terminology.hl7.org/CodeSystem/diagnosis-role","code":"billing"}]},"rank":1}],"location":[{"location":{"reference":"Location/a5ba2e28-0af3-414b-9956-ac3108a222b1"},"period":{"start":"2026-01-01T00:00:00.000+00:00","end":"2026-01-01T06:01:00.000+00:00"}}]},"request":{"method":"PUT","url":"Encounter/f2f10652-6481-4ab7-a6dd-612a1e47c81d"}},{"fullUrl":"https://madie.cms.gov/Encounter/acc0eb2e-a18d-4303-a385-f8b077fe1886","resource":{"resourceType":"Encounter","id":"acc0eb2e-a18d-4303-a385-f8b077fe1886","meta":{"profile":["http://hl7.org/fhir/us/qicore/StructureDefinition/qicore-encounter"]},"status":"finished","class":{"system":"http://terminology.hl7.org/CodeSystem/v3-ActCode","code":"IMP","display":"inpatient encounter"},"type":[{"coding":[{"system":"http://snomed.info/sct","version":"2023-09","code":"183452005","display":"Emergency hospital admission (procedure)","userSelected":true}]}],"subject":{"reference":"Patient/9ec1a135-fb47-4c1c-8f6b-98afab15274e"},"period":{"start":"2026-01-01T05:00:00.000+00:00","end":"2026-01-03T06:15:00.000+00:00"}},"request":{"method":"PUT","url":"Encounter/acc0eb2e-a18d-4303-a385-f8b077fe1886"}},{"fullUrl":"https://madie.cms.gov/ServiceRequest/9250162c-7260-4685-94f8-a62c98603d4b","resource":{"resourceType":"ServiceRequest","id":"9250162c-7260-4685-94f8-a62c98603d4b","meta":{"profile":["http://hl7.org/fhir/us/qicore/StructureDefinition/qicore-servicerequest"]},"status":"active","intent":"order","code":{"coding":[{"system":"http://snomed.info/sct","code":"5751000175101","display":"Patient bed assigned (finding)","userSelected":true}]},"subject":{"reference":"Patient/9ec1a135-fb47-4c1c-8f6b-98afab15274e"},"authoredOn":"2026-01-01T02:00:00.000+00:00"},"request":{"method":"PUT","url":"ServiceRequest/9250162c-7260-4685-94f8-a62c98603d4b"}},{"fullUrl":"https://madie.cms.gov/Location/a5ba2e28-0af3-414b-9956-ac3108a222b1","resource":{"resourceType":"Location","id":"a5ba2e28-0af3-414b-9956-ac3108a222b1","meta":{"profile":["http://hl7.org/fhir/us/qicore/StructureDefinition/qicore-location"]},"identifier":[{"use":"usual","system":"http://exampleoflocation.com","value":"B1-S.F2"}],"name":"Medical Surgical East, first floor","type":[{"coding":[{"system":"https://www.cdc.gov/nhsn/cdaportal/terminology/codesystem/hsloc.html","version":"2022","code":"1108-0","display":"Emergency Department","userSelected":true}]}]},"request":{"method":"PUT","url":"Location/a5ba2e28-0af3-414b-9956-ac3108a222b1"}},{"fullUrl":"https://madie.cms.gov/Coverage/459f098a-6860-4a1f-8bbb-6a9c5eb1f2c6","resource":{"resourceType":"Coverage","id":"459f098a-6860-4a1f-8bbb-6a9c5eb1f2c6","meta":{"profile":["http://hl7.org/fhir/us/qicore/StructureDefinition/qicore-coverage"]},"status":"active","beneficiary":{"reference":"Patient/9ec1a135-fb47-4c1c-8f6b-98afab15274e"},"payor":[{"reference":"Organization/607fdef9-3983-4cef-ab1a-95434d29b463"}]},"request":{"method":"PUT","url":"Coverage/459f098a-6860-4a1f-8bbb-6a9c5eb1f2c6"}},{"fullUrl":"https://madie.cms.gov/Condition/402a778f-7250-4dfd-8ed1-ebca190a4978","resource":{"resourceType":"Condition","id":"402a778f-7250-4dfd-8ed1-ebca190a4978","meta":{"profile":["http://hl7.org/fhir/us/qicore/StructureDefinition/qicore-condition"]},"category":[{"coding":[{"system":"http://terminology.hl7.org/CodeSystem/condition-category","code":"encounter-diagnosis","display":"Encounter Diagnosis"}]}],"code":{"coding":[{"system":"http://snomed.info/sct","version":"2023-09","code":"66344007","display":"Recurrent major depression (disorder)","userSelected":true}]},"subject":{"reference":"Patient/9ec1a135-fb47-4c1c-8f6b-98afab15274e"},"recordedDate":"2025-04-18T08:00:00.000+00:00"},"request":{"method":"PUT","url":"Condition/402a778f-7250-4dfd-8ed1-ebca190a4978"}},{"fullUrl":"https://madie.cms.gov/Coverage/95adc3d2-711b-4fe4-9964-d2daeeaf01ea","resource":{"resourceType":"Coverage","id":"95adc3d2-711b-4fe4-9964-d2daeeaf01ea","meta":{"profile":["http://hl7.org/fhir/us/qicore/StructureDefinition/qicore-coverage"]},"status":"active","beneficiary":{"reference":"Patient/9ec1a135-fb47-4c1c-8f6b-98afab15274e"},"payor":[{"reference":"Organization/607fdef9-3983-4cef-ab1a-95434d29b463"}]},"request":{"method":"PUT","url":"Coverage/95adc3d2-711b-4fe4-9964-d2daeeaf01ea"}},{"fullUrl":"https://madie.cms.gov/ServiceRequest/600d295f-8afe-4300-87df-88102ae04d5e","resource":{"resourceType":"ServiceRequest","id":"600d295f-8afe-4300-87df-88102ae04d5e","meta":{"profile":["http://hl7.org/fhir/us/qicore/StructureDefinition/qicore-servicerequest"]},"status":"active","intent":"order","code":{"coding":[{"system":"http://www.ama-assn.org/go/cpt","version":"2024","code":"99221","display":"Initial hospital inpatient or observation care, per day, for the evaluation and management of a patient, which requires a medically appropriate history and/or examination and straightforward or low level medical decision making. When using total time on the date of the encounter for code selection, 40 minutes must be met or exceeded.","userSelected":true}]},"subject":{"reference":"Patient/9ec1a135-fb47-4c1c-8f6b-98afab15274e"},"authoredOn":"2026-01-01T02:00:00.000+00:00"},"request":{"method":"PUT","url":"ServiceRequest/600d295f-8afe-4300-87df-88102ae04d5e"}},{"fullUrl":"https://madie.cms.gov/Organization/4a1e26b4-02e1-463b-ad60-d761459b0536","resource":{"resourceType":"Organization","id":"607fdef9-3983-4cef-ab1a-95434d29b463","meta":{"profile":["http://hl7.org/fhir/us/qicore/StructureDefinition/qicore-organization"]},"identifier":[{"use":"temp","system":"urn:oid:2.16.840.1.113883.4.4","value":"21-3259825"}],"active":true,"type":[{"coding":[{"system":"http://terminology.hl7.org/CodeSystem/organization-type","code":"pay","display":"Payer"}]}],"name":"Blue Cross Blue Shield of Texas","telecom":[{"system":"phone","value":"(+1) 972-766-6900"}],"address":[{"use":"billing","type":"postal","line":["P.O. Box 660044"],"city":"Dallas","state":"TX","postalCode":"75266-0044","country":"USA"}]},"request":{"method":"PUT","url":"Organization/607fdef9-3983-4cef-ab1a-95434d29b463"}},{"fullUrl":"https://madie.cms.gov/Practitioner/477004da-7b2e-4a0d-9622-41bfdef7766e","resource":{"resourceType":"Practitioner","id":"477004da-7b2e-4a0d-9622-41bfdef7766e","meta":{"profile":["http://hl7.org/fhir/us/qicore/StructureDefinition/qicore-practitioner"]},"identifier":[{"system":"http://hl7.org/fhir/sid/us-npi","value":"123456"}],"name":[{"family":"Evil","prefix":["Dr"]}]},"request":{"method":"PUT","url":"Practitioner/477004da-7b2e-4a0d-9622-41bfdef7766e"}},{"fullUrl":"https://madie.cms.gov/MeasureReport/5a12eee0-3e9f-48f1-8550-87e787c6d85e","resource":{"resourceType":"MeasureReport","id":"5a12eee0-3e9f-48f1-8550-87e787c6d85e","meta":{"profile":["http://hl7.org/fhir/us/cqfmeasures/StructureDefinition/test-case-cqfm"]},"contained":[{"resourceType":"Parameters","id":"aaf3e6e9-b1ef-4e22-9a0f-c73bc987d609-parameters","parameter":[{"name":"subject","valueString":"9ec1a135-fb47-4c1c-8f6b-98afab15274e"}]}],"extension":[{"url":"http://hl7.org/fhir/us/cqfmeasures/StructureDefinition/cqfm-inputParameters","valueReference":{"reference":"#aaf3e6e9-b1ef-4e22-9a0f-c73bc987d609-parameters"}},{"url":"http://hl7.org/fhir/us/cqfmeasures/StructureDefinition/cqfm-testCaseDescription","valueMarkdown":"Child, ED observation order during ED enc where patient was boarded 6 hrs 1 min; Enc 8 hrs, enc departure 8 hrs 1 min. dx asthma "}],"modifierExtension":[{"url":"http://hl7.org/fhir/us/cqfmeasures/StructureDefinition/cqfm-isTestCase","valueBoolean":true}],"status":"complete","type":"individual","measure":"https://madie.cms.gov/Measure/CMS1244ECCQHOQRFHIR","period":{"start":"2026-01-01","end":"2026-12-31"},"group":[{"population":[{"code":{"coding":[{"system":"http://terminology.hl7.org/CodeSystem/measure-population","code":"initial-population","display":"Initial Population"}]},"count":1},{"code":{"coding":[{"system":"http://terminology.hl7.org/CodeSystem/measure-population","code":"denominator","display":"Denominator"}]},"count":1},{"code":{"coding":[{"system":"http://terminology.hl7.org/CodeSystem/measure-population","code":"numerator","display":"Numerator"}]},"count":0}]}]},"request":{"method":"PUT","url":"MeasureReport/5a12eee0-3e9f-48f1-8550-87e787c6d85e"}}]}