{"resourceType":"Bundle","id":"tests-7fbb7e37-228b-4b3b-8974-871a3e798720-bundle","type":"transaction","entry":[{"fullUrl":"https://madie.cms.gov/Patient/7fbb7e37-228b-4b3b-8974-871a3e798720","resource":{"resourceType":"Patient","id":"7fbb7e37-228b-4b3b-8974-871a3e798720","meta":{"profile":["http://hl7.org/fhir/us/qicore/StructureDefinition/qicore-patient"]},"extension":[{"url":"http://hl7.org/fhir/us/core/StructureDefinition/us-core-race","extension":[{"url":"ombCategory","valueCoding":{"system":"urn:oid:2.16.840.1.113883.6.238","code":"1002-5","display":"American Indian or Alaska Native","userSelected":true}},{"url":"text","valueString":"American Indian or Alaska Native"}]},{"url":"http://hl7.org/fhir/us/core/StructureDefinition/us-core-ethnicity","extension":[{"url":"ombCategory","valueCoding":{"system":"urn:oid:2.16.840.1.113883.6.238","code":"2135-2","display":"Hispanic or Latino","userSelected":true}},{"url":"text","valueString":"Hispanic or Latino"}]}],"identifier":[{"type":{"coding":[{"system":"http://terminology.hl7.org/CodeSystem/v2-0203","code":"MR"}]},"system":"https://bonnie-fhir.healthit.gov/","value":"6617e30316793f5a4fae16fe"}],"name":[{"family":"NUMERStrat3Pass","given":["DecisionToAdmitAssessment"]}],"gender":"male","birthDate":"2009-01-01"},"request":{"method":"PUT","url":"Patient/7fbb7e37-228b-4b3b-8974-871a3e798720"}},{"fullUrl":"https://madie.cms.gov/Encounter/2bc48c12-9fad-4410-9ab3-7dbd03a85dd4","resource":{"resourceType":"Encounter","id":"2bc48c12-9fad-4410-9ab3-7dbd03a85dd4","meta":{"profile":["http://hl7.org/fhir/us/qicore/StructureDefinition/qicore-encounter"]},"status":"finished","class":{"system":"http://terminology.hl7.org/CodeSystem/v3-ActCode","code":"EMER","display":"emergency"},"type":[{"coding":[{"system":"http://snomed.info/sct","version":"2023-09","code":"4525004","display":"Emergency department patient visit (procedure)","userSelected":true}]}],"subject":{"reference":"Patient/7fbb7e37-228b-4b3b-8974-871a3e798720"},"period":{"start":"2026-01-01T00:00:00.000+00:00","end":"2026-01-01T06:00:00.000+00:00"},"diagnosis":[{"condition":{"reference":"Condition/b949f71f-b696-41aa-99c0-b19a348b5cfd"},"use":{"coding":[{"system":"http://terminology.hl7.org/CodeSystem/diagnosis-role","code":"billing"}]},"rank":1}],"location":[{"location":{"reference":"Location/63404735-d321-41d6-a5aa-400b17407f3f"},"period":{"start":"2026-01-01T00:00:00.000+00:00","end":"2026-01-01T06:01:00.000+00:00"}}]},"request":{"method":"PUT","url":"Encounter/2bc48c12-9fad-4410-9ab3-7dbd03a85dd4"}},{"fullUrl":"https://madie.cms.gov/Encounter/625642e4-1b14-4c34-a7b2-55c5b714cd89","resource":{"resourceType":"Encounter","id":"625642e4-1b14-4c34-a7b2-55c5b714cd89","meta":{"profile":["http://hl7.org/fhir/us/qicore/StructureDefinition/qicore-encounter"]},"status":"finished","class":{"system":"http://terminology.hl7.org/CodeSystem/v3-ActCode","code":"IMP","display":"inpatient"},"type":[{"coding":[{"system":"http://snomed.info/sct","version":"2023-09","code":"183452005","display":"Emergency hospital admission (procedure)","userSelected":true}]}],"subject":{"reference":"Patient/7fbb7e37-228b-4b3b-8974-871a3e798720"},"period":{"start":"2026-01-01T06:00:00.000+00:00","end":"2026-01-03T06:15:00.000+00:00"}},"request":{"method":"PUT","url":"Encounter/625642e4-1b14-4c34-a7b2-55c5b714cd89"}},{"fullUrl":"https://madie.cms.gov/Location/63404735-d321-41d6-a5aa-400b17407f3f","resource":{"resourceType":"Location","id":"63404735-d321-41d6-a5aa-400b17407f3f","meta":{"profile":["http://hl7.org/fhir/us/qicore/StructureDefinition/qicore-location"]},"identifier":[{"use":"usual","system":"http://exampleoflocation.com","value":"B1-S.F2"}],"name":"Local ED","type":[{"coding":[{"system":"https://www.cdc.gov/nhsn/cdaportal/terminology/codesystem/hsloc.html","version":"2022","code":"1108-0","display":"Emergency Department","userSelected":true}]}]},"request":{"method":"PUT","url":"Location/63404735-d321-41d6-a5aa-400b17407f3f"}},{"fullUrl":"https://madie.cms.gov/Observation/f046324c-d653-465f-bfb6-139fa7c410f0","resource":{"resourceType":"Observation","id":"f046324c-d653-465f-bfb6-139fa7c410f0","meta":{"profile":["http://hl7.org/fhir/us/qicore/StructureDefinition/qicore-observation"]},"status":"final","category":[{"coding":[{"system":"http://terminology.hl7.org/CodeSystem/observation-category","code":"survey","display":"Survey"}]}],"code":{"coding":[{"system":"http://loinc.org","version":"2.76","code":"28568-4","display":"Physician Emergency department Note","userSelected":true}]},"subject":{"reference":"Patient/7fbb7e37-228b-4b3b-8974-871a3e798720"},"effectiveDateTime":"2026-01-01T01:00:00.000+00:00","valueCodeableConcept":{"coding":[{"system":"http://snomed.info/sct","code":"434081000124108","display":"Patient requires hospitalization (finding)","userSelected":true}]}},"request":{"method":"PUT","url":"Observation/f046324c-d653-465f-bfb6-139fa7c410f0"}},{"fullUrl":"https://madie.cms.gov/Condition/b949f71f-b696-41aa-99c0-b19a348b5cfd","resource":{"resourceType":"Condition","id":"b949f71f-b696-41aa-99c0-b19a348b5cfd","meta":{"profile":["http://hl7.org/fhir/us/qicore/StructureDefinition/qicore-condition"]},"category":[{"coding":[{"system":"http://terminology.hl7.org/CodeSystem/condition-category","code":"encounter-diagnosis","display":"Encounter Diagnosis"}]}],"code":{"coding":[{"system":"http://snomed.info/sct","version":"2023-09","code":"10349009","display":"Multi-infarct dementia with delirium (disorder)","userSelected":true}]},"subject":{"reference":"Patient/7fbb7e37-228b-4b3b-8974-871a3e798720"},"recordedDate":"2025-04-18T08:00:00.000+00:00"},"request":{"method":"PUT","url":"Condition/b949f71f-b696-41aa-99c0-b19a348b5cfd"}},{"fullUrl":"https://madie.cms.gov/Coverage/ff9a54b9-ce7c-4983-bbb2-5c23ddfb97eb","resource":{"resourceType":"Coverage","id":"ff9a54b9-ce7c-4983-bbb2-5c23ddfb97eb","meta":{"profile":["http://hl7.org/fhir/us/qicore/StructureDefinition/qicore-coverage"]},"status":"active","beneficiary":{"reference":"Patient/7fbb7e37-228b-4b3b-8974-871a3e798720"},"payor":[{"reference":"Organization/e75793c9-fdf6-463a-8c1d-4ee44320dc25"}]},"request":{"method":"PUT","url":"Coverage/ff9a54b9-ce7c-4983-bbb2-5c23ddfb97eb"}},{"fullUrl":"https://madie.cms.gov/Organization/4c169ecb-485d-456e-9a12-9f69b40bdd82","resource":{"resourceType":"Organization","id":"e75793c9-fdf6-463a-8c1d-4ee44320dc25","meta":{"profile":["http://hl7.org/fhir/us/qicore/StructureDefinition/qicore-organization"]},"identifier":[{"use":"temp","system":"urn:oid:2.16.840.1.113883.4.4","value":"21-3259825"}],"active":true,"type":[{"coding":[{"system":"http://terminology.hl7.org/CodeSystem/organization-type","code":"pay","display":"Payer"}]}],"name":"Blue Cross Blue Shield of Texas","telecom":[{"system":"phone","value":"(+1) 972-766-6900"}],"address":[{"use":"billing","type":"postal","line":["P.O. Box 660044"],"city":"Dallas","state":"TX","postalCode":"75266-0044","country":"USA"}]},"request":{"method":"PUT","url":"Organization/e75793c9-fdf6-463a-8c1d-4ee44320dc25"}},{"fullUrl":"https://madie.cms.gov/Practitioner/675fb86a-b2e5-4d42-a382-37b8fa6a18d3","resource":{"resourceType":"Practitioner","id":"675fb86a-b2e5-4d42-a382-37b8fa6a18d3","meta":{"profile":["http://hl7.org/fhir/us/qicore/StructureDefinition/qicore-practitioner"]},"identifier":[{"system":"http://hl7.org/fhir/sid/us-npi","value":"123456"}],"name":[{"family":"Evil","prefix":["Dr"]}]},"request":{"method":"PUT","url":"Practitioner/675fb86a-b2e5-4d42-a382-37b8fa6a18d3"}},{"fullUrl":"https://madie.cms.gov/MeasureReport/d7cff5f2-d14a-4722-abf0-2b580c3acc53","resource":{"resourceType":"MeasureReport","id":"d7cff5f2-d14a-4722-abf0-2b580c3acc53","meta":{"profile":["http://hl7.org/fhir/us/cqfmeasures/StructureDefinition/test-case-cqfm"]},"contained":[{"resourceType":"Parameters","id":"5888b558-ff87-4329-b42e-27ff4f263484-parameters","parameter":[{"name":"subject","valueString":"7fbb7e37-228b-4b3b-8974-871a3e798720"}]}],"extension":[{"url":"http://hl7.org/fhir/us/cqfmeasures/StructureDefinition/cqfm-inputParameters","valueReference":{"reference":"#5888b558-ff87-4329-b42e-27ff4f263484-parameters"}},{"url":"http://hl7.org/fhir/us/cqfmeasures/StructureDefinition/cqfm-testCaseDescription","valueMarkdown":"Child, Enc 1st day of MP, dementia dx and diabetic foot ulcer, arrived at midnight of 01/01, 241 minutes decision to admit and departure"}],"modifierExtension":[{"url":"http://hl7.org/fhir/us/cqfmeasures/StructureDefinition/cqfm-isTestCase","valueBoolean":true}],"status":"complete","type":"individual","measure":"https://madie.cms.gov/Measure/CMS1244ECCQHOQRFHIR","period":{"start":"2026-01-01","end":"2026-12-31"},"group":[{"population":[{"code":{"coding":[{"system":"http://terminology.hl7.org/CodeSystem/measure-population","code":"initial-population","display":"Initial Population"}]},"count":1},{"code":{"coding":[{"system":"http://terminology.hl7.org/CodeSystem/measure-population","code":"denominator","display":"Denominator"}]},"count":1},{"code":{"coding":[{"system":"http://terminology.hl7.org/CodeSystem/measure-population","code":"numerator","display":"Numerator"}]},"count":1}]}]},"request":{"method":"PUT","url":"MeasureReport/d7cff5f2-d14a-4722-abf0-2b580c3acc53"}}]}