{"resourceType":"Bundle","id":"tests-2c2a7958-4d1a-4142-9360-8045067a1c5b-bundle","type":"transaction","entry":[{"fullUrl":"https://madie.cms.gov/Patient/2c2a7958-4d1a-4142-9360-8045067a1c5b","resource":{"resourceType":"Patient","id":"2c2a7958-4d1a-4142-9360-8045067a1c5b","meta":{"profile":["http://hl7.org/fhir/us/qicore/StructureDefinition/qicore-patient"]},"extension":[{"url":"http://hl7.org/fhir/us/core/StructureDefinition/us-core-race","extension":[{"url":"ombCategory","valueCoding":{"system":"urn:oid:2.16.840.1.113883.6.238","code":"1002-5","display":"American Indian or Alaska Native","userSelected":true}},{"url":"text","valueString":"American Indian or Alaska Native"}]},{"url":"http://hl7.org/fhir/us/core/StructureDefinition/us-core-ethnicity","extension":[{"url":"ombCategory","valueCoding":{"system":"urn:oid:2.16.840.1.113883.6.238","code":"2135-2","display":"Hispanic or Latino","userSelected":true}},{"url":"text","valueString":"Hispanic or Latino"}]}],"identifier":[{"type":{"coding":[{"system":"http://terminology.hl7.org/CodeSystem/v2-0203","code":"MR"}]},"system":"https://bonnie-fhir.healthit.gov/","value":"661476b015ed5841a5547ebf"}],"name":[{"family":"NUMERStrat2Pass","given":["AdmitInpatientPerformedBoardedTimeGreater240Min"]}],"gender":"male","birthDate":"2008-01-01"},"request":{"method":"PUT","url":"Patient/2c2a7958-4d1a-4142-9360-8045067a1c5b"}},{"fullUrl":"https://madie.cms.gov/Encounter/3b92839c-c461-4e6e-9ebb-5e5df819f1a3","resource":{"resourceType":"Encounter","id":"3b92839c-c461-4e6e-9ebb-5e5df819f1a3","meta":{"profile":["http://hl7.org/fhir/us/qicore/StructureDefinition/qicore-encounter"]},"status":"finished","class":{"system":"http://terminology.hl7.org/CodeSystem/v3-ActCode","code":"IMP","display":"inpatient encounter"},"type":[{"coding":[{"system":"http://snomed.info/sct","version":"2023-09","code":"4525004","display":"Emergency department patient visit (procedure)","userSelected":true}]}],"subject":{"reference":"Patient/2c2a7958-4d1a-4142-9360-8045067a1c5b"},"period":{"start":"2026-01-01T06:00:00.000+00:00","end":"2026-01-01T13:15:00.000+00:00"},"location":[{"location":{"reference":"Location/afcc3e8e-4174-4418-a1fb-2e9427a34b37"},"period":{"start":"2026-01-01T06:00:00.000+00:00","end":"2026-01-01T13:15:00.000+00:00"}}]},"request":{"method":"PUT","url":"Encounter/3b92839c-c461-4e6e-9ebb-5e5df819f1a3"}},{"fullUrl":"https://madie.cms.gov/Condition/05e6d69c-3b3b-4fdc-9edf-8148bf1c4788","resource":{"resourceType":"Condition","id":"05e6d69c-3b3b-4fdc-9edf-8148bf1c4788","meta":{"profile":["http://hl7.org/fhir/us/qicore/StructureDefinition/qicore-condition"]},"category":[{"coding":[{"system":"http://terminology.hl7.org/CodeSystem/condition-category","code":"encounter-diagnosis","display":"Encounter Diagnosis"}]}],"code":{"coding":[{"system":"http://snomed.info/sct","version":"2023-09","code":"10660471000119109","display":"Ulcer of left foot due to type 2 diabetes mellitus (disorder)","userSelected":true}]},"subject":{"reference":"Patient/2c2a7958-4d1a-4142-9360-8045067a1c5b"},"recordedDate":"2026-01-01T08:00:00.000+00:00"},"request":{"method":"PUT","url":"Condition/05e6d69c-3b3b-4fdc-9edf-8148bf1c4788"}},{"fullUrl":"https://madie.cms.gov/Encounter/19146435-784b-413a-ae74-52e00b663115","resource":{"resourceType":"Encounter","id":"19146435-784b-413a-ae74-52e00b663115","meta":{"profile":["http://hl7.org/fhir/us/qicore/StructureDefinition/qicore-encounter"]},"status":"finished","class":{"system":"http://terminology.hl7.org/CodeSystem/v3-ActCode","code":"IMP","display":"inpatient encounter"},"type":[{"coding":[{"system":"http://snomed.info/sct","version":"2023-09","code":"183452005","display":"Emergency hospital admission (procedure)","userSelected":true}]}],"subject":{"reference":"Patient/2c2a7958-4d1a-4142-9360-8045067a1c5b"},"period":{"start":"2026-01-01T09:00:00.000+00:00","end":"2026-01-03T06:15:00.000+00:00"}},"request":{"method":"PUT","url":"Encounter/19146435-784b-413a-ae74-52e00b663115"}},{"fullUrl":"https://madie.cms.gov/Location/afcc3e8e-4174-4418-a1fb-2e9427a34b37","resource":{"resourceType":"Location","id":"afcc3e8e-4174-4418-a1fb-2e9427a34b37","meta":{"profile":["http://hl7.org/fhir/us/qicore/StructureDefinition/qicore-location"]},"identifier":[{"use":"usual","system":"http://exampleoflocation.com","value":"B1-S.F2"}],"name":"Medical Surgical East, first floor","type":[{"coding":[{"system":"https://www.cdc.gov/nhsn/cdaportal/terminology/codesystem/hsloc.html","version":"2022","code":"1108-0","display":"Emergency Department","userSelected":true}]}]},"request":{"method":"PUT","url":"Location/afcc3e8e-4174-4418-a1fb-2e9427a34b37"}},{"fullUrl":"https://madie.cms.gov/Coverage/3d98dc6e-b663-4d0b-b20e-4c5b7bd7739e","resource":{"resourceType":"Coverage","id":"3d98dc6e-b663-4d0b-b20e-4c5b7bd7739e","meta":{"profile":["http://hl7.org/fhir/us/qicore/StructureDefinition/qicore-coverage"]},"status":"active","beneficiary":{"reference":"Patient/2c2a7958-4d1a-4142-9360-8045067a1c5b"},"payor":[{"reference":"Organization/5ad6ea38-07e9-4482-9e1b-c09eee595be9"}]},"request":{"method":"PUT","url":"Coverage/3d98dc6e-b663-4d0b-b20e-4c5b7bd7739e"}},{"fullUrl":"https://madie.cms.gov/Organization/c632afb0-81e0-40f6-b71e-0483032e469a","resource":{"resourceType":"Organization","id":"5ad6ea38-07e9-4482-9e1b-c09eee595be9","meta":{"profile":["http://hl7.org/fhir/us/qicore/StructureDefinition/qicore-organization"]},"identifier":[{"use":"temp","system":"urn:oid:2.16.840.1.113883.4.4","value":"21-3259825"}],"active":true,"type":[{"coding":[{"system":"http://terminology.hl7.org/CodeSystem/organization-type","code":"pay","display":"Payer"}]}],"name":"Blue Cross Blue Shield of Texas","telecom":[{"system":"phone","value":"(+1) 972-766-6900"}],"address":[{"use":"billing","type":"postal","line":["P.O. Box 660044"],"city":"Dallas","state":"TX","postalCode":"75266-0044","country":"USA"}]},"request":{"method":"PUT","url":"Organization/5ad6ea38-07e9-4482-9e1b-c09eee595be9"}},{"fullUrl":"https://madie.cms.gov/Practitioner/00a6c7be-6a80-4a09-b176-27943e9af386","resource":{"resourceType":"Practitioner","id":"00a6c7be-6a80-4a09-b176-27943e9af386","meta":{"profile":["http://hl7.org/fhir/us/qicore/StructureDefinition/qicore-practitioner"]},"identifier":[{"system":"http://hl7.org/fhir/sid/us-npi","value":"123456"}],"name":[{"family":"Evil","prefix":["Dr"]}]},"request":{"method":"PUT","url":"Practitioner/00a6c7be-6a80-4a09-b176-27943e9af386"}},{"fullUrl":"https://madie.cms.gov/MeasureReport/d598288e-2f77-47b9-ab57-c6ba84ca92a9","resource":{"resourceType":"MeasureReport","id":"d598288e-2f77-47b9-ab57-c6ba84ca92a9","meta":{"profile":["http://hl7.org/fhir/us/cqfmeasures/StructureDefinition/test-case-cqfm"]},"contained":[{"resourceType":"Parameters","id":"1c20a903-2fa2-476b-bb56-d910a1f95036-parameters","parameter":[{"name":"subject","valueString":"2c2a7958-4d1a-4142-9360-8045067a1c5b"}]}],"extension":[{"url":"http://hl7.org/fhir/us/cqfmeasures/StructureDefinition/cqfm-inputParameters","valueReference":{"reference":"#1c20a903-2fa2-476b-bb56-d910a1f95036-parameters"}},{"url":"http://hl7.org/fhir/us/cqfmeasures/StructureDefinition/cqfm-testCaseDescription","valueMarkdown":"Adult, age 18, Admitted Inpatient (resource: encounter) Performed Boarded Time Greater 240 Min without mental illness"}],"modifierExtension":[{"url":"http://hl7.org/fhir/us/cqfmeasures/StructureDefinition/cqfm-isTestCase","valueBoolean":true}],"status":"complete","type":"individual","measure":"https://madie.cms.gov/Measure/CMS1244ECCQHOQRFHIR","period":{"start":"2026-01-01","end":"2026-12-31"},"group":[{"population":[{"code":{"coding":[{"system":"http://terminology.hl7.org/CodeSystem/measure-population","code":"initial-population","display":"Initial Population"}]},"count":1},{"code":{"coding":[{"system":"http://terminology.hl7.org/CodeSystem/measure-population","code":"denominator","display":"Denominator"}]},"count":1},{"code":{"coding":[{"system":"http://terminology.hl7.org/CodeSystem/measure-population","code":"numerator","display":"Numerator"}]},"count":1}]}]},"request":{"method":"PUT","url":"MeasureReport/d598288e-2f77-47b9-ab57-c6ba84ca92a9"}}]}