{"resourceType":"Bundle","id":"tests-eabe386d-5bca-4fdd-acb0-8228b4df83c0-bundle","type":"transaction","entry":[{"fullUrl":"https://madie.cms.gov/Patient/eabe386d-5bca-4fdd-acb0-8228b4df83c0","resource":{"resourceType":"Patient","id":"eabe386d-5bca-4fdd-acb0-8228b4df83c0","meta":{"profile":["http://hl7.org/fhir/us/qicore/StructureDefinition/qicore-patient"]},"extension":[{"url":"http://hl7.org/fhir/us/core/StructureDefinition/us-core-race","extension":[{"url":"ombCategory","valueCoding":{"system":"urn:oid:2.16.840.1.113883.6.238","code":"1002-5","display":"American Indian or Alaska Native","userSelected":true}},{"url":"text","valueString":"American Indian or Alaska Native"}]},{"url":"http://hl7.org/fhir/us/core/StructureDefinition/us-core-ethnicity","extension":[{"url":"ombCategory","valueCoding":{"system":"urn:oid:2.16.840.1.113883.6.238","code":"2135-2","display":"Hispanic or Latino","userSelected":true}},{"url":"text","valueString":"Hispanic or Latino"}]}],"identifier":[{"type":{"coding":[{"system":"http://terminology.hl7.org/CodeSystem/v2-0203","code":"MR"}]},"system":"https://bonnie-fhir.healthit.gov/","value":"661476b015ed5841a5547ebf"}],"name":[{"family":"DENOMFail","given":["Boarded241MinOrderAdmit"]}],"gender":"male","birthDate":"2007-01-01"},"request":{"method":"PUT","url":"Patient/eabe386d-5bca-4fdd-acb0-8228b4df83c0"}},{"fullUrl":"https://madie.cms.gov/Encounter/8dd0e53a-2cd2-4f00-b6f2-a2bc0222379b","resource":{"resourceType":"Encounter","id":"8dd0e53a-2cd2-4f00-b6f2-a2bc0222379b","meta":{"profile":["http://hl7.org/fhir/us/qicore/StructureDefinition/qicore-encounter"]},"status":"finished","class":{"system":"http://terminology.hl7.org/CodeSystem/v3-ActCode","code":"EMER","display":"emergency department"},"type":[{"coding":[{"system":"http://snomed.info/sct","version":"2023-09","code":"4525004","display":"Emergency department patient visit (procedure)","userSelected":true}]}],"subject":{"reference":"Patient/eabe386d-5bca-4fdd-acb0-8228b4df83c0"},"period":{"start":"2026-01-01T19:58:00.000+00:00","end":"2026-01-01T23:59:00.000+00:00"},"diagnosis":[{"condition":{"reference":"Condition/9e0fe64b-52ae-472c-b56b-3bd29d8624c8"},"use":{"coding":[{"system":"http://terminology.hl7.org/CodeSystem/diagnosis-role","code":"billing"}]},"rank":1}],"location":[{"location":{"reference":"Location/0320407f-6110-4bce-9459-6ba7a50c8058"},"period":{"start":"2026-01-01T19:58:00.000+00:00","end":"2026-01-01T23:59:00.000+00:00"}}]},"request":{"method":"PUT","url":"Encounter/8dd0e53a-2cd2-4f00-b6f2-a2bc0222379b"}},{"fullUrl":"https://madie.cms.gov/ServiceRequest/adf6905a-450e-4f42-9e09-ec78cbcc7292","resource":{"resourceType":"ServiceRequest","id":"adf6905a-450e-4f42-9e09-ec78cbcc7292","meta":{"profile":["http://hl7.org/fhir/us/qicore/StructureDefinition/qicore-servicerequest"]},"status":"active","intent":"plan","code":{"coding":[{"system":"http://snomed.info/sct","version":"2023-09","code":"19951005","display":"Hospital admission, emergency, from emergency room, medical nature (procedure)","userSelected":true}]},"subject":{"reference":"Patient/eabe386d-5bca-4fdd-acb0-8228b4df83c0"},"authoredOn":"2026-01-01T19:58:00.000+00:00"},"request":{"method":"PUT","url":"ServiceRequest/adf6905a-450e-4f42-9e09-ec78cbcc7292"}},{"fullUrl":"https://madie.cms.gov/Location/0320407f-6110-4bce-9459-6ba7a50c8058","resource":{"resourceType":"Location","id":"0320407f-6110-4bce-9459-6ba7a50c8058","meta":{"profile":["http://hl7.org/fhir/us/qicore/StructureDefinition/qicore-location"]},"identifier":[{"use":"usual","system":"http://exampleoflocation.com","value":"B1-S.F2"}],"name":"Medical Surgical East, first floor","type":[{"coding":[{"system":"https://www.cdc.gov/nhsn/cdaportal/terminology/codesystem/hsloc.html","version":"2022","code":"1108-0","display":"Emergency Department","userSelected":true}]}]},"request":{"method":"PUT","url":"Location/0320407f-6110-4bce-9459-6ba7a50c8058"}},{"fullUrl":"https://madie.cms.gov/Coverage/5c0c7da4-81dc-4c51-ac22-6f4cd208e01c","resource":{"resourceType":"Coverage","id":"5c0c7da4-81dc-4c51-ac22-6f4cd208e01c","meta":{"profile":["http://hl7.org/fhir/us/qicore/StructureDefinition/qicore-coverage"]},"status":"active","beneficiary":{"reference":"Patient/eabe386d-5bca-4fdd-acb0-8228b4df83c0"},"payor":[{"reference":"Organization/4da248b0-6e59-49b7-b80e-338aa21d299f"}]},"request":{"method":"PUT","url":"Coverage/5c0c7da4-81dc-4c51-ac22-6f4cd208e01c"}},{"fullUrl":"https://madie.cms.gov/Condition/9e0fe64b-52ae-472c-b56b-3bd29d8624c8","resource":{"resourceType":"Condition","id":"9e0fe64b-52ae-472c-b56b-3bd29d8624c8","meta":{"profile":["http://hl7.org/fhir/us/qicore/StructureDefinition/qicore-condition"]},"category":[{"coding":[{"system":"http://terminology.hl7.org/CodeSystem/condition-category","code":"encounter-diagnosis","display":"Encounter Diagnosis"}]}],"code":{"coding":[{"system":"http://snomed.info/sct","version":"2023-09","code":"10349009","display":"Multi-infarct dementia with delirium (disorder)","userSelected":true}]},"subject":{"reference":"Patient/eabe386d-5bca-4fdd-acb0-8228b4df83c0"},"recordedDate":"2026-04-09T08:00:00.000+00:00"},"request":{"method":"PUT","url":"Condition/9e0fe64b-52ae-472c-b56b-3bd29d8624c8"}},{"fullUrl":"https://madie.cms.gov/Encounter/eef9f6a2-99c7-47ff-a0a9-bb462c5b0368","resource":{"resourceType":"Encounter","id":"eef9f6a2-99c7-47ff-a0a9-bb462c5b0368","meta":{"profile":["http://hl7.org/fhir/us/qicore/StructureDefinition/qicore-encounter"]},"status":"finished","class":{"system":"http://terminology.hl7.org/CodeSystem/v3-ActCode","code":"IMP","display":"inpatient"},"type":[{"coding":[{"system":"http://snomed.info/sct","version":"2023-09","code":"8715000","display":"Hospital admission, elective (procedure)","userSelected":true}]}],"subject":{"reference":"Patient/eabe386d-5bca-4fdd-acb0-8228b4df83c0"},"period":{"start":"2026-01-01T23:59:00.000+00:00","end":"2026-01-03T08:00:00.000+00:00"}},"request":{"method":"PUT","url":"Encounter/eef9f6a2-99c7-47ff-a0a9-bb462c5b0368"}},{"fullUrl":"https://madie.cms.gov/Organization/9e492712-f370-4de7-837c-8535455aa2ed","resource":{"resourceType":"Organization","id":"4da248b0-6e59-49b7-b80e-338aa21d299f","meta":{"profile":["http://hl7.org/fhir/us/qicore/StructureDefinition/qicore-organization"]},"identifier":[{"use":"temp","system":"urn:oid:2.16.840.1.113883.4.4","value":"21-3259825"}],"active":true,"type":[{"coding":[{"system":"http://terminology.hl7.org/CodeSystem/organization-type","code":"pay","display":"Payer"}]}],"name":"Blue Cross Blue Shield of Texas","telecom":[{"system":"phone","value":"(+1) 972-766-6900"}],"address":[{"use":"billing","type":"postal","line":["P.O. Box 660044"],"city":"Dallas","state":"TX","postalCode":"75266-0044","country":"USA"}]},"request":{"method":"PUT","url":"Organization/4da248b0-6e59-49b7-b80e-338aa21d299f"}},{"fullUrl":"https://madie.cms.gov/Practitioner/6e4db81d-23d1-4a89-a26b-01bbc455a501","resource":{"resourceType":"Practitioner","id":"6e4db81d-23d1-4a89-a26b-01bbc455a501","meta":{"profile":["http://hl7.org/fhir/us/qicore/StructureDefinition/qicore-practitioner"]},"identifier":[{"system":"http://hl7.org/fhir/sid/us-npi","value":"123456"}],"name":[{"family":"Evil","prefix":["Dr"]}]},"request":{"method":"PUT","url":"Practitioner/6e4db81d-23d1-4a89-a26b-01bbc455a501"}},{"fullUrl":"https://madie.cms.gov/MeasureReport/2cec6473-e05f-4763-920a-36dd9dc24568","resource":{"resourceType":"MeasureReport","id":"2cec6473-e05f-4763-920a-36dd9dc24568","meta":{"profile":["http://hl7.org/fhir/us/cqfmeasures/StructureDefinition/test-case-cqfm"]},"contained":[{"resourceType":"Parameters","id":"c9a6c32a-e288-4170-bd93-ae3263829ef0-parameters","parameter":[{"name":"subject","valueString":"eabe386d-5bca-4fdd-acb0-8228b4df83c0"}]}],"extension":[{"url":"http://hl7.org/fhir/us/cqfmeasures/StructureDefinition/cqfm-inputParameters","valueReference":{"reference":"#c9a6c32a-e288-4170-bd93-ae3263829ef0-parameters"}},{"url":"http://hl7.org/fhir/us/cqfmeasures/StructureDefinition/cqfm-testCaseDescription","valueMarkdown":"Encounter first day of MP"}],"modifierExtension":[{"url":"http://hl7.org/fhir/us/cqfmeasures/StructureDefinition/cqfm-isTestCase","valueBoolean":true}],"status":"complete","type":"individual","measure":"https://madie.cms.gov/Measure/CMS1244ECCQHOQRFHIR","period":{"start":"2026-01-01","end":"2026-12-31"},"group":[{"population":[{"code":{"coding":[{"system":"http://terminology.hl7.org/CodeSystem/measure-population","code":"initial-population","display":"Initial Population"}]},"count":1},{"code":{"coding":[{"system":"http://terminology.hl7.org/CodeSystem/measure-population","code":"denominator","display":"Denominator"}]},"count":1},{"code":{"coding":[{"system":"http://terminology.hl7.org/CodeSystem/measure-population","code":"numerator","display":"Numerator"}]},"count":0}]}]},"request":{"method":"PUT","url":"MeasureReport/2cec6473-e05f-4763-920a-36dd9dc24568"}}]}