{"resourceType":"Bundle","id":"tests-a11dce52-c6b3-46e5-bc01-8994b0c8f471-bundle","type":"transaction","entry":[{"fullUrl":"https://madie.cms.gov/Patient/a11dce52-c6b3-46e5-bc01-8994b0c8f471","resource":{"resourceType":"Patient","id":"a11dce52-c6b3-46e5-bc01-8994b0c8f471","meta":{"profile":["http://hl7.org/fhir/us/qicore/StructureDefinition/qicore-patient"]},"extension":[{"url":"http://hl7.org/fhir/us/core/StructureDefinition/us-core-race","extension":[{"url":"ombCategory","valueCoding":{"system":"urn:oid:2.16.840.1.113883.6.238","code":"1002-5","display":"American Indian or Alaska Native","userSelected":true}},{"url":"text","valueString":"American Indian or Alaska Native"}]},{"url":"http://hl7.org/fhir/us/core/StructureDefinition/us-core-ethnicity","extension":[{"url":"ombCategory","valueCoding":{"system":"urn:oid:2.16.840.1.113883.6.238","code":"2135-2","display":"Hispanic or Latino","userSelected":true}},{"url":"text","valueString":"Hispanic or Latino"}]}],"identifier":[{"type":{"coding":[{"system":"http://terminology.hl7.org/CodeSystem/v2-0203","code":"MR"}]},"system":"https://bonnie-fhir.healthit.gov/","value":"661476b015ed5841a5547ebf"}],"name":[{"family":"NUMEXStrat4Pass","given":["TransferToRehabNotACF"]}],"gender":"male","birthDate":"2008-01-01"},"request":{"method":"PUT","url":"Patient/a11dce52-c6b3-46e5-bc01-8994b0c8f471"}},{"fullUrl":"https://madie.cms.gov/Encounter/a689c55a-264f-49cf-9d75-22c89f7f3144","resource":{"resourceType":"Encounter","id":"a689c55a-264f-49cf-9d75-22c89f7f3144","meta":{"profile":["http://hl7.org/fhir/us/qicore/StructureDefinition/qicore-encounter"]},"status":"finished","class":{"system":"http://terminology.hl7.org/CodeSystem/v3-ActCode","code":"EMER","display":"emergency department"},"type":[{"coding":[{"system":"http://snomed.info/sct","version":"2023-09","code":"4525004","display":"Discharge to rehabilitation facility (procedure)","userSelected":true}]}],"subject":{"reference":"Patient/a11dce52-c6b3-46e5-bc01-8994b0c8f471"},"period":{"start":"2026-01-01T06:00:00.000+00:00","end":"2026-01-01T14:01:00.000+00:00"},"diagnosis":[{"condition":{"reference":"Condition/7ff72048-e816-4198-8936-7f7d41c39349"},"use":{"coding":[{"system":"http://terminology.hl7.org/CodeSystem/diagnosis-role","code":"billing"}]},"rank":1}],"hospitalization":{"dischargeDisposition":{"coding":[{"system":"http://snomed.info/sct","code":"433591000124103","display":"Discharge to acute care hospital (procedure)","userSelected":true}]}},"location":[{"location":{"reference":"Location/a09eaca3-8f2d-4823-aee6-d15ad7e64d02"},"period":{"start":"2026-01-01T06:00:00.000+00:00","end":"2026-01-01T14:01:00.000+00:00"}}]},"request":{"method":"PUT","url":"Encounter/a689c55a-264f-49cf-9d75-22c89f7f3144"}},{"fullUrl":"https://madie.cms.gov/Condition/7ff72048-e816-4198-8936-7f7d41c39349","resource":{"resourceType":"Condition","id":"7ff72048-e816-4198-8936-7f7d41c39349","meta":{"profile":["http://hl7.org/fhir/us/qicore/StructureDefinition/qicore-condition"]},"category":[{"coding":[{"system":"http://terminology.hl7.org/CodeSystem/condition-category","code":"encounter-diagnosis","display":"Encounter Diagnosis"}]}],"code":{"coding":[{"system":"http://snomed.info/sct","version":"2023-09","code":"66344007","display":"Recurrent major depression (disorder)","userSelected":true}]},"subject":{"reference":"Patient/a11dce52-c6b3-46e5-bc01-8994b0c8f471"},"recordedDate":"2026-01-01T08:00:00.000+00:00"},"request":{"method":"PUT","url":"Condition/7ff72048-e816-4198-8936-7f7d41c39349"}},{"fullUrl":"https://madie.cms.gov/Location/a09eaca3-8f2d-4823-aee6-d15ad7e64d02","resource":{"resourceType":"Location","id":"a09eaca3-8f2d-4823-aee6-d15ad7e64d02","meta":{"profile":["http://hl7.org/fhir/us/qicore/StructureDefinition/qicore-location"]},"identifier":[{"use":"usual","system":"http://exampleoflocation.com","value":"B1-S.F2"}],"name":"Medical Surgical East, first floor","type":[{"coding":[{"system":"https://www.cdc.gov/nhsn/cdaportal/terminology/codesystem/hsloc.html","version":"2022","code":"1108-0","display":"Emergency Department","userSelected":true}]}]},"request":{"method":"PUT","url":"Location/a09eaca3-8f2d-4823-aee6-d15ad7e64d02"}},{"fullUrl":"https://madie.cms.gov/Coverage/2768619d-06ad-4864-bdee-495ffe5b945e","resource":{"resourceType":"Coverage","id":"2768619d-06ad-4864-bdee-495ffe5b945e","meta":{"profile":["http://hl7.org/fhir/us/qicore/StructureDefinition/qicore-coverage"]},"status":"active","beneficiary":{"reference":"Patient/a11dce52-c6b3-46e5-bc01-8994b0c8f471"},"payor":[{"reference":"Organization/5ad6ea38-07e9-4482-9e1b-c09eee595be9"}]},"request":{"method":"PUT","url":"Coverage/2768619d-06ad-4864-bdee-495ffe5b945e"}},{"fullUrl":"https://madie.cms.gov/Organization/c9fe8710-36b3-4eb4-9335-deb96efd0d37","resource":{"resourceType":"Organization","id":"5ad6ea38-07e9-4482-9e1b-c09eee595be9","meta":{"profile":["http://hl7.org/fhir/us/qicore/StructureDefinition/qicore-organization"]},"identifier":[{"use":"temp","system":"urn:oid:2.16.840.1.113883.4.4","value":"21-3259825"}],"active":true,"type":[{"coding":[{"system":"http://terminology.hl7.org/CodeSystem/organization-type","code":"pay","display":"Payer"}]}],"name":"Blue Cross Blue Shield of Texas","telecom":[{"system":"phone","value":"(+1) 972-766-6900"}],"address":[{"use":"billing","type":"postal","line":["P.O. Box 660044"],"city":"Dallas","state":"TX","postalCode":"75266-0044","country":"USA"}]},"request":{"method":"PUT","url":"Organization/5ad6ea38-07e9-4482-9e1b-c09eee595be9"}},{"fullUrl":"https://madie.cms.gov/Practitioner/4c0f602e-8193-4835-bb1b-6c86ff7cd2f3","resource":{"resourceType":"Practitioner","id":"4c0f602e-8193-4835-bb1b-6c86ff7cd2f3","meta":{"profile":["http://hl7.org/fhir/us/qicore/StructureDefinition/qicore-practitioner"]},"identifier":[{"system":"http://hl7.org/fhir/sid/us-npi","value":"123456"}],"name":[{"family":"Evil","prefix":["Dr"]}]},"request":{"method":"PUT","url":"Practitioner/4c0f602e-8193-4835-bb1b-6c86ff7cd2f3"}},{"fullUrl":"https://madie.cms.gov/MeasureReport/da3a5739-8543-4782-82ff-017628f45a6b","resource":{"resourceType":"MeasureReport","id":"da3a5739-8543-4782-82ff-017628f45a6b","meta":{"profile":["http://hl7.org/fhir/us/cqfmeasures/StructureDefinition/test-case-cqfm"]},"contained":[{"resourceType":"Parameters","id":"d70fbaac-10e8-4df3-8d2f-762ddaafaf4b-parameters","parameter":[{"name":"subject","valueString":"a11dce52-c6b3-46e5-bc01-8994b0c8f471"}]}],"extension":[{"url":"http://hl7.org/fhir/us/cqfmeasures/StructureDefinition/cqfm-inputParameters","valueReference":{"reference":"#d70fbaac-10e8-4df3-8d2f-762ddaafaf4b-parameters"}},{"url":"http://hl7.org/fhir/us/cqfmeasures/StructureDefinition/cqfm-testCaseDescription","valueMarkdown":"Enc 1st day of MP, has behavioral health disorder, EDLOS 481 minutes, fails transfer d/t rehab not in Discharge to ACF"}],"modifierExtension":[{"url":"http://hl7.org/fhir/us/cqfmeasures/StructureDefinition/cqfm-isTestCase","valueBoolean":true}],"status":"complete","type":"individual","measure":"https://madie.cms.gov/Measure/CMS1244ECCQHOQRFHIR","period":{"start":"2026-01-01","end":"2026-12-31"},"group":[{"population":[{"code":{"coding":[{"system":"http://terminology.hl7.org/CodeSystem/measure-population","code":"initial-population","display":"Initial Population"}]},"count":1},{"code":{"coding":[{"system":"http://terminology.hl7.org/CodeSystem/measure-population","code":"denominator","display":"Denominator"}]},"count":1},{"code":{"coding":[{"system":"http://terminology.hl7.org/CodeSystem/measure-population","code":"numerator","display":"Numerator"}]},"count":1}]}]},"request":{"method":"PUT","url":"MeasureReport/da3a5739-8543-4782-82ff-017628f45a6b"}}]}