{"resourceType":"Bundle","id":"tests-c15c97ea-1631-468d-b2d0-420230f6c6d8-bundle","type":"transaction","entry":[{"fullUrl":"https://madie.cms.gov/Patient/c15c97ea-1631-468d-b2d0-420230f6c6d8","resource":{"resourceType":"Patient","id":"c15c97ea-1631-468d-b2d0-420230f6c6d8","meta":{"profile":["http://hl7.org/fhir/us/qicore/StructureDefinition/qicore-patient"]},"extension":[{"url":"http://hl7.org/fhir/us/core/StructureDefinition/us-core-race","extension":[{"url":"ombCategory","valueCoding":{"system":"urn:oid:2.16.840.1.113883.6.238","code":"1002-5","display":"American Indian or Alaska Native","userSelected":true}},{"url":"text","valueString":"American Indian or Alaska Native"}]},{"url":"http://hl7.org/fhir/us/core/StructureDefinition/us-core-ethnicity","extension":[{"url":"ombCategory","valueCoding":{"system":"urn:oid:2.16.840.1.113883.6.238","code":"2135-2","display":"Hispanic or Latino","userSelected":true}},{"url":"text","valueString":"Hispanic or Latino"}]}],"identifier":[{"type":{"coding":[{"system":"http://terminology.hl7.org/CodeSystem/v2-0203","code":"MR"}]},"system":"https://bonnie-fhir.healthit.gov/","value":"661476b015ed5841a5547ebf"}],"name":[{"family":"NUMEXStrat3Fail","given":["EDOBSBoarded1MinB4MP"]}],"gender":"male","birthDate":"2009-01-01"},"request":{"method":"PUT","url":"Patient/c15c97ea-1631-468d-b2d0-420230f6c6d8"}},{"fullUrl":"https://madie.cms.gov/Encounter/8fa5c2fd-b05d-4dd7-a44b-22d66076838f","resource":{"resourceType":"Encounter","id":"8fa5c2fd-b05d-4dd7-a44b-22d66076838f","meta":{"profile":["http://hl7.org/fhir/us/qicore/StructureDefinition/qicore-encounter"]},"status":"finished","class":{"system":"http://terminology.hl7.org/CodeSystem/v3-ActCode","code":"EMER","display":"emergency department"},"type":[{"coding":[{"system":"http://snomed.info/sct","version":"2023-09","code":"4525004","display":"Emergency department patient visit (procedure)","userSelected":true}]}],"subject":{"reference":"Patient/c15c97ea-1631-468d-b2d0-420230f6c6d8"},"period":{"start":"2026-01-01T00:00:00.000+00:00","end":"2026-01-01T06:00:00.000+00:00"},"diagnosis":[{"condition":{"reference":"Condition/58ba06a3-0607-4de4-9abf-3587acc0fe7c"},"use":{"coding":[{"system":"http://terminology.hl7.org/CodeSystem/diagnosis-role","code":"billing"}]},"rank":1}],"location":[{"location":{"reference":"Location/9bacb76f-7c54-4029-bd37-25167e94e008"},"period":{"start":"2026-01-01T00:00:00.000+00:00","end":"2026-01-01T06:01:00.000+00:00"}}]},"request":{"method":"PUT","url":"Encounter/8fa5c2fd-b05d-4dd7-a44b-22d66076838f"}},{"fullUrl":"https://madie.cms.gov/Encounter/1ec17060-7c52-4e05-8f51-a5fd2f2c21cf","resource":{"resourceType":"Encounter","id":"1ec17060-7c52-4e05-8f51-a5fd2f2c21cf","meta":{"profile":["http://hl7.org/fhir/us/qicore/StructureDefinition/qicore-encounter"]},"status":"finished","class":{"system":"http://terminology.hl7.org/CodeSystem/v3-ActCode","code":"IMP","display":"inpatient encounter"},"type":[{"coding":[{"system":"http://snomed.info/sct","version":"2023-09","code":"183452005","display":"Emergency hospital admission (procedure)","userSelected":true}]}],"subject":{"reference":"Patient/c15c97ea-1631-468d-b2d0-420230f6c6d8"},"period":{"start":"2026-01-01T05:00:00.000+00:00","end":"2026-01-03T06:15:00.000+00:00"}},"request":{"method":"PUT","url":"Encounter/1ec17060-7c52-4e05-8f51-a5fd2f2c21cf"}},{"fullUrl":"https://madie.cms.gov/ServiceRequest/19091b66-87c6-4011-b655-b2825f3fe9a3","resource":{"resourceType":"ServiceRequest","id":"19091b66-87c6-4011-b655-b2825f3fe9a3","meta":{"profile":["http://hl7.org/fhir/us/qicore/StructureDefinition/qicore-servicerequest"]},"status":"active","intent":"order","code":{"coding":[{"system":"http://snomed.info/sct","code":"5751000175101","display":"Patient bed assigned (finding)","userSelected":true}]},"subject":{"reference":"Patient/c15c97ea-1631-468d-b2d0-420230f6c6d8"},"authoredOn":"2026-01-01T02:00:00.000+00:00"},"request":{"method":"PUT","url":"ServiceRequest/19091b66-87c6-4011-b655-b2825f3fe9a3"}},{"fullUrl":"https://madie.cms.gov/Location/9bacb76f-7c54-4029-bd37-25167e94e008","resource":{"resourceType":"Location","id":"9bacb76f-7c54-4029-bd37-25167e94e008","meta":{"profile":["http://hl7.org/fhir/us/qicore/StructureDefinition/qicore-location"]},"identifier":[{"use":"usual","system":"http://exampleoflocation.com","value":"B1-S.F2"}],"name":"Medical Surgical East, first floor","type":[{"coding":[{"system":"https://www.cdc.gov/nhsn/cdaportal/terminology/codesystem/hsloc.html","version":"2022","code":"1108-0","display":"Emergency Department","userSelected":true}]}]},"request":{"method":"PUT","url":"Location/9bacb76f-7c54-4029-bd37-25167e94e008"}},{"fullUrl":"https://madie.cms.gov/Coverage/7c801947-2c01-4679-9c51-a8a3f3807367","resource":{"resourceType":"Coverage","id":"7c801947-2c01-4679-9c51-a8a3f3807367","meta":{"profile":["http://hl7.org/fhir/us/qicore/StructureDefinition/qicore-coverage"]},"status":"active","beneficiary":{"reference":"Patient/c15c97ea-1631-468d-b2d0-420230f6c6d8"},"payor":[{"reference":"Organization/5ad6ea38-07e9-4482-9e1b-c09eee595be9"}]},"request":{"method":"PUT","url":"Coverage/7c801947-2c01-4679-9c51-a8a3f3807367"}},{"fullUrl":"https://madie.cms.gov/Condition/58ba06a3-0607-4de4-9abf-3587acc0fe7c","resource":{"resourceType":"Condition","id":"58ba06a3-0607-4de4-9abf-3587acc0fe7c","meta":{"profile":["http://hl7.org/fhir/us/qicore/StructureDefinition/qicore-condition"]},"category":[{"coding":[{"system":"http://terminology.hl7.org/CodeSystem/condition-category","code":"encounter-diagnosis","display":"Encounter Diagnosis"}]}],"code":{"coding":[{"system":"http://snomed.info/sct","version":"2023-09","code":"10349009","display":"Multi-infarct dementia with delirium (disorder)","userSelected":true}]},"subject":{"reference":"Patient/c15c97ea-1631-468d-b2d0-420230f6c6d8"},"recordedDate":"2026-01-01T08:00:00.000+00:00"},"request":{"method":"PUT","url":"Condition/58ba06a3-0607-4de4-9abf-3587acc0fe7c"}},{"fullUrl":"https://madie.cms.gov/Encounter/27618a8a-543a-474a-8f64-aff1ffe08993","resource":{"resourceType":"Encounter","id":"27618a8a-543a-474a-8f64-aff1ffe08993","meta":{"profile":["http://hl7.org/fhir/us/qicore/StructureDefinition/qicore-encounter"]},"status":"finished","class":{"system":"http://terminology.hl7.org/CodeSystem/v3-ActCode","code":"EMER","display":"emergency"},"type":[{"coding":[{"system":"http://www.ama-assn.org/go/cpt","version":"2024","code":"99221","display":"Initial hospital inpatient or observation care, per day, for the evaluation and management of a patient, which requires a medically appropriate history and/or examination and straightforward or low level medical decision making. When using total time on the date of the encounter for code selection, 40 minutes must be met or exceeded.","userSelected":true}]}],"subject":{"reference":"Patient/c15c97ea-1631-468d-b2d0-420230f6c6d8"},"period":{"start":"2025-12-31T23:59:00.000+00:00","end":"2026-01-01T05:59:00.000+00:00"}},"request":{"method":"PUT","url":"Encounter/27618a8a-543a-474a-8f64-aff1ffe08993"}},{"fullUrl":"https://madie.cms.gov/Organization/6c107384-d643-4316-9488-00fa4b54d0f6","resource":{"resourceType":"Organization","id":"5ad6ea38-07e9-4482-9e1b-c09eee595be9","meta":{"profile":["http://hl7.org/fhir/us/qicore/StructureDefinition/qicore-organization"]},"identifier":[{"use":"temp","system":"urn:oid:2.16.840.1.113883.4.4","value":"21-3259825"}],"active":true,"type":[{"coding":[{"system":"http://terminology.hl7.org/CodeSystem/organization-type","code":"pay","display":"Payer"}]}],"name":"Blue Cross Blue Shield of Texas","telecom":[{"system":"phone","value":"(+1) 972-766-6900"}],"address":[{"use":"billing","type":"postal","line":["P.O. Box 660044"],"city":"Dallas","state":"TX","postalCode":"75266-0044","country":"USA"}]},"request":{"method":"PUT","url":"Organization/5ad6ea38-07e9-4482-9e1b-c09eee595be9"}},{"fullUrl":"https://madie.cms.gov/Practitioner/86007d8d-5cad-4624-bf87-b6ccdec0a8ba","resource":{"resourceType":"Practitioner","id":"86007d8d-5cad-4624-bf87-b6ccdec0a8ba","meta":{"profile":["http://hl7.org/fhir/us/qicore/StructureDefinition/qicore-practitioner"]},"identifier":[{"system":"http://hl7.org/fhir/sid/us-npi","value":"123456"}],"name":[{"family":"Evil","prefix":["Dr"]}]},"request":{"method":"PUT","url":"Practitioner/86007d8d-5cad-4624-bf87-b6ccdec0a8ba"}},{"fullUrl":"https://madie.cms.gov/MeasureReport/5aad4968-5509-448a-957b-80e68f979a69","resource":{"resourceType":"MeasureReport","id":"5aad4968-5509-448a-957b-80e68f979a69","meta":{"profile":["http://hl7.org/fhir/us/cqfmeasures/StructureDefinition/test-case-cqfm"]},"contained":[{"resourceType":"Parameters","id":"d3e295c4-34b7-41e1-a865-df474365bbec-parameters","parameter":[{"name":"subject","valueString":"c15c97ea-1631-468d-b2d0-420230f6c6d8"}]}],"extension":[{"url":"http://hl7.org/fhir/us/cqfmeasures/StructureDefinition/cqfm-inputParameters","valueReference":{"reference":"#d3e295c4-34b7-41e1-a865-df474365bbec-parameters"}},{"url":"http://hl7.org/fhir/us/cqfmeasures/StructureDefinition/cqfm-testCaseDescription","valueMarkdown":"Child, has behavioral health dx, ED observation during ED enc where patient was boarded 6 hrs 1 min; Enc 6 hrs, 59 mins enc departure 6 hrs 59 min.  EDObs started 1 min before start of MP and 1 min before start of ED enc."}],"modifierExtension":[{"url":"http://hl7.org/fhir/us/cqfmeasures/StructureDefinition/cqfm-isTestCase","valueBoolean":true}],"status":"complete","type":"individual","measure":"https://madie.cms.gov/Measure/CMS1244ECCQHOQRFHIR","period":{"start":"2026-01-01","end":"2026-12-31"},"group":[{"population":[{"code":{"coding":[{"system":"http://terminology.hl7.org/CodeSystem/measure-population","code":"initial-population","display":"Initial Population"}]},"count":1},{"code":{"coding":[{"system":"http://terminology.hl7.org/CodeSystem/measure-population","code":"denominator","display":"Denominator"}]},"count":1},{"code":{"coding":[{"system":"http://terminology.hl7.org/CodeSystem/measure-population","code":"numerator","display":"Numerator"}]},"count":1}]}]},"request":{"method":"PUT","url":"MeasureReport/5aad4968-5509-448a-957b-80e68f979a69"}}]}