{"resourceType":"Bundle","id":"tests-63cea3d6-d2e0-4736-a035-87633ca960bd-bundle","type":"transaction","entry":[{"fullUrl":"https://madie.cms.gov/Patient/63cea3d6-d2e0-4736-a035-87633ca960bd","resource":{"resourceType":"Patient","id":"63cea3d6-d2e0-4736-a035-87633ca960bd","meta":{"profile":["http://hl7.org/fhir/us/qicore/StructureDefinition/qicore-patient"]},"extension":[{"url":"http://hl7.org/fhir/us/core/StructureDefinition/us-core-race","extension":[{"url":"ombCategory","valueCoding":{"system":"urn:oid:2.16.840.1.113883.6.238","code":"1002-5","display":"American Indian or Alaska Native","userSelected":true}},{"url":"text","valueString":"American Indian or Alaska Native"}]},{"url":"http://hl7.org/fhir/us/core/StructureDefinition/us-core-ethnicity","extension":[{"url":"ombCategory","valueCoding":{"system":"urn:oid:2.16.840.1.113883.6.238","code":"2135-2","display":"Hispanic or Latino","userSelected":true}},{"url":"text","valueString":"Hispanic or Latino"}]}],"identifier":[{"type":{"coding":[{"system":"http://terminology.hl7.org/CodeSystem/v2-0203","code":"MR"}]},"system":"https://bonnie-fhir.healthit.gov/","value":"661476b015ed5841a5547ebf"}],"name":[{"family":"NUMERStrat4Fail","given":["AdmittedInpatientLessThan240Mins"]}],"gender":"male","birthDate":"2008-01-01"},"request":{"method":"PUT","url":"Patient/63cea3d6-d2e0-4736-a035-87633ca960bd"}},{"fullUrl":"https://madie.cms.gov/Encounter/7e76e204-1632-44aa-823c-be0dea406937","resource":{"resourceType":"Encounter","id":"7e76e204-1632-44aa-823c-be0dea406937","meta":{"profile":["http://hl7.org/fhir/us/qicore/StructureDefinition/qicore-encounter"]},"status":"finished","class":{"system":"http://terminology.hl7.org/CodeSystem/v3-ActCode","code":"EMER","display":"emergency department"},"type":[{"coding":[{"system":"http://snomed.info/sct","version":"2023-09","code":"4525004","display":"Emergency department patient visit (procedure)","userSelected":true}]}],"subject":{"reference":"Patient/63cea3d6-d2e0-4736-a035-87633ca960bd"},"period":{"start":"2026-01-01T06:00:00.000+00:00","end":"2026-01-01T10:00:00.000+00:00"},"diagnosis":[{"condition":{"reference":"Condition/3e516768-949b-411b-b74d-dfb63aa3060e"},"use":{"coding":[{"system":"http://terminology.hl7.org/CodeSystem/diagnosis-role","code":"billing"}]},"rank":1}],"location":[{"location":{"reference":"Location/03ab2fb3-d194-4323-8633-d6e6800455a4"},"period":{"start":"2026-01-01T06:00:00.000+00:00","end":"2026-01-01T10:00:00.000+00:00"}}]},"request":{"method":"PUT","url":"Encounter/7e76e204-1632-44aa-823c-be0dea406937"}},{"fullUrl":"https://madie.cms.gov/Encounter/424ab1e9-d6c6-4ab2-b53c-f3869282d370","resource":{"resourceType":"Encounter","id":"424ab1e9-d6c6-4ab2-b53c-f3869282d370","meta":{"profile":["http://hl7.org/fhir/us/qicore/StructureDefinition/qicore-encounter"]},"status":"finished","class":{"system":"http://terminology.hl7.org/CodeSystem/v3-ActCode","code":"IMP","display":"inpatient encounter"},"type":[{"coding":[{"system":"http://snomed.info/sct","version":"2023-09","code":"183452005","display":"Emergency hospital admission (procedure)","userSelected":true}]}],"subject":{"reference":"Patient/63cea3d6-d2e0-4736-a035-87633ca960bd"},"period":{"start":"2026-01-01T10:00:00.000+00:00","end":"2026-01-03T06:15:00.000+00:00"}},"request":{"method":"PUT","url":"Encounter/424ab1e9-d6c6-4ab2-b53c-f3869282d370"}},{"fullUrl":"https://madie.cms.gov/Location/03ab2fb3-d194-4323-8633-d6e6800455a4","resource":{"resourceType":"Location","id":"03ab2fb3-d194-4323-8633-d6e6800455a4","meta":{"profile":["http://hl7.org/fhir/us/qicore/StructureDefinition/qicore-location"]},"identifier":[{"use":"usual","system":"http://exampleoflocation.com","value":"B1-S.F2"}],"name":"Medical Surgical East, first floor","type":[{"coding":[{"system":"https://www.cdc.gov/nhsn/cdaportal/terminology/codesystem/hsloc.html","version":"2022","code":"1108-0","display":"Emergency Department","userSelected":true}]}]},"request":{"method":"PUT","url":"Location/03ab2fb3-d194-4323-8633-d6e6800455a4"}},{"fullUrl":"https://madie.cms.gov/Coverage/22c2ccc6-f775-48c7-add5-8a9d2af2df04","resource":{"resourceType":"Coverage","id":"22c2ccc6-f775-48c7-add5-8a9d2af2df04","meta":{"profile":["http://hl7.org/fhir/us/qicore/StructureDefinition/qicore-coverage"]},"status":"active","beneficiary":{"reference":"Patient/63cea3d6-d2e0-4736-a035-87633ca960bd"},"payor":[{"reference":"Organization/e75793c9-fdf6-463a-8c1d-4ee44320dc25"}]},"request":{"method":"PUT","url":"Coverage/22c2ccc6-f775-48c7-add5-8a9d2af2df04"}},{"fullUrl":"https://madie.cms.gov/Condition/3e516768-949b-411b-b74d-dfb63aa3060e","resource":{"resourceType":"Condition","id":"3e516768-949b-411b-b74d-dfb63aa3060e","meta":{"profile":["http://hl7.org/fhir/us/qicore/StructureDefinition/qicore-condition"]},"category":[{"coding":[{"system":"http://terminology.hl7.org/CodeSystem/condition-category","code":"encounter-diagnosis","display":"Encounter Diagnosis"}]}],"code":{"coding":[{"system":"http://snomed.info/sct","version":"2023-09","code":"10349009","display":"Multi-infarct dementia with delirium (disorder)","userSelected":true}]},"subject":{"reference":"Patient/63cea3d6-d2e0-4736-a035-87633ca960bd"},"recordedDate":"2026-04-09T08:00:00.000+00:00"},"request":{"method":"PUT","url":"Condition/3e516768-949b-411b-b74d-dfb63aa3060e"}},{"fullUrl":"https://madie.cms.gov/Organization/ab7a495c-d511-4214-888a-a8578a9c00d0","resource":{"resourceType":"Organization","id":"e75793c9-fdf6-463a-8c1d-4ee44320dc25","meta":{"profile":["http://hl7.org/fhir/us/qicore/StructureDefinition/qicore-organization"]},"identifier":[{"use":"temp","system":"urn:oid:2.16.840.1.113883.4.4","value":"21-3259825"}],"active":true,"type":[{"coding":[{"system":"http://terminology.hl7.org/CodeSystem/organization-type","code":"pay","display":"Payer"}]}],"name":"Blue Cross Blue Shield of Texas","telecom":[{"system":"phone","value":"(+1) 972-766-6900"}],"address":[{"use":"billing","type":"postal","line":["P.O. Box 660044"],"city":"Dallas","state":"TX","postalCode":"75266-0044","country":"USA"}]},"request":{"method":"PUT","url":"Organization/e75793c9-fdf6-463a-8c1d-4ee44320dc25"}},{"fullUrl":"https://madie.cms.gov/Practitioner/c19a4cd5-6986-4464-93dc-ed9f82e82366","resource":{"resourceType":"Practitioner","id":"c19a4cd5-6986-4464-93dc-ed9f82e82366","meta":{"profile":["http://hl7.org/fhir/us/qicore/StructureDefinition/qicore-practitioner"]},"identifier":[{"system":"http://hl7.org/fhir/sid/us-npi","value":"123456"}],"name":[{"family":"Evil","prefix":["Dr"]}]},"request":{"method":"PUT","url":"Practitioner/c19a4cd5-6986-4464-93dc-ed9f82e82366"}},{"fullUrl":"https://madie.cms.gov/MeasureReport/7d7175ee-b64c-4f4a-8840-6d34ab5011ea","resource":{"resourceType":"MeasureReport","id":"7d7175ee-b64c-4f4a-8840-6d34ab5011ea","meta":{"profile":["http://hl7.org/fhir/us/cqfmeasures/StructureDefinition/test-case-cqfm"]},"contained":[{"resourceType":"Parameters","id":"76c4e84b-c2fb-4698-84e1-7d99fb0d9a86-parameters","parameter":[{"name":"subject","valueString":"63cea3d6-d2e0-4736-a035-87633ca960bd"}]}],"extension":[{"url":"http://hl7.org/fhir/us/cqfmeasures/StructureDefinition/cqfm-inputParameters","valueReference":{"reference":"#76c4e84b-c2fb-4698-84e1-7d99fb0d9a86-parameters"}},{"url":"http://hl7.org/fhir/us/cqfmeasures/StructureDefinition/cqfm-testCaseDescription","valueMarkdown":"Enc 1st day of MP, in ED for 4 hours, admitted to inpat @1000, has behavioral health dx"}],"modifierExtension":[{"url":"http://hl7.org/fhir/us/cqfmeasures/StructureDefinition/cqfm-isTestCase","valueBoolean":true}],"status":"complete","type":"individual","measure":"https://madie.cms.gov/Measure/CMS1244ECCQHOQRFHIR","period":{"start":"2026-01-01","end":"2026-12-31"},"group":[{"population":[{"code":{"coding":[{"system":"http://terminology.hl7.org/CodeSystem/measure-population","code":"initial-population","display":"Initial Population"}]},"count":1},{"code":{"coding":[{"system":"http://terminology.hl7.org/CodeSystem/measure-population","code":"denominator","display":"Denominator"}]},"count":1},{"code":{"coding":[{"system":"http://terminology.hl7.org/CodeSystem/measure-population","code":"numerator","display":"Numerator"}]},"count":0}]}]},"request":{"method":"PUT","url":"MeasureReport/7d7175ee-b64c-4f4a-8840-6d34ab5011ea"}}]}