{"resourceType":"Bundle","id":"tests-78cbc6ac-f30d-404b-b539-6b903c7cfeba-bundle","type":"transaction","entry":[{"fullUrl":"https://madie.cms.gov/Patient/78cbc6ac-f30d-404b-b539-6b903c7cfeba","resource":{"resourceType":"Patient","id":"78cbc6ac-f30d-404b-b539-6b903c7cfeba","meta":{"profile":["http://hl7.org/fhir/us/qicore/StructureDefinition/qicore-patient"]},"extension":[{"url":"http://hl7.org/fhir/us/core/StructureDefinition/us-core-race","extension":[{"url":"ombCategory","valueCoding":{"system":"urn:oid:2.16.840.1.113883.6.238","code":"2076-8","display":"Native Hawaiian or Other Pacific Islander","userSelected":true}},{"url":"text","valueString":"Native Hawaiian or Other Pacific Islander"}]},{"url":"http://hl7.org/fhir/us/core/StructureDefinition/us-core-ethnicity","extension":[{"url":"ombCategory","valueCoding":{"system":"urn:oid:2.16.840.1.113883.6.238","code":"2186-5","display":"Not Hispanic or Latino","userSelected":true}},{"url":"text","valueString":"Not Hispanic or Latino"}]}],"identifier":[{"type":{"coding":[{"system":"http://terminology.hl7.org/CodeSystem/v2-0203","code":"MR"}]},"system":"https://bonnie-fhir.healthit.gov/","value":"661579e3db207d74c03b8a54"}],"name":[{"family":"NUMERStrat4Pass","given":["TimeToTx61Min"]}],"gender":"female","birthDate":"2007-12-31"},"request":{"method":"PUT","url":"Patient/78cbc6ac-f30d-404b-b539-6b903c7cfeba"}},{"fullUrl":"https://madie.cms.gov/Encounter/ae98161c-b1e8-4336-bccc-65b5067489fd","resource":{"resourceType":"Encounter","id":"ae98161c-b1e8-4336-bccc-65b5067489fd","meta":{"profile":["http://hl7.org/fhir/us/qicore/StructureDefinition/qicore-encounter"]},"status":"finished","class":{"system":"http://terminology.hl7.org/CodeSystem/v3-ActCode","code":"EMER","display":"emergency"},"type":[{"coding":[{"system":"http://snomed.info/sct","version":"2023-09","code":"4525004","display":"Emergency department patient visit (procedure)","userSelected":true}]}],"subject":{"reference":"Patient/78cbc6ac-f30d-404b-b539-6b903c7cfeba"},"period":{"start":"2026-01-01T08:00:00.000+00:00","end":"2026-01-01T12:15:00.000+00:00"},"diagnosis":[{"condition":{"reference":"Condition/9b8139b5-4282-40fb-918b-029f1ad02daa"},"use":{"coding":[{"system":"http://terminology.hl7.org/CodeSystem/diagnosis-role","code":"billing"}]},"rank":1}],"location":[{"location":{"reference":"Location/ec3c47e7-d889-4ccd-8485-0f93046e9124"},"period":{"start":"2026-01-01T07:45:00.000+00:00","end":"2026-01-01T12:15:00.000+00:00"}},{"location":{"reference":"Location/a49667fb-c770-4019-94f3-9e9d35cc726e"},"period":{"start":"2026-01-01T09:01:00.000+00:00","end":"2026-01-01T12:15:00.000+00:00"}}]},"request":{"method":"PUT","url":"Encounter/ae98161c-b1e8-4336-bccc-65b5067489fd"}},{"fullUrl":"https://madie.cms.gov/Location/ec3c47e7-d889-4ccd-8485-0f93046e9124","resource":{"resourceType":"Location","id":"ec3c47e7-d889-4ccd-8485-0f93046e9124","meta":{"profile":["http://hl7.org/fhir/us/qicore/StructureDefinition/qicore-location"]},"identifier":[{"use":"usual","system":"http://exampleoflocation.com","value":"B1-S.F1"}],"name":"Medical Surgical East, first floor","type":[{"coding":[{"system":"https://www.cdc.gov/nhsn/cdaportal/terminology/codesystem/hsloc.html","version":"2022","code":"1108-0","display":"Emergency Department","userSelected":true}]}]},"request":{"method":"PUT","url":"Location/ec3c47e7-d889-4ccd-8485-0f93046e9124"}},{"fullUrl":"https://madie.cms.gov/Location/a49667fb-c770-4019-94f3-9e9d35cc726e","resource":{"resourceType":"Location","id":"a49667fb-c770-4019-94f3-9e9d35cc726e","meta":{"profile":["http://hl7.org/fhir/us/qicore/StructureDefinition/qicore-location"]},"identifier":[{"use":"usual","system":"http://exampleoflocation.com","value":"B1-S.F2"}],"name":"Medical Surgical East, first floor","type":[{"coding":[{"system":"https://www.cdc.gov/nhsn/cdaportal/terminology/codesystem/hsloc.html","version":"2022","code":"1209-6","display":"Treatment Room","userSelected":true}]}]},"request":{"method":"PUT","url":"Location/a49667fb-c770-4019-94f3-9e9d35cc726e"}},{"fullUrl":"https://madie.cms.gov/Condition/9b8139b5-4282-40fb-918b-029f1ad02daa","resource":{"resourceType":"Condition","id":"9b8139b5-4282-40fb-918b-029f1ad02daa","meta":{"profile":["http://hl7.org/fhir/us/qicore/StructureDefinition/qicore-condition"]},"category":[{"coding":[{"system":"http://terminology.hl7.org/CodeSystem/condition-category","code":"encounter-diagnosis","display":"Encounter Diagnosis"}]}],"code":{"coding":[{"system":"http://snomed.info/sct","version":"2023-09","code":"10349009","display":"Multi-infarct dementia with delirium (disorder)","userSelected":true}]},"subject":{"reference":"Patient/78cbc6ac-f30d-404b-b539-6b903c7cfeba"},"recordedDate":"2026-04-09T08:00:00.000+00:00"},"request":{"method":"PUT","url":"Condition/9b8139b5-4282-40fb-918b-029f1ad02daa"}},{"fullUrl":"https://madie.cms.gov/Location/68151ab4-0633-4e03-9168-8966e3926081","resource":{"resourceType":"Location","id":"68151ab4-0633-4e03-9168-8966e3926081","meta":{"profile":["http://hl7.org/fhir/us/qicore/StructureDefinition/qicore-location"]},"identifier":[{"use":"usual","system":"http://exampleoflocation.com","value":"B1-S.F2"}],"name":"Medical Surgical East, first floor","type":[{"coding":[{"system":"https://www.cdc.gov/nhsn/cdaportal/terminology/codesystem/hsloc.html","version":"2022","code":"1108-0","display":"Emergency Department","userSelected":true}]}]},"request":{"method":"PUT","url":"Location/68151ab4-0633-4e03-9168-8966e3926081"}},{"fullUrl":"https://madie.cms.gov/Location/244c1a22-bb58-4759-8619-b302ec44776c","resource":{"resourceType":"Location","id":"244c1a22-bb58-4759-8619-b302ec44776c","meta":{"profile":["http://hl7.org/fhir/us/qicore/StructureDefinition/qicore-location"]},"identifier":[{"use":"usual","system":"http://exampleoflocation.com","value":"B1-S.F2"}],"name":"Medical Surgical East, first floor","type":[{"coding":[{"system":"https://www.cdc.gov/nhsn/cdaportal/terminology/codesystem/hsloc.html","version":"2022","code":"1209-6","display":"Treatment Room"}]}]},"request":{"method":"PUT","url":"Location/244c1a22-bb58-4759-8619-b302ec44776c"}},{"fullUrl":"https://madie.cms.gov/Coverage/36abeef3-d4c3-4deb-ba06-7a80c3b7ba6e","resource":{"resourceType":"Coverage","id":"36abeef3-d4c3-4deb-ba06-7a80c3b7ba6e","meta":{"profile":["http://hl7.org/fhir/us/qicore/StructureDefinition/qicore-coverage"]},"status":"active","beneficiary":{"reference":"Patient/78cbc6ac-f30d-404b-b539-6b903c7cfeba"},"payor":[{"reference":"Organization/e75793c9-fdf6-463a-8c1d-4ee44320dc25"}]},"request":{"method":"PUT","url":"Coverage/36abeef3-d4c3-4deb-ba06-7a80c3b7ba6e"}},{"fullUrl":"https://madie.cms.gov/Organization/63520fe6-1a30-4bab-985c-70af8187ddd8","resource":{"resourceType":"Organization","id":"e75793c9-fdf6-463a-8c1d-4ee44320dc25","meta":{"profile":["http://hl7.org/fhir/us/qicore/StructureDefinition/qicore-organization"]},"identifier":[{"use":"temp","system":"urn:oid:2.16.840.1.113883.4.4","value":"21-3259825"}],"active":true,"type":[{"coding":[{"system":"http://terminology.hl7.org/CodeSystem/organization-type","code":"pay","display":"Payer"}]}],"name":"Blue Cross Blue Shield of Texas","telecom":[{"system":"phone","value":"(+1) 972-766-6900"}],"address":[{"use":"billing","type":"postal","line":["P.O. Box 660044"],"city":"Dallas","state":"TX","postalCode":"75266-0044","country":"USA"}]},"request":{"method":"PUT","url":"Organization/e75793c9-fdf6-463a-8c1d-4ee44320dc25"}},{"fullUrl":"https://madie.cms.gov/Practitioner/59e005db-306f-467a-8351-9b9a55aec5dc","resource":{"resourceType":"Practitioner","id":"59e005db-306f-467a-8351-9b9a55aec5dc","meta":{"profile":["http://hl7.org/fhir/us/qicore/StructureDefinition/qicore-practitioner"]},"identifier":[{"system":"http://hl7.org/fhir/sid/us-npi","value":"123456"}],"name":[{"family":"Evil","prefix":["Dr"]}]},"request":{"method":"PUT","url":"Practitioner/59e005db-306f-467a-8351-9b9a55aec5dc"}},{"fullUrl":"https://madie.cms.gov/MeasureReport/0daea000-b62c-4802-bb5b-2de318ac5164","resource":{"resourceType":"MeasureReport","id":"0daea000-b62c-4802-bb5b-2de318ac5164","meta":{"profile":["http://hl7.org/fhir/us/cqfmeasures/StructureDefinition/test-case-cqfm"]},"contained":[{"resourceType":"Parameters","id":"f2c7644b-93e2-4f16-aa53-eb44b76b221a-parameters","parameter":[{"name":"subject","valueString":"78cbc6ac-f30d-404b-b539-6b903c7cfeba"}]}],"extension":[{"url":"http://hl7.org/fhir/us/cqfmeasures/StructureDefinition/cqfm-inputParameters","valueReference":{"reference":"#f2c7644b-93e2-4f16-aa53-eb44b76b221a-parameters"}},{"url":"http://hl7.org/fhir/us/cqfmeasures/StructureDefinition/cqfm-testCaseDescription","valueMarkdown":"Adult, age 18 Encounter  first day of MP, time to treatment 61 minutes has mental illness"}],"modifierExtension":[{"url":"http://hl7.org/fhir/us/cqfmeasures/StructureDefinition/cqfm-isTestCase","valueBoolean":true}],"status":"complete","type":"individual","measure":"https://madie.cms.gov/Measure/CMS1244ECCQHOQRFHIR","period":{"start":"2026-01-01","end":"2026-12-31"},"group":[{"population":[{"code":{"coding":[{"system":"http://terminology.hl7.org/CodeSystem/measure-population","code":"initial-population","display":"Initial Population"}]},"count":1},{"code":{"coding":[{"system":"http://terminology.hl7.org/CodeSystem/measure-population","code":"denominator","display":"Denominator"}]},"count":1},{"code":{"coding":[{"system":"http://terminology.hl7.org/CodeSystem/measure-population","code":"numerator","display":"Numerator"}]},"count":1}]}]},"request":{"method":"PUT","url":"MeasureReport/0daea000-b62c-4802-bb5b-2de318ac5164"}}]}