{"resourceType":"Bundle","id":"tests-50270eff-f1ed-4cb3-b22b-467d89937c3a-bundle","type":"transaction","entry":[{"fullUrl":"https://madie.cms.gov/Patient/50270eff-f1ed-4cb3-b22b-467d89937c3a","resource":{"resourceType":"Patient","id":"50270eff-f1ed-4cb3-b22b-467d89937c3a","meta":{"profile":["http://hl7.org/fhir/us/qicore/StructureDefinition/qicore-patient"]},"extension":[{"url":"http://hl7.org/fhir/us/core/StructureDefinition/us-core-race","extension":[{"url":"ombCategory","valueCoding":{"system":"urn:oid:2.16.840.1.113883.6.238","code":"1002-5","display":"American Indian or Alaska Native","userSelected":true}},{"url":"text","valueString":"American Indian or Alaska Native"}]},{"url":"http://hl7.org/fhir/us/core/StructureDefinition/us-core-ethnicity","extension":[{"url":"ombCategory","valueCoding":{"system":"urn:oid:2.16.840.1.113883.6.238","code":"2135-2","display":"Hispanic or Latino","userSelected":true}},{"url":"text","valueString":"Hispanic or Latino"}]}],"identifier":[{"type":{"coding":[{"system":"http://terminology.hl7.org/CodeSystem/v2-0203","code":"MR"}]},"system":"https://bonnie-fhir.healthit.gov/","value":"661476b015ed5841a5547ebf"}],"name":[{"family":"NUMERStrat1Fail","given":["PatientBedAssignment240Minutes"]}],"gender":"male","birthDate":"2009-01-01"},"request":{"method":"PUT","url":"Patient/50270eff-f1ed-4cb3-b22b-467d89937c3a"}},{"fullUrl":"https://madie.cms.gov/Encounter/d225823a-2152-44a9-acfa-8924753a92b7","resource":{"resourceType":"Encounter","id":"d225823a-2152-44a9-acfa-8924753a92b7","meta":{"profile":["http://hl7.org/fhir/us/qicore/StructureDefinition/qicore-encounter"]},"status":"finished","class":{"system":"http://terminology.hl7.org/CodeSystem/v3-ActCode","code":"EMER","display":"emergency department"},"type":[{"coding":[{"system":"http://snomed.info/sct","version":"2023-09","code":"4525004","display":"Emergency department patient visit (procedure)","userSelected":true}]}],"subject":{"reference":"Patient/50270eff-f1ed-4cb3-b22b-467d89937c3a"},"period":{"start":"2026-01-01T00:00:00.000+00:00","end":"2026-01-01T04:00:00.000+00:00"},"diagnosis":[{"condition":{"reference":"Condition/non-behavioral-health-diagnosis-without-substance-use-disorders-8a64"},"use":{"coding":[{"system":"http://terminology.hl7.org/CodeSystem/diagnosis-role","code":"billing"}]},"rank":1}],"location":[{"location":{"reference":"Location/3f4b9b2a-402b-4e16-9279-7a3c0b234613"},"period":{"start":"2026-01-01T00:00:00.000+00:00","end":"2026-01-01T04:00:00.000+00:00"}}]},"request":{"method":"PUT","url":"Encounter/d225823a-2152-44a9-acfa-8924753a92b7"}},{"fullUrl":"https://madie.cms.gov/Encounter/c8a3c045-e376-4876-8e20-de0714ae7565","resource":{"resourceType":"Encounter","id":"c8a3c045-e376-4876-8e20-de0714ae7565","meta":{"profile":["http://hl7.org/fhir/us/qicore/StructureDefinition/qicore-encounter"]},"status":"finished","class":{"system":"http://terminology.hl7.org/CodeSystem/v3-ActCode","code":"IMP","display":"inpatient encounter"},"type":[{"coding":[{"system":"http://snomed.info/sct","version":"2023-09","code":"183452005","display":"Emergency hospital admission (procedure)","userSelected":true}]}],"subject":{"reference":"Patient/50270eff-f1ed-4cb3-b22b-467d89937c3a"},"period":{"start":"2026-01-01T05:00:00.000+00:00","end":"2026-01-03T06:15:00.000+00:00"}},"request":{"method":"PUT","url":"Encounter/c8a3c045-e376-4876-8e20-de0714ae7565"}},{"fullUrl":"https://madie.cms.gov/ServiceRequest/b965a820-7947-46c3-88a6-24a352963db6","resource":{"resourceType":"ServiceRequest","id":"b965a820-7947-46c3-88a6-24a352963db6","meta":{"profile":["http://hl7.org/fhir/us/qicore/StructureDefinition/qicore-servicerequest"]},"status":"active","intent":"order","code":{"coding":[{"system":"http://snomed.info/sct","code":"5751000175101","display":"Patient bed assigned (finding)","userSelected":true}]},"subject":{"reference":"Patient/50270eff-f1ed-4cb3-b22b-467d89937c3a"},"authoredOn":"2026-01-01T01:59:00.000+00:00"},"request":{"method":"PUT","url":"ServiceRequest/b965a820-7947-46c3-88a6-24a352963db6"}},{"fullUrl":"https://madie.cms.gov/Location/3f4b9b2a-402b-4e16-9279-7a3c0b234613","resource":{"resourceType":"Location","id":"3f4b9b2a-402b-4e16-9279-7a3c0b234613","meta":{"profile":["http://hl7.org/fhir/us/qicore/StructureDefinition/qicore-location"]},"identifier":[{"use":"usual","system":"http://exampleoflocation.com","value":"B1-S.F2"}],"name":"Medical Surgical East, first floor","type":[{"coding":[{"system":"https://www.cdc.gov/nhsn/cdaportal/terminology/codesystem/hsloc.html","version":"2022","code":"1108-0","display":"Emergency Department","userSelected":true}]}]},"request":{"method":"PUT","url":"Location/3f4b9b2a-402b-4e16-9279-7a3c0b234613"}},{"fullUrl":"https://madie.cms.gov/Coverage/f00c3787-d412-4942-946d-49971012955d","resource":{"resourceType":"Coverage","id":"f00c3787-d412-4942-946d-49971012955d","meta":{"profile":["http://hl7.org/fhir/us/qicore/StructureDefinition/qicore-coverage"]},"status":"active","beneficiary":{"reference":"Patient/50270eff-f1ed-4cb3-b22b-467d89937c3a"},"payor":[{"reference":"Organization/e75793c9-fdf6-463a-8c1d-4ee44320dc25"}]},"request":{"method":"PUT","url":"Coverage/f00c3787-d412-4942-946d-49971012955d"}},{"fullUrl":"https://madie.cms.gov/Condition/21d582b1-7bcb-4e9b-8844-fdd38823ea5d","resource":{"resourceType":"Condition","id":"21d582b1-7bcb-4e9b-8844-fdd38823ea5d","meta":{"profile":["http://hl7.org/fhir/us/qicore/StructureDefinition/qicore-condition"]},"category":[{"coding":[{"system":"http://terminology.hl7.org/CodeSystem/condition-category","code":"encounter-diagnosis","display":"Encounter Diagnosis"}]}],"code":{"coding":[{"system":"http://snomed.info/sct","version":"2023-09","code":"10674711000119105","display":"Acute severe exacerbation of asthma co-occurrent with allergic rhinitis (disorder)","userSelected":true}]},"subject":{"reference":"Patient/50270eff-f1ed-4cb3-b22b-467d89937c3a"},"recordedDate":"2026-01-01T08:00:00.000+00:00"},"request":{"method":"PUT","url":"Condition/21d582b1-7bcb-4e9b-8844-fdd38823ea5d"}},{"fullUrl":"https://madie.cms.gov/Organization/9bc2b330-e0f9-4f97-b410-f3f50dff1fe3","resource":{"resourceType":"Organization","id":"e75793c9-fdf6-463a-8c1d-4ee44320dc25","meta":{"profile":["http://hl7.org/fhir/us/qicore/StructureDefinition/qicore-organization"]},"identifier":[{"use":"temp","system":"urn:oid:2.16.840.1.113883.4.4","value":"21-3259825"}],"active":true,"type":[{"coding":[{"system":"http://terminology.hl7.org/CodeSystem/organization-type","code":"pay","display":"Payer"}]}],"name":"Blue Cross Blue Shield of Texas","telecom":[{"system":"phone","value":"(+1) 972-766-6900"}],"address":[{"use":"billing","type":"postal","line":["P.O. Box 660044"],"city":"Dallas","state":"TX","postalCode":"75266-0044","country":"USA"}]},"request":{"method":"PUT","url":"Organization/e75793c9-fdf6-463a-8c1d-4ee44320dc25"}},{"fullUrl":"https://madie.cms.gov/Practitioner/5def77b3-32e3-434f-9e93-a84eb5fc1fbf","resource":{"resourceType":"Practitioner","id":"5def77b3-32e3-434f-9e93-a84eb5fc1fbf","meta":{"profile":["http://hl7.org/fhir/us/qicore/StructureDefinition/qicore-practitioner"]},"identifier":[{"system":"http://hl7.org/fhir/sid/us-npi","value":"123456"}],"name":[{"family":"Evil","prefix":["Dr"]}]},"request":{"method":"PUT","url":"Practitioner/5def77b3-32e3-434f-9e93-a84eb5fc1fbf"}},{"fullUrl":"https://madie.cms.gov/MeasureReport/74edda8c-279f-40b4-8daa-a852d0c5b0dd","resource":{"resourceType":"MeasureReport","id":"74edda8c-279f-40b4-8daa-a852d0c5b0dd","meta":{"profile":["http://hl7.org/fhir/us/cqfmeasures/StructureDefinition/test-case-cqfm"]},"contained":[{"resourceType":"Parameters","id":"db990ddb-cd89-466c-9d53-991579e6baa4-parameters","parameter":[{"name":"subject","valueString":"50270eff-f1ed-4cb3-b22b-467d89937c3a"}]}],"extension":[{"url":"http://hl7.org/fhir/us/cqfmeasures/StructureDefinition/cqfm-inputParameters","valueReference":{"reference":"#db990ddb-cd89-466c-9d53-991579e6baa4-parameters"}},{"url":"http://hl7.org/fhir/us/cqfmeasures/StructureDefinition/cqfm-testCaseDescription","valueMarkdown":"Enc first day of MP, has allergic rhinitis, pt bed assigned at 240 minutes"}],"modifierExtension":[{"url":"http://hl7.org/fhir/us/cqfmeasures/StructureDefinition/cqfm-isTestCase","valueBoolean":true}],"status":"complete","type":"individual","measure":"https://madie.cms.gov/Measure/CMS1244ECCQHOQRFHIR","period":{"start":"2026-01-01","end":"2026-12-31"},"group":[{"population":[{"code":{"coding":[{"system":"http://terminology.hl7.org/CodeSystem/measure-population","code":"initial-population","display":"Initial Population"}]},"count":1},{"code":{"coding":[{"system":"http://terminology.hl7.org/CodeSystem/measure-population","code":"denominator","display":"Denominator"}]},"count":1},{"code":{"coding":[{"system":"http://terminology.hl7.org/CodeSystem/measure-population","code":"numerator","display":"Numerator"}]},"count":0}]}]},"request":{"method":"PUT","url":"MeasureReport/74edda8c-279f-40b4-8daa-a852d0c5b0dd"}}]}