{"resourceType":"Bundle","id":"tests-a42d4cc2-24ca-4637-889f-276bcdd1e7cf-bundle","type":"transaction","entry":[{"fullUrl":"https://madie.cms.gov/Patient/a42d4cc2-24ca-4637-889f-276bcdd1e7cf","resource":{"resourceType":"Patient","id":"a42d4cc2-24ca-4637-889f-276bcdd1e7cf","meta":{"profile":["http://hl7.org/fhir/us/qicore/StructureDefinition/qicore-patient"]},"extension":[{"url":"http://hl7.org/fhir/us/core/StructureDefinition/us-core-race","extension":[{"url":"ombCategory","valueCoding":{"system":"urn:oid:2.16.840.1.113883.6.238","code":"1002-5","display":"American Indian or Alaska Native","userSelected":true}},{"url":"text","valueString":"American Indian or Alaska Native"}]},{"url":"http://hl7.org/fhir/us/core/StructureDefinition/us-core-ethnicity","extension":[{"url":"ombCategory","valueCoding":{"system":"urn:oid:2.16.840.1.113883.6.238","code":"2135-2","display":"Hispanic or Latino","userSelected":true}},{"url":"text","valueString":"Hispanic or Latino"}]}],"identifier":[{"type":{"coding":[{"system":"http://terminology.hl7.org/CodeSystem/v2-0203","code":"MR"}]},"system":"https://bonnie-fhir.healthit.gov/","value":"661476b015ed5841a5547ebf"}],"name":[{"family":"NUMERStrat1Pass","given":["EDLOS481Minutes"]}],"gender":"male","birthDate":"2010-01-01"},"request":{"method":"PUT","url":"Patient/a42d4cc2-24ca-4637-889f-276bcdd1e7cf"}},{"fullUrl":"https://madie.cms.gov/Encounter/56cb66c8-13f6-47bc-a3ca-ff7dc7beca6f","resource":{"resourceType":"Encounter","id":"56cb66c8-13f6-47bc-a3ca-ff7dc7beca6f","meta":{"profile":["http://hl7.org/fhir/us/qicore/StructureDefinition/qicore-encounter"]},"status":"finished","class":{"system":"http://terminology.hl7.org/CodeSystem/v3-ActCode","code":"EMER","display":"emergency department"},"type":[{"coding":[{"system":"http://snomed.info/sct","version":"2023-09","code":"4525004","display":"Emergency department patient visit (procedure)","userSelected":true}]}],"subject":{"reference":"Patient/a42d4cc2-24ca-4637-889f-276bcdd1e7cf"},"period":{"start":"2026-01-01T06:00:00.000+00:00","end":"2026-01-01T14:01:00.000+00:00"},"diagnosis":[{"condition":{"reference":"Condition/8ed861dd-6fc2-4afa-a76f-e00987f24722"},"use":{"coding":[{"system":"http://terminology.hl7.org/CodeSystem/diagnosis-role","code":"billing"}]},"rank":1}],"location":[{"location":{"reference":"Location/5d1c56f8-48fb-42e4-a7b6-2c23ece15c15"},"period":{"start":"2026-01-01T06:00:00.000+00:00","end":"2026-01-01T14:01:00.000+00:00"}}]},"request":{"method":"PUT","url":"Encounter/56cb66c8-13f6-47bc-a3ca-ff7dc7beca6f"}},{"fullUrl":"https://madie.cms.gov/Condition/8ed861dd-6fc2-4afa-a76f-e00987f24722","resource":{"resourceType":"Condition","id":"8ed861dd-6fc2-4afa-a76f-e00987f24722","meta":{"profile":["http://hl7.org/fhir/us/qicore/StructureDefinition/qicore-condition"]},"category":[{"coding":[{"system":"http://terminology.hl7.org/CodeSystem/condition-category","code":"encounter-diagnosis","display":"Encounter Diagnosis"}]}],"code":{"coding":[{"system":"http://snomed.info/sct","version":"2023-09","code":"10660471000119109","display":"Ulcer of left foot due to type 2 diabetes mellitus (disorder)","userSelected":true}]},"subject":{"reference":"Patient/a42d4cc2-24ca-4637-889f-276bcdd1e7cf"},"recordedDate":"2026-01-01T08:00:00.000+00:00"},"request":{"method":"PUT","url":"Condition/8ed861dd-6fc2-4afa-a76f-e00987f24722"}},{"fullUrl":"https://madie.cms.gov/Location/5d1c56f8-48fb-42e4-a7b6-2c23ece15c15","resource":{"resourceType":"Location","id":"5d1c56f8-48fb-42e4-a7b6-2c23ece15c15","meta":{"profile":["http://hl7.org/fhir/us/qicore/StructureDefinition/qicore-location"]},"identifier":[{"use":"usual","system":"http://exampleoflocation.com","value":"B1-S.F2"}],"name":"Medical Surgical East, first floor","type":[{"coding":[{"system":"https://www.cdc.gov/nhsn/cdaportal/terminology/codesystem/hsloc.html","version":"2022","code":"1108-0","display":"Emergency Department","userSelected":true}]}]},"request":{"method":"PUT","url":"Location/5d1c56f8-48fb-42e4-a7b6-2c23ece15c15"}},{"fullUrl":"https://madie.cms.gov/Coverage/229775be-abe2-4786-8e32-9e3168547b2b","resource":{"resourceType":"Coverage","id":"229775be-abe2-4786-8e32-9e3168547b2b","meta":{"profile":["http://hl7.org/fhir/us/qicore/StructureDefinition/qicore-coverage"]},"status":"active","beneficiary":{"reference":"Patient/a42d4cc2-24ca-4637-889f-276bcdd1e7cf"},"payor":[{"reference":"Organization/3e899f33-84eb-4634-a770-a5a0bd7a80e7"}]},"request":{"method":"PUT","url":"Coverage/229775be-abe2-4786-8e32-9e3168547b2b"}},{"fullUrl":"https://madie.cms.gov/Organization/faa4e990-db2e-4cac-abdb-6f33f6b1748d","resource":{"resourceType":"Organization","id":"3e899f33-84eb-4634-a770-a5a0bd7a80e7","meta":{"profile":["http://hl7.org/fhir/us/qicore/StructureDefinition/qicore-organization"]},"identifier":[{"use":"temp","system":"urn:oid:2.16.840.1.113883.4.4","value":"21-3259825"}],"active":true,"type":[{"coding":[{"system":"http://terminology.hl7.org/CodeSystem/organization-type","code":"pay","display":"Payer"}]}],"name":"Blue Cross Blue Shield of Texas","telecom":[{"system":"phone","value":"(+1) 972-766-6900"}],"address":[{"use":"billing","type":"postal","line":["P.O. Box 660044"],"city":"Dallas","state":"TX","postalCode":"75266-0044","country":"USA"}]},"request":{"method":"PUT","url":"Organization/3e899f33-84eb-4634-a770-a5a0bd7a80e7"}},{"fullUrl":"https://madie.cms.gov/Practitioner/4b8df1cd-93f1-40b6-b91d-2bea8a991068","resource":{"resourceType":"Practitioner","id":"4b8df1cd-93f1-40b6-b91d-2bea8a991068","meta":{"profile":["http://hl7.org/fhir/us/qicore/StructureDefinition/qicore-practitioner"]},"identifier":[{"system":"http://hl7.org/fhir/sid/us-npi","value":"123456"}],"name":[{"family":"Evil","prefix":["Dr"]}]},"request":{"method":"PUT","url":"Practitioner/4b8df1cd-93f1-40b6-b91d-2bea8a991068"}},{"fullUrl":"https://madie.cms.gov/MeasureReport/0bd82719-ed19-481a-b0af-0c80b2917125","resource":{"resourceType":"MeasureReport","id":"0bd82719-ed19-481a-b0af-0c80b2917125","meta":{"profile":["http://hl7.org/fhir/us/cqfmeasures/StructureDefinition/test-case-cqfm"]},"contained":[{"resourceType":"Parameters","id":"375144e5-ca5e-44a0-a94b-b173fd62120e-parameters","parameter":[{"name":"subject","valueString":"a42d4cc2-24ca-4637-889f-276bcdd1e7cf"}]}],"extension":[{"url":"http://hl7.org/fhir/us/cqfmeasures/StructureDefinition/cqfm-inputParameters","valueReference":{"reference":"#375144e5-ca5e-44a0-a94b-b173fd62120e-parameters"}},{"url":"http://hl7.org/fhir/us/cqfmeasures/StructureDefinition/cqfm-testCaseDescription","valueMarkdown":"Child, age 17, ED enc first day of MP, LOS 481 minutes,"}],"modifierExtension":[{"url":"http://hl7.org/fhir/us/cqfmeasures/StructureDefinition/cqfm-isTestCase","valueBoolean":true}],"status":"complete","type":"individual","measure":"https://madie.cms.gov/Measure/CMS1244ECCQHOQRFHIR","period":{"start":"2026-01-01","end":"2026-12-31"},"group":[{"population":[{"code":{"coding":[{"system":"http://terminology.hl7.org/CodeSystem/measure-population","code":"initial-population","display":"Initial Population"}]},"count":1},{"code":{"coding":[{"system":"http://terminology.hl7.org/CodeSystem/measure-population","code":"denominator","display":"Denominator"}]},"count":1},{"code":{"coding":[{"system":"http://terminology.hl7.org/CodeSystem/measure-population","code":"numerator","display":"Numerator"}]},"count":1}]}]},"request":{"method":"PUT","url":"MeasureReport/0bd82719-ed19-481a-b0af-0c80b2917125"}}]}