{"resourceType":"Bundle","id":"tests-040dc7b1-27f9-43a3-82c9-b1a514db3071-bundle","type":"transaction","entry":[{"fullUrl":"https://madie.cms.gov/Patient/040dc7b1-27f9-43a3-82c9-b1a514db3071","resource":{"resourceType":"Patient","id":"040dc7b1-27f9-43a3-82c9-b1a514db3071","meta":{"profile":["http://hl7.org/fhir/us/qicore/StructureDefinition/qicore-patient"]},"extension":[{"url":"http://hl7.org/fhir/us/core/StructureDefinition/us-core-race","extension":[{"url":"ombCategory","valueCoding":{"system":"urn:oid:2.16.840.1.113883.6.238","code":"1002-5","display":"American Indian or Alaska Native","userSelected":true}},{"url":"text","valueString":"American Indian or Alaska Native"}]},{"url":"http://hl7.org/fhir/us/core/StructureDefinition/us-core-ethnicity","extension":[{"url":"ombCategory","valueCoding":{"system":"urn:oid:2.16.840.1.113883.6.238","code":"2135-2","display":"Hispanic or Latino","userSelected":true}},{"url":"text","valueString":"Hispanic or Latino"}]}],"identifier":[{"type":{"coding":[{"system":"http://terminology.hl7.org/CodeSystem/v2-0203","code":"MR"}]},"system":"https://bonnie-fhir.healthit.gov/","value":"661476b015ed5841a5547ebf"}],"name":[{"family":"NUMERStrat3Pass","given":["BedAssignment"]}],"gender":"male","birthDate":"2009-01-01"},"request":{"method":"PUT","url":"Patient/040dc7b1-27f9-43a3-82c9-b1a514db3071"}},{"fullUrl":"https://madie.cms.gov/Encounter/e82d4554-46e7-48bc-9749-e248521db2bd","resource":{"resourceType":"Encounter","id":"e82d4554-46e7-48bc-9749-e248521db2bd","meta":{"profile":["http://hl7.org/fhir/us/qicore/StructureDefinition/qicore-encounter"]},"status":"finished","class":{"system":"http://terminology.hl7.org/CodeSystem/v3-ActCode","code":"EMER","display":"emergency department"},"type":[{"coding":[{"system":"http://snomed.info/sct","version":"2023-09","code":"4525004","display":"Emergency department patient visit (procedure)","userSelected":true}]}],"subject":{"reference":"Patient/040dc7b1-27f9-43a3-82c9-b1a514db3071"},"period":{"start":"2026-01-01T00:00:00.000+00:00","end":"2026-01-01T06:00:00.000+00:00"},"diagnosis":[{"condition":{"reference":"Condition/ec81f9ef-b816-487d-879d-3421311c191e"},"use":{"coding":[{"system":"http://terminology.hl7.org/CodeSystem/diagnosis-role","code":"billing"}]},"rank":1}],"location":[{"location":{"reference":"Location/14d4cc90-2103-483e-a1be-176e31f08fef"},"period":{"start":"2026-01-01T00:00:00.000+00:00","end":"2026-01-01T06:01:00.000+00:00"}}]},"request":{"method":"PUT","url":"Encounter/e82d4554-46e7-48bc-9749-e248521db2bd"}},{"fullUrl":"https://madie.cms.gov/ServiceRequest/9c98175e-c650-4f78-80ad-f226d2c4260e","resource":{"resourceType":"ServiceRequest","id":"9c98175e-c650-4f78-80ad-f226d2c4260e","meta":{"profile":["http://hl7.org/fhir/us/qicore/StructureDefinition/qicore-servicerequest"]},"status":"active","intent":"order","code":{"coding":[{"system":"http://snomed.info/sct","code":"5751000175101","display":"Patient bed assigned (finding)","userSelected":true}]},"subject":{"reference":"Patient/040dc7b1-27f9-43a3-82c9-b1a514db3071"},"authoredOn":"2026-01-01T02:00:00.000+00:00"},"request":{"method":"PUT","url":"ServiceRequest/9c98175e-c650-4f78-80ad-f226d2c4260e"}},{"fullUrl":"https://madie.cms.gov/Location/14d4cc90-2103-483e-a1be-176e31f08fef","resource":{"resourceType":"Location","id":"14d4cc90-2103-483e-a1be-176e31f08fef","meta":{"profile":["http://hl7.org/fhir/us/qicore/StructureDefinition/qicore-location"]},"identifier":[{"use":"usual","system":"http://exampleoflocation.com","value":"B1-S.F2"}],"name":"Medical Surgical East, first floor","type":[{"coding":[{"system":"https://www.cdc.gov/nhsn/cdaportal/terminology/codesystem/hsloc.html","version":"2022","code":"1108-0","display":"Emergency Department","userSelected":true}]}]},"request":{"method":"PUT","url":"Location/14d4cc90-2103-483e-a1be-176e31f08fef"}},{"fullUrl":"https://madie.cms.gov/Encounter/00dad1ac-1796-41ca-b548-4ff4c058d326","resource":{"resourceType":"Encounter","id":"00dad1ac-1796-41ca-b548-4ff4c058d326","meta":{"profile":["http://hl7.org/fhir/us/qicore/StructureDefinition/qicore-encounter"]},"status":"finished","class":{"system":"http://terminology.hl7.org/CodeSystem/v3-ActCode","code":"IMP","display":"inpatient encounter"},"type":[{"coding":[{"system":"http://snomed.info/sct","version":"2023-09","code":"183452005","display":"Emergency hospital admission (procedure)","userSelected":true}]}],"subject":{"reference":"Patient/040dc7b1-27f9-43a3-82c9-b1a514db3071"},"period":{"start":"2026-01-01T05:00:00.000+00:00","end":"2026-01-03T06:15:00.000+00:00"}},"request":{"method":"PUT","url":"Encounter/00dad1ac-1796-41ca-b548-4ff4c058d326"}},{"fullUrl":"https://madie.cms.gov/Coverage/f4758a47-0a79-4eb6-8459-a5a7f0298f45","resource":{"resourceType":"Coverage","id":"f4758a47-0a79-4eb6-8459-a5a7f0298f45","meta":{"profile":["http://hl7.org/fhir/us/qicore/StructureDefinition/qicore-coverage"]},"status":"active","beneficiary":{"reference":"Patient/040dc7b1-27f9-43a3-82c9-b1a514db3071"},"payor":[{"reference":"Organization/db141f66-a1cc-407b-9e95-adac27adee14"}]},"request":{"method":"PUT","url":"Coverage/f4758a47-0a79-4eb6-8459-a5a7f0298f45"}},{"fullUrl":"https://madie.cms.gov/Condition/ec81f9ef-b816-487d-879d-3421311c191e","resource":{"resourceType":"Condition","id":"ec81f9ef-b816-487d-879d-3421311c191e","meta":{"profile":["http://hl7.org/fhir/us/qicore/StructureDefinition/qicore-condition"]},"category":[{"coding":[{"system":"http://terminology.hl7.org/CodeSystem/condition-category","code":"encounter-diagnosis","display":"Encounter Diagnosis"}]}],"code":{"coding":[{"system":"http://snomed.info/sct","version":"2023-09","code":"10349009","display":"Multi-infarct dementia with delirium (disorder)","userSelected":true}]},"subject":{"reference":"Patient/040dc7b1-27f9-43a3-82c9-b1a514db3071"},"recordedDate":"2026-01-01T08:00:00.000+00:00"},"request":{"method":"PUT","url":"Condition/ec81f9ef-b816-487d-879d-3421311c191e"}},{"fullUrl":"https://madie.cms.gov/Organization/6efae204-a6b9-487b-befb-674f1eb12b95","resource":{"resourceType":"Organization","id":"db141f66-a1cc-407b-9e95-adac27adee14","meta":{"profile":["http://hl7.org/fhir/us/qicore/StructureDefinition/qicore-organization"]},"identifier":[{"use":"temp","system":"urn:oid:2.16.840.1.113883.4.4","value":"21-3259825"}],"active":true,"type":[{"coding":[{"system":"http://terminology.hl7.org/CodeSystem/organization-type","code":"pay","display":"Payer"}]}],"name":"Blue Cross Blue Shield of Texas","telecom":[{"system":"phone","value":"(+1) 972-766-6900"}],"address":[{"use":"billing","type":"postal","line":["P.O. Box 660044"],"city":"Dallas","state":"TX","postalCode":"75266-0044","country":"USA"}]},"request":{"method":"PUT","url":"Organization/db141f66-a1cc-407b-9e95-adac27adee14"}},{"fullUrl":"https://madie.cms.gov/Practitioner/90b2b49b-7042-4a96-8d4b-1781a2db465f","resource":{"resourceType":"Practitioner","id":"90b2b49b-7042-4a96-8d4b-1781a2db465f","meta":{"profile":["http://hl7.org/fhir/us/qicore/StructureDefinition/qicore-practitioner"]},"identifier":[{"system":"http://hl7.org/fhir/sid/us-npi","value":"123456"}],"name":[{"family":"Evil","prefix":["Dr"]}]},"request":{"method":"PUT","url":"Practitioner/90b2b49b-7042-4a96-8d4b-1781a2db465f"}},{"fullUrl":"https://madie.cms.gov/MeasureReport/7f027c0e-e6b7-41ac-8cd3-847480a5e7b0","resource":{"resourceType":"MeasureReport","id":"7f027c0e-e6b7-41ac-8cd3-847480a5e7b0","meta":{"profile":["http://hl7.org/fhir/us/cqfmeasures/StructureDefinition/test-case-cqfm"]},"contained":[{"resourceType":"Parameters","id":"5da88090-3c44-415b-8959-f9df1299abe4-parameters","parameter":[{"name":"subject","valueString":"040dc7b1-27f9-43a3-82c9-b1a514db3071"}]}],"extension":[{"url":"http://hl7.org/fhir/us/cqfmeasures/StructureDefinition/cqfm-inputParameters","valueReference":{"reference":"#5da88090-3c44-415b-8959-f9df1299abe4-parameters"}},{"url":"http://hl7.org/fhir/us/cqfmeasures/StructureDefinition/cqfm-testCaseDescription","valueMarkdown":"Child, age 17, ED enc first minute MP bed assignment made 4 hours 1 min before ED departure,  inpatient  encounter,  with psych "}],"modifierExtension":[{"url":"http://hl7.org/fhir/us/cqfmeasures/StructureDefinition/cqfm-isTestCase","valueBoolean":true}],"status":"complete","type":"individual","measure":"https://madie.cms.gov/Measure/CMS1244ECCQHOQRFHIR","period":{"start":"2026-01-01","end":"2026-12-31"},"group":[{"population":[{"code":{"coding":[{"system":"http://terminology.hl7.org/CodeSystem/measure-population","code":"initial-population","display":"Initial Population"}]},"count":1},{"code":{"coding":[{"system":"http://terminology.hl7.org/CodeSystem/measure-population","code":"denominator","display":"Denominator"}]},"count":1},{"code":{"coding":[{"system":"http://terminology.hl7.org/CodeSystem/measure-population","code":"numerator","display":"Numerator"}]},"count":1}]}]},"request":{"method":"PUT","url":"MeasureReport/7f027c0e-e6b7-41ac-8cd3-847480a5e7b0"}}]}