{"resourceType":"Bundle","id":"tests-d5fe6f9c-6036-4004-9993-290f3a2be34a-bundle","type":"transaction","entry":[{"fullUrl":"https://madie.cms.gov/Patient/d5fe6f9c-6036-4004-9993-290f3a2be34a","resource":{"resourceType":"Patient","id":"d5fe6f9c-6036-4004-9993-290f3a2be34a","meta":{"profile":["http://hl7.org/fhir/us/qicore/StructureDefinition/qicore-patient"]},"extension":[{"url":"http://hl7.org/fhir/us/core/StructureDefinition/us-core-race","extension":[{"url":"ombCategory","valueCoding":{"system":"urn:oid:2.16.840.1.113883.6.238","code":"2076-8","display":"Native Hawaiian or Other Pacific Islander","userSelected":true}},{"url":"text","valueString":"Native Hawaiian or Other Pacific Islander"}]},{"url":"http://hl7.org/fhir/us/core/StructureDefinition/us-core-ethnicity","extension":[{"url":"ombCategory","valueCoding":{"system":"urn:oid:2.16.840.1.113883.6.238","code":"2186-5","display":"Not Hispanic or Latino","userSelected":true}},{"url":"text","valueString":"Not Hispanic or Latino"}]}],"identifier":[{"type":{"coding":[{"system":"http://terminology.hl7.org/CodeSystem/v2-0203","code":"MR"}]},"system":"https://bonnie-fhir.healthit.gov/","value":"661579e3db207d74c03b8a55"}],"name":[{"family":"NUMERStrat1Fail","given":["TimeToTx61Min"]}],"gender":"other","birthDate":"2009-12-31"},"request":{"method":"PUT","url":"Patient/d5fe6f9c-6036-4004-9993-290f3a2be34a"}},{"fullUrl":"https://madie.cms.gov/Encounter/c04558ea-0e44-4a46-8c00-9c1c1b9978c6","resource":{"resourceType":"Encounter","id":"c04558ea-0e44-4a46-8c00-9c1c1b9978c6","meta":{"profile":["http://hl7.org/fhir/us/qicore/StructureDefinition/qicore-encounter"]},"status":"finished","class":{"system":"http://terminology.hl7.org/CodeSystem/v3-ActCode","code":"EMER","display":"emergency"},"type":[{"coding":[{"system":"http://snomed.info/sct","version":"2023-09","code":"4525004","display":"Emergency department patient visit (procedure)","userSelected":true}]}],"subject":{"reference":"Patient/d5fe6f9c-6036-4004-9993-290f3a2be34a"},"period":{"start":"2026-01-01T08:00:00.000+00:00","end":"2026-01-01T12:15:00.000+00:00"},"location":[{"location":{"reference":"Location/154bcb4b-3ea7-4022-b31c-58d7548a7d5c"},"period":{"start":"2026-01-01T07:45:00.000+00:00","end":"2026-01-01T12:15:00.000+00:00"}},{"location":{"reference":"Location/f0fcd6a2-4552-4b65-92b3-59c9d3e0f387"},"period":{"start":"2026-01-01T08:46:00.000+00:00","end":"2026-01-01T12:15:00.000+00:00"}}]},"request":{"method":"PUT","url":"Encounter/c04558ea-0e44-4a46-8c00-9c1c1b9978c6"}},{"fullUrl":"https://madie.cms.gov/Location/154bcb4b-3ea7-4022-b31c-58d7548a7d5c","resource":{"resourceType":"Location","id":"154bcb4b-3ea7-4022-b31c-58d7548a7d5c","meta":{"profile":["http://hl7.org/fhir/us/qicore/StructureDefinition/qicore-location"]},"identifier":[{"use":"usual","system":"http://exampleoflocation.com","value":"B1-S.F1"}],"name":"Medical Surgical East, first floor","type":[{"coding":[{"system":"https://www.cdc.gov/nhsn/cdaportal/terminology/codesystem/hsloc.html","version":"2022","code":"1108-0","display":"Emergency Department","userSelected":true}]}]},"request":{"method":"PUT","url":"Location/154bcb4b-3ea7-4022-b31c-58d7548a7d5c"}},{"fullUrl":"https://madie.cms.gov/Location/f0fcd6a2-4552-4b65-92b3-59c9d3e0f387","resource":{"resourceType":"Location","id":"f0fcd6a2-4552-4b65-92b3-59c9d3e0f387","meta":{"profile":["http://hl7.org/fhir/us/qicore/StructureDefinition/qicore-location"]},"identifier":[{"use":"usual","system":"http://exampleoflocation.com","value":"B1-S.F2"}],"name":"Medical Surgical East, first floor","type":[{"coding":[{"system":"https://www.cdc.gov/nhsn/cdaportal/terminology/codesystem/hsloc.html","version":"2022","code":"1209-6","display":"Treatment Room","userSelected":true}]}]},"request":{"method":"PUT","url":"Location/f0fcd6a2-4552-4b65-92b3-59c9d3e0f387"}},{"fullUrl":"https://madie.cms.gov/Condition/42278067-dd4a-4374-b036-efa063cd8410","resource":{"resourceType":"Condition","id":"42278067-dd4a-4374-b036-efa063cd8410","meta":{"profile":["http://hl7.org/fhir/us/qicore/StructureDefinition/qicore-condition"]},"category":[{"coding":[{"system":"http://terminology.hl7.org/CodeSystem/condition-category","code":"encounter-diagnosis","display":"Encounter Diagnosis"}]}],"code":{"coding":[{"system":"http://snomed.info/sct","version":"2023-09","code":"10660471000119109","display":"Ulcer of left foot due to type 2 diabetes mellitus (disorder)","userSelected":true}]},"subject":{"reference":"Patient/d5fe6f9c-6036-4004-9993-290f3a2be34a"},"recordedDate":"2026-01-01T08:00:00.000+00:00"},"request":{"method":"PUT","url":"Condition/42278067-dd4a-4374-b036-efa063cd8410"}},{"fullUrl":"https://madie.cms.gov/Location/93c9c52b-aff9-48d1-ac22-84d6af180cc8","resource":{"resourceType":"Location","id":"93c9c52b-aff9-48d1-ac22-84d6af180cc8","meta":{"profile":["http://hl7.org/fhir/us/qicore/StructureDefinition/qicore-location"]},"identifier":[{"use":"usual","system":"http://exampleoflocation.com","value":"B1-S.F2"}],"name":"Medical Surgical East, first floor","type":[{"coding":[{"system":"https://www.cdc.gov/nhsn/cdaportal/terminology/codesystem/hsloc.html","version":"2022","code":"1108-0","display":"Emergency Department","userSelected":true}]}]},"request":{"method":"PUT","url":"Location/93c9c52b-aff9-48d1-ac22-84d6af180cc8"}},{"fullUrl":"https://madie.cms.gov/Location/88a29454-c359-4fc2-8f36-188b6a803eee","resource":{"resourceType":"Location","id":"88a29454-c359-4fc2-8f36-188b6a803eee","meta":{"profile":["http://hl7.org/fhir/us/qicore/StructureDefinition/qicore-location"]},"identifier":[{"use":"usual","system":"http://exampleoflocation.com","value":"B1-S.F2"}],"name":"Medical Surgical East, first floor","type":[{"coding":[{"system":"https://www.cdc.gov/nhsn/cdaportal/terminology/codesystem/hsloc.html","version":"2022","code":"1108-0","display":"Emergency Department","userSelected":true}]}]},"request":{"method":"PUT","url":"Location/88a29454-c359-4fc2-8f36-188b6a803eee"}},{"fullUrl":"https://madie.cms.gov/Coverage/70efe7f2-05e8-4ed9-8a5a-40bc38fdc281","resource":{"resourceType":"Coverage","id":"70efe7f2-05e8-4ed9-8a5a-40bc38fdc281","meta":{"profile":["http://hl7.org/fhir/us/qicore/StructureDefinition/qicore-coverage"]},"status":"active","beneficiary":{"reference":"Patient/d5fe6f9c-6036-4004-9993-290f3a2be34a"},"payor":[{"reference":"Organization/3778262e-e084-4bb5-9a47-1a144735f786"}]},"request":{"method":"PUT","url":"Coverage/70efe7f2-05e8-4ed9-8a5a-40bc38fdc281"}},{"fullUrl":"https://madie.cms.gov/Organization/2b25e896-821d-483d-8590-a8e1b9d91c12","resource":{"resourceType":"Organization","id":"3778262e-e084-4bb5-9a47-1a144735f786","meta":{"profile":["http://hl7.org/fhir/us/qicore/StructureDefinition/qicore-organization"]},"identifier":[{"use":"temp","system":"urn:oid:2.16.840.1.113883.4.4","value":"21-3259825"}],"active":true,"type":[{"coding":[{"system":"http://terminology.hl7.org/CodeSystem/organization-type","code":"pay","display":"Payer"}]}],"name":"Blue Cross Blue Shield of Texas","telecom":[{"system":"phone","value":"(+1) 972-766-6900"}],"address":[{"use":"billing","type":"postal","line":["P.O. Box 660044"],"city":"Dallas","state":"TX","postalCode":"75266-0044","country":"USA"}]},"request":{"method":"PUT","url":"Organization/3778262e-e084-4bb5-9a47-1a144735f786"}},{"fullUrl":"https://madie.cms.gov/Practitioner/f858a696-4408-40d8-9a26-d1ab4d6583b0","resource":{"resourceType":"Practitioner","id":"f858a696-4408-40d8-9a26-d1ab4d6583b0","meta":{"profile":["http://hl7.org/fhir/us/qicore/StructureDefinition/qicore-practitioner"]},"identifier":[{"system":"http://hl7.org/fhir/sid/us-npi","value":"123456"}],"name":[{"family":"Evil","prefix":["Dr"]}]},"request":{"method":"PUT","url":"Practitioner/f858a696-4408-40d8-9a26-d1ab4d6583b0"}},{"fullUrl":"https://madie.cms.gov/MeasureReport/23dd3228-17f0-4911-9e5c-9a0ef39d28c4","resource":{"resourceType":"MeasureReport","id":"23dd3228-17f0-4911-9e5c-9a0ef39d28c4","meta":{"profile":["http://hl7.org/fhir/us/cqfmeasures/StructureDefinition/test-case-cqfm"]},"contained":[{"resourceType":"Parameters","id":"234c4fdc-2caf-4859-8b0f-5dab1597f2cb-parameters","parameter":[{"name":"subject","valueString":"d5fe6f9c-6036-4004-9993-290f3a2be34a"}]}],"extension":[{"url":"http://hl7.org/fhir/us/cqfmeasures/StructureDefinition/cqfm-inputParameters","valueReference":{"reference":"#234c4fdc-2caf-4859-8b0f-5dab1597f2cb-parameters"}},{"url":"http://hl7.org/fhir/us/cqfmeasures/StructureDefinition/cqfm-testCaseDescription","valueMarkdown":"\tChild, age 18, Encounter first day of MP, time to treatment 61 minutes, no mental illness, gender \"other\""}],"modifierExtension":[{"url":"http://hl7.org/fhir/us/cqfmeasures/StructureDefinition/cqfm-isTestCase","valueBoolean":true}],"status":"complete","type":"individual","measure":"https://madie.cms.gov/Measure/CMS1244ECCQHOQRFHIR","period":{"start":"2026-01-01","end":"2026-12-31"},"group":[{"population":[{"code":{"coding":[{"system":"http://terminology.hl7.org/CodeSystem/measure-population","code":"initial-population","display":"Initial Population"}]},"count":1},{"code":{"coding":[{"system":"http://terminology.hl7.org/CodeSystem/measure-population","code":"denominator","display":"Denominator"}]},"count":1},{"code":{"coding":[{"system":"http://terminology.hl7.org/CodeSystem/measure-population","code":"numerator","display":"Numerator"}]},"count":1}]}]},"request":{"method":"PUT","url":"MeasureReport/23dd3228-17f0-4911-9e5c-9a0ef39d28c4"}}]}