{
  "resourceType": "Bundle",
  "id": "tests-NUMERPass-Num4MVGT48HrsORProcAt48Hrs-bundle",
  "type": "transaction",
  "entry": [ {
    "fullUrl": "https://madie.cms.gov/Encounter/a5860c3c-e677-4c9e-9122-20683b7c9a8e",
    "resource": {
      "resourceType": "Encounter",
      "id": "a5860c3c-e677-4c9e-9122-20683b7c9a8e",
      "meta": {
        "profile": [ "http://hl7.org/fhir/us/qicore/StructureDefinition/qicore-encounter" ]
      },
      "status": "finished",
      "class": {
        "system": "http://terminology.hl7.org/CodeSystem/v3-ActCode",
        "code": "IMP",
        "display": "inpatient encounter"
      },
      "type": [ {
        "coding": [ {
          "system": "http://snomed.info/sct",
          "code": "112689000",
          "display": "Hospital admission, elective, with complete pre-admission work-up"
        } ],
        "text": "Hospital admission, elective, with complete pre-admission work-up"
      } ],
      "priority": {
        "coding": [ {
          "system": "http://snomed.info/sct",
          "code": "103390000"
        } ]
      },
      "subject": {
        "reference": "Patient/f2e41ef7-1aa1-4ea0-8541-be476f3cb661"
      },
      "period": {
        "start": "2026-04-10T08:00:00+00:00",
        "end": "2026-04-14T08:15:00+00:00"
      }
    },
    "request": {
      "method": "PUT",
      "url": "Encounter/a5860c3c-e677-4c9e-9122-20683b7c9a8e"
    }
  }, {
    "fullUrl": "https://madie.cms.gov/Patient/f2e41ef7-1aa1-4ea0-8541-be476f3cb661",
    "resource": {
      "resourceType": "Patient",
      "id": "f2e41ef7-1aa1-4ea0-8541-be476f3cb661",
      "meta": {
        "profile": [ "http://hl7.org/fhir/us/qicore/StructureDefinition/qicore-patient" ]
      },
      "extension": [ {
        "url": "http://hl7.org/fhir/us/core/StructureDefinition/us-core-race",
        "extension": [ {
          "url": "ombCategory",
          "valueCoding": {
            "system": "urn:oid:2.16.840.1.113883.6.238",
            "code": "2054-5",
            "display": "Black or African American",
            "userSelected": true
          }
        }, {
          "url": "text",
          "valueString": "Black or African American"
        } ]
      }, {
        "url": "http://hl7.org/fhir/us/core/StructureDefinition/us-core-ethnicity",
        "extension": [ {
          "url": "ombCategory",
          "valueCoding": {
            "system": "urn:oid:2.16.840.1.113883.6.238",
            "code": "2186-5",
            "display": "Not Hispanic or Latino",
            "userSelected": true
          }
        }, {
          "url": "text",
          "valueString": "Not Hispanic or Latino"
        } ]
      } ],
      "identifier": [ {
        "type": {
          "coding": [ {
            "system": "http://terminology.hl7.org/CodeSystem/v2-0203",
            "code": "MR"
          } ]
        },
        "system": "https://bonnie-fhir.healthit.gov/",
        "value": "61152a3b98086b7a79cbd7c1"
      } ],
      "active": true,
      "name": [ {
        "use": "usual",
        "family": "NUMERPass",
        "given": [ "Num4MVGT48HrsORProcAt48Hrs" ]
      } ],
      "gender": "female",
      "birthDate": "1966-07-12"
    },
    "request": {
      "method": "PUT",
      "url": "Patient/f2e41ef7-1aa1-4ea0-8541-be476f3cb661"
    }
  }, {
    "fullUrl": "https://madie.cms.gov/Procedure/e8b27aa0-e369-4d49-bb6a-56ae56335227",
    "resource": {
      "resourceType": "Procedure",
      "id": "e8b27aa0-e369-4d49-bb6a-56ae56335227",
      "meta": {
        "profile": [ "http://hl7.org/fhir/us/qicore/StructureDefinition/qicore-procedure" ]
      },
      "extension": [ {
        "url": "http://hl7.org/fhir/us/qicore/StructureDefinition/qicore-recorded",
        "valueDateTime": "2026-04-11T08:10:00+00:00"
      } ],
      "status": "completed",
      "category": {
        "coding": [ {
          "system": "http://snomed.info/sct",
          "code": "18286008",
          "display": "General or neuraxial anesthesia"
        } ]
      },
      "code": {
        "coding": [ {
          "system": "http://snomed.info/sct",
          "code": "112943005",
          "display": "Epidural injection of anesthetic substance, diagnostic, caudal, continuous"
        } ]
      },
      "subject": {
        "reference": "Patient/f2e41ef7-1aa1-4ea0-8541-be476f3cb661"
      },
      "performedPeriod": {
        "start": "2026-04-11T08:00:00+00:00",
        "end": "2026-04-11T10:15:00+00:00"
      }
    },
    "request": {
      "method": "PUT",
      "url": "Procedure/e8b27aa0-e369-4d49-bb6a-56ae56335227"
    }
  }, {
    "fullUrl": "https://madie.cms.gov/Procedure/22a01f92-9c6e-4c43-bb19-36e8e2ab25c8",
    "resource": {
      "resourceType": "Procedure",
      "id": "22a01f92-9c6e-4c43-bb19-36e8e2ab25c8",
      "meta": {
        "profile": [ "http://hl7.org/fhir/us/qicore/StructureDefinition/qicore-procedure" ]
      },
      "extension": [ {
        "url": "http://hl7.org/fhir/us/qicore/StructureDefinition/qicore-recorded",
        "valueDateTime": "2026-04-13T10:20:30+00:00"
      } ],
      "status": "completed",
      "code": {
        "coding": [ {
          "system": "http://snomed.info/sct",
          "code": "243141005",
          "display": "Mechanically assisted spontaneous ventilation"
        } ],
        "text": "Mechanically assisted spontaneous ventilation"
      },
      "subject": {
        "reference": "Patient/f2e41ef7-1aa1-4ea0-8541-be476f3cb661"
      },
      "performedDateTime": "2026-04-13T10:16:00+00:00"
    },
    "request": {
      "method": "PUT",
      "url": "Procedure/22a01f92-9c6e-4c43-bb19-36e8e2ab25c8"
    }
  }, {
    "fullUrl": "https://madie.cms.gov/MeasureReport/bf453e18-166e-4593-b655-ba5d50443c1f",
    "resource": {
      "resourceType": "MeasureReport",
      "id": "bf453e18-166e-4593-b655-ba5d50443c1f",
      "meta": {
        "profile": [ "http://hl7.org/fhir/us/cqfmeasures/StructureDefinition/test-case-cqfm" ]
      },
      "contained": [ {
        "resourceType": "Parameters",
        "id": "52514da1-8075-4d75-b0c6-c30d7a85331e-parameters",
        "parameter": [ {
          "name": "subject",
          "valueString": "f2e41ef7-1aa1-4ea0-8541-be476f3cb661"
        } ]
      } ],
      "extension": [ {
        "url": "http://hl7.org/fhir/us/cqfmeasures/StructureDefinition/cqfm-inputParameters",
        "valueReference": {
          "reference": "#52514da1-8075-4d75-b0c6-c30d7a85331e-parameters"
        }
      }, {
        "url": "http://hl7.org/fhir/us/cqfmeasures/StructureDefinition/cqfm-testCaseDescription",
        "valueMarkdown": "Elective hospitalization with procedure (general anesthesia) within first 3 days of encounter. Mech ventilation starts exactly 48 hrs+1 minute after end of OR proc. Edge case, meets Numerator 4. "
      } ],
      "modifierExtension": [ {
        "url": "http://hl7.org/fhir/us/cqfmeasures/StructureDefinition/cqfm-isTestCase",
        "valueBoolean": true
      } ],
      "status": "complete",
      "type": "individual",
      "measure": "https://madie.cms.gov/Measure/CMS1218HHRFFHIR",
      "period": {
        "start": "2026-01-01",
        "end": "2026-12-31"
      },
      "group": [ {
        "population": [ {
          "code": {
            "coding": [ {
              "system": "http://terminology.hl7.org/CodeSystem/measure-population",
              "code": "initial-population",
              "display": "Initial Population"
            } ]
          },
          "count": 1
        }, {
          "code": {
            "coding": [ {
              "system": "http://terminology.hl7.org/CodeSystem/measure-population",
              "code": "denominator",
              "display": "Denominator"
            } ]
          },
          "count": 1
        }, {
          "code": {
            "coding": [ {
              "system": "http://terminology.hl7.org/CodeSystem/measure-population",
              "code": "denominator-exclusion",
              "display": "Denominator Exclusion"
            } ]
          },
          "count": 0
        }, {
          "code": {
            "coding": [ {
              "system": "http://terminology.hl7.org/CodeSystem/measure-population",
              "code": "numerator",
              "display": "Numerator"
            } ]
          },
          "count": 1
        } ]
      } ],
      "evaluatedResource": [ {
        "reference": "Encounter/a5860c3c-e677-4c9e-9122-20683b7c9a8e"
      }, {
        "reference": "Patient/f2e41ef7-1aa1-4ea0-8541-be476f3cb661"
      }, {
        "reference": "Procedure/e8b27aa0-e369-4d49-bb6a-56ae56335227"
      }, {
        "reference": "Procedure/22a01f92-9c6e-4c43-bb19-36e8e2ab25c8"
      } ]
    },
    "request": {
      "method": "PUT",
      "url": "MeasureReport/bf453e18-166e-4593-b655-ba5d50443c1f"
    }
  } ]
}