{
  "resourceType": "Bundle",
  "id": "633b3f9e0968f80122503cc2",
  "type": "transaction",
  "entry": [ {
    "fullUrl": "https://madie.cms.gov/Patient/b5231904-2642-40fc-beb2-846bf8e96647",
    "resource": {
      "resourceType": "Patient",
      "id": "b5231904-2642-40fc-beb2-846bf8e96647",
      "meta": {
        "profile": [ "http://hl7.org/fhir/us/qicore/StructureDefinition/qicore-patient" ]
      },
      "text": {
        "status": "generated",
        "div": "<div xmlns=\"http://www.w3.org/1999/xhtml\"><div class=\"hapiHeaderText\">EncEnd=MPEndMinus1Minute <b>IPPASS </b></div><table class=\"hapiPropertyTable\"><tbody><tr><td>Date of birth</td><td><span>31 January 2004</span></td></tr></tbody></table></div>"
      },
      "extension": [ {
        "url": "http://hl7.org/fhir/us/core/StructureDefinition/us-core-race",
        "extension": [ {
          "url": "ombCategory",
          "valueCoding": {
            "system": "urn:oid:2.16.840.1.113883.6.238",
            "code": "1002-5",
            "display": "American Indian or Alaska Native",
            "userSelected": true
          }
        }, {
          "url": "text",
          "valueString": "American Indian or Alaska Native"
        } ]
      }, {
        "url": "http://hl7.org/fhir/us/core/StructureDefinition/us-core-ethnicity",
        "extension": [ {
          "url": "ombCategory",
          "valueCoding": {
            "system": "urn:oid:2.16.840.1.113883.6.238",
            "code": "2135-2",
            "display": "Hispanic or Latino",
            "userSelected": true
          }
        }, {
          "url": "text",
          "valueString": "Hispanic or Latino"
        } ]
      } ],
      "identifier": [ {
        "type": {
          "coding": [ {
            "system": "http://terminology.hl7.org/CodeSystem/v2-0203",
            "code": "MR"
          } ]
        },
        "system": "https://bonnie-fhir.healthit.gov/",
        "value": "633b3f9e0968f80122503cc2"
      } ],
      "active": true,
      "name": [ {
        "use": "usual",
        "family": "IPPass",
        "given": [ "EncEndMPEndMinus1Minute" ]
      } ],
      "gender": "female",
      "birthDate": "2004-01-31"
    },
    "request": {
      "method": "PUT",
      "url": "Patient/b5231904-2642-40fc-beb2-846bf8e96647"
    }
  }, {
    "fullUrl": "https://madie.cms.gov/Encounter/1fb33984-5591-4b5e-a5bd-e97cc741ed6f",
    "resource": {
      "resourceType": "Encounter",
      "id": "1fb33984-5591-4b5e-a5bd-e97cc741ed6f",
      "meta": {
        "profile": [ "http://hl7.org/fhir/us/qicore/StructureDefinition/qicore-encounter" ]
      },
      "status": "finished",
      "class": {
        "system": "http://terminology.hl7.org/CodeSystem/v3-ActCode",
        "code": "IMP",
        "display": "inpatient encounter"
      },
      "type": [ {
        "coding": [ {
          "system": "http://snomed.info/sct",
          "code": "183452005"
        } ]
      } ],
      "subject": {
        "reference": "Patient/b5231904-2642-40fc-beb2-846bf8e96647"
      },
      "period": {
        "start": "2025-02-01T08:00:00.000Z",
        "end": "2025-12-31T23:58:00.000Z"
      }
    },
    "request": {
      "method": "PUT",
      "url": "Encounter/1fb33984-5591-4b5e-a5bd-e97cc741ed6f"
    }
  }, {
    "fullUrl": "https://madie.cms.gov/Procedure/e6ae77de-8c8c-4c47-867f-6a258c957a1b",
    "resource": {
      "resourceType": "Procedure",
      "id": "e6ae77de-8c8c-4c47-867f-6a258c957a1b",
      "meta": {
        "profile": [ "http://hl7.org/fhir/us/qicore/StructureDefinition/qicore-procedure" ]
      },
      "extension": [ {
        "url": "http://hl7.org/fhir/us/qicore/StructureDefinition/qicore-recorded",
        "valueDateTime": "2013-04-05T09:35:00-04:00"
      } ],
      "status": "completed",
      "code": {
        "coding": [ {
          "system": "http://snomed.info/sct",
          "code": "10745001"
        } ]
      },
      "subject": {
        "reference": "Patient/b5231904-2642-40fc-beb2-846bf8e96647"
      },
      "performedPeriod": {
        "start": "2025-02-01T08:00:00.000Z",
        "end": "2025-02-05T08:15:00.000Z"
      }
    },
    "request": {
      "method": "PUT",
      "url": "Procedure/e6ae77de-8c8c-4c47-867f-6a258c957a1b"
    }
  }, {
    "fullUrl": "https://madie.cms.gov/Coverage/902ea9b3-f87f-4216-a831-9e09f1db42e9",
    "resource": {
      "resourceType": "Coverage",
      "id": "902ea9b3-f87f-4216-a831-9e09f1db42e9",
      "meta": {
        "profile": [ "http://hl7.org/fhir/us/qicore/StructureDefinition/qicore-coverage" ]
      },
      "status": "active",
      "beneficiary": {
        "reference": "Patient/b5231904-2642-40fc-beb2-846bf8e96647"
      },
      "payor": [ {
        "reference": "Organization/32268e87-4806-4650-8c26-36c5755a89cd"
      } ]
    },
    "request": {
      "method": "PUT",
      "url": "Coverage/902ea9b3-f87f-4216-a831-9e09f1db42e9"
    }
  }, {
    "fullUrl": "https://madie.cms.gov/Organization/32268e87-4806-4650-8c26-36c5755a89cd",
    "resource": {
      "resourceType": "Organization",
      "id": "32268e87-4806-4650-8c26-36c5755a89cd",
      "meta": {
        "profile": [ "http://hl7.org/fhir/us/qicore/StructureDefinition/qicore-organization" ]
      },
      "identifier": [ {
        "use": "temp",
        "system": "urn:oid:2.16.840.1.113883.4.4",
        "value": "21-3259825"
      } ],
      "active": true,
      "type": [ {
        "coding": [ {
          "system": "http://terminology.hl7.org/CodeSystem/organization-type",
          "code": "pay",
          "display": "Payer"
        } ]
      } ],
      "name": "Blue Cross Blue Shield of Texas",
      "telecom": [ {
        "system": "phone",
        "value": "(+1) 972-766-6900"
      } ],
      "address": [ {
        "use": "billing",
        "type": "postal",
        "line": [ "P.O. Box 660044" ],
        "city": "Dallas",
        "state": "TX",
        "postalCode": "75266-0044",
        "country": "USA"
      } ]
    },
    "request": {
      "method": "PUT",
      "url": "Organization/32268e87-4806-4650-8c26-36c5755a89cd"
    }
  }, {
    "fullUrl": "https://madie.cms.gov/Practitioner/b4baadc7-16b0-4d1f-ab7d-284578305407",
    "resource": {
      "resourceType": "Practitioner",
      "id": "b4baadc7-16b0-4d1f-ab7d-284578305407",
      "identifier": [ {
        "system": "http://hl7.org/fhir/sid/us-npi",
        "value": "123456"
      } ],
      "name": [ {
        "family": "Evil",
        "prefix": [ "Dr" ]
      } ]
    },
    "request": {
      "method": "PUT",
      "url": "Practitioner/b4baadc7-16b0-4d1f-ab7d-284578305407"
    }
  }, {
    "fullUrl": "https://madie.cms.gov/MeasureReport/0f34d316-3dec-4e43-8a80-43f2de50dc7e",
    "resource": {
      "resourceType": "MeasureReport",
      "id": "0f34d316-3dec-4e43-8a80-43f2de50dc7e",
      "meta": {
        "profile": [ "http://hl7.org/fhir/us/cqfmeasures/StructureDefinition/test-case-cqfm" ]
      },
      "contained": [ {
        "resourceType": "Parameters",
        "id": "39aa11d8-d552-4a76-abe9-6f1e4de7e368-parameters",
        "parameter": [ {
          "name": "subject",
          "valueString": "b5231904-2642-40fc-beb2-846bf8e96647"
        } ]
      } ],
      "extension": [ {
        "url": "http://hl7.org/fhir/us/cqfmeasures/StructureDefinition/cqfm-inputParameters",
        "valueReference": {
          "reference": "#39aa11d8-d552-4a76-abe9-6f1e4de7e368-parameters"
        }
      }, {
        "url": "http://hl7.org/fhir/us/cqfmeasures/StructureDefinition/cqfm-testCaseDescription",
        "valueMarkdown": "Encounter end equals  measurement period end minus one minute.\n"
      } ],
      "modifierExtension": [ {
        "url": "http://hl7.org/fhir/us/cqfmeasures/StructureDefinition/cqfm-isTestCase",
        "valueBoolean": true
      } ],
      "status": "complete",
      "type": "individual",
      "measure": "https://madie.cms.gov/Measure/CMS1028FHIRPCSevereOBComps",
      "period": {
        "start": "2025-01-01",
        "end": "2025-12-31"
      },
      "group": [ {
        "population": [ {
          "code": {
            "coding": [ {
              "system": "http://terminology.hl7.org/CodeSystem/measure-population",
              "code": "initial-population",
              "display": "Initial Population"
            } ]
          },
          "count": 1
        }, {
          "code": {
            "coding": [ {
              "system": "http://terminology.hl7.org/CodeSystem/measure-population",
              "code": "denominator",
              "display": "Denominator"
            } ]
          },
          "count": 0
        }, {
          "code": {
            "coding": [ {
              "system": "http://terminology.hl7.org/CodeSystem/measure-population",
              "code": "numerator",
              "display": "Numerator"
            } ]
          },
          "count": 0
        }, {
          "code": {
            "coding": [ {
              "system": "http://terminology.hl7.org/CodeSystem/measure-population",
              "code": "numerator-exclusion",
              "display": "Numerator Exclusion"
            } ]
          },
          "count": 0
        } ]
      }, {
        "population": [ {
          "code": {
            "coding": [ {
              "system": "http://terminology.hl7.org/CodeSystem/measure-population",
              "code": "initial-population",
              "display": "Initial Population"
            } ]
          },
          "count": 1
        }, {
          "code": {
            "coding": [ {
              "system": "http://terminology.hl7.org/CodeSystem/measure-population",
              "code": "denominator",
              "display": "Denominator"
            } ]
          },
          "count": 0
        }, {
          "code": {
            "coding": [ {
              "system": "http://terminology.hl7.org/CodeSystem/measure-population",
              "code": "numerator",
              "display": "Numerator"
            } ]
          },
          "count": 0
        }, {
          "code": {
            "coding": [ {
              "system": "http://terminology.hl7.org/CodeSystem/measure-population",
              "code": "numerator-exclusion",
              "display": "Numerator Exclusion"
            } ]
          },
          "count": 0
        } ]
      } ],
      "evaluatedResource": [ {
        "reference": "Patient/b5231904-2642-40fc-beb2-846bf8e96647"
      }, {
        "reference": "Encounter/1fb33984-5591-4b5e-a5bd-e97cc741ed6f"
      }, {
        "reference": "Procedure/e6ae77de-8c8c-4c47-867f-6a258c957a1b"
      }, {
        "reference": "Coverage/902ea9b3-f87f-4216-a831-9e09f1db42e9"
      }, {
        "reference": "Organization/32268e87-4806-4650-8c26-36c5755a89cd"
      }, {
        "reference": "Practitioner/b4baadc7-16b0-4d1f-ab7d-284578305407"
      } ]
    },
    "request": {
      "method": "PUT",
      "url": "MeasureReport/0f34d316-3dec-4e43-8a80-43f2de50dc7e"
    }
  } ]
}