{"resourceType":"Bundle","id":"tests-4bd6b515-515f-4567-b7a5-6e5ea2f02591-bundle","type":"transaction","entry":[{"fullUrl":"https://madie.cms.gov/Patient/4bd6b515-515f-4567-b7a5-6e5ea2f02591","resource":{"resourceType":"Patient","id":"4bd6b515-515f-4567-b7a5-6e5ea2f02591","meta":{"profile":["http://hl7.org/fhir/us/qicore/StructureDefinition/qicore-patient"]},"text":{"status":"generated","div":"<div xmlns=\"http://www.w3.org/1999/xhtml\"><div class=\"hapiHeaderText\">los23hours2, Screened Not at risk Assessed Severely Malnourished Diagnosed Care Plan, <b>mo1111d4p100 </b></div><table class=\"hapiPropertyTable\"><tbody><tr><td>Identifier</td><td>los23hours2</td></tr><tr><td>Date of birth</td><td><span>14 May 1950</span></td></tr></tbody></table></div>"},"extension":[{"url":"http://hl7.org/fhir/us/core/StructureDefinition/us-core-race","extension":[{"url":"ombCategory","valueCoding":{"system":"urn:oid:2.16.840.1.113883.6.238","code":"2106-3","display":"White","userSelected":true}},{"url":"text","valueString":"White"}]},{"url":"http://hl7.org/fhir/us/core/StructureDefinition/us-core-ethnicity","extension":[{"url":"ombCategory","valueCoding":{"system":"urn:oid:2.16.840.1.113883.6.238","code":"2186-5","display":"Not Hispanic or Latino","userSelected":true}},{"url":"text","valueString":"Not Hispanic or Latino"}]}],"identifier":[{"type":{"coding":[{"system":"http://terminology.hl7.org/CodeSystem/v2-0203","code":"MR"}]},"system":"https://madie.cms.gov/","value":"los23hours2"}],"active":true,"name":[{"use":"usual","text":"los23hours2","family":"IPPFAIL","given":["los23hours2IPPFAIL"]}],"gender":"male","birthDate":"1961-01-01","address":[{"text":"los23hours2, Screened Not at risk Assessed Severely Malnourished Diagnosed Care Plan, ID=los23hours2, DOB: 14 May 1950"}]},"request":{"method":"PUT","url":"Patient/4bd6b515-515f-4567-b7a5-6e5ea2f02591"}},{"fullUrl":"https://madie.cms.gov/Encounter/2c81e35f-d840-447a-93c4-9876b4208e15","resource":{"resourceType":"Encounter","id":"2c81e35f-d840-447a-93c4-9876b4208e15","meta":{"profile":["http://hl7.org/fhir/us/qicore/StructureDefinition/qicore-encounter"]},"status":"finished","class":{"system":"http://terminology.hl7.org/CodeSystem/v3-ActCode","code":"IMP","display":"inpatient encounter"},"type":[{"coding":[{"system":"http://snomed.info/sct","code":"183452005"}]}],"subject":{"reference":"Patient/4bd6b515-515f-4567-b7a5-6e5ea2f02591"},"period":{"start":"2026-02-01T08:00:00.000Z","end":"2026-02-01T09:05:00.000Z"}},"request":{"method":"PUT","url":"Encounter/2c81e35f-d840-447a-93c4-9876b4208e15"}},{"fullUrl":"https://madie.cms.gov/Procedure/e63e972c-b704-45ac-acb6-fbb0835279a9","resource":{"resourceType":"Procedure","id":"e63e972c-b704-45ac-acb6-fbb0835279a9","meta":{"profile":["http://hl7.org/fhir/us/qicore/StructureDefinition/qicore-procedure"]},"extension":[{"url":"http://hl7.org/fhir/us/qicore/StructureDefinition/qicore-recorded","valueDateTime":"2025-02-01T08:30:00.000Z"}],"status":"completed","code":{"coding":[{"system":"http://snomed.info/sct","code":"306165000","display":"Referral to hospital-based dietetics service (procedure)"}],"text":"Referral to hospital-based dietetics service (procedure)"},"subject":{"reference":"Patient/4bd6b515-515f-4567-b7a5-6e5ea2f02591"},"encounter":{"reference":"Encounter/los23hours2IPPFAIL"},"performedPeriod":{"start":"2026-02-01T07:30:00.000Z","end":"2026-02-01T08:15:00.000Z"}},"request":{"method":"PUT","url":"Procedure/e63e972c-b704-45ac-acb6-fbb0835279a9"}},{"fullUrl":"https://madie.cms.gov/Procedure/2d9f8358-01aa-4ea4-af9e-4d296d67fac9","resource":{"resourceType":"Procedure","id":"2d9f8358-01aa-4ea4-af9e-4d296d67fac9","meta":{"profile":["http://hl7.org/fhir/us/qicore/StructureDefinition/qicore-procedure"]},"extension":[{"url":"http://hl7.org/fhir/us/qicore/StructureDefinition/qicore-recorded","valueDateTime":"2025-02-01T11:30:00.000Z"}],"status":"completed","code":{"coding":[{"system":"http://snomed.info/sct","code":"1279742004","display":"Development of nutrition care plan (procedure)"}],"text":"Development of nutrition care plan (procedure)"},"subject":{"reference":"Patient/4bd6b515-515f-4567-b7a5-6e5ea2f02591"},"encounter":{"reference":"Encounter/los23hours2IPPFAIL"},"performedPeriod":{"start":"2026-02-01T11:30:00.000Z","end":"2026-02-02T08:15:00.000Z"}},"request":{"method":"PUT","url":"Procedure/2d9f8358-01aa-4ea4-af9e-4d296d67fac9"}},{"fullUrl":"https://madie.cms.gov/Coverage/d5153dff-08d1-4430-ad14-19007700ad22","resource":{"resourceType":"Coverage","id":"d5153dff-08d1-4430-ad14-19007700ad22","meta":{"profile":["http://hl7.org/fhir/us/qicore/StructureDefinition/qicore-coverage"]},"status":"active","type":{"coding":[{"system":"https://nahdo.org/sopt","version":"9.2","code":"11","display":"Medicare Managed Care (Includes Medicare Advantage Plans)"}]},"beneficiary":{"reference":"Patient/4bd6b515-515f-4567-b7a5-6e5ea2f02591"},"period":{"start":"2024-10-01T00:00:00+00:00"},"payor":[{"reference":"Organization/890316dc-a4ad-43b4-ba6f-9fb9e6eca282"}]},"request":{"method":"PUT","url":"Coverage/d5153dff-08d1-4430-ad14-19007700ad22"}},{"fullUrl":"https://madie.cms.gov/Organization/06e9181b-4dbe-4453-b141-9bd36987aef8","resource":{"resourceType":"Organization","id":"890316dc-a4ad-43b4-ba6f-9fb9e6eca282","meta":{"profile":["http://hl7.org/fhir/us/qicore/StructureDefinition/qicore-organization"]},"identifier":[{"use":"temp","system":"urn:oid:2.16.840.1.113883.4.4","value":"21-3259825"}],"active":true,"type":[{"coding":[{"system":"http://terminology.hl7.org/CodeSystem/organization-type","code":"pay","display":"Payer"}]}],"name":"Blue Cross Blue Shield of Texas","telecom":[{"system":"phone","value":"(+1) 972-766-6900"}],"address":[{"use":"billing","type":"postal","line":["P.O. Box 660044"],"city":"Dallas","state":"TX","postalCode":"75266-0044","country":"USA"}]},"request":{"method":"PUT","url":"Organization/890316dc-a4ad-43b4-ba6f-9fb9e6eca282"}},{"fullUrl":"https://madie.cms.gov/MeasureReport/b3d7c32e-c131-4165-ab5e-3d6a82238d75","resource":{"resourceType":"MeasureReport","id":"b3d7c32e-c131-4165-ab5e-3d6a82238d75","meta":{"profile":["http://hl7.org/fhir/us/cqfmeasures/StructureDefinition/test-case-cqfm"]},"contained":[{"resourceType":"Parameters","id":"06982995-8902-4d46-a24a-f52463ce225e-parameters","parameter":[{"name":"subject","valueString":"4bd6b515-515f-4567-b7a5-6e5ea2f02591"}]}],"extension":[{"url":"http://hl7.org/fhir/us/cqfmeasures/StructureDefinition/cqfm-inputParameters","valueReference":{"reference":"#06982995-8902-4d46-a24a-f52463ce225e-parameters"}},{"url":"http://hl7.org/fhir/us/cqfmeasures/StructureDefinition/cqfm-testCaseDescription","valueMarkdown":"1 Hour LOS, IPP fails"}],"modifierExtension":[{"url":"http://hl7.org/fhir/us/cqfmeasures/StructureDefinition/cqfm-isTestCase","valueBoolean":true}],"status":"complete","type":"individual","measure":"https://madie.cms.gov/Measure/CMS986FHIRMalnutritionScore","period":{"start":"2026-01-01","end":"2026-12-31"},"group":[{"population":[{"code":{"coding":[{"system":"http://terminology.hl7.org/CodeSystem/measure-population","code":"initial-population","display":"Initial Population"}]},"count":0},{"code":{"coding":[{"system":"http://terminology.hl7.org/CodeSystem/measure-population","code":"measure-population","display":"Measure Population"}]},"count":0},{"code":{"coding":[{"system":"http://terminology.hl7.org/CodeSystem/measure-population","code":"measure-population-exclusion","display":"Measure Population Exclusion"}]},"count":0}]},{"population":[{"code":{"coding":[{"system":"http://terminology.hl7.org/CodeSystem/measure-population","code":"initial-population","display":"Initial Population"}]},"count":0},{"code":{"coding":[{"system":"http://terminology.hl7.org/CodeSystem/measure-population","code":"measure-population","display":"Measure Population"}]},"count":0},{"code":{"coding":[{"system":"http://terminology.hl7.org/CodeSystem/measure-population","code":"measure-population-exclusion","display":"Measure Population Exclusion"}]},"count":0}]},{"population":[{"code":{"coding":[{"system":"http://terminology.hl7.org/CodeSystem/measure-population","code":"initial-population","display":"Initial Population"}]},"count":0},{"code":{"coding":[{"system":"http://terminology.hl7.org/CodeSystem/measure-population","code":"measure-population","display":"Measure Population"}]},"count":0},{"code":{"coding":[{"system":"http://terminology.hl7.org/CodeSystem/measure-population","code":"measure-population-exclusion","display":"Measure Population Exclusion"}]},"count":0}]},{"population":[{"code":{"coding":[{"system":"http://terminology.hl7.org/CodeSystem/measure-population","code":"initial-population","display":"Initial Population"}]},"count":0},{"code":{"coding":[{"system":"http://terminology.hl7.org/CodeSystem/measure-population","code":"measure-population","display":"Measure Population"}]},"count":0},{"code":{"coding":[{"system":"http://terminology.hl7.org/CodeSystem/measure-population","code":"measure-population-exclusion","display":"Measure Population Exclusion"}]},"count":0}]},{"population":[{"code":{"coding":[{"system":"http://terminology.hl7.org/CodeSystem/measure-population","code":"initial-population","display":"Initial Population"}]},"count":0},{"code":{"coding":[{"system":"http://terminology.hl7.org/CodeSystem/measure-population","code":"measure-population","display":"Measure Population"}]},"count":0},{"code":{"coding":[{"system":"http://terminology.hl7.org/CodeSystem/measure-population","code":"measure-population-exclusion","display":"Measure Population Exclusion"}]},"count":0}]},{"population":[{"code":{"coding":[{"system":"http://terminology.hl7.org/CodeSystem/measure-population","code":"initial-population","display":"Initial Population"}]},"count":0},{"code":{"coding":[{"system":"http://terminology.hl7.org/CodeSystem/measure-population","code":"measure-population","display":"Measure Population"}]},"count":0},{"code":{"coding":[{"system":"http://terminology.hl7.org/CodeSystem/measure-population","code":"measure-population-exclusion","display":"Measure Population Exclusion"}]},"count":0}]}]},"request":{"method":"PUT","url":"MeasureReport/b3d7c32e-c131-4165-ab5e-3d6a82238d75"}}]}