{"resourceType":"Bundle","id":"tests-1ae7790b-bb1d-41d1-9454-deac8ef63ea2-bundle","type":"transaction","entry":[{"fullUrl":"https://madie.cms.gov/Patient/1ae7790b-bb1d-41d1-9454-deac8ef63ea2","resource":{"resourceType":"Patient","id":"1ae7790b-bb1d-41d1-9454-deac8ef63ea2","meta":{"profile":["http://hl7.org/fhir/us/qicore/StructureDefinition/qicore-patient"]},"text":{"status":"generated","div":"<div xmlns=\"http://www.w3.org/1999/xhtml\"><div class=\"hapiHeaderText\">ScreAtriNorefAsseModNodxCp2, , <b> </b></div><table class=\"hapiPropertyTable\"><tbody><tr><td>Identifier</td><td>ScreAtriNorefAsseModNodxCp2</td></tr><tr><td>Date of birth</td><td><span>14 May 1950</span></td></tr></tbody></table></div>"},"extension":[{"url":"http://hl7.org/fhir/us/core/StructureDefinition/us-core-race","extension":[{"url":"ombCategory","valueCoding":{"system":"urn:oid:2.16.840.1.113883.6.238","code":"2106-3","display":"White","userSelected":true}},{"url":"text","valueString":"White"}]},{"url":"http://hl7.org/fhir/us/core/StructureDefinition/us-core-ethnicity","extension":[{"url":"ombCategory","valueCoding":{"system":"urn:oid:2.16.840.1.113883.6.238","code":"2135-2","display":"Hispanic or Latino","userSelected":true}},{"url":"text","valueString":"Hispanic or Latino"}]}],"identifier":[{"type":{"coding":[{"system":"http://terminology.hl7.org/CodeSystem/v2-0203","code":"MR"}]},"system":"https://madie.cms.gov/","value":"ScreAtriNorefAsseModNodxCp2"}],"active":true,"name":[{"use":"usual","text":"ScreAtriNorefAsseModNodxCp2","family":"OCCURPass4","given":["ScreAtriNorefAsseModNodxCp2DENOMPass4"]}],"gender":"male","birthDate":"1954-12-11","address":[{"text":"ScreAtriNorefAsseModNodxCp2, Screened Not at risk Assessed Severely Malnourished Diagnosed Care Plan, ID=ScreAtriNorefAsseModNodxCp2, DOB: 14 May 1950"}]},"request":{"method":"PUT","url":"Patient/1ae7790b-bb1d-41d1-9454-deac8ef63ea2"}},{"fullUrl":"https://madie.cms.gov/Encounter/381d619c-46c3-4de6-9334-3e2fc2edea36","resource":{"resourceType":"Encounter","id":"381d619c-46c3-4de6-9334-3e2fc2edea36","meta":{"profile":["http://hl7.org/fhir/us/qicore/StructureDefinition/qicore-encounter"]},"status":"finished","class":{"system":"http://terminology.hl7.org/CodeSystem/v3-ActCode","code":"IMP","display":"inpatient encounter"},"type":[{"coding":[{"system":"http://snomed.info/sct","code":"32485007"}]}],"subject":{"reference":"Patient/1ae7790b-bb1d-41d1-9454-deac8ef63ea2"},"period":{"start":"2026-07-01T08:00:00.000Z","end":"2026-07-10T08:15:00.000Z"}},"request":{"method":"PUT","url":"Encounter/381d619c-46c3-4de6-9334-3e2fc2edea36"}},{"fullUrl":"https://madie.cms.gov/Observation/784e3f04-4d48-4dd4-a677-324c008c82ad","resource":{"resourceType":"Observation","id":"784e3f04-4d48-4dd4-a677-324c008c82ad","meta":{"profile":["http://hl7.org/fhir/us/qicore/StructureDefinition/qicore-observation"]},"status":"final","category":[{"coding":[{"system":"http://terminology.hl7.org/CodeSystem/observation-category","code":"survey","display":"Survey"}]}],"code":{"coding":[{"system":"http://loinc.org","code":"101807-6","display":"Malnutrition risk screen results indicator","userSelected":true}]},"subject":{"reference":"Patient/1ae7790b-bb1d-41d1-9454-deac8ef63ea2"},"effectiveDateTime":"2026-07-01T09:00:00.000+00:00","valueCodeableConcept":{"coding":[{"system":"http://snomed.info/sct","code":"129845004","display":"At risk for imbalanced nutrition, less than body requirements (finding)","userSelected":true}]}},"request":{"method":"PUT","url":"Observation/784e3f04-4d48-4dd4-a677-324c008c82ad"}},{"fullUrl":"https://madie.cms.gov/Observation/47acd825-a7b9-484a-87b0-dba6c4ce11e5","resource":{"resourceType":"Observation","id":"47acd825-a7b9-484a-87b0-dba6c4ce11e5","meta":{"profile":["http://hl7.org/fhir/us/qicore/StructureDefinition/qicore-observation"]},"status":"final","category":[{"coding":[{"system":"http://terminology.hl7.org/CodeSystem/observation-category","code":"survey","display":"Survey"}]}],"code":{"coding":[{"system":"http://loinc.org","code":"101819-1","display":"Nutritional assessment for malnutrition status","userSelected":true}]},"subject":{"reference":"Patient/1ae7790b-bb1d-41d1-9454-deac8ef63ea2"},"effectiveDateTime":"2026-07-01T10:00:00.000+00:00","valueCodeableConcept":{"coding":[{"system":"http://snomed.info/sct","code":"238111008","display":"Deficiency of micronutrients (disorder)","userSelected":true}]}},"request":{"method":"PUT","url":"Observation/47acd825-a7b9-484a-87b0-dba6c4ce11e5"}},{"fullUrl":"https://madie.cms.gov/Procedure/a46a5718-3fb8-42ef-a917-b16eae5c0c6a","resource":{"resourceType":"Procedure","id":"a46a5718-3fb8-42ef-a917-b16eae5c0c6a","meta":{"profile":["http://hl7.org/fhir/us/qicore/StructureDefinition/qicore-procedure"]},"extension":[{"url":"http://hl7.org/fhir/us/qicore/StructureDefinition/qicore-recorded","valueDateTime":"2026-07-02T11:30:00.000Z"}],"status":"completed","code":{"coding":[{"system":"http://snomed.info/sct","code":"445101000124100","display":"Collaborating in nutrition therapy (procedure)"}],"text":"Collaborating in nutrition therapy (procedure)"},"subject":{"reference":"Patient/1ae7790b-bb1d-41d1-9454-deac8ef63ea2"},"encounter":{"reference":"Encounter/ScreAtriNorefAsseModNodxCp2DENOMPass4"},"performedPeriod":{"start":"2026-07-01T11:30:00.000Z","end":"2026-07-07T08:15:00.000Z"}},"request":{"method":"PUT","url":"Procedure/a46a5718-3fb8-42ef-a917-b16eae5c0c6a"}},{"fullUrl":"https://madie.cms.gov/Coverage/f702bfe9-cd82-49f4-8255-c44b6d785bab","resource":{"resourceType":"Coverage","id":"f702bfe9-cd82-49f4-8255-c44b6d785bab","meta":{"profile":["http://hl7.org/fhir/us/qicore/StructureDefinition/qicore-coverage"]},"status":"active","type":{"coding":[{"system":"https://nahdo.org/sopt","version":"9.2","code":"11","display":"Medicare Managed Care (Includes Medicare Advantage Plans)"}]},"beneficiary":{"reference":"Patient/1ae7790b-bb1d-41d1-9454-deac8ef63ea2"},"period":{"start":"2024-10-01T00:00:00+00:00"},"payor":[{"reference":"Organization/4d7da20f-8773-4347-8f6b-80adcdcee1f4"}]},"request":{"method":"PUT","url":"Coverage/f702bfe9-cd82-49f4-8255-c44b6d785bab"}},{"fullUrl":"https://madie.cms.gov/Organization/f7ba4e87-b3ed-4570-9315-1c0c29ffa4ee","resource":{"resourceType":"Organization","id":"4d7da20f-8773-4347-8f6b-80adcdcee1f4","meta":{"profile":["http://hl7.org/fhir/us/qicore/StructureDefinition/qicore-organization"]},"identifier":[{"use":"temp","system":"urn:oid:2.16.840.1.113883.4.4","value":"21-3259825"}],"active":true,"type":[{"coding":[{"system":"http://terminology.hl7.org/CodeSystem/organization-type","code":"pay","display":"Payer"}]}],"name":"Blue Cross Blue Shield of Texas","telecom":[{"system":"phone","value":"(+1) 972-766-6900"}],"address":[{"use":"billing","type":"postal","line":["P.O. Box 660044"],"city":"Dallas","state":"TX","postalCode":"75266-0044","country":"USA"}]},"request":{"method":"PUT","url":"Organization/4d7da20f-8773-4347-8f6b-80adcdcee1f4"}},{"fullUrl":"https://madie.cms.gov/MeasureReport/82759ee3-ca01-4a95-9354-4674b570087f","resource":{"resourceType":"MeasureReport","id":"82759ee3-ca01-4a95-9354-4674b570087f","meta":{"profile":["http://hl7.org/fhir/us/cqfmeasures/StructureDefinition/test-case-cqfm"]},"contained":[{"resourceType":"Parameters","id":"c7a3b34f-a49f-48d8-b714-151a8ad7e47f-parameters","parameter":[{"name":"subject","valueString":"1ae7790b-bb1d-41d1-9454-deac8ef63ea2"}]}],"extension":[{"url":"http://hl7.org/fhir/us/cqfmeasures/StructureDefinition/cqfm-inputParameters","valueReference":{"reference":"#c7a3b34f-a49f-48d8-b714-151a8ad7e47f-parameters"}},{"url":"http://hl7.org/fhir/us/cqfmeasures/StructureDefinition/cqfm-testCaseDescription","valueMarkdown":"Screened, At Risk, No Referral, Assessed, Moderate Malnutrition, No Diagnosis, Nutrition Care Plan"}],"modifierExtension":[{"url":"http://hl7.org/fhir/us/cqfmeasures/StructureDefinition/cqfm-isTestCase","valueBoolean":true}],"status":"complete","type":"individual","measure":"https://madie.cms.gov/Measure/CMS986FHIRMalnutritionScore","period":{"start":"2026-01-01","end":"2026-12-31"},"group":[{"population":[{"code":{"coding":[{"system":"http://terminology.hl7.org/CodeSystem/measure-population","code":"initial-population","display":"Initial Population"}]},"count":1},{"code":{"coding":[{"system":"http://terminology.hl7.org/CodeSystem/measure-population","code":"measure-population","display":"Measure Population"}]},"count":1},{"code":{"coding":[{"system":"http://terminology.hl7.org/CodeSystem/measure-population","code":"measure-population-exclusion","display":"Measure Population Exclusion"}]},"count":0},{"code":{"coding":[{"system":"http://terminology.hl7.org/CodeSystem/measure-population","code":"measure-population-observation","display":"Measure Population Observation"}]},"count":1}]},{"population":[{"code":{"coding":[{"system":"http://terminology.hl7.org/CodeSystem/measure-population","code":"initial-population","display":"Initial Population"}]},"count":1},{"code":{"coding":[{"system":"http://terminology.hl7.org/CodeSystem/measure-population","code":"measure-population","display":"Measure Population"}]},"count":1},{"code":{"coding":[{"system":"http://terminology.hl7.org/CodeSystem/measure-population","code":"measure-population-exclusion","display":"Measure Population Exclusion"}]},"count":0},{"code":{"coding":[{"system":"http://terminology.hl7.org/CodeSystem/measure-population","code":"measure-population-observation","display":"Measure Population Observation"}]},"count":1}]},{"population":[{"code":{"coding":[{"system":"http://terminology.hl7.org/CodeSystem/measure-population","code":"initial-population","display":"Initial Population"}]},"count":1},{"code":{"coding":[{"system":"http://terminology.hl7.org/CodeSystem/measure-population","code":"measure-population","display":"Measure Population"}]},"count":1},{"code":{"coding":[{"system":"http://terminology.hl7.org/CodeSystem/measure-population","code":"measure-population-exclusion","display":"Measure Population Exclusion"}]},"count":0},{"code":{"coding":[{"system":"http://terminology.hl7.org/CodeSystem/measure-population","code":"measure-population-observation","display":"Measure Population Observation"}]},"count":0}]},{"population":[{"code":{"coding":[{"system":"http://terminology.hl7.org/CodeSystem/measure-population","code":"initial-population","display":"Initial Population"}]},"count":1},{"code":{"coding":[{"system":"http://terminology.hl7.org/CodeSystem/measure-population","code":"measure-population","display":"Measure Population"}]},"count":1},{"code":{"coding":[{"system":"http://terminology.hl7.org/CodeSystem/measure-population","code":"measure-population-exclusion","display":"Measure Population Exclusion"}]},"count":0},{"code":{"coding":[{"system":"http://terminology.hl7.org/CodeSystem/measure-population","code":"measure-population-observation","display":"Measure Population Observation"}]},"count":1}]},{"population":[{"code":{"coding":[{"system":"http://terminology.hl7.org/CodeSystem/measure-population","code":"initial-population","display":"Initial Population"}]},"count":1},{"code":{"coding":[{"system":"http://terminology.hl7.org/CodeSystem/measure-population","code":"measure-population","display":"Measure Population"}]},"count":1},{"code":{"coding":[{"system":"http://terminology.hl7.org/CodeSystem/measure-population","code":"measure-population-exclusion","display":"Measure Population Exclusion"}]},"count":0},{"code":{"coding":[{"system":"http://terminology.hl7.org/CodeSystem/measure-population","code":"measure-population-observation","display":"Measure Population Observation"}]},"count":3}]},{"population":[{"code":{"coding":[{"system":"http://terminology.hl7.org/CodeSystem/measure-population","code":"initial-population","display":"Initial Population"}]},"count":1},{"code":{"coding":[{"system":"http://terminology.hl7.org/CodeSystem/measure-population","code":"measure-population","display":"Measure Population"}]},"count":1},{"code":{"coding":[{"system":"http://terminology.hl7.org/CodeSystem/measure-population","code":"measure-population-exclusion","display":"Measure Population Exclusion"}]},"count":0},{"code":{"coding":[{"system":"http://terminology.hl7.org/CodeSystem/measure-population","code":"measure-population-observation","display":"Measure Population Observation"}]},"count":75}]}]},"request":{"method":"PUT","url":"MeasureReport/82759ee3-ca01-4a95-9354-4674b570087f"}}]}