{"resourceType":"Bundle","id":"tests-eeebf78e-439d-445b-a4e1-74d3b6eaeb08-bundle","type":"transaction","entry":[{"fullUrl":"https://madie.cms.gov/Patient/eeebf78e-439d-445b-a4e1-74d3b6eaeb08","resource":{"resourceType":"Patient","id":"eeebf78e-439d-445b-a4e1-74d3b6eaeb08","meta":{"profile":["http://hl7.org/fhir/us/qicore/StructureDefinition/qicore-patient"]},"text":{"status":"generated","div":"<div xmlns=\"http://www.w3.org/1999/xhtml\"><div class=\"hapiHeaderText\">ScreNotatriRefAsseModNodxCp2, , <b> </b></div><table class=\"hapiPropertyTable\"><tbody><tr><td>Identifier</td><td>ScreNotatriRefAsseModNodxCp2</td></tr><tr><td>Date of birth</td><td><span>14 May 1950</span></td></tr></tbody></table></div>"},"extension":[{"url":"http://hl7.org/fhir/us/core/StructureDefinition/us-core-race","extension":[{"url":"ombCategory","valueCoding":{"system":"urn:oid:2.16.840.1.113883.6.238","code":"2106-3","display":"White","userSelected":true}},{"url":"text","valueString":"White"}]},{"url":"http://hl7.org/fhir/us/core/StructureDefinition/us-core-ethnicity","extension":[{"url":"ombCategory","valueCoding":{"system":"urn:oid:2.16.840.1.113883.6.238","code":"2186-5","display":"Not Hispanic or Latino","userSelected":true}},{"url":"text","valueString":"Not Hispanic or Latino"}]}],"identifier":[{"type":{"coding":[{"system":"http://terminology.hl7.org/CodeSystem/v2-0203","code":"MR"}]},"system":"https://madie.cms.gov/","value":"ScreNotatriRefAsseModNodxCp2"}],"active":true,"name":[{"use":"usual","text":"ScreNotatriRefAsseModNodxCp2","family":"OCCURPass4","given":["ScreNotatriRefAsseModNodxCp2OCCURPass4"]}],"gender":"male","birthDate":"1946-01-01","address":[{"text":"ScreNotatriRefAsseModNodxCp2, Screened Not at risk Assessed Severely Malnourished Diagnosed Care Plan, ID=ScreNotatriRefAsseModNodxCp2, DOB: 14 May 1950"}]},"request":{"method":"PUT","url":"Patient/eeebf78e-439d-445b-a4e1-74d3b6eaeb08"}},{"fullUrl":"https://madie.cms.gov/Encounter/b665b07e-792f-4d3b-bbd1-7fdb27802502","resource":{"resourceType":"Encounter","id":"b665b07e-792f-4d3b-bbd1-7fdb27802502","meta":{"profile":["http://hl7.org/fhir/us/qicore/StructureDefinition/qicore-encounter"]},"status":"finished","class":{"system":"http://terminology.hl7.org/CodeSystem/v3-ActCode","code":"IMP","display":"inpatient encounter"},"type":[{"coding":[{"system":"http://snomed.info/sct","code":"8715000"}]}],"subject":{"reference":"Patient/eeebf78e-439d-445b-a4e1-74d3b6eaeb08"},"period":{"start":"2026-09-01T08:00:00.000Z","end":"2026-09-10T08:15:00.000Z"}},"request":{"method":"PUT","url":"Encounter/b665b07e-792f-4d3b-bbd1-7fdb27802502"}},{"fullUrl":"https://madie.cms.gov/Observation/e12904b7-a57e-47c1-8b7b-600c72b14717","resource":{"resourceType":"Observation","id":"e12904b7-a57e-47c1-8b7b-600c72b14717","meta":{"profile":["http://hl7.org/fhir/us/qicore/StructureDefinition/qicore-observation"]},"status":"final","category":[{"coding":[{"system":"http://terminology.hl7.org/CodeSystem/observation-category","code":"survey","display":"Survey"}]}],"code":{"coding":[{"system":"http://loinc.org","code":"98972-3","display":"Final screening NRS_2002","userSelected":true}]},"subject":{"reference":"Patient/eeebf78e-439d-445b-a4e1-74d3b6eaeb08"},"effectiveDateTime":"2026-09-01T09:00:00.000+00:00","valueCodeableConcept":{"coding":[{"system":"http://loinc.org","code":"LA33699-2","display":"Not at risk for malnutrition","userSelected":true}]}},"request":{"method":"PUT","url":"Observation/e12904b7-a57e-47c1-8b7b-600c72b14717"}},{"fullUrl":"https://madie.cms.gov/Observation/bf7f1e9f-725d-42bf-bfa1-56d1db4e4fb5","resource":{"resourceType":"Observation","id":"bf7f1e9f-725d-42bf-bfa1-56d1db4e4fb5","meta":{"profile":["http://hl7.org/fhir/us/qicore/StructureDefinition/qicore-observation"]},"status":"final","category":[{"coding":[{"system":"http://terminology.hl7.org/CodeSystem/observation-category","code":"survey","display":"Survey"}]}],"code":{"coding":[{"system":"http://loinc.org","code":"101819-1","display":"Nutrition assessment for malnutrition status","userSelected":true}]},"subject":{"reference":"Patient/eeebf78e-439d-445b-a4e1-74d3b6eaeb08"},"effectiveDateTime":"2026-09-01T10:00:00.000+00:00","valueCodeableConcept":{"coding":[{"system":"http://loinc.org","code":"LA33704-0","display":"Moderately malnourished","userSelected":true}]}},"request":{"method":"PUT","url":"Observation/bf7f1e9f-725d-42bf-bfa1-56d1db4e4fb5"}},{"fullUrl":"https://madie.cms.gov/Procedure/4ec5922e-b496-4640-aff1-00686458b242","resource":{"resourceType":"Procedure","id":"4ec5922e-b496-4640-aff1-00686458b242","meta":{"profile":["http://hl7.org/fhir/us/qicore/StructureDefinition/qicore-procedure"]},"extension":[{"url":"http://hl7.org/fhir/us/qicore/StructureDefinition/qicore-recorded","valueDateTime":"2026-09-01T11:30:00.000Z"}],"status":"completed","code":{"coding":[{"system":"http://snomed.info/sct","code":"306165000","display":"Referral to hospital-based dietetics service (procedure)"}],"text":"Referral to hospital-based dietetics service (procedure)"},"subject":{"reference":"Patient/eeebf78e-439d-445b-a4e1-74d3b6eaeb08"},"encounter":{"reference":"Encounter/ScreNotatriRefAsseModNodxCp2OCCURPass4"},"performedPeriod":{"start":"2026-09-01T11:30:00.000Z","end":"2026-09-07T08:15:00.000Z"}},"request":{"method":"PUT","url":"Procedure/4ec5922e-b496-4640-aff1-00686458b242"}},{"fullUrl":"https://madie.cms.gov/Procedure/0f1cb864-554a-4059-912a-a2cb46dcdd5d","resource":{"resourceType":"Procedure","id":"0f1cb864-554a-4059-912a-a2cb46dcdd5d","meta":{"profile":["http://hl7.org/fhir/us/qicore/StructureDefinition/qicore-procedure"]},"extension":[{"url":"http://hl7.org/fhir/us/qicore/StructureDefinition/qicore-recorded","valueDateTime":"2026-02-02T11:30:00.000Z"}],"status":"completed","code":{"coding":[{"system":"http://snomed.info/sct","code":"386373004","display":"Nutrition therapy (regime/therapy)"}],"text":"Nutrition therapy (regime/therapy)"},"subject":{"reference":"Patient/eeebf78e-439d-445b-a4e1-74d3b6eaeb08"},"encounter":{"reference":"Encounter/ScreNotatriRefAsseModNodxCp2OCCURPass4"},"performedPeriod":{"start":"2026-09-01T11:30:00.000Z","end":"2026-09-07T08:15:00.000Z"}},"request":{"method":"PUT","url":"Procedure/0f1cb864-554a-4059-912a-a2cb46dcdd5d"}},{"fullUrl":"https://madie.cms.gov/Coverage/18ba9672-b085-4e81-a3aa-af6a19c6b076","resource":{"resourceType":"Coverage","id":"18ba9672-b085-4e81-a3aa-af6a19c6b076","meta":{"profile":["http://hl7.org/fhir/us/qicore/StructureDefinition/qicore-coverage"]},"status":"active","type":{"coding":[{"system":"https://nahdo.org/sopt","version":"9.2","code":"11","display":"Medicare Managed Care (Includes Medicare Advantage Plans)"}]},"beneficiary":{"reference":"Patient/eeebf78e-439d-445b-a4e1-74d3b6eaeb08"},"period":{"start":"2025-10-01T00:00:00+00:00"},"payor":[{"reference":"Organization/ec8cac12-7dd8-4c6e-8c44-d6c645085c80"}]},"request":{"method":"PUT","url":"Coverage/18ba9672-b085-4e81-a3aa-af6a19c6b076"}},{"fullUrl":"https://madie.cms.gov/Organization/75a5eabc-6386-4830-9e41-0304bcb74464","resource":{"resourceType":"Organization","id":"ec8cac12-7dd8-4c6e-8c44-d6c645085c80","meta":{"profile":["http://hl7.org/fhir/us/qicore/StructureDefinition/qicore-organization"]},"identifier":[{"use":"temp","system":"urn:oid:2.16.840.1.113883.4.4","value":"21-3259825"}],"active":true,"type":[{"coding":[{"system":"http://terminology.hl7.org/CodeSystem/organization-type","code":"pay","display":"Payer"}]}],"name":"Blue Cross Blue Shield of Texas","telecom":[{"system":"phone","value":"(+1) 972-766-6900"}],"address":[{"use":"billing","type":"postal","line":["P.O. Box 660044"],"city":"Dallas","state":"TX","postalCode":"75266-0044","country":"USA"}]},"request":{"method":"PUT","url":"Organization/ec8cac12-7dd8-4c6e-8c44-d6c645085c80"}},{"fullUrl":"https://madie.cms.gov/MeasureReport/80e6b85c-644f-4d2b-b541-3336c7070ea9","resource":{"resourceType":"MeasureReport","id":"80e6b85c-644f-4d2b-b541-3336c7070ea9","meta":{"profile":["http://hl7.org/fhir/us/cqfmeasures/StructureDefinition/test-case-cqfm"]},"contained":[{"resourceType":"Parameters","id":"a36d3df8-dd64-4bc6-b6b4-10467c5a5bb0-parameters","parameter":[{"name":"subject","valueString":"eeebf78e-439d-445b-a4e1-74d3b6eaeb08"}]}],"extension":[{"url":"http://hl7.org/fhir/us/cqfmeasures/StructureDefinition/cqfm-inputParameters","valueReference":{"reference":"#a36d3df8-dd64-4bc6-b6b4-10467c5a5bb0-parameters"}},{"url":"http://hl7.org/fhir/us/cqfmeasures/StructureDefinition/cqfm-testCaseDescription","valueMarkdown":"Screened, Not at Risk, Referral, Assessed, Moderately Malnourished, No Diagnosis, Nutrition Care Plan"}],"modifierExtension":[{"url":"http://hl7.org/fhir/us/cqfmeasures/StructureDefinition/cqfm-isTestCase","valueBoolean":true}],"status":"complete","type":"individual","measure":"https://madie.cms.gov/Measure/CMS986FHIRMalnutritionScore","period":{"start":"2026-01-01","end":"2026-12-31"},"group":[{"population":[{"code":{"coding":[{"system":"http://terminology.hl7.org/CodeSystem/measure-population","code":"initial-population","display":"Initial Population"}]},"count":1},{"code":{"coding":[{"system":"http://terminology.hl7.org/CodeSystem/measure-population","code":"measure-population","display":"Measure Population"}]},"count":1},{"code":{"coding":[{"system":"http://terminology.hl7.org/CodeSystem/measure-population","code":"measure-population-exclusion","display":"Measure Population Exclusion"}]},"count":0},{"code":{"coding":[{"system":"http://terminology.hl7.org/CodeSystem/measure-population","code":"measure-population-observation","display":"Measure Population Observation"}]},"count":1}]},{"population":[{"code":{"coding":[{"system":"http://terminology.hl7.org/CodeSystem/measure-population","code":"initial-population","display":"Initial Population"}]},"count":1},{"code":{"coding":[{"system":"http://terminology.hl7.org/CodeSystem/measure-population","code":"measure-population","display":"Measure Population"}]},"count":1},{"code":{"coding":[{"system":"http://terminology.hl7.org/CodeSystem/measure-population","code":"measure-population-exclusion","display":"Measure Population Exclusion"}]},"count":0},{"code":{"coding":[{"system":"http://terminology.hl7.org/CodeSystem/measure-population","code":"measure-population-observation","display":"Measure Population Observation"}]},"count":1}]},{"population":[{"code":{"coding":[{"system":"http://terminology.hl7.org/CodeSystem/measure-population","code":"initial-population","display":"Initial Population"}]},"count":1},{"code":{"coding":[{"system":"http://terminology.hl7.org/CodeSystem/measure-population","code":"measure-population","display":"Measure Population"}]},"count":1},{"code":{"coding":[{"system":"http://terminology.hl7.org/CodeSystem/measure-population","code":"measure-population-exclusion","display":"Measure Population Exclusion"}]},"count":0},{"code":{"coding":[{"system":"http://terminology.hl7.org/CodeSystem/measure-population","code":"measure-population-observation","display":"Measure Population Observation"}]},"count":0}]},{"population":[{"code":{"coding":[{"system":"http://terminology.hl7.org/CodeSystem/measure-population","code":"initial-population","display":"Initial Population"}]},"count":1},{"code":{"coding":[{"system":"http://terminology.hl7.org/CodeSystem/measure-population","code":"measure-population","display":"Measure Population"}]},"count":1},{"code":{"coding":[{"system":"http://terminology.hl7.org/CodeSystem/measure-population","code":"measure-population-exclusion","display":"Measure Population Exclusion"}]},"count":0},{"code":{"coding":[{"system":"http://terminology.hl7.org/CodeSystem/measure-population","code":"measure-population-observation","display":"Measure Population Observation"}]},"count":1}]},{"population":[{"code":{"coding":[{"system":"http://terminology.hl7.org/CodeSystem/measure-population","code":"initial-population","display":"Initial Population"}]},"count":1},{"code":{"coding":[{"system":"http://terminology.hl7.org/CodeSystem/measure-population","code":"measure-population","display":"Measure Population"}]},"count":1},{"code":{"coding":[{"system":"http://terminology.hl7.org/CodeSystem/measure-population","code":"measure-population-exclusion","display":"Measure Population Exclusion"}]},"count":0},{"code":{"coding":[{"system":"http://terminology.hl7.org/CodeSystem/measure-population","code":"measure-population-observation","display":"Measure Population Observation"}]},"count":3}]},{"population":[{"code":{"coding":[{"system":"http://terminology.hl7.org/CodeSystem/measure-population","code":"initial-population","display":"Initial Population"}]},"count":1},{"code":{"coding":[{"system":"http://terminology.hl7.org/CodeSystem/measure-population","code":"measure-population","display":"Measure Population"}]},"count":1},{"code":{"coding":[{"system":"http://terminology.hl7.org/CodeSystem/measure-population","code":"measure-population-exclusion","display":"Measure Population Exclusion"}]},"count":0},{"code":{"coding":[{"system":"http://terminology.hl7.org/CodeSystem/measure-population","code":"measure-population-observation","display":"Measure Population Observation"}]},"count":75}]}]},"request":{"method":"PUT","url":"MeasureReport/80e6b85c-644f-4d2b-b541-3336c7070ea9"}}]}