{"resourceType":"Bundle","id":"tests-0c3df882-87de-42cf-a909-01d7a01eb5ad-bundle","type":"transaction","entry":[{"fullUrl":"https://madie.cms.gov/Patient/0c3df882-87de-42cf-a909-01d7a01eb5ad","resource":{"resourceType":"Patient","id":"0c3df882-87de-42cf-a909-01d7a01eb5ad","meta":{"profile":["http://hl7.org/fhir/us/qicore/StructureDefinition/qicore-patient"]},"text":{"status":"generated","div":"<div xmlns=\"http://www.w3.org/1999/xhtml\"><div class=\"hapiHeaderText\">ScreNotatriRefAsseModDxNocp2, , <b> </b></div><table class=\"hapiPropertyTable\"><tbody><tr><td>Identifier</td><td>ScreNotatriRefAsseModDxNocp2</td></tr><tr><td>Date of birth</td><td><span>14 May 1950</span></td></tr></tbody></table></div>"},"extension":[{"url":"http://hl7.org/fhir/us/core/StructureDefinition/us-core-race","extension":[{"url":"ombCategory","valueCoding":{"system":"urn:oid:2.16.840.1.113883.6.238","code":"2054-5","display":"Black or African American","userSelected":true}},{"url":"text","valueString":"Black or African American"}]},{"url":"http://hl7.org/fhir/us/core/StructureDefinition/us-core-ethnicity","extension":[{"url":"ombCategory","valueCoding":{"system":"urn:oid:2.16.840.1.113883.6.238","code":"2135-2","display":"Hispanic or Latino","userSelected":true}},{"url":"text","valueString":"Hispanic or Latino"}]}],"identifier":[{"type":{"coding":[{"system":"http://terminology.hl7.org/CodeSystem/v2-0203","code":"MR"}]},"system":"https://madie.cms.gov/","value":"ScreNotatriRefAsseModDxNocp2"}],"active":true,"name":[{"use":"usual","text":"ScreNotatriRefAsseModDxNocp2","family":"OCCURPass4","given":["ScreNotatriRefAsseModDxNocp2DENOMPass4"]}],"gender":"female","birthDate":"1956-01-01","address":[{"text":"ScreNotatriRefAsseModDxNocp2, Screened Not at risk Assessed Severely Malnourished Diagnosed Care Plan, ID=ScreNotatriRefAsseModDxNocp2, DOB: 14 May 1950"}]},"request":{"method":"PUT","url":"Patient/0c3df882-87de-42cf-a909-01d7a01eb5ad"}},{"fullUrl":"https://madie.cms.gov/Encounter/b2d9d849-db7c-4c2b-b901-7e6633a03393","resource":{"resourceType":"Encounter","id":"b2d9d849-db7c-4c2b-b901-7e6633a03393","meta":{"profile":["http://hl7.org/fhir/us/qicore/StructureDefinition/qicore-encounter"]},"status":"finished","class":{"system":"http://terminology.hl7.org/CodeSystem/v3-ActCode","code":"IMP","display":"inpatient encounter"},"type":[{"coding":[{"system":"http://snomed.info/sct","code":"183452005"}]}],"subject":{"reference":"Patient/0c3df882-87de-42cf-a909-01d7a01eb5ad"},"period":{"start":"2026-03-01T08:00:00.000Z","end":"2026-03-04T08:15:00.000Z"}},"request":{"method":"PUT","url":"Encounter/b2d9d849-db7c-4c2b-b901-7e6633a03393"}},{"fullUrl":"https://madie.cms.gov/Condition/b8f977ba-fd6a-4c1e-b70d-36288d64b060","resource":{"resourceType":"Condition","id":"b8f977ba-fd6a-4c1e-b70d-36288d64b060","meta":{"profile":["http://hl7.org/fhir/us/qicore/StructureDefinition/qicore-condition"]},"clinicalStatus":{"coding":[{"system":"http://terminology.hl7.org/CodeSystem/condition-clinical","code":"active","display":"Active","userSelected":true}]},"verificationStatus":{"coding":[{"system":"http://terminology.hl7.org/CodeSystem/condition-ver-status","code":"confirmed","display":"Confirmed","userSelected":true}]},"category":[{"coding":[{"system":"http://terminology.hl7.org/CodeSystem/condition-category","code":"encounter-diagnosis","display":"Encounter Diagnosis","userSelected":true}]}],"code":{"coding":[{"system":"http://snomed.info/sct","code":"722960005","display":"Anorexia nervosa co-occurrent with significantly low body weight (disorder)","userSelected":true}]},"subject":{"reference":"Patient/0c3df882-87de-42cf-a909-01d7a01eb5ad"},"onsetPeriod":{"start":"2026-03-02T08:00:00.000+00:00"},"recordedDate":"2026-03-02T11:00:00.000+00:00"},"request":{"method":"PUT","url":"Condition/b8f977ba-fd6a-4c1e-b70d-36288d64b060"}},{"fullUrl":"https://madie.cms.gov/Observation/f83d67ae-9768-4ee8-aa7b-f5c365ced9a8","resource":{"resourceType":"Observation","id":"f83d67ae-9768-4ee8-aa7b-f5c365ced9a8","meta":{"profile":["http://hl7.org/fhir/us/qicore/StructureDefinition/qicore-observation"]},"status":"final","category":[{"coding":[{"system":"http://terminology.hl7.org/CodeSystem/observation-category","code":"survey","display":"Survey"}]}],"code":{"coding":[{"system":"http://loinc.org","code":"98967-3","display":"Nutritional Risk Screening 2002 panel","userSelected":true}]},"subject":{"reference":"Patient/0c3df882-87de-42cf-a909-01d7a01eb5ad"},"effectiveDateTime":"2026-03-01T09:00:00.000+00:00","valueCodeableConcept":{"coding":[{"system":"http://loinc.org","code":"LA33699-2","display":"Not at risk for malnutrition","userSelected":true}]}},"request":{"method":"PUT","url":"Observation/f83d67ae-9768-4ee8-aa7b-f5c365ced9a8"}},{"fullUrl":"https://madie.cms.gov/Observation/ef161b5f-2d36-43c2-8db9-f4666ad6cd6a","resource":{"resourceType":"Observation","id":"ef161b5f-2d36-43c2-8db9-f4666ad6cd6a","meta":{"profile":["http://hl7.org/fhir/us/qicore/StructureDefinition/qicore-observation"]},"status":"final","category":[{"coding":[{"system":"http://terminology.hl7.org/CodeSystem/observation-category","code":"survey","display":"Survey"}]}],"code":{"coding":[{"system":"http://loinc.org","code":"75304-6","display":"Nutrition status observation panel","userSelected":true}]},"subject":{"reference":"Patient/0c3df882-87de-42cf-a909-01d7a01eb5ad"},"effectiveDateTime":"2026-03-01T10:00:00.000+00:00","valueCodeableConcept":{"coding":[{"system":"http://snomed.info/sct","code":"448765001","display":"Unintentional weight loss (finding)","userSelected":true}]}},"request":{"method":"PUT","url":"Observation/ef161b5f-2d36-43c2-8db9-f4666ad6cd6a"}},{"fullUrl":"https://madie.cms.gov/Procedure/d6de23e4-faf6-414e-ad22-17117f0e09c6","resource":{"resourceType":"Procedure","id":"d6de23e4-faf6-414e-ad22-17117f0e09c6","meta":{"profile":["http://hl7.org/fhir/us/qicore/StructureDefinition/qicore-procedure"]},"extension":[{"url":"http://hl7.org/fhir/us/qicore/StructureDefinition/qicore-recorded","valueDateTime":"2026-03-01T11:30:00.000Z"}],"status":"completed","code":{"coding":[{"system":"http://snomed.info/sct","code":"306354000","display":"Referral to hospital-based dietitian (procedure)"}],"text":"Referral to hospital-based dietitian (procedure)"},"subject":{"reference":"Patient/0c3df882-87de-42cf-a909-01d7a01eb5ad"},"encounter":{"reference":"Encounter/ScreNotatriRefAsseModDxNocp2"},"performedPeriod":{"start":"2026-03-01T11:30:00.000Z","end":"2026-03-04T08:15:00.000Z"}},"request":{"method":"PUT","url":"Procedure/d6de23e4-faf6-414e-ad22-17117f0e09c6"}},{"fullUrl":"https://madie.cms.gov/Coverage/08d46f2e-f9ad-4747-b5e4-a782995b6fe3","resource":{"resourceType":"Coverage","id":"08d46f2e-f9ad-4747-b5e4-a782995b6fe3","meta":{"profile":["http://hl7.org/fhir/us/qicore/StructureDefinition/qicore-coverage"]},"status":"active","type":{"coding":[{"system":"https://nahdo.org/sopt","version":"9.2","code":"11","display":"Medicare Managed Care (Includes Medicare Advantage Plans)"}]},"beneficiary":{"reference":"Patient/0c3df882-87de-42cf-a909-01d7a01eb5ad"},"period":{"start":"2025-10-01T00:00:00+00:00"},"payor":[{"reference":"Organization/f4907415-83c5-4eae-ab0b-cb63a840880d"}]},"request":{"method":"PUT","url":"Coverage/08d46f2e-f9ad-4747-b5e4-a782995b6fe3"}},{"fullUrl":"https://madie.cms.gov/Organization/13a3764b-8a39-4cb2-bd45-40c7569872fe","resource":{"resourceType":"Organization","id":"f4907415-83c5-4eae-ab0b-cb63a840880d","meta":{"profile":["http://hl7.org/fhir/us/qicore/StructureDefinition/qicore-organization"]},"identifier":[{"use":"temp","system":"urn:oid:2.16.840.1.113883.4.4","value":"21-3259825"}],"active":true,"type":[{"coding":[{"system":"http://terminology.hl7.org/CodeSystem/organization-type","code":"pay","display":"Payer"}]}],"name":"Blue Cross Blue Shield of Texas","telecom":[{"system":"phone","value":"(+1) 972-766-6900"}],"address":[{"use":"billing","type":"postal","line":["P.O. Box 660044"],"city":"Dallas","state":"TX","postalCode":"75266-0044","country":"USA"}]},"request":{"method":"PUT","url":"Organization/f4907415-83c5-4eae-ab0b-cb63a840880d"}},{"fullUrl":"https://madie.cms.gov/MeasureReport/39f1101f-39ce-45f8-8009-5d4193aacd45","resource":{"resourceType":"MeasureReport","id":"39f1101f-39ce-45f8-8009-5d4193aacd45","meta":{"profile":["http://hl7.org/fhir/us/cqfmeasures/StructureDefinition/test-case-cqfm"]},"contained":[{"resourceType":"Parameters","id":"264087e5-be7c-40b4-b288-069003ab9e13-parameters","parameter":[{"name":"subject","valueString":"0c3df882-87de-42cf-a909-01d7a01eb5ad"}]}],"extension":[{"url":"http://hl7.org/fhir/us/cqfmeasures/StructureDefinition/cqfm-inputParameters","valueReference":{"reference":"#264087e5-be7c-40b4-b288-069003ab9e13-parameters"}},{"url":"http://hl7.org/fhir/us/cqfmeasures/StructureDefinition/cqfm-testCaseDescription","valueMarkdown":"Screened, Not at Risk, Referral, Assessed, Moderately Malnourished, Diagnosis, No Nutrition Care Plan"}],"modifierExtension":[{"url":"http://hl7.org/fhir/us/cqfmeasures/StructureDefinition/cqfm-isTestCase","valueBoolean":true}],"status":"complete","type":"individual","measure":"https://madie.cms.gov/Measure/CMS986FHIRMalnutritionScore","period":{"start":"2026-01-01","end":"2026-12-31"},"group":[{"population":[{"code":{"coding":[{"system":"http://terminology.hl7.org/CodeSystem/measure-population","code":"initial-population","display":"Initial Population"}]},"count":1},{"code":{"coding":[{"system":"http://terminology.hl7.org/CodeSystem/measure-population","code":"measure-population","display":"Measure Population"}]},"count":1},{"code":{"coding":[{"system":"http://terminology.hl7.org/CodeSystem/measure-population","code":"measure-population-exclusion","display":"Measure Population Exclusion"}]},"count":0},{"code":{"coding":[{"system":"http://terminology.hl7.org/CodeSystem/measure-population","code":"measure-population-observation","display":"Measure Population Observation"}]},"count":1}]},{"population":[{"code":{"coding":[{"system":"http://terminology.hl7.org/CodeSystem/measure-population","code":"initial-population","display":"Initial Population"}]},"count":1},{"code":{"coding":[{"system":"http://terminology.hl7.org/CodeSystem/measure-population","code":"measure-population","display":"Measure Population"}]},"count":1},{"code":{"coding":[{"system":"http://terminology.hl7.org/CodeSystem/measure-population","code":"measure-population-exclusion","display":"Measure Population Exclusion"}]},"count":0},{"code":{"coding":[{"system":"http://terminology.hl7.org/CodeSystem/measure-population","code":"measure-population-observation","display":"Measure Population Observation"}]},"count":1}]},{"population":[{"code":{"coding":[{"system":"http://terminology.hl7.org/CodeSystem/measure-population","code":"initial-population","display":"Initial Population"}]},"count":1},{"code":{"coding":[{"system":"http://terminology.hl7.org/CodeSystem/measure-population","code":"measure-population","display":"Measure Population"}]},"count":1},{"code":{"coding":[{"system":"http://terminology.hl7.org/CodeSystem/measure-population","code":"measure-population-exclusion","display":"Measure Population Exclusion"}]},"count":0},{"code":{"coding":[{"system":"http://terminology.hl7.org/CodeSystem/measure-population","code":"measure-population-observation","display":"Measure Population Observation"}]},"count":1}]},{"population":[{"code":{"coding":[{"system":"http://terminology.hl7.org/CodeSystem/measure-population","code":"initial-population","display":"Initial Population"}]},"count":1},{"code":{"coding":[{"system":"http://terminology.hl7.org/CodeSystem/measure-population","code":"measure-population","display":"Measure Population"}]},"count":1},{"code":{"coding":[{"system":"http://terminology.hl7.org/CodeSystem/measure-population","code":"measure-population-exclusion","display":"Measure Population Exclusion"}]},"count":0},{"code":{"coding":[{"system":"http://terminology.hl7.org/CodeSystem/measure-population","code":"measure-population-observation","display":"Measure Population Observation"}]},"count":0}]},{"population":[{"code":{"coding":[{"system":"http://terminology.hl7.org/CodeSystem/measure-population","code":"initial-population","display":"Initial Population"}]},"count":1},{"code":{"coding":[{"system":"http://terminology.hl7.org/CodeSystem/measure-population","code":"measure-population","display":"Measure Population"}]},"count":1},{"code":{"coding":[{"system":"http://terminology.hl7.org/CodeSystem/measure-population","code":"measure-population-exclusion","display":"Measure Population Exclusion"}]},"count":0},{"code":{"coding":[{"system":"http://terminology.hl7.org/CodeSystem/measure-population","code":"measure-population-observation","display":"Measure Population Observation"}]},"count":3}]},{"population":[{"code":{"coding":[{"system":"http://terminology.hl7.org/CodeSystem/measure-population","code":"initial-population","display":"Initial Population"}]},"count":1},{"code":{"coding":[{"system":"http://terminology.hl7.org/CodeSystem/measure-population","code":"measure-population","display":"Measure Population"}]},"count":1},{"code":{"coding":[{"system":"http://terminology.hl7.org/CodeSystem/measure-population","code":"measure-population-exclusion","display":"Measure Population Exclusion"}]},"count":0},{"code":{"coding":[{"system":"http://terminology.hl7.org/CodeSystem/measure-population","code":"measure-population-observation","display":"Measure Population Observation"}]},"count":75}]}]},"request":{"method":"PUT","url":"MeasureReport/39f1101f-39ce-45f8-8009-5d4193aacd45"}}]}