{"resourceType":"Bundle","id":"tests-e2664b2b-8c66-4621-a0c1-a95862fba95a-bundle","type":"transaction","entry":[{"fullUrl":"https://madie.cms.gov/Patient/e2664b2b-8c66-4621-a0c1-a95862fba95a","resource":{"resourceType":"Patient","id":"e2664b2b-8c66-4621-a0c1-a95862fba95a","meta":{"profile":["http://hl7.org/fhir/us/qicore/StructureDefinition/qicore-patient"]},"text":{"status":"generated","div":"<div xmlns=\"http://www.w3.org/1999/xhtml\"><div class=\"hapiHeaderText\">ScreAtriNorefAsseModDxCp2, , <b> </b></div><table class=\"hapiPropertyTable\"><tbody><tr><td>Identifier</td><td>ScreAtriNorefAsseModDxCp2</td></tr><tr><td>Date of birth</td><td><span>14 May 1950</span></td></tr></tbody></table></div>"},"extension":[{"url":"http://hl7.org/fhir/us/core/StructureDefinition/us-core-race","extension":[{"url":"ombCategory","valueCoding":{"system":"urn:oid:2.16.840.1.113883.6.238","code":"2106-3","display":"White","userSelected":true}},{"url":"text","valueString":"White"}]},{"url":"http://hl7.org/fhir/us/core/StructureDefinition/us-core-ethnicity","extension":[{"url":"ombCategory","valueCoding":{"system":"urn:oid:2.16.840.1.113883.6.238","code":"2186-5","display":"Not Hispanic or Latino","userSelected":true}},{"url":"text","valueString":"Not Hispanic or Latino"}]}],"identifier":[{"type":{"coding":[{"system":"http://terminology.hl7.org/CodeSystem/v2-0203","code":"MR"}]},"system":"https://madie.cms.gov/","value":"ScreAtriNorefAsseModDxCp2"}],"active":true,"name":[{"use":"usual","text":"ScreAtriNorefAsseModDxCp2","family":"OCCURPass4","given":["ScreAtriNorefAsseModDxCp2DENOMPass4"]}],"gender":"male","birthDate":"1954-05-14","address":[{"text":"ScreAtriNorefAsseModDxCp2, Screened Not at risk Assessed Severely Malnourished Diagnosed Care Plan, ID=ScreAtriNorefAsseModDxCp2, DOB: 14 May 1950"}]},"request":{"method":"PUT","url":"Patient/e2664b2b-8c66-4621-a0c1-a95862fba95a"}},{"fullUrl":"https://madie.cms.gov/Encounter/1f4f9573-abc1-4051-ab05-db6966ce6810","resource":{"resourceType":"Encounter","id":"1f4f9573-abc1-4051-ab05-db6966ce6810","meta":{"profile":["http://hl7.org/fhir/us/qicore/StructureDefinition/qicore-encounter"]},"status":"finished","class":{"system":"http://terminology.hl7.org/CodeSystem/v3-ActCode","code":"IMP","display":"inpatient encounter"},"type":[{"coding":[{"system":"http://snomed.info/sct","code":"183452005"}]}],"subject":{"reference":"Patient/e2664b2b-8c66-4621-a0c1-a95862fba95a"},"period":{"start":"2026-02-01T08:00:00.000Z","end":"2026-02-07T08:15:00.000Z"}},"request":{"method":"PUT","url":"Encounter/1f4f9573-abc1-4051-ab05-db6966ce6810"}},{"fullUrl":"https://madie.cms.gov/Encounter/596816e3-d229-4a04-96eb-65e398d76f49","resource":{"resourceType":"Encounter","id":"596816e3-d229-4a04-96eb-65e398d76f49","meta":{"profile":["http://hl7.org/fhir/us/qicore/StructureDefinition/qicore-encounter"]},"status":"finished","class":{"system":"http://terminology.hl7.org/CodeSystem/v3-ActCode","code":"IMP","display":"Emergency department patient visit (procedure)"},"type":[{"coding":[{"system":"http://snomed.info/sct","code":"4525004"}]}],"subject":{"reference":"Patient/e2664b2b-8c66-4621-a0c1-a95862fba95a"},"period":{"start":"2026-01-30T08:00:00.000Z","end":"2026-02-01T08:15:00.000Z"}},"request":{"method":"PUT","url":"Encounter/596816e3-d229-4a04-96eb-65e398d76f49"}},{"fullUrl":"https://madie.cms.gov/Condition/6a3d6aed-e97d-4487-a8f9-2a28de486857","resource":{"resourceType":"Condition","id":"6a3d6aed-e97d-4487-a8f9-2a28de486857","meta":{"profile":["http://hl7.org/fhir/us/qicore/StructureDefinition/qicore-condition"]},"clinicalStatus":{"coding":[{"system":"http://terminology.hl7.org/CodeSystem/condition-clinical","code":"active","display":"Active","userSelected":true}]},"verificationStatus":{"coding":[{"system":"http://terminology.hl7.org/CodeSystem/condition-ver-status","code":"confirmed","display":"Confirmed","userSelected":true}]},"category":[{"coding":[{"system":"http://terminology.hl7.org/CodeSystem/condition-category","code":"encounter-diagnosis","display":"Encounter Diagnosis","userSelected":true}]}],"code":{"coding":[{"system":"http://hl7.org/fhir/sid/icd-10-cm","code":"E44.0","display":"Moderate protein-calorie malnutrition","userSelected":true}]},"subject":{"reference":"Patient/e2664b2b-8c66-4621-a0c1-a95862fba95a"},"onsetPeriod":{"start":"2026-02-01T08:00:00.000+00:00"},"recordedDate":"2026-02-01T11:00:00.000+00:00"},"request":{"method":"PUT","url":"Condition/6a3d6aed-e97d-4487-a8f9-2a28de486857"}},{"fullUrl":"https://madie.cms.gov/Observation/214b4bd9-4db2-4914-86b1-f5a664389f7b","resource":{"resourceType":"Observation","id":"214b4bd9-4db2-4914-86b1-f5a664389f7b","meta":{"profile":["http://hl7.org/fhir/us/qicore/StructureDefinition/qicore-observation"]},"status":"final","category":[{"coding":[{"system":"http://terminology.hl7.org/CodeSystem/observation-category","code":"survey","display":"Survey"}]}],"code":{"coding":[{"system":"http://loinc.org","code":"98972-3","display":"Final screening NRS_2002","userSelected":true}]},"subject":{"reference":"Patient/e2664b2b-8c66-4621-a0c1-a95862fba95a"},"effectiveDateTime":"2026-02-01T09:00:00.000+00:00","valueCodeableConcept":{"coding":[{"system":"http://snomed.info/sct","code":"704361005","display":"At risk of deficient food intake (finding)","userSelected":true}]}},"request":{"method":"PUT","url":"Observation/214b4bd9-4db2-4914-86b1-f5a664389f7b"}},{"fullUrl":"https://madie.cms.gov/Observation/de0b32ea-f524-4365-a7e9-9ec225b064eb","resource":{"resourceType":"Observation","id":"de0b32ea-f524-4365-a7e9-9ec225b064eb","meta":{"profile":["http://hl7.org/fhir/us/qicore/StructureDefinition/qicore-observation"]},"status":"final","category":[{"coding":[{"system":"http://terminology.hl7.org/CodeSystem/observation-category","code":"survey","display":"Survey"}]}],"code":{"coding":[{"system":"http://loinc.org","code":"75303-8","display":"Nutrition assessment narrative","userSelected":true}]},"subject":{"reference":"Patient/e2664b2b-8c66-4621-a0c1-a95862fba95a"},"effectiveDateTime":"2026-02-01T10:00:00.000+00:00","valueCodeableConcept":{"coding":[{"system":"http://snomed.info/sct","code":"190606006","display":"Moderate protein energy malnutrition (finding)","userSelected":true}]}},"request":{"method":"PUT","url":"Observation/de0b32ea-f524-4365-a7e9-9ec225b064eb"}},{"fullUrl":"https://madie.cms.gov/Procedure/bda539a1-b2d6-4724-953f-568690594445","resource":{"resourceType":"Procedure","id":"bda539a1-b2d6-4724-953f-568690594445","meta":{"profile":["http://hl7.org/fhir/us/qicore/StructureDefinition/qicore-procedure"]},"extension":[{"url":"http://hl7.org/fhir/us/qicore/StructureDefinition/qicore-recorded","valueDateTime":"2025-02-02T11:30:00.000Z"}],"status":"completed","code":{"coding":[{"system":"http://snomed.info/sct","code":"445101000124100","display":"Collaborating in nutrition therapy (procedure)"}],"text":"Collaborating in nutrition therapy (procedure)"},"subject":{"reference":"Patient/e2664b2b-8c66-4621-a0c1-a95862fba95a"},"encounter":{"reference":"Encounter/ScreAtriNorefAsseModDxCp2DENOMPass4"},"performedPeriod":{"start":"2026-02-01T11:30:00.000Z","end":"2026-02-07T08:15:00.000Z"}},"request":{"method":"PUT","url":"Procedure/bda539a1-b2d6-4724-953f-568690594445"}},{"fullUrl":"https://madie.cms.gov/Coverage/561edb7e-92dd-4b66-92d3-07e55aa8bf27","resource":{"resourceType":"Coverage","id":"561edb7e-92dd-4b66-92d3-07e55aa8bf27","meta":{"profile":["http://hl7.org/fhir/us/qicore/StructureDefinition/qicore-coverage"]},"status":"active","type":{"coding":[{"system":"https://nahdo.org/sopt","version":"9.2","code":"11","display":"Medicare Managed Care (Includes Medicare Advantage Plans)"}]},"beneficiary":{"reference":"Patient/e2664b2b-8c66-4621-a0c1-a95862fba95a"},"period":{"start":"2024-10-01T00:00:00+00:00"},"payor":[{"reference":"Organization/80e3e0d1-b2aa-43a6-b1d2-00bfa3164a0f"}]},"request":{"method":"PUT","url":"Coverage/561edb7e-92dd-4b66-92d3-07e55aa8bf27"}},{"fullUrl":"https://madie.cms.gov/Organization/a9bfc322-25ef-4888-a007-a9b204c85eeb","resource":{"resourceType":"Organization","id":"80e3e0d1-b2aa-43a6-b1d2-00bfa3164a0f","meta":{"profile":["http://hl7.org/fhir/us/qicore/StructureDefinition/qicore-organization"]},"identifier":[{"use":"temp","system":"urn:oid:2.16.840.1.113883.4.4","value":"21-3259825"}],"active":true,"type":[{"coding":[{"system":"http://terminology.hl7.org/CodeSystem/organization-type","code":"pay","display":"Payer"}]}],"name":"Blue Cross Blue Shield of Texas","telecom":[{"system":"phone","value":"(+1) 972-766-6900"}],"address":[{"use":"billing","type":"postal","line":["P.O. Box 660044"],"city":"Dallas","state":"TX","postalCode":"75266-0044","country":"USA"}]},"request":{"method":"PUT","url":"Organization/80e3e0d1-b2aa-43a6-b1d2-00bfa3164a0f"}},{"fullUrl":"https://madie.cms.gov/MeasureReport/7e083500-d096-44d9-bba6-09bb7fbc835a","resource":{"resourceType":"MeasureReport","id":"7e083500-d096-44d9-bba6-09bb7fbc835a","meta":{"profile":["http://hl7.org/fhir/us/cqfmeasures/StructureDefinition/test-case-cqfm"]},"contained":[{"resourceType":"Parameters","id":"a7001fc2-1290-4825-847e-f86f9e047610-parameters","parameter":[{"name":"subject","valueString":"e2664b2b-8c66-4621-a0c1-a95862fba95a"}]}],"extension":[{"url":"http://hl7.org/fhir/us/cqfmeasures/StructureDefinition/cqfm-inputParameters","valueReference":{"reference":"#a7001fc2-1290-4825-847e-f86f9e047610-parameters"}},{"url":"http://hl7.org/fhir/us/cqfmeasures/StructureDefinition/cqfm-testCaseDescription","valueMarkdown":"Screened, At Risk, No Referral, Assessed, Moderate Malnutrition, Diagnosis, Nutrition Care Plan"}],"modifierExtension":[{"url":"http://hl7.org/fhir/us/cqfmeasures/StructureDefinition/cqfm-isTestCase","valueBoolean":true}],"status":"complete","type":"individual","measure":"https://madie.cms.gov/Measure/CMS986FHIRMalnutritionScore","period":{"start":"2026-01-01","end":"2026-12-31"},"group":[{"population":[{"code":{"coding":[{"system":"http://terminology.hl7.org/CodeSystem/measure-population","code":"initial-population","display":"Initial Population"}]},"count":1},{"code":{"coding":[{"system":"http://terminology.hl7.org/CodeSystem/measure-population","code":"measure-population","display":"Measure Population"}]},"count":1},{"code":{"coding":[{"system":"http://terminology.hl7.org/CodeSystem/measure-population","code":"measure-population-exclusion","display":"Measure Population Exclusion"}]},"count":0},{"code":{"coding":[{"system":"http://terminology.hl7.org/CodeSystem/measure-population","code":"measure-population-observation","display":"Measure Population Observation"}]},"count":1}]},{"population":[{"code":{"coding":[{"system":"http://terminology.hl7.org/CodeSystem/measure-population","code":"initial-population","display":"Initial Population"}]},"count":1},{"code":{"coding":[{"system":"http://terminology.hl7.org/CodeSystem/measure-population","code":"measure-population","display":"Measure Population"}]},"count":1},{"code":{"coding":[{"system":"http://terminology.hl7.org/CodeSystem/measure-population","code":"measure-population-exclusion","display":"Measure Population Exclusion"}]},"count":0},{"code":{"coding":[{"system":"http://terminology.hl7.org/CodeSystem/measure-population","code":"measure-population-observation","display":"Measure Population Observation"}]},"count":1}]},{"population":[{"code":{"coding":[{"system":"http://terminology.hl7.org/CodeSystem/measure-population","code":"initial-population","display":"Initial Population"}]},"count":1},{"code":{"coding":[{"system":"http://terminology.hl7.org/CodeSystem/measure-population","code":"measure-population","display":"Measure Population"}]},"count":1},{"code":{"coding":[{"system":"http://terminology.hl7.org/CodeSystem/measure-population","code":"measure-population-exclusion","display":"Measure Population Exclusion"}]},"count":0},{"code":{"coding":[{"system":"http://terminology.hl7.org/CodeSystem/measure-population","code":"measure-population-observation","display":"Measure Population Observation"}]},"count":1}]},{"population":[{"code":{"coding":[{"system":"http://terminology.hl7.org/CodeSystem/measure-population","code":"initial-population","display":"Initial Population"}]},"count":1},{"code":{"coding":[{"system":"http://terminology.hl7.org/CodeSystem/measure-population","code":"measure-population","display":"Measure Population"}]},"count":1},{"code":{"coding":[{"system":"http://terminology.hl7.org/CodeSystem/measure-population","code":"measure-population-exclusion","display":"Measure Population Exclusion"}]},"count":0},{"code":{"coding":[{"system":"http://terminology.hl7.org/CodeSystem/measure-population","code":"measure-population-observation","display":"Measure Population Observation"}]},"count":1}]},{"population":[{"code":{"coding":[{"system":"http://terminology.hl7.org/CodeSystem/measure-population","code":"initial-population","display":"Initial Population"}]},"count":1},{"code":{"coding":[{"system":"http://terminology.hl7.org/CodeSystem/measure-population","code":"measure-population","display":"Measure Population"}]},"count":1},{"code":{"coding":[{"system":"http://terminology.hl7.org/CodeSystem/measure-population","code":"measure-population-exclusion","display":"Measure Population Exclusion"}]},"count":0},{"code":{"coding":[{"system":"http://terminology.hl7.org/CodeSystem/measure-population","code":"measure-population-observation","display":"Measure Population Observation"}]},"count":4}]},{"population":[{"code":{"coding":[{"system":"http://terminology.hl7.org/CodeSystem/measure-population","code":"initial-population","display":"Initial Population"}]},"count":1},{"code":{"coding":[{"system":"http://terminology.hl7.org/CodeSystem/measure-population","code":"measure-population","display":"Measure Population"}]},"count":1},{"code":{"coding":[{"system":"http://terminology.hl7.org/CodeSystem/measure-population","code":"measure-population-exclusion","display":"Measure Population Exclusion"}]},"count":0},{"code":{"coding":[{"system":"http://terminology.hl7.org/CodeSystem/measure-population","code":"measure-population-observation","display":"Measure Population Observation"}]},"count":100}]}]},"request":{"method":"PUT","url":"MeasureReport/7e083500-d096-44d9-bba6-09bb7fbc835a"}}]}