{"resourceType":"Bundle","id":"tests-f06bb07a-3410-410d-a859-8bd57a79cf51-bundle","type":"transaction","entry":[{"fullUrl":"https://madie.cms.gov/Patient/f06bb07a-3410-410d-a859-8bd57a79cf51","resource":{"resourceType":"Patient","id":"f06bb07a-3410-410d-a859-8bd57a79cf51","meta":{"profile":["http://hl7.org/fhir/us/qicore/StructureDefinition/qicore-patient"]},"text":{"status":"generated","div":"<div xmlns=\"http://www.w3.org/1999/xhtml\"><div class=\"hapiHeaderText\">NoscreRefAsseModDxCp2, Screened Not at risk Assessed Severely Malnourished Diagnosed Care Plan, <b>mo1111d4p100 </b></div><table class=\"hapiPropertyTable\"><tbody><tr><td>Identifier</td><td>NoscreRefAsseModDxCp2</td></tr><tr><td>Date of birth</td><td><span>14 May 1950</span></td></tr></tbody></table></div>"},"extension":[{"url":"http://hl7.org/fhir/us/core/StructureDefinition/us-core-race","extension":[{"url":"ombCategory","valueCoding":{"system":"urn:oid:2.16.840.1.113883.6.238","code":"1002-5","display":"American Indian or Alaska Native","userSelected":true}},{"url":"text","valueString":"American Indian or Alaska Native"}]},{"url":"http://hl7.org/fhir/us/core/StructureDefinition/us-core-ethnicity","extension":[{"url":"ombCategory","valueCoding":{"system":"urn:oid:2.16.840.1.113883.6.238","code":"2135-2","display":"Hispanic or Latino","userSelected":true}},{"url":"text","valueString":"Hispanic or Latino"}]}],"identifier":[{"type":{"coding":[{"system":"http://terminology.hl7.org/CodeSystem/v2-0203","code":"MR"}]},"system":"https://madie.cms.gov/","value":"NoscreRefAsseModDxCp2"}],"active":true,"name":[{"use":"usual","text":"NoscreRefAsseModDxCp2","family":"OCCURPass4","given":["NoscreRefAsseModDxCp2DENOMPass4"]}],"gender":"female","birthDate":"1952-11-23","address":[{"text":"NoscreRefAsseModDxCp2, Screened Not at risk Assessed Severely Malnourished Diagnosed Care Plan, ID=NoscreRefAsseModDxCp2, DOB: 14 May 1950"}]},"request":{"method":"PUT","url":"Patient/f06bb07a-3410-410d-a859-8bd57a79cf51"}},{"fullUrl":"https://madie.cms.gov/Encounter/06cea4d9-6889-457c-825c-1d48b7ccb0da","resource":{"resourceType":"Encounter","id":"06cea4d9-6889-457c-825c-1d48b7ccb0da","meta":{"profile":["http://hl7.org/fhir/us/qicore/StructureDefinition/qicore-encounter"]},"status":"finished","class":{"system":"http://terminology.hl7.org/CodeSystem/v3-ActCode","code":"IMP","display":"inpatient encounter"},"type":[{"coding":[{"system":"http://snomed.info/sct","code":"183452005"}]}],"subject":{"reference":"Patient/f06bb07a-3410-410d-a859-8bd57a79cf51"},"period":{"start":"2026-02-23T08:00:00.000Z","end":"2026-02-28T08:15:00.000Z"}},"request":{"method":"PUT","url":"Encounter/06cea4d9-6889-457c-825c-1d48b7ccb0da"}},{"fullUrl":"https://madie.cms.gov/Condition/724e0a4f-d452-4d64-8204-07a94c7d981c","resource":{"resourceType":"Condition","id":"724e0a4f-d452-4d64-8204-07a94c7d981c","meta":{"profile":["http://hl7.org/fhir/us/qicore/StructureDefinition/qicore-condition"]},"clinicalStatus":{"coding":[{"system":"http://terminology.hl7.org/CodeSystem/condition-clinical","code":"active","display":"Active","userSelected":true}]},"verificationStatus":{"coding":[{"system":"http://terminology.hl7.org/CodeSystem/condition-ver-status","code":"confirmed","display":"Confirmed","userSelected":true}]},"category":[{"coding":[{"system":"http://terminology.hl7.org/CodeSystem/condition-category","code":"encounter-diagnosis","display":"Encounter Diagnosis","userSelected":true}]}],"code":{"coding":[{"system":"http://snomed.info/sct","code":"190606006","display":"Moderate protein energy malnutrition (disorder)","userSelected":true}]},"subject":{"reference":"Patient/f06bb07a-3410-410d-a859-8bd57a79cf51"},"onsetPeriod":{"start":"2026-02-23T08:00:00.000+00:00"},"recordedDate":"2026-02-23T11:00:00.000+00:00"},"request":{"method":"PUT","url":"Condition/724e0a4f-d452-4d64-8204-07a94c7d981c"}},{"fullUrl":"https://madie.cms.gov/Observation/a20893c6-4d25-4d7e-8c26-58678e0a08ac","resource":{"resourceType":"Observation","id":"a20893c6-4d25-4d7e-8c26-58678e0a08ac","meta":{"profile":["http://hl7.org/fhir/us/qicore/StructureDefinition/qicore-observation"]},"status":"final","category":[{"coding":[{"system":"http://terminology.hl7.org/CodeSystem/observation-category","code":"survey","display":"Survey"}]}],"code":{"coding":[{"system":"http://loinc.org","code":"75285-7","display":"Comparative nutrition assessment standards panel","userSelected":true}]},"subject":{"reference":"Patient/f06bb07a-3410-410d-a859-8bd57a79cf51"},"effectiveDateTime":"2026-02-23T10:00:00.000+00:00","valueCodeableConcept":{"coding":[{"system":"http://snomed.info/sct","code":"238108007","display":"Cachexia (finding)","userSelected":true}]}},"request":{"method":"PUT","url":"Observation/a20893c6-4d25-4d7e-8c26-58678e0a08ac"}},{"fullUrl":"https://madie.cms.gov/Procedure/d5f8ceca-35c2-424c-970b-16e0e5ebf320","resource":{"resourceType":"Procedure","id":"d5f8ceca-35c2-424c-970b-16e0e5ebf320","meta":{"profile":["http://hl7.org/fhir/us/qicore/StructureDefinition/qicore-procedure"]},"extension":[{"url":"http://hl7.org/fhir/us/qicore/StructureDefinition/qicore-recorded","valueDateTime":"2026-02-23T11:30:00.000Z"}],"status":"completed","code":{"coding":[{"system":"http://snomed.info/sct","code":"306354000","display":"Referral to hospital-based dietitian (procedure)"}],"text":"Referral to hospital-based dietitian (procedure)"},"subject":{"reference":"Patient/f06bb07a-3410-410d-a859-8bd57a79cf51"},"encounter":{"reference":"Encounter/NoscreRefAsseModDxCp2DENOMPass4"},"performedPeriod":{"start":"2026-02-23T11:30:00.000Z","end":"2026-02-25T08:15:00.000Z"}},"request":{"method":"PUT","url":"Procedure/d5f8ceca-35c2-424c-970b-16e0e5ebf320"}},{"fullUrl":"https://madie.cms.gov/Procedure/553af595-22b2-4211-8aa1-6ae177b25197","resource":{"resourceType":"Procedure","id":"553af595-22b2-4211-8aa1-6ae177b25197","meta":{"profile":["http://hl7.org/fhir/us/qicore/StructureDefinition/qicore-procedure"]},"extension":[{"url":"http://hl7.org/fhir/us/qicore/StructureDefinition/qicore-recorded","valueDateTime":"2026-02-23T11:30:00.000Z"}],"status":"completed","code":{"coding":[{"system":"http://snomed.info/sct","code":"410175003","display":"Dietary regime management (procedure)"}],"text":"Dietary regime management (procedure)"},"subject":{"reference":"Patient/f06bb07a-3410-410d-a859-8bd57a79cf51"},"encounter":{"reference":"Encounter/NoscreRefAsseModDxCp2DENOMPass4"},"performedPeriod":{"start":"2026-02-23T11:30:00.000Z","end":"2026-02-25T08:15:00.000Z"}},"request":{"method":"PUT","url":"Procedure/553af595-22b2-4211-8aa1-6ae177b25197"}},{"fullUrl":"https://madie.cms.gov/Coverage/18ab5c6e-ef42-4a90-a369-77bd670397f8","resource":{"resourceType":"Coverage","id":"18ab5c6e-ef42-4a90-a369-77bd670397f8","meta":{"profile":["http://hl7.org/fhir/us/qicore/StructureDefinition/qicore-coverage"]},"status":"active","type":{"coding":[{"system":"https://nahdo.org/sopt","version":"9.2","code":"11","display":"Medicare Managed Care (Includes Medicare Advantage Plans)"}]},"beneficiary":{"reference":"Patient/f06bb07a-3410-410d-a859-8bd57a79cf51"},"period":{"start":"2024-10-01T00:00:00+00:00"},"payor":[{"reference":"Organization/5224cb12-ed64-4d6d-ab28-40a64f0800f1"}]},"request":{"method":"PUT","url":"Coverage/18ab5c6e-ef42-4a90-a369-77bd670397f8"}},{"fullUrl":"https://madie.cms.gov/Organization/00a14602-ad3d-4fce-b621-bc1d3c35a52d","resource":{"resourceType":"Organization","id":"5224cb12-ed64-4d6d-ab28-40a64f0800f1","meta":{"profile":["http://hl7.org/fhir/us/qicore/StructureDefinition/qicore-organization"]},"identifier":[{"use":"temp","system":"urn:oid:2.16.840.1.113883.4.4","value":"21-3259825"}],"active":true,"type":[{"coding":[{"system":"http://terminology.hl7.org/CodeSystem/organization-type","code":"pay","display":"Payer"}]}],"name":"Blue Cross Blue Shield of Texas","telecom":[{"system":"phone","value":"(+1) 972-766-6900"}],"address":[{"use":"billing","type":"postal","line":["P.O. Box 660044"],"city":"Dallas","state":"TX","postalCode":"75266-0044","country":"USA"}]},"request":{"method":"PUT","url":"Organization/5224cb12-ed64-4d6d-ab28-40a64f0800f1"}},{"fullUrl":"https://madie.cms.gov/MeasureReport/4a1cf7a0-19f2-4f2f-848b-5eba4fdd8d61","resource":{"resourceType":"MeasureReport","id":"4a1cf7a0-19f2-4f2f-848b-5eba4fdd8d61","meta":{"profile":["http://hl7.org/fhir/us/cqfmeasures/StructureDefinition/test-case-cqfm"]},"contained":[{"resourceType":"Parameters","id":"cc7707db-d3b7-4205-acd8-bb4931edc8c5-parameters","parameter":[{"name":"subject","valueString":"f06bb07a-3410-410d-a859-8bd57a79cf51"}]}],"extension":[{"url":"http://hl7.org/fhir/us/cqfmeasures/StructureDefinition/cqfm-inputParameters","valueReference":{"reference":"#cc7707db-d3b7-4205-acd8-bb4931edc8c5-parameters"}},{"url":"http://hl7.org/fhir/us/cqfmeasures/StructureDefinition/cqfm-testCaseDescription","valueMarkdown":"Not screened, Referral, Assessed, Severely Malnourished, Diagnosis, Nutrition Care Plan"}],"modifierExtension":[{"url":"http://hl7.org/fhir/us/cqfmeasures/StructureDefinition/cqfm-isTestCase","valueBoolean":true}],"status":"complete","type":"individual","measure":"https://madie.cms.gov/Measure/CMS986FHIRMalnutritionScore","period":{"start":"2026-01-01","end":"2026-12-31"},"group":[{"population":[{"code":{"coding":[{"system":"http://terminology.hl7.org/CodeSystem/measure-population","code":"initial-population","display":"Initial Population"}]},"count":1},{"code":{"coding":[{"system":"http://terminology.hl7.org/CodeSystem/measure-population","code":"measure-population","display":"Measure Population"}]},"count":1},{"code":{"coding":[{"system":"http://terminology.hl7.org/CodeSystem/measure-population","code":"measure-population-exclusion","display":"Measure Population Exclusion"}]},"count":0},{"code":{"coding":[{"system":"http://terminology.hl7.org/CodeSystem/measure-population","code":"measure-population-observation","display":"Measure Population Observation"}]},"count":1}]},{"population":[{"code":{"coding":[{"system":"http://terminology.hl7.org/CodeSystem/measure-population","code":"initial-population","display":"Initial Population"}]},"count":1},{"code":{"coding":[{"system":"http://terminology.hl7.org/CodeSystem/measure-population","code":"measure-population","display":"Measure Population"}]},"count":1},{"code":{"coding":[{"system":"http://terminology.hl7.org/CodeSystem/measure-population","code":"measure-population-exclusion","display":"Measure Population Exclusion"}]},"count":0},{"code":{"coding":[{"system":"http://terminology.hl7.org/CodeSystem/measure-population","code":"measure-population-observation","display":"Measure Population Observation"}]},"count":1}]},{"population":[{"code":{"coding":[{"system":"http://terminology.hl7.org/CodeSystem/measure-population","code":"initial-population","display":"Initial Population"}]},"count":1},{"code":{"coding":[{"system":"http://terminology.hl7.org/CodeSystem/measure-population","code":"measure-population","display":"Measure Population"}]},"count":1},{"code":{"coding":[{"system":"http://terminology.hl7.org/CodeSystem/measure-population","code":"measure-population-exclusion","display":"Measure Population Exclusion"}]},"count":0},{"code":{"coding":[{"system":"http://terminology.hl7.org/CodeSystem/measure-population","code":"measure-population-observation","display":"Measure Population Observation"}]},"count":1}]},{"population":[{"code":{"coding":[{"system":"http://terminology.hl7.org/CodeSystem/measure-population","code":"initial-population","display":"Initial Population"}]},"count":1},{"code":{"coding":[{"system":"http://terminology.hl7.org/CodeSystem/measure-population","code":"measure-population","display":"Measure Population"}]},"count":1},{"code":{"coding":[{"system":"http://terminology.hl7.org/CodeSystem/measure-population","code":"measure-population-exclusion","display":"Measure Population Exclusion"}]},"count":0},{"code":{"coding":[{"system":"http://terminology.hl7.org/CodeSystem/measure-population","code":"measure-population-observation","display":"Measure Population Observation"}]},"count":1}]},{"population":[{"code":{"coding":[{"system":"http://terminology.hl7.org/CodeSystem/measure-population","code":"initial-population","display":"Initial Population"}]},"count":1},{"code":{"coding":[{"system":"http://terminology.hl7.org/CodeSystem/measure-population","code":"measure-population","display":"Measure Population"}]},"count":1},{"code":{"coding":[{"system":"http://terminology.hl7.org/CodeSystem/measure-population","code":"measure-population-exclusion","display":"Measure Population Exclusion"}]},"count":0},{"code":{"coding":[{"system":"http://terminology.hl7.org/CodeSystem/measure-population","code":"measure-population-observation","display":"Measure Population Observation"}]},"count":4}]},{"population":[{"code":{"coding":[{"system":"http://terminology.hl7.org/CodeSystem/measure-population","code":"initial-population","display":"Initial Population"}]},"count":1},{"code":{"coding":[{"system":"http://terminology.hl7.org/CodeSystem/measure-population","code":"measure-population","display":"Measure Population"}]},"count":1},{"code":{"coding":[{"system":"http://terminology.hl7.org/CodeSystem/measure-population","code":"measure-population-exclusion","display":"Measure Population Exclusion"}]},"count":0},{"code":{"coding":[{"system":"http://terminology.hl7.org/CodeSystem/measure-population","code":"measure-population-observation","display":"Measure Population Observation"}]},"count":100}]}]},"request":{"method":"PUT","url":"MeasureReport/4a1cf7a0-19f2-4f2f-848b-5eba4fdd8d61"}}]}