{"resourceType":"Bundle","id":"tests-70591696-5925-43a0-ba94-6f9af6613d9d-bundle","type":"transaction","entry":[{"fullUrl":"https://madie.cms.gov/Patient/70591696-5925-43a0-ba94-6f9af6613d9d","resource":{"resourceType":"Patient","id":"70591696-5925-43a0-ba94-6f9af6613d9d","meta":{"profile":["http://hl7.org/fhir/us/qicore/StructureDefinition/qicore-patient"]},"text":{"status":"generated","div":"<div xmlns=\"http://www.w3.org/1999/xhtml\"><div class=\"hapiHeaderText\">ScreNotatriNorefAsseModDxCp2, , <b> </b></div><table class=\"hapiPropertyTable\"><tbody><tr><td>Identifier</td><td>ScreNotatriNorefAsseModDxCp2</td></tr><tr><td>Date of birth</td><td><span>14 May 1950</span></td></tr></tbody></table></div>"},"extension":[{"url":"http://hl7.org/fhir/us/core/StructureDefinition/us-core-race","extension":[{"url":"ombCategory","valueCoding":{"system":"urn:oid:2.16.840.1.113883.6.238","code":"1002-5","display":"American Indian or Alaska Native","userSelected":true}},{"url":"text","valueString":"American Indian or Alaska Native"}]},{"url":"http://hl7.org/fhir/us/core/StructureDefinition/us-core-ethnicity","extension":[{"url":"ombCategory","valueCoding":{"system":"urn:oid:2.16.840.1.113883.6.238","code":"2135-2","display":"Hispanic or Latino","userSelected":true}},{"url":"text","valueString":"Hispanic or Latino"}]}],"identifier":[{"type":{"coding":[{"system":"http://terminology.hl7.org/CodeSystem/v2-0203","code":"MR"}]},"system":"https://madie.cms.gov/","value":"ScreNotatriNorefAsseModDxCp2"}],"active":true,"name":[{"use":"usual","text":"ScreNotatriNorefAsseModDxCp2","family":"OCCURPass1","given":["ScreNotatriNorefAsseModDxCp2DENOMPass1"]}],"gender":"male","birthDate":"1956-01-01","address":[{"text":"ScreNotatriNorefAsseModDxCp2, Screened Not at risk Assessed Severely Malnourished Diagnosed Care Plan, ID=ScreNotatriNorefAsseModDxCp2, DOB: 14 May 1950"}]},"request":{"method":"PUT","url":"Patient/70591696-5925-43a0-ba94-6f9af6613d9d"}},{"fullUrl":"https://madie.cms.gov/Encounter/8c8b1503-914b-496a-95be-dcdbd9a2c932","resource":{"resourceType":"Encounter","id":"8c8b1503-914b-496a-95be-dcdbd9a2c932","meta":{"profile":["http://hl7.org/fhir/us/qicore/StructureDefinition/qicore-encounter"]},"status":"finished","class":{"system":"http://terminology.hl7.org/CodeSystem/v3-ActCode","code":"IMP","display":"inpatient encounter"},"type":[{"coding":[{"system":"http://snomed.info/sct","code":"183452005"}]}],"subject":{"reference":"Patient/70591696-5925-43a0-ba94-6f9af6613d9d"},"period":{"start":"2026-08-24T08:00:00.000Z","end":"2026-08-29T08:15:00.000Z"}},"request":{"method":"PUT","url":"Encounter/8c8b1503-914b-496a-95be-dcdbd9a2c932"}},{"fullUrl":"https://madie.cms.gov/Condition/843051f3-c063-4b63-be6d-074c215f2a97","resource":{"resourceType":"Condition","id":"843051f3-c063-4b63-be6d-074c215f2a97","meta":{"profile":["http://hl7.org/fhir/us/qicore/StructureDefinition/qicore-condition"]},"clinicalStatus":{"coding":[{"system":"http://terminology.hl7.org/CodeSystem/condition-clinical","code":"active","display":"Active","userSelected":true}]},"verificationStatus":{"coding":[{"system":"http://terminology.hl7.org/CodeSystem/condition-ver-status","code":"confirmed","display":"Confirmed","userSelected":true}]},"category":[{"coding":[{"system":"http://terminology.hl7.org/CodeSystem/condition-category","code":"encounter-diagnosis","display":"Encounter Diagnosis","userSelected":true}]}],"code":{"coding":[{"system":"http://snomed.info/sct","code":"238111008","display":"Deficiency of micronutrients (disorder)","userSelected":true}]},"subject":{"reference":"Patient/70591696-5925-43a0-ba94-6f9af6613d9d"},"onsetPeriod":{"start":"2026-08-24T08:00:00.000+00:00"},"recordedDate":"2026-08-24T11:00:00.000+00:00"},"request":{"method":"PUT","url":"Condition/843051f3-c063-4b63-be6d-074c215f2a97"}},{"fullUrl":"https://madie.cms.gov/Observation/cb9f66c2-3484-4d44-8319-d67bda76ef77","resource":{"resourceType":"Observation","id":"cb9f66c2-3484-4d44-8319-d67bda76ef77","meta":{"profile":["http://hl7.org/fhir/us/qicore/StructureDefinition/qicore-observation"]},"status":"final","category":[{"coding":[{"system":"http://terminology.hl7.org/CodeSystem/observation-category","code":"survey","display":"Survey"}]}],"code":{"coding":[{"system":"http://loinc.org","code":"101807-6","display":"Malnutrition risk screen results indicator","userSelected":true}]},"subject":{"reference":"Patient/70591696-5925-43a0-ba94-6f9af6613d9d"},"effectiveDateTime":"2026-08-25T09:00:00.000+00:00","valueCodeableConcept":{"coding":[{"system":"http://loinc.org","code":"LA33699-2","display":"Not at risk for malnutrition","userSelected":true}]}},"request":{"method":"PUT","url":"Observation/cb9f66c2-3484-4d44-8319-d67bda76ef77"}},{"fullUrl":"https://madie.cms.gov/Observation/8b3e2299-fa0b-4e13-a237-4d984bd67780","resource":{"resourceType":"Observation","id":"8b3e2299-fa0b-4e13-a237-4d984bd67780","meta":{"profile":["http://hl7.org/fhir/us/qicore/StructureDefinition/qicore-observation"]},"status":"final","category":[{"coding":[{"system":"http://terminology.hl7.org/CodeSystem/observation-category","code":"survey","display":"Survey"}]}],"code":{"coding":[{"system":"http://loinc.org","code":"LA101819-1","display":"Nutrition assessment for malnutrition status","userSelected":true}]},"subject":{"reference":"Patient/70591696-5925-43a0-ba94-6f9af6613d9d"},"effectiveDateTime":"2026-08-25T10:00:00.000+00:00","valueCodeableConcept":{"coding":[{"system":"http://snomed.info/sct","code":"285588004","display":"deficiency of micronutrients (disorder)","userSelected":true}]}},"request":{"method":"PUT","url":"Observation/8b3e2299-fa0b-4e13-a237-4d984bd67780"}},{"fullUrl":"https://madie.cms.gov/Procedure/d4d05c0b-35ee-4a8f-a078-9289b4417bb3","resource":{"resourceType":"Procedure","id":"d4d05c0b-35ee-4a8f-a078-9289b4417bb3","meta":{"profile":["http://hl7.org/fhir/us/qicore/StructureDefinition/qicore-procedure"]},"extension":[{"url":"http://hl7.org/fhir/us/qicore/StructureDefinition/qicore-recorded","valueDateTime":"2026-08-25T11:30:00.000Z"}],"status":"completed","code":{"coding":[{"system":"http://snomed.info/sct","code":"12797420047","display":"Development of nutrition care plan (procedure)"}],"text":"Development of nutrition care plan (procedure)"},"subject":{"reference":"Patient/70591696-5925-43a0-ba94-6f9af6613d9d"},"encounter":{"reference":"Encounter/ScreNotatriNorefAsseModDxCp2DENOMPass1"},"performedPeriod":{"start":"2026-08-24T11:30:00.000Z","end":"2026-08-29T08:15:00.000Z"}},"request":{"method":"PUT","url":"Procedure/d4d05c0b-35ee-4a8f-a078-9289b4417bb3"}},{"fullUrl":"https://madie.cms.gov/Coverage/05dcb6cc-437c-495c-80b3-b8b36adecd87","resource":{"resourceType":"Coverage","id":"05dcb6cc-437c-495c-80b3-b8b36adecd87","meta":{"profile":["http://hl7.org/fhir/us/qicore/StructureDefinition/qicore-coverage"]},"status":"active","type":{"coding":[{"system":"https://nahdo.org/sopt","version":"9.2","code":"11","display":"Medicare Managed Care (Includes Medicare Advantage Plans)"}]},"beneficiary":{"reference":"Patient/70591696-5925-43a0-ba94-6f9af6613d9d"},"period":{"start":"2026-10-01T00:00:00+00:00"},"payor":[{"reference":"Organization/4d7da20f-8773-4347-8f6b-80adcdcee1f4"}]},"request":{"method":"PUT","url":"Coverage/05dcb6cc-437c-495c-80b3-b8b36adecd87"}},{"fullUrl":"https://madie.cms.gov/Organization/192f4d97-80f0-4571-8789-a4a5a6ccb3a8","resource":{"resourceType":"Organization","id":"4d7da20f-8773-4347-8f6b-80adcdcee1f4","meta":{"profile":["http://hl7.org/fhir/us/qicore/StructureDefinition/qicore-organization"]},"identifier":[{"use":"temp","system":"urn:oid:2.16.840.1.113883.4.4","value":"21-3259825"}],"active":true,"type":[{"coding":[{"system":"http://terminology.hl7.org/CodeSystem/organization-type","code":"pay","display":"Payer"}]}],"name":"Blue Cross Blue Shield of Texas","telecom":[{"system":"phone","value":"(+1) 972-766-6900"}],"address":[{"use":"billing","type":"postal","line":["P.O. Box 660044"],"city":"Dallas","state":"TX","postalCode":"75266-0044","country":"USA"}]},"request":{"method":"PUT","url":"Organization/4d7da20f-8773-4347-8f6b-80adcdcee1f4"}},{"fullUrl":"https://madie.cms.gov/MeasureReport/5b0c23cc-cbff-494a-8b09-c2e741bc5a67","resource":{"resourceType":"MeasureReport","id":"5b0c23cc-cbff-494a-8b09-c2e741bc5a67","meta":{"profile":["http://hl7.org/fhir/us/cqfmeasures/StructureDefinition/test-case-cqfm"]},"contained":[{"resourceType":"Parameters","id":"8446f4fb-5110-4184-8ec4-855d5b70ce9f-parameters","parameter":[{"name":"subject","valueString":"70591696-5925-43a0-ba94-6f9af6613d9d"}]}],"extension":[{"url":"http://hl7.org/fhir/us/cqfmeasures/StructureDefinition/cqfm-inputParameters","valueReference":{"reference":"#8446f4fb-5110-4184-8ec4-855d5b70ce9f-parameters"}},{"url":"http://hl7.org/fhir/us/cqfmeasures/StructureDefinition/cqfm-testCaseDescription","valueMarkdown":"Screened, Not at Risk, No Referral, Assessed, Moderate Malnutrition, Diagnosis, Nutrition Care Plan"}],"modifierExtension":[{"url":"http://hl7.org/fhir/us/cqfmeasures/StructureDefinition/cqfm-isTestCase","valueBoolean":true}],"status":"complete","type":"individual","measure":"https://madie.cms.gov/Measure/CMS986FHIRMalnutritionScore","period":{"start":"2026-01-01","end":"2026-12-31"},"group":[{"population":[{"code":{"coding":[{"system":"http://terminology.hl7.org/CodeSystem/measure-population","code":"initial-population","display":"Initial Population"}]},"count":1},{"code":{"coding":[{"system":"http://terminology.hl7.org/CodeSystem/measure-population","code":"measure-population","display":"Measure Population"}]},"count":1},{"code":{"coding":[{"system":"http://terminology.hl7.org/CodeSystem/measure-population","code":"measure-population-exclusion","display":"Measure Population Exclusion"}]},"count":0},{"code":{"coding":[{"system":"http://terminology.hl7.org/CodeSystem/measure-population","code":"measure-population-observation","display":"Measure Population Observation"}]},"count":1}]},{"population":[{"code":{"coding":[{"system":"http://terminology.hl7.org/CodeSystem/measure-population","code":"initial-population","display":"Initial Population"}]},"count":1},{"code":{"coding":[{"system":"http://terminology.hl7.org/CodeSystem/measure-population","code":"measure-population","display":"Measure Population"}]},"count":1},{"code":{"coding":[{"system":"http://terminology.hl7.org/CodeSystem/measure-population","code":"measure-population-exclusion","display":"Measure Population Exclusion"}]},"count":0},{"code":{"coding":[{"system":"http://terminology.hl7.org/CodeSystem/measure-population","code":"measure-population-observation","display":"Measure Population Observation"}]},"count":0}]},{"population":[{"code":{"coding":[{"system":"http://terminology.hl7.org/CodeSystem/measure-population","code":"initial-population","display":"Initial Population"}]},"count":1},{"code":{"coding":[{"system":"http://terminology.hl7.org/CodeSystem/measure-population","code":"measure-population","display":"Measure Population"}]},"count":1},{"code":{"coding":[{"system":"http://terminology.hl7.org/CodeSystem/measure-population","code":"measure-population-exclusion","display":"Measure Population Exclusion"}]},"count":0},{"code":{"coding":[{"system":"http://terminology.hl7.org/CodeSystem/measure-population","code":"measure-population-observation","display":"Measure Population Observation"}]},"count":0}]},{"population":[{"code":{"coding":[{"system":"http://terminology.hl7.org/CodeSystem/measure-population","code":"initial-population","display":"Initial Population"}]},"count":1},{"code":{"coding":[{"system":"http://terminology.hl7.org/CodeSystem/measure-population","code":"measure-population","display":"Measure Population"}]},"count":1},{"code":{"coding":[{"system":"http://terminology.hl7.org/CodeSystem/measure-population","code":"measure-population-exclusion","display":"Measure Population Exclusion"}]},"count":0},{"code":{"coding":[{"system":"http://terminology.hl7.org/CodeSystem/measure-population","code":"measure-population-observation","display":"Measure Population Observation"}]},"count":0}]},{"population":[{"code":{"coding":[{"system":"http://terminology.hl7.org/CodeSystem/measure-population","code":"initial-population","display":"Initial Population"}]},"count":1},{"code":{"coding":[{"system":"http://terminology.hl7.org/CodeSystem/measure-population","code":"measure-population","display":"Measure Population"}]},"count":1},{"code":{"coding":[{"system":"http://terminology.hl7.org/CodeSystem/measure-population","code":"measure-population-exclusion","display":"Measure Population Exclusion"}]},"count":0},{"code":{"coding":[{"system":"http://terminology.hl7.org/CodeSystem/measure-population","code":"measure-population-observation","display":"Measure Population Observation"}]},"count":1}]},{"population":[{"code":{"coding":[{"system":"http://terminology.hl7.org/CodeSystem/measure-population","code":"initial-population","display":"Initial Population"}]},"count":1},{"code":{"coding":[{"system":"http://terminology.hl7.org/CodeSystem/measure-population","code":"measure-population","display":"Measure Population"}]},"count":1},{"code":{"coding":[{"system":"http://terminology.hl7.org/CodeSystem/measure-population","code":"measure-population-exclusion","display":"Measure Population Exclusion"}]},"count":0},{"code":{"coding":[{"system":"http://terminology.hl7.org/CodeSystem/measure-population","code":"measure-population-observation","display":"Measure Population Observation"}]},"count":100}]}]},"request":{"method":"PUT","url":"MeasureReport/5b0c23cc-cbff-494a-8b09-c2e741bc5a67"}}]}