{"resourceType":"Bundle","id":"tests-a9aa059a-44ff-4092-a717-62ffba4ba9f3-bundle","type":"transaction","entry":[{"fullUrl":"https://madie.cms.gov/Patient/a9aa059a-44ff-4092-a717-62ffba4ba9f3","resource":{"resourceType":"Patient","id":"a9aa059a-44ff-4092-a717-62ffba4ba9f3","meta":{"profile":["http://hl7.org/fhir/us/qicore/StructureDefinition/qicore-patient"]},"text":{"status":"generated","div":"<div xmlns=\"http://www.w3.org/1999/xhtml\"><div class=\"hapiHeaderText\">ScreAtriRefNoasseNodxNocp2, , <b> </b></div><table class=\"hapiPropertyTable\"><tbody><tr><td>Identifier</td><td>ScreAtriRefNoasseNodxNocp2</td></tr><tr><td>Date of birth</td><td><span>14 May 1950</span></td></tr></tbody></table></div>"},"extension":[{"url":"http://hl7.org/fhir/us/core/StructureDefinition/us-core-race","extension":[{"url":"ombCategory","valueCoding":{"system":"urn:oid:2.16.840.1.113883.6.238","code":"2076-8","display":"Native Hawaiian or Other Pacific Islander","userSelected":true}},{"url":"text","valueString":"Native Hawaiian or Other Pacific Islander"}]},{"url":"http://hl7.org/fhir/us/core/StructureDefinition/us-core-ethnicity","extension":[{"url":"ombCategory","valueCoding":{"system":"urn:oid:2.16.840.1.113883.6.238","code":"2186-5","display":"Not Hispanic or Latino","userSelected":true}},{"url":"text","valueString":"Not Hispanic or Latino"}]}],"identifier":[{"type":{"coding":[{"system":"http://terminology.hl7.org/CodeSystem/v2-0203","code":"MR"}]},"system":"https://madie.cms.gov/","value":"ScreAtriRefNoasseNodxNocp2"}],"active":true,"name":[{"use":"usual","text":"ScreAtriRefNoasseNodxNocp2","family":"OCCURPass2","given":["ScreAtriRefNoasseNodxNocp2DENOMPass2"]}],"gender":"male","birthDate":"1953-01-01","address":[{"text":"ScreAtriRefNoasseNodxNocp2, Screened Not at risk Assessed Severely Malnourished Diagnosed Care Plan, ID=ScreAtriRefNoasseNodxNocp2, DOB: 14 May 1950"}]},"request":{"method":"PUT","url":"Patient/a9aa059a-44ff-4092-a717-62ffba4ba9f3"}},{"fullUrl":"https://madie.cms.gov/Encounter/df53ad69-e017-4e70-915e-104b9477506d","resource":{"resourceType":"Encounter","id":"df53ad69-e017-4e70-915e-104b9477506d","meta":{"profile":["http://hl7.org/fhir/us/qicore/StructureDefinition/qicore-encounter"]},"status":"finished","class":{"system":"http://terminology.hl7.org/CodeSystem/v3-ActCode","code":"IMP","display":"inpatient encounter"},"type":[{"coding":[{"system":"http://snomed.info/sct","code":"32485007"}]}],"subject":{"reference":"Patient/a9aa059a-44ff-4092-a717-62ffba4ba9f3"},"period":{"start":"2026-07-01T08:00:00.000Z","end":"2026-07-11T08:15:00.000Z"}},"request":{"method":"PUT","url":"Encounter/df53ad69-e017-4e70-915e-104b9477506d"}},{"fullUrl":"https://madie.cms.gov/Observation/104af6f3-65e7-4844-8794-4eaa23689942","resource":{"resourceType":"Observation","id":"104af6f3-65e7-4844-8794-4eaa23689942","meta":{"profile":["http://hl7.org/fhir/us/qicore/StructureDefinition/qicore-observation"]},"status":"final","category":[{"coding":[{"system":"http://terminology.hl7.org/CodeSystem/observation-category","code":"survey","display":"Survey"}]}],"code":{"coding":[{"system":"http://loinc.org","code":"98968-1","display":"Initial screening NRS_2002","userSelected":true}]},"subject":{"reference":"Patient/a9aa059a-44ff-4092-a717-62ffba4ba9f3"},"effectiveDateTime":"2026-07-01T09:00:00.000+00:00","valueCodeableConcept":{"coding":[{"system":"http://snomed.info/sct","code":"704358009","display":"At risk of nutritional deficit (finding)","userSelected":true}]}},"request":{"method":"PUT","url":"Observation/104af6f3-65e7-4844-8794-4eaa23689942"}},{"fullUrl":"https://madie.cms.gov/Procedure/f416bb3f-2ec6-4c2a-9752-cabbd81c6b44","resource":{"resourceType":"Procedure","id":"f416bb3f-2ec6-4c2a-9752-cabbd81c6b44","meta":{"profile":["http://hl7.org/fhir/us/qicore/StructureDefinition/qicore-procedure"]},"extension":[{"url":"http://hl7.org/fhir/us/qicore/StructureDefinition/qicore-recorded","valueDateTime":"2025-02-01T11:30:00.000Z"}],"status":"completed","code":{"coding":[{"system":"http://snomed.info/sct","code":"306354000","display":"Referral to hospital-based dietitian (procedure)"}],"text":"Referral to hospital-based dietitian(procedure)"},"subject":{"reference":"Patient/a9aa059a-44ff-4092-a717-62ffba4ba9f3"},"encounter":{"reference":"Encounter/ScreAtriRefNoasseNodxNocp2DENOMPass2"},"performedPeriod":{"start":"2026-07-01T11:30:00.000Z","end":"2026-07-07T08:15:00.000Z"}},"request":{"method":"PUT","url":"Procedure/f416bb3f-2ec6-4c2a-9752-cabbd81c6b44"}},{"fullUrl":"https://madie.cms.gov/Procedure/0ab9f926-40d7-4411-b376-d96d150ec590","resource":{"resourceType":"Procedure","id":"0ab9f926-40d7-4411-b376-d96d150ec590","meta":{"profile":["http://hl7.org/fhir/us/qicore/StructureDefinition/qicore-procedure"]},"extension":[{"url":"http://hl7.org/fhir/us/qicore/StructureDefinition/qicore-recorded","valueDateTime":"2026-07-02T11:30:00.000Z"}],"status":"completed","code":{"coding":[{"system":"http://snomed.info/sct","code":"1279742004","display":"Feeding regime (regime/therapy)"}],"text":"Feeding regime (regime/therapy)"},"subject":{"reference":"Patient/a9aa059a-44ff-4092-a717-62ffba4ba9f3"},"encounter":{"reference":"Encounter/ScreAtriRefNoasseNodxNocp2DENOMPass2"},"performedPeriod":{"start":"2026-07-01T11:30:00.000Z","end":"2026-07-07T08:15:00.000Z"}},"request":{"method":"PUT","url":"Procedure/0ab9f926-40d7-4411-b376-d96d150ec590"}},{"fullUrl":"https://madie.cms.gov/Coverage/66115be3-0e79-48dc-8f13-b987bd1b15cb","resource":{"resourceType":"Coverage","id":"66115be3-0e79-48dc-8f13-b987bd1b15cb","meta":{"profile":["http://hl7.org/fhir/us/qicore/StructureDefinition/qicore-coverage"]},"status":"active","type":{"coding":[{"system":"https://nahdo.org/sopt","version":"9.2","code":"11","display":"Medicare Managed Care (Includes Medicare Advantage Plans)"}]},"beneficiary":{"reference":"Patient/a9aa059a-44ff-4092-a717-62ffba4ba9f3"},"period":{"start":"2024-10-01T00:00:00+00:00"},"payor":[{"reference":"Organization/4da248b0-6e59-49b7-b80e-338aa21d299f"}]},"request":{"method":"PUT","url":"Coverage/66115be3-0e79-48dc-8f13-b987bd1b15cb"}},{"fullUrl":"https://madie.cms.gov/Organization/f792bfc3-9e3a-487f-86c6-6e15e699bce2","resource":{"resourceType":"Organization","id":"4da248b0-6e59-49b7-b80e-338aa21d299f","meta":{"profile":["http://hl7.org/fhir/us/qicore/StructureDefinition/qicore-organization"]},"identifier":[{"use":"temp","system":"urn:oid:2.16.840.1.113883.4.4","value":"21-3259825"}],"active":true,"type":[{"coding":[{"system":"http://terminology.hl7.org/CodeSystem/organization-type","code":"pay","display":"Payer"}]}],"name":"Blue Cross Blue Shield of Texas","telecom":[{"system":"phone","value":"(+1) 972-766-6900"}],"address":[{"use":"billing","type":"postal","line":["P.O. Box 660044"],"city":"Dallas","state":"TX","postalCode":"75266-0044","country":"USA"}]},"request":{"method":"PUT","url":"Organization/4da248b0-6e59-49b7-b80e-338aa21d299f"}},{"fullUrl":"https://madie.cms.gov/MeasureReport/48ebb23c-3a36-4468-9c7d-9f21d9eb2707","resource":{"resourceType":"MeasureReport","id":"48ebb23c-3a36-4468-9c7d-9f21d9eb2707","meta":{"profile":["http://hl7.org/fhir/us/cqfmeasures/StructureDefinition/test-case-cqfm"]},"contained":[{"resourceType":"Parameters","id":"03860ec3-3481-4684-9fdf-4a56a8a65760-parameters","parameter":[{"name":"subject","valueString":"a9aa059a-44ff-4092-a717-62ffba4ba9f3"}]}],"extension":[{"url":"http://hl7.org/fhir/us/cqfmeasures/StructureDefinition/cqfm-inputParameters","valueReference":{"reference":"#03860ec3-3481-4684-9fdf-4a56a8a65760-parameters"}},{"url":"http://hl7.org/fhir/us/cqfmeasures/StructureDefinition/cqfm-testCaseDescription","valueMarkdown":"Screened, At Risk, Referral, Not Assessed, No Diagnosis, Nutrition Care Plan"}],"modifierExtension":[{"url":"http://hl7.org/fhir/us/cqfmeasures/StructureDefinition/cqfm-isTestCase","valueBoolean":true}],"status":"complete","type":"individual","measure":"https://madie.cms.gov/Measure/CMS986FHIRMalnutritionScore","period":{"start":"2026-01-01","end":"2026-12-31"},"group":[{"population":[{"code":{"coding":[{"system":"http://terminology.hl7.org/CodeSystem/measure-population","code":"initial-population","display":"Initial Population"}]},"count":1},{"code":{"coding":[{"system":"http://terminology.hl7.org/CodeSystem/measure-population","code":"measure-population","display":"Measure Population"}]},"count":1},{"code":{"coding":[{"system":"http://terminology.hl7.org/CodeSystem/measure-population","code":"measure-population-exclusion","display":"Measure Population Exclusion"}]},"count":0},{"code":{"coding":[{"system":"http://terminology.hl7.org/CodeSystem/measure-population","code":"measure-population-observation","display":"Measure Population Observation"}]},"count":1}]},{"population":[{"code":{"coding":[{"system":"http://terminology.hl7.org/CodeSystem/measure-population","code":"initial-population","display":"Initial Population"}]},"count":1},{"code":{"coding":[{"system":"http://terminology.hl7.org/CodeSystem/measure-population","code":"measure-population","display":"Measure Population"}]},"count":1},{"code":{"coding":[{"system":"http://terminology.hl7.org/CodeSystem/measure-population","code":"measure-population-exclusion","display":"Measure Population Exclusion"}]},"count":0},{"code":{"coding":[{"system":"http://terminology.hl7.org/CodeSystem/measure-population","code":"measure-population-observation","display":"Measure Population Observation"}]},"count":0}]},{"population":[{"code":{"coding":[{"system":"http://terminology.hl7.org/CodeSystem/measure-population","code":"initial-population","display":"Initial Population"}]},"count":1},{"code":{"coding":[{"system":"http://terminology.hl7.org/CodeSystem/measure-population","code":"measure-population","display":"Measure Population"}]},"count":1},{"code":{"coding":[{"system":"http://terminology.hl7.org/CodeSystem/measure-population","code":"measure-population-exclusion","display":"Measure Population Exclusion"}]},"count":0},{"code":{"coding":[{"system":"http://terminology.hl7.org/CodeSystem/measure-population","code":"measure-population-observation","display":"Measure Population Observation"}]},"count":0}]},{"population":[{"code":{"coding":[{"system":"http://terminology.hl7.org/CodeSystem/measure-population","code":"initial-population","display":"Initial Population"}]},"count":1},{"code":{"coding":[{"system":"http://terminology.hl7.org/CodeSystem/measure-population","code":"measure-population","display":"Measure Population"}]},"count":1},{"code":{"coding":[{"system":"http://terminology.hl7.org/CodeSystem/measure-population","code":"measure-population-exclusion","display":"Measure Population Exclusion"}]},"count":0},{"code":{"coding":[{"system":"http://terminology.hl7.org/CodeSystem/measure-population","code":"measure-population-observation","display":"Measure Population Observation"}]},"count":0}]},{"population":[{"code":{"coding":[{"system":"http://terminology.hl7.org/CodeSystem/measure-population","code":"initial-population","display":"Initial Population"}]},"count":1},{"code":{"coding":[{"system":"http://terminology.hl7.org/CodeSystem/measure-population","code":"measure-population","display":"Measure Population"}]},"count":1},{"code":{"coding":[{"system":"http://terminology.hl7.org/CodeSystem/measure-population","code":"measure-population-exclusion","display":"Measure Population Exclusion"}]},"count":0},{"code":{"coding":[{"system":"http://terminology.hl7.org/CodeSystem/measure-population","code":"measure-population-observation","display":"Measure Population Observation"}]},"count":1}]},{"population":[{"code":{"coding":[{"system":"http://terminology.hl7.org/CodeSystem/measure-population","code":"initial-population","display":"Initial Population"}]},"count":1},{"code":{"coding":[{"system":"http://terminology.hl7.org/CodeSystem/measure-population","code":"measure-population","display":"Measure Population"}]},"count":1},{"code":{"coding":[{"system":"http://terminology.hl7.org/CodeSystem/measure-population","code":"measure-population-exclusion","display":"Measure Population Exclusion"}]},"count":0},{"code":{"coding":[{"system":"http://terminology.hl7.org/CodeSystem/measure-population","code":"measure-population-observation","display":"Measure Population Observation"}]},"count":50}]}]},"request":{"method":"PUT","url":"MeasureReport/48ebb23c-3a36-4468-9c7d-9f21d9eb2707"}}]}