{"resourceType":"Bundle","id":"tests-3c815aab-4636-4cde-9677-7067261287b5-bundle","type":"transaction","entry":[{"fullUrl":"https://madie.cms.gov/Patient/3c815aab-4636-4cde-9677-7067261287b5","resource":{"resourceType":"Patient","id":"3c815aab-4636-4cde-9677-7067261287b5","meta":{"profile":["http://hl7.org/fhir/us/qicore/StructureDefinition/qicore-patient"]},"text":{"status":"generated","div":"<div xmlns=\"http://www.w3.org/1999/xhtml\"><div class=\"hapiHeaderText\">2Encountersat10050, , <b> </b></div><table class=\"hapiPropertyTable\"><tbody><tr><td>Identifier</td><td>2Encountersat10050</td></tr><tr><td>Date of birth</td><td><span>14 May 1950</span></td></tr></tbody></table></div>"},"extension":[{"url":"http://hl7.org/fhir/us/core/StructureDefinition/us-core-race","extension":[{"url":"ombCategory","valueCoding":{"system":"urn:oid:2.16.840.1.113883.6.238","code":"2106-3","display":"White","userSelected":true}},{"url":"text","valueString":"White"}]},{"url":"http://hl7.org/fhir/us/core/StructureDefinition/us-core-ethnicity","extension":[{"url":"ombCategory","valueCoding":{"system":"urn:oid:2.16.840.1.113883.6.238","code":"2186-5","display":"Not Hispanic or Latino","userSelected":true}},{"url":"text","valueString":"Not Hispanic or Latino"}]}],"identifier":[{"type":{"coding":[{"system":"http://terminology.hl7.org/CodeSystem/v2-0203","code":"MR"}]},"system":"https://madie.cms.gov/","value":"2Encountersat10050"}],"active":true,"name":[{"use":"usual","text":"2Encountersat10050","family":"OCCURPass44","given":["2Encountersat10050DENOMPass44"]}],"gender":"male","birthDate":"1951-01-01","address":[{"text":"2Encountersat10050, Screened Not at risk Assessed Severely Malnourished Diagnosed Care Plan, ID=2Encountersat10050, DOB: 14 May 1950"}]},"request":{"method":"PUT","url":"Patient/3c815aab-4636-4cde-9677-7067261287b5"}},{"fullUrl":"https://madie.cms.gov/Encounter/627211ef-c60b-4b2d-bb8d-bfdf6aa494a5","resource":{"resourceType":"Encounter","id":"627211ef-c60b-4b2d-bb8d-bfdf6aa494a5","meta":{"profile":["http://hl7.org/fhir/us/qicore/StructureDefinition/qicore-encounter"]},"status":"finished","class":{"system":"http://terminology.hl7.org/CodeSystem/v3-ActCode","code":"IMP","display":"inpatient encounter"},"type":[{"coding":[{"system":"http://snomed.info/sct","code":"8715000"}]}],"subject":{"reference":"Patient/3c815aab-4636-4cde-9677-7067261287b5"},"period":{"start":"2026-01-02T08:00:00.000Z","end":"2026-01-12T08:15:00.000Z"}},"request":{"method":"PUT","url":"Encounter/627211ef-c60b-4b2d-bb8d-bfdf6aa494a5"}},{"fullUrl":"https://madie.cms.gov/Condition/0615e97a-3183-47fe-a7af-2b8362c98c71","resource":{"resourceType":"Condition","id":"0615e97a-3183-47fe-a7af-2b8362c98c71","meta":{"profile":["http://hl7.org/fhir/us/qicore/StructureDefinition/qicore-condition"]},"clinicalStatus":{"coding":[{"system":"http://terminology.hl7.org/CodeSystem/condition-clinical","code":"active","display":"Active","userSelected":true}]},"verificationStatus":{"coding":[{"system":"http://terminology.hl7.org/CodeSystem/condition-ver-status","code":"confirmed","display":"Confirmed","userSelected":true}]},"category":[{"coding":[{"system":"http://terminology.hl7.org/CodeSystem/condition-category","code":"encounter-diagnosis","display":"Encounter Diagnosis","userSelected":true}]}],"code":{"coding":[{"system":"http://snomed.info/sct","code":"722960005","display":"Anorexia nervosa co-occurrent with significantly low body weight (disorder)","userSelected":true}]},"subject":{"reference":"Patient/3c815aab-4636-4cde-9677-7067261287b5"},"onsetPeriod":{"start":"2026-01-02T08:00:00.000+00:00"},"recordedDate":"2026-01-02T11:00:00.000+00:00"},"request":{"method":"PUT","url":"Condition/0615e97a-3183-47fe-a7af-2b8362c98c71"}},{"fullUrl":"https://madie.cms.gov/Observation/e3f77098-ca78-4590-9ac6-2571ea94d416","resource":{"resourceType":"Observation","id":"e3f77098-ca78-4590-9ac6-2571ea94d416","meta":{"profile":["http://hl7.org/fhir/us/qicore/StructureDefinition/qicore-observation"]},"status":"final","category":[{"coding":[{"system":"http://terminology.hl7.org/CodeSystem/observation-category","code":"survey","display":"Survey"}]}],"code":{"coding":[{"system":"http://loinc.org","code":"98972-3","display":"Final Screening NRS_2002","userSelected":true}]},"subject":{"reference":"Patient/3c815aab-4636-4cde-9677-7067261287b5"},"effectiveDateTime":"2026-01-02T09:00:00.000+00:00","valueCodeableConcept":{"coding":[{"system":"http://loinc.org","code":"LA27538-0","display":"at risk for malnutrition","userSelected":true}]}},"request":{"method":"PUT","url":"Observation/e3f77098-ca78-4590-9ac6-2571ea94d416"}},{"fullUrl":"https://madie.cms.gov/Observation/047530a0-f92e-43f8-be6e-dcd16fe2f206","resource":{"resourceType":"Observation","id":"047530a0-f92e-43f8-be6e-dcd16fe2f206","meta":{"profile":["http://hl7.org/fhir/us/qicore/StructureDefinition/qicore-observation"]},"status":"final","category":[{"coding":[{"system":"http://terminology.hl7.org/CodeSystem/observation-category","code":"survey","display":"Survey"}]}],"code":{"coding":[{"system":"http://loinc.org","code":"75303-8","display":"Nutrition assessment narrative","userSelected":true}]},"subject":{"reference":"Patient/3c815aab-4636-4cde-9677-7067261287b5"},"effectiveDateTime":"2026-01-02T10:00:00.000+00:00","valueCodeableConcept":{"coding":[{"system":"http://snomed.info/sct","code":"2492009","display":"Nutritional disorder (disorder)","userSelected":true}]}},"request":{"method":"PUT","url":"Observation/047530a0-f92e-43f8-be6e-dcd16fe2f206"}},{"fullUrl":"https://madie.cms.gov/Procedure/3efb5b13-96e1-41ae-88b2-32fba0ca3a8c","resource":{"resourceType":"Procedure","id":"3efb5b13-96e1-41ae-88b2-32fba0ca3a8c","meta":{"profile":["http://hl7.org/fhir/us/qicore/StructureDefinition/qicore-procedure"]},"extension":[{"url":"http://hl7.org/fhir/us/qicore/StructureDefinition/qicore-recorded","valueDateTime":"2026-01-02T11:30:00.000Z"}],"status":"completed","code":{"coding":[{"system":"http://snomed.info/sct","code":"386373004","display":"Nutrition therapy (regime/therapy)"}],"text":"Nutrition mtherapy (regime/therapy)"},"subject":{"reference":"Patient/3c815aab-4636-4cde-9677-7067261287b5"},"encounter":{"reference":"Encounter/2Encountersat10050DENOMPass44"},"performedPeriod":{"start":"2026-01-02T11:30:00.000Z","end":"2026-01-07T08:15:00.000Z"}},"request":{"method":"PUT","url":"Procedure/3efb5b13-96e1-41ae-88b2-32fba0ca3a8c"}},{"fullUrl":"https://madie.cms.gov/Coverage/6b291bb1-86a9-4fb5-93de-db6864301022","resource":{"resourceType":"Coverage","id":"6b291bb1-86a9-4fb5-93de-db6864301022","meta":{"profile":["http://hl7.org/fhir/us/qicore/StructureDefinition/qicore-coverage"]},"status":"active","type":{"coding":[{"system":"https://nahdo.org/sopt","version":"9.2","code":"11","display":"Medicare Managed Care (Includes Medicare Advantage Plans)"}]},"beneficiary":{"reference":"Patient/3c815aab-4636-4cde-9677-7067261287b5"},"period":{"start":"2026-10-01T00:00:00+00:00"},"payor":[{"reference":"Organization/890316dc-a4ad-43b4-ba6f-9fb9e6eca282"}]},"request":{"method":"PUT","url":"Coverage/6b291bb1-86a9-4fb5-93de-db6864301022"}},{"fullUrl":"https://madie.cms.gov/Encounter/655f9620-6f93-413e-b707-46cce5dd4325","resource":{"resourceType":"Encounter","id":"655f9620-6f93-413e-b707-46cce5dd4325","meta":{"profile":["http://hl7.org/fhir/us/qicore/StructureDefinition/qicore-encounter"]},"status":"finished","class":{"system":"http://terminology.hl7.org/CodeSystem/v3-ActCode","code":"IMP","display":"inpatient encounter"},"type":[{"coding":[{"system":"http://snomed.info/sct","code":"8715000"}]}],"subject":{"reference":"Patient/3c815aab-4636-4cde-9677-7067261287b5"},"period":{"start":"2026-02-01T08:00:00.000Z","end":"2026-02-10T08:15:00.000Z"}},"request":{"method":"PUT","url":"Encounter/655f9620-6f93-413e-b707-46cce5dd4325"}},{"fullUrl":"https://madie.cms.gov/Observation/72177853-a092-4f83-b9e6-23ee6836fd36","resource":{"resourceType":"Observation","id":"72177853-a092-4f83-b9e6-23ee6836fd36","meta":{"profile":["http://hl7.org/fhir/us/qicore/StructureDefinition/qicore-observation"]},"status":"final","category":[{"coding":[{"system":"http://terminology.hl7.org/CodeSystem/observation-category","code":"survey","display":"Survey"}]}],"code":{"coding":[{"system":"http://loinc.org","code":"98972-3","display":"Final screening NRS_2002","userSelected":true}]},"subject":{"reference":"Patient/3c815aab-4636-4cde-9677-7067261287b5"},"effectiveDateTime":"2026-02-01T10:00:00.000+00:00","valueCodeableConcept":{"coding":[{"system":"http://loinc.org","code":"LA27538-0","display":"At risk for malnutrition","userSelected":true}]}},"request":{"method":"PUT","url":"Observation/72177853-a092-4f83-b9e6-23ee6836fd36"}},{"fullUrl":"https://madie.cms.gov/Observation/389560dd-9fb4-4432-acee-5e9606a40fea","resource":{"resourceType":"Observation","id":"389560dd-9fb4-4432-acee-5e9606a40fea","meta":{"profile":["http://hl7.org/fhir/us/qicore/StructureDefinition/qicore-observation"]},"status":"final","category":[{"coding":[{"system":"http://terminology.hl7.org/CodeSystem/observation-category","code":"survey","display":"Survey"}]}],"code":{"coding":[{"system":"http://loinc.org","code":"75303-8","display":"Nutrition assessmetn narrative","userSelected":true}]},"subject":{"reference":"Patient/3c815aab-4636-4cde-9677-7067261287b5"},"effectiveDateTime":"2026-02-01T10:00:00.000+00:00","valueCodeableConcept":{"coding":[{"system":"http://snomed.info/sct","code":"2492009","display":"Nutritional disorder (disorder)","userSelected":true}]}},"request":{"method":"PUT","url":"Observation/389560dd-9fb4-4432-acee-5e9606a40fea"}},{"fullUrl":"https://madie.cms.gov/Coverage/3109b277-84f6-4cee-afc0-45a4c08c3b72","resource":{"resourceType":"Coverage","id":"3109b277-84f6-4cee-afc0-45a4c08c3b72","meta":{"profile":["http://hl7.org/fhir/us/qicore/StructureDefinition/qicore-coverage"]},"status":"active","type":{"coding":[{"system":"https://nahdo.org/sopt","version":"9.2","code":"11","display":"Medicare Managed Care (Includes Medicare Advantage Plans)"}]},"beneficiary":{"reference":"Patient/3c815aab-4636-4cde-9677-7067261287b5"},"period":{"start":"2026-10-01T00:00:00+00:00"},"payor":[{"reference":"Organization/890316dc-a4ad-43b4-ba6f-9fb9e6eca282"}]},"request":{"method":"PUT","url":"Coverage/3109b277-84f6-4cee-afc0-45a4c08c3b72"}},{"fullUrl":"https://madie.cms.gov/Organization/1e7ef7ac-f69e-435f-8a3d-2d85f0efe10a","resource":{"resourceType":"Organization","id":"890316dc-a4ad-43b4-ba6f-9fb9e6eca282","meta":{"profile":["http://hl7.org/fhir/us/qicore/StructureDefinition/qicore-organization"]},"identifier":[{"use":"temp","system":"urn:oid:2.16.840.1.113883.4.4","value":"21-3259825"}],"active":true,"type":[{"coding":[{"system":"http://terminology.hl7.org/CodeSystem/organization-type","code":"pay","display":"Payer"}]}],"name":"Blue Cross Blue Shield of Texas","telecom":[{"system":"phone","value":"(+1) 972-766-6900"}],"address":[{"use":"billing","type":"postal","line":["P.O. Box 660044"],"city":"Dallas","state":"TX","postalCode":"75266-0044","country":"USA"}]},"request":{"method":"PUT","url":"Organization/890316dc-a4ad-43b4-ba6f-9fb9e6eca282"}},{"fullUrl":"https://madie.cms.gov/MeasureReport/9b1c9b2d-b727-4954-9ef2-b2a3edfe5734","resource":{"resourceType":"MeasureReport","id":"9b1c9b2d-b727-4954-9ef2-b2a3edfe5734","meta":{"profile":["http://hl7.org/fhir/us/cqfmeasures/StructureDefinition/test-case-cqfm"]},"contained":[{"resourceType":"Parameters","id":"0a5b2f0a-6ff0-442f-a380-e27b8630c082-parameters","parameter":[{"name":"subject","valueString":"3c815aab-4636-4cde-9677-7067261287b5"}]}],"extension":[{"url":"http://hl7.org/fhir/us/cqfmeasures/StructureDefinition/cqfm-inputParameters","valueReference":{"reference":"#0a5b2f0a-6ff0-442f-a380-e27b8630c082-parameters"}},{"url":"http://hl7.org/fhir/us/cqfmeasures/StructureDefinition/cqfm-testCaseDescription","valueMarkdown":"1111 4 100 1100 4 75"}],"modifierExtension":[{"url":"http://hl7.org/fhir/us/cqfmeasures/StructureDefinition/cqfm-isTestCase","valueBoolean":true}],"status":"complete","type":"individual","measure":"https://madie.cms.gov/Measure/CMS986FHIRMalnutritionScore","period":{"start":"2026-01-01","end":"2026-12-31"},"group":[{"population":[{"code":{"coding":[{"system":"http://terminology.hl7.org/CodeSystem/measure-population","code":"initial-population","display":"Initial Population"}]},"count":2},{"code":{"coding":[{"system":"http://terminology.hl7.org/CodeSystem/measure-population","code":"measure-population","display":"Measure Population"}]},"count":2},{"code":{"coding":[{"system":"http://terminology.hl7.org/CodeSystem/measure-population","code":"measure-population-exclusion","display":"Measure Population Exclusion"}]},"count":0},{"code":{"coding":[{"system":"http://terminology.hl7.org/CodeSystem/measure-population","code":"measure-population-observation","display":"Measure Population Observation"}]},"count":1},{"code":{"coding":[{"system":"http://terminology.hl7.org/CodeSystem/measure-population","code":"measure-population-observation","display":"Measure Population Observation"}]},"count":1}]},{"population":[{"code":{"coding":[{"system":"http://terminology.hl7.org/CodeSystem/measure-population","code":"initial-population","display":"Initial Population"}]},"count":2},{"code":{"coding":[{"system":"http://terminology.hl7.org/CodeSystem/measure-population","code":"measure-population","display":"Measure Population"}]},"count":2},{"code":{"coding":[{"system":"http://terminology.hl7.org/CodeSystem/measure-population","code":"measure-population-exclusion","display":"Measure Population Exclusion"}]},"count":0},{"code":{"coding":[{"system":"http://terminology.hl7.org/CodeSystem/measure-population","code":"measure-population-observation","display":"Measure Population Observation"}]},"count":1},{"code":{"coding":[{"system":"http://terminology.hl7.org/CodeSystem/measure-population","code":"measure-population-observation","display":"Measure Population Observation"}]},"count":1}]},{"population":[{"code":{"coding":[{"system":"http://terminology.hl7.org/CodeSystem/measure-population","code":"initial-population","display":"Initial Population"}]},"count":2},{"code":{"coding":[{"system":"http://terminology.hl7.org/CodeSystem/measure-population","code":"measure-population","display":"Measure Population"}]},"count":2},{"code":{"coding":[{"system":"http://terminology.hl7.org/CodeSystem/measure-population","code":"measure-population-exclusion","display":"Measure Population Exclusion"}]},"count":0},{"code":{"coding":[{"system":"http://terminology.hl7.org/CodeSystem/measure-population","code":"measure-population-observation","display":"Measure Population Observation"}]},"count":1},{"code":{"coding":[{"system":"http://terminology.hl7.org/CodeSystem/measure-population","code":"measure-population-observation","display":"Measure Population Observation"}]},"count":1}]},{"population":[{"code":{"coding":[{"system":"http://terminology.hl7.org/CodeSystem/measure-population","code":"initial-population","display":"Initial Population"}]},"count":2},{"code":{"coding":[{"system":"http://terminology.hl7.org/CodeSystem/measure-population","code":"measure-population","display":"Measure Population"}]},"count":2},{"code":{"coding":[{"system":"http://terminology.hl7.org/CodeSystem/measure-population","code":"measure-population-exclusion","display":"Measure Population Exclusion"}]},"count":0},{"code":{"coding":[{"system":"http://terminology.hl7.org/CodeSystem/measure-population","code":"measure-population-observation","display":"Measure Population Observation"}]},"count":1},{"code":{"coding":[{"system":"http://terminology.hl7.org/CodeSystem/measure-population","code":"measure-population-observation","display":"Measure Population Observation"}]},"count":0}]},{"population":[{"code":{"coding":[{"system":"http://terminology.hl7.org/CodeSystem/measure-population","code":"initial-population","display":"Initial Population"}]},"count":2},{"code":{"coding":[{"system":"http://terminology.hl7.org/CodeSystem/measure-population","code":"measure-population","display":"Measure Population"}]},"count":2},{"code":{"coding":[{"system":"http://terminology.hl7.org/CodeSystem/measure-population","code":"measure-population-exclusion","display":"Measure Population Exclusion"}]},"count":0},{"code":{"coding":[{"system":"http://terminology.hl7.org/CodeSystem/measure-population","code":"measure-population-observation","display":"Measure Population Observation"}]},"count":4},{"code":{"coding":[{"system":"http://terminology.hl7.org/CodeSystem/measure-population","code":"measure-population-observation","display":"Measure Population Observation"}]},"count":3}]},{"population":[{"code":{"coding":[{"system":"http://terminology.hl7.org/CodeSystem/measure-population","code":"initial-population","display":"Initial Population"}]},"count":2},{"code":{"coding":[{"system":"http://terminology.hl7.org/CodeSystem/measure-population","code":"measure-population","display":"Measure Population"}]},"count":2},{"code":{"coding":[{"system":"http://terminology.hl7.org/CodeSystem/measure-population","code":"measure-population-exclusion","display":"Measure Population Exclusion"}]},"count":0},{"code":{"coding":[{"system":"http://terminology.hl7.org/CodeSystem/measure-population","code":"measure-population-observation","display":"Measure Population Observation"}]},"count":100},{"code":{"coding":[{"system":"http://terminology.hl7.org/CodeSystem/measure-population","code":"measure-population-observation","display":"Measure Population Observation"}]},"count":75}]}]},"request":{"method":"PUT","url":"MeasureReport/9b1c9b2d-b727-4954-9ef2-b2a3edfe5734"}}]}