{"resourceType":"Bundle","id":"tests-61c2c588-8a0f-44db-bfdb-e4ccc17641ed-bundle","type":"transaction","entry":[{"fullUrl":"https://madie.cms.gov/Patient/61c2c588-8a0f-44db-bfdb-e4ccc17641ed","resource":{"resourceType":"Patient","id":"61c2c588-8a0f-44db-bfdb-e4ccc17641ed","meta":{"profile":["http://hl7.org/fhir/us/qicore/StructureDefinition/qicore-patient"]},"text":{"status":"generated","div":"<div xmlns=\"http://www.w3.org/1999/xhtml\"><div class=\"hapiHeaderText\">2ScreAtriNotatriNorefAsseMdoDxNocp, , <b> </b></div><table class=\"hapiPropertyTable\"><tbody><tr><td>Identifier</td><td>2ScreAtriNotatriNorefAsseMdoDxNocp</td></tr><tr><td>Date of birth</td><td><span>14 May 1950</span></td></tr></tbody></table></div>"},"extension":[{"url":"http://hl7.org/fhir/us/core/StructureDefinition/us-core-race","extension":[{"url":"ombCategory","valueCoding":{"system":"urn:oid:2.16.840.1.113883.6.238","code":"2106-3","display":"White","userSelected":true}},{"url":"text","valueString":"White"}]},{"url":"http://hl7.org/fhir/us/core/StructureDefinition/us-core-ethnicity","extension":[{"url":"ombCategory","valueCoding":{"system":"urn:oid:2.16.840.1.113883.6.238","code":"2135-2","display":"Hispanic or Latino","userSelected":true}},{"url":"text","valueString":"Hispanic or Latino"}]}],"identifier":[{"type":{"coding":[{"system":"http://terminology.hl7.org/CodeSystem/v2-0203","code":"MR"}]},"system":"https://madie.cms.gov/","value":"2ScreAtriNotatriNorefAsseMdoDxNocp"}],"active":true,"name":[{"use":"usual","text":"2ScreAtriNotatriNorefAsseMdoDxNocp","family":"OCCURPass4","given":["2ScreAtriNotatriNorefAsseMdoDxNocpOCCURPass4"]}],"gender":"female","birthDate":"1954-06-24","address":[{"text":"2ScreAtriNotatriNorefAsseMdoDxNocp, Screened Not at risk Assessed Severely Malnourished Diagnosed Care Plan, ID=2ScreAtriNotatriNorefAsseMdoDxNocp, DOB: 14 May 1950"}]},"request":{"method":"PUT","url":"Patient/61c2c588-8a0f-44db-bfdb-e4ccc17641ed"}},{"fullUrl":"https://madie.cms.gov/Encounter/153f2cfd-983c-439f-a929-cc9e283584d2","resource":{"resourceType":"Encounter","id":"153f2cfd-983c-439f-a929-cc9e283584d2","meta":{"profile":["http://hl7.org/fhir/us/qicore/StructureDefinition/qicore-encounter"]},"status":"finished","class":{"system":"http://terminology.hl7.org/CodeSystem/v3-ActCode","code":"IMP","display":"inpatient encounter"},"type":[{"coding":[{"system":"http://snomed.info/sct","code":"32485007"}]}],"subject":{"reference":"Patient/61c2c588-8a0f-44db-bfdb-e4ccc17641ed"},"period":{"start":"2026-03-01T08:00:00.000Z","end":"2026-03-20T08:15:00.000Z"}},"request":{"method":"PUT","url":"Encounter/153f2cfd-983c-439f-a929-cc9e283584d2"}},{"fullUrl":"https://madie.cms.gov/Condition/e8addca0-c7c5-49f6-9311-271c5ea43661","resource":{"resourceType":"Condition","id":"e8addca0-c7c5-49f6-9311-271c5ea43661","meta":{"profile":["http://hl7.org/fhir/us/qicore/StructureDefinition/qicore-condition"]},"clinicalStatus":{"coding":[{"system":"http://terminology.hl7.org/CodeSystem/condition-clinical","code":"active","display":"Active","userSelected":true}]},"verificationStatus":{"coding":[{"system":"http://terminology.hl7.org/CodeSystem/condition-ver-status","code":"confirmed","display":"Confirmed","userSelected":true}]},"category":[{"coding":[{"system":"http://terminology.hl7.org/CodeSystem/condition-category","code":"encounter-diagnosis","display":"Encounter Diagnosis","userSelected":true}]}],"code":{"coding":[{"system":"http://hl7.org/fhir/sid/icd-10-cm","code":"E63.9","display":"Nutritional deficiency, unspecified","userSelected":true}]},"subject":{"reference":"Patient/61c2c588-8a0f-44db-bfdb-e4ccc17641ed"},"onsetPeriod":{"start":"2026-03-01T08:00:00.000+00:00"},"recordedDate":"2026-03-01T11:00:00.000+00:00"},"request":{"method":"PUT","url":"Condition/e8addca0-c7c5-49f6-9311-271c5ea43661"}},{"fullUrl":"https://madie.cms.gov/Observation/a370471d-c44f-476b-8acf-a4e208ac096f","resource":{"resourceType":"Observation","id":"a370471d-c44f-476b-8acf-a4e208ac096f","meta":{"profile":["http://hl7.org/fhir/us/qicore/StructureDefinition/qicore-observation"]},"status":"final","category":[{"coding":[{"system":"http://terminology.hl7.org/CodeSystem/observation-category","code":"survey","display":"Survey"}]}],"code":{"coding":[{"system":"http://loinc.org","code":"98972-3","display":"Nutrition Risk Screening 2002 panel","userSelected":true}]},"subject":{"reference":"Patient/61c2c588-8a0f-44db-bfdb-e4ccc17641ed"},"effectiveDateTime":"2026-03-01T09:00:00.000+00:00","valueCodeableConcept":{"coding":[{"system":"http://loinc.org","code":"LA27538-0","display":"At risk for malnutrition","userSelected":true}]}},"request":{"method":"PUT","url":"Observation/a370471d-c44f-476b-8acf-a4e208ac096f"}},{"fullUrl":"https://madie.cms.gov/Observation/60ba85d4-b10c-4440-9ac7-dbc8f3d25bd7","resource":{"resourceType":"Observation","id":"60ba85d4-b10c-4440-9ac7-dbc8f3d25bd7","meta":{"profile":["http://hl7.org/fhir/us/qicore/StructureDefinition/qicore-observation"]},"status":"final","category":[{"coding":[{"system":"http://terminology.hl7.org/CodeSystem/observation-category","code":"survey","display":"Survey"}]}],"code":{"coding":[{"system":"http://loinc.org","code":"98972-3","display":"Nutrition Risk Screening 2002 panel","userSelected":true}]},"subject":{"reference":"Patient/61c2c588-8a0f-44db-bfdb-e4ccc17641ed"},"effectiveDateTime":"2026-03-01T09:00:00.000+00:00","valueCodeableConcept":{"coding":[{"system":"http://loinc.org","code":"LA33699-2","display":"Not at risk for malnutrition","userSelected":true}]}},"request":{"method":"PUT","url":"Observation/60ba85d4-b10c-4440-9ac7-dbc8f3d25bd7"}},{"fullUrl":"https://madie.cms.gov/Observation/8ba71cd0-5ca4-4539-862a-e1f40a3198e1","resource":{"resourceType":"Observation","id":"8ba71cd0-5ca4-4539-862a-e1f40a3198e1","meta":{"profile":["http://hl7.org/fhir/us/qicore/StructureDefinition/qicore-observation"]},"status":"final","category":[{"coding":[{"system":"http://terminology.hl7.org/CodeSystem/observation-category","code":"survey","display":"Survey"}]}],"code":{"coding":[{"system":"http://loinc.org","code":"75285-7","display":"Comparative nutrition assessment standards panel","userSelected":true}]},"subject":{"reference":"Patient/61c2c588-8a0f-44db-bfdb-e4ccc17641ed"},"effectiveDateTime":"2026-03-01T10:00:00.000+00:00","valueCodeableConcept":{"coding":[{"system":"http://snomed.info/sct","code":"102635008","display":"Acute nutritional deficiency (finding)","userSelected":true}]}},"request":{"method":"PUT","url":"Observation/8ba71cd0-5ca4-4539-862a-e1f40a3198e1"}},{"fullUrl":"https://madie.cms.gov/Coverage/f0eb2647-9802-4826-874a-3f62f02791f8","resource":{"resourceType":"Coverage","id":"f0eb2647-9802-4826-874a-3f62f02791f8","meta":{"profile":["http://hl7.org/fhir/us/qicore/StructureDefinition/qicore-coverage"]},"status":"active","type":{"coding":[{"system":"https://nahdo.org/sopt","version":"9.2","code":"11","display":"Medicare Managed Care (Includes Medicare Advantage Plans)"}]},"beneficiary":{"reference":"Patient/61c2c588-8a0f-44db-bfdb-e4ccc17641ed"},"period":{"start":"2025-10-01T00:00:00+00:00"},"payor":[{"reference":"Organization/806b0255-13cb-4f2b-9412-571554dd2169"}]},"request":{"method":"PUT","url":"Coverage/f0eb2647-9802-4826-874a-3f62f02791f8"}},{"fullUrl":"https://madie.cms.gov/Organization/7bd3dec8-f758-4c2f-ac9e-ca793f087bba","resource":{"resourceType":"Organization","id":"806b0255-13cb-4f2b-9412-571554dd2169","meta":{"profile":["http://hl7.org/fhir/us/qicore/StructureDefinition/qicore-organization"]},"identifier":[{"use":"temp","system":"urn:oid:2.16.840.1.113883.4.4","value":"21-3259825"}],"active":true,"type":[{"coding":[{"system":"http://terminology.hl7.org/CodeSystem/organization-type","code":"pay","display":"Payer"}]}],"name":"Blue Cross Blue Shield of Texas","telecom":[{"system":"phone","value":"(+1) 972-766-6900"}],"address":[{"use":"billing","type":"postal","line":["P.O. Box 660044"],"city":"Dallas","state":"TX","postalCode":"75266-0044","country":"USA"}]},"request":{"method":"PUT","url":"Organization/806b0255-13cb-4f2b-9412-571554dd2169"}},{"fullUrl":"https://madie.cms.gov/MeasureReport/ea13d4fb-26bb-4dbc-a7a9-f8c87d4cf612","resource":{"resourceType":"MeasureReport","id":"ea13d4fb-26bb-4dbc-a7a9-f8c87d4cf612","meta":{"profile":["http://hl7.org/fhir/us/cqfmeasures/StructureDefinition/test-case-cqfm"]},"contained":[{"resourceType":"Parameters","id":"50cc422b-c4c8-4388-9c22-4123021d9c58-parameters","parameter":[{"name":"subject","valueString":"61c2c588-8a0f-44db-bfdb-e4ccc17641ed"}]}],"extension":[{"url":"http://hl7.org/fhir/us/cqfmeasures/StructureDefinition/cqfm-inputParameters","valueReference":{"reference":"#50cc422b-c4c8-4388-9c22-4123021d9c58-parameters"}},{"url":"http://hl7.org/fhir/us/cqfmeasures/StructureDefinition/cqfm-testCaseDescription","valueMarkdown":"Screened, At Risk, Not At Risk, No Referral, Assessed, Severe Malnutrition, Diagnosis, No Nutrition Care Plan"}],"modifierExtension":[{"url":"http://hl7.org/fhir/us/cqfmeasures/StructureDefinition/cqfm-isTestCase","valueBoolean":true}],"status":"complete","type":"individual","measure":"https://madie.cms.gov/Measure/CMS986FHIRMalnutritionScore","period":{"start":"2026-01-01","end":"2026-12-31"},"group":[{"population":[{"code":{"coding":[{"system":"http://terminology.hl7.org/CodeSystem/measure-population","code":"initial-population","display":"Initial Population"}]},"count":1},{"code":{"coding":[{"system":"http://terminology.hl7.org/CodeSystem/measure-population","code":"measure-population","display":"Measure Population"}]},"count":1},{"code":{"coding":[{"system":"http://terminology.hl7.org/CodeSystem/measure-population","code":"measure-population-exclusion","display":"Measure Population Exclusion"}]},"count":0},{"code":{"coding":[{"system":"http://terminology.hl7.org/CodeSystem/measure-population","code":"measure-population-observation","display":"Measure Population Observation"}]},"count":1}]},{"population":[{"code":{"coding":[{"system":"http://terminology.hl7.org/CodeSystem/measure-population","code":"initial-population","display":"Initial Population"}]},"count":1},{"code":{"coding":[{"system":"http://terminology.hl7.org/CodeSystem/measure-population","code":"measure-population","display":"Measure Population"}]},"count":1},{"code":{"coding":[{"system":"http://terminology.hl7.org/CodeSystem/measure-population","code":"measure-population-exclusion","display":"Measure Population Exclusion"}]},"count":0},{"code":{"coding":[{"system":"http://terminology.hl7.org/CodeSystem/measure-population","code":"measure-population-observation","display":"Measure Population Observation"}]},"count":0}]},{"population":[{"code":{"coding":[{"system":"http://terminology.hl7.org/CodeSystem/measure-population","code":"initial-population","display":"Initial Population"}]},"count":1},{"code":{"coding":[{"system":"http://terminology.hl7.org/CodeSystem/measure-population","code":"measure-population","display":"Measure Population"}]},"count":1},{"code":{"coding":[{"system":"http://terminology.hl7.org/CodeSystem/measure-population","code":"measure-population-exclusion","display":"Measure Population Exclusion"}]},"count":0},{"code":{"coding":[{"system":"http://terminology.hl7.org/CodeSystem/measure-population","code":"measure-population-observation","display":"Measure Population Observation"}]},"count":0}]},{"population":[{"code":{"coding":[{"system":"http://terminology.hl7.org/CodeSystem/measure-population","code":"initial-population","display":"Initial Population"}]},"count":1},{"code":{"coding":[{"system":"http://terminology.hl7.org/CodeSystem/measure-population","code":"measure-population","display":"Measure Population"}]},"count":1},{"code":{"coding":[{"system":"http://terminology.hl7.org/CodeSystem/measure-population","code":"measure-population-exclusion","display":"Measure Population Exclusion"}]},"count":0},{"code":{"coding":[{"system":"http://terminology.hl7.org/CodeSystem/measure-population","code":"measure-population-observation","display":"Measure Population Observation"}]},"count":0}]},{"population":[{"code":{"coding":[{"system":"http://terminology.hl7.org/CodeSystem/measure-population","code":"initial-population","display":"Initial Population"}]},"count":1},{"code":{"coding":[{"system":"http://terminology.hl7.org/CodeSystem/measure-population","code":"measure-population","display":"Measure Population"}]},"count":1},{"code":{"coding":[{"system":"http://terminology.hl7.org/CodeSystem/measure-population","code":"measure-population-exclusion","display":"Measure Population Exclusion"}]},"count":0},{"code":{"coding":[{"system":"http://terminology.hl7.org/CodeSystem/measure-population","code":"measure-population-observation","display":"Measure Population Observation"}]},"count":1}]},{"population":[{"code":{"coding":[{"system":"http://terminology.hl7.org/CodeSystem/measure-population","code":"initial-population","display":"Initial Population"}]},"count":1},{"code":{"coding":[{"system":"http://terminology.hl7.org/CodeSystem/measure-population","code":"measure-population","display":"Measure Population"}]},"count":1},{"code":{"coding":[{"system":"http://terminology.hl7.org/CodeSystem/measure-population","code":"measure-population-exclusion","display":"Measure Population Exclusion"}]},"count":0},{"code":{"coding":[{"system":"http://terminology.hl7.org/CodeSystem/measure-population","code":"measure-population-observation","display":"Measure Population Observation"}]},"count":100}]}]},"request":{"method":"PUT","url":"MeasureReport/ea13d4fb-26bb-4dbc-a7a9-f8c87d4cf612"}}]}