{"resourceType":"Bundle","id":"tests-78a3078e-68a7-4715-9490-60eaf10111a4-bundle","type":"transaction","entry":[{"fullUrl":"https://madie.cms.gov/Patient/78a3078e-68a7-4715-9490-60eaf10111a4","resource":{"resourceType":"Patient","id":"78a3078e-68a7-4715-9490-60eaf10111a4","meta":{"profile":["http://hl7.org/fhir/us/qicore/StructureDefinition/qicore-patient"]},"text":{"status":"generated","div":"<div xmlns=\"http://www.w3.org/1999/xhtml\"><div class=\"hapiHeaderText\">ScreAtriRefNoasseDxNoCp2, , <b> </b></div><table class=\"hapiPropertyTable\"><tbody><tr><td>Identifier</td><td>ScreAtriRefNoasseDxNoCp2</td></tr><tr><td>Date of birth</td><td><span>14 May 1950</span></td></tr></tbody></table></div>"},"extension":[{"url":"http://hl7.org/fhir/us/core/StructureDefinition/us-core-race","extension":[{"url":"ombCategory","valueCoding":{"system":"urn:oid:2.16.840.1.113883.6.238","code":"2106-3","display":"White","userSelected":true}},{"url":"text","valueString":"White"}]},{"url":"http://hl7.org/fhir/us/core/StructureDefinition/us-core-ethnicity","extension":[{"url":"ombCategory","valueCoding":{"system":"urn:oid:2.16.840.1.113883.6.238","code":"2186-5","display":"Not Hispanic or Latino","userSelected":true}},{"url":"text","valueString":"Not Hispanic or Latino"}]}],"identifier":[{"type":{"coding":[{"system":"http://terminology.hl7.org/CodeSystem/v2-0203","code":"MR"}]},"system":"https://madie.cms.gov/","value":"ScreAtriRefNoasseDxNoCp2"}],"active":true,"name":[{"use":"usual","text":"ScreAtriRefNoasseDxNoCp2","family":"OCCURPass2","given":["ScreAtriRefNoasseDxNoCp2DENOMPass2"]}],"gender":"male","birthDate":"1939-01-01","address":[{"text":"ScreAtriRefNoasseDxNoCp2, Screened Not at risk Assessed Severely Malnourished Diagnosed Care Plan, ID=ScreAtriRefNoasseDxNoCp2, DOB: 14 May 1950"}]},"request":{"method":"PUT","url":"Patient/78a3078e-68a7-4715-9490-60eaf10111a4"}},{"fullUrl":"https://madie.cms.gov/Encounter/847f00ff-1380-49fb-b21e-8a0118ead758","resource":{"resourceType":"Encounter","id":"847f00ff-1380-49fb-b21e-8a0118ead758","meta":{"profile":["http://hl7.org/fhir/us/qicore/StructureDefinition/qicore-encounter"]},"status":"finished","class":{"system":"http://terminology.hl7.org/CodeSystem/v3-ActCode","code":"IMP","display":"inpatient encounter"},"type":[{"coding":[{"system":"http://snomed.info/sct","code":"183452005"}]}],"subject":{"reference":"Patient/78a3078e-68a7-4715-9490-60eaf10111a4"},"period":{"start":"2026-02-01T08:00:00.000Z","end":"2026-02-03T02:00:00.000Z"}},"request":{"method":"PUT","url":"Encounter/847f00ff-1380-49fb-b21e-8a0118ead758"}},{"fullUrl":"https://madie.cms.gov/Encounter/5d783a55-3a48-42a0-9080-b1a690f73ffe","resource":{"resourceType":"Encounter","id":"5d783a55-3a48-42a0-9080-b1a690f73ffe","meta":{"profile":["http://hl7.org/fhir/us/qicore/StructureDefinition/qicore-encounter"]},"status":"finished","class":{"system":"http://terminology.hl7.org/CodeSystem/v3-ActCode","code":"IMP","display":"admission to observation unit (procedure)"},"type":[{"coding":[{"system":"http://snomed.info/sct","code":"448951000124107"}]}],"subject":{"reference":"Patient/78a3078e-68a7-4715-9490-60eaf10111a4"},"period":{"start":"2026-01-30T08:00:00.000Z","end":"2026-02-01T08:00:00.000Z"}},"request":{"method":"PUT","url":"Encounter/5d783a55-3a48-42a0-9080-b1a690f73ffe"}},{"fullUrl":"https://madie.cms.gov/Condition/2c9af542-7d9e-41ac-9159-5e9ddc5952a3","resource":{"resourceType":"Condition","id":"2c9af542-7d9e-41ac-9159-5e9ddc5952a3","meta":{"profile":["http://hl7.org/fhir/us/qicore/StructureDefinition/qicore-condition"]},"clinicalStatus":{"coding":[{"system":"http://terminology.hl7.org/CodeSystem/condition-clinical","code":"active","display":"Active","userSelected":true}]},"verificationStatus":{"coding":[{"system":"http://terminology.hl7.org/CodeSystem/condition-ver-status","code":"confirmed","display":"Confirmed","userSelected":true}]},"category":[{"coding":[{"system":"http://terminology.hl7.org/CodeSystem/condition-category","code":"encounter-diagnosis","display":"Encounter Diagnosis","userSelected":true}]}],"code":{"coding":[{"system":"http://snomed.info/sct","code":"722959000","display":"Anorexia nervoca co-occurrent with dangerously low body weight (disorder)","userSelected":true}]},"subject":{"reference":"Patient/78a3078e-68a7-4715-9490-60eaf10111a4"},"onsetPeriod":{"start":"2026-01-22T08:00:00.000+00:00"},"recordedDate":"2026-01-22T11:00:00.000+00:00"},"request":{"method":"PUT","url":"Condition/2c9af542-7d9e-41ac-9159-5e9ddc5952a3"}},{"fullUrl":"https://madie.cms.gov/Observation/8e68c929-7345-475d-a9a1-f3ce295e4eea","resource":{"resourceType":"Observation","id":"8e68c929-7345-475d-a9a1-f3ce295e4eea","meta":{"profile":["http://hl7.org/fhir/us/qicore/StructureDefinition/qicore-observation"]},"status":"final","category":[{"coding":[{"system":"http://terminology.hl7.org/CodeSystem/observation-category","code":"survey","display":"Survey"}]}],"code":{"coding":[{"system":"http://loinc.org","code":"98967-3","display":"Nutritional Risk Screening 2002 panel","userSelected":true}]},"subject":{"reference":"Patient/78a3078e-68a7-4715-9490-60eaf10111a4"},"effectiveDateTime":"2026-01-31T09:00:00.000+00:00","valueCodeableConcept":{"coding":[{"system":"http://snomed.info/sct","code":"129689002","display":"At risk for nutritional problem (finding)","userSelected":true}]}},"request":{"method":"PUT","url":"Observation/8e68c929-7345-475d-a9a1-f3ce295e4eea"}},{"fullUrl":"https://madie.cms.gov/Observation/a736974f-736f-4475-8947-3df8ee1c001e","resource":{"resourceType":"Observation","id":"a736974f-736f-4475-8947-3df8ee1c001e","meta":{"profile":["http://hl7.org/fhir/us/qicore/StructureDefinition/qicore-observation"]},"status":"final","category":[{"coding":[{"system":"http://terminology.hl7.org/CodeSystem/observation-category","code":"survey","display":"Survey"}]}],"code":{"coding":[{"system":"http://loinc.org","code":"101819-1","display":"Nutrition assessment for malnutrition status","userSelected":true}]},"subject":{"reference":"Patient/78a3078e-68a7-4715-9490-60eaf10111a4"},"effectiveDateTime":"2026-01-31T09:00:00.000+00:00","valueCodeableConcept":{"coding":[{"system":"http://snomed.info/sct","code":"788876001","display":"Cachexia due to malignant neoplastic disease (finding)","userSelected":true}]}},"request":{"method":"PUT","url":"Observation/a736974f-736f-4475-8947-3df8ee1c001e"}},{"fullUrl":"https://madie.cms.gov/Procedure/7cd53a83-1f0b-4192-89bd-35436ee2de00","resource":{"resourceType":"Procedure","id":"7cd53a83-1f0b-4192-89bd-35436ee2de00","meta":{"profile":["http://hl7.org/fhir/us/qicore/StructureDefinition/qicore-procedure"]},"extension":[{"url":"http://hl7.org/fhir/us/qicore/StructureDefinition/qicore-recorded","valueDateTime":"2026-02-02T11:30:00.000Z"}],"status":"completed","code":{"coding":[{"system":"http://snomed.info/sct","code":"413315001","display":"Nutrition/feeding management (regime/therapy)"}],"text":"Nutrition/feeding management (regime/therapy)"},"subject":{"reference":"Patient/78a3078e-68a7-4715-9490-60eaf10111a4"},"encounter":{"reference":"Encounter/ScreAtriRefNoasseDxNoCp2DENOMPass2"},"performedPeriod":{"start":"2026-01-31T11:30:00.000Z","end":"2026-02-01T08:15:00.000Z"}},"request":{"method":"PUT","url":"Procedure/7cd53a83-1f0b-4192-89bd-35436ee2de00"}},{"fullUrl":"https://madie.cms.gov/Coverage/f8feb917-7d9b-405b-8299-27738bbb2806","resource":{"resourceType":"Coverage","id":"f8feb917-7d9b-405b-8299-27738bbb2806","meta":{"profile":["http://hl7.org/fhir/us/qicore/StructureDefinition/qicore-coverage"]},"status":"active","type":{"coding":[{"system":"https://nahdo.org/sopt","version":"9.2","code":"11","display":"Medicare Managed Care (Includes Medicare Advantage Plans)"}]},"beneficiary":{"reference":"Patient/78a3078e-68a7-4715-9490-60eaf10111a4"},"period":{"start":"2024-10-01T00:00:00+00:00"},"payor":[{"reference":"Organization/3778262e-e084-4bb5-9a47-1a144735f786"}]},"request":{"method":"PUT","url":"Coverage/f8feb917-7d9b-405b-8299-27738bbb2806"}},{"fullUrl":"https://madie.cms.gov/Organization/fefedf8b-df7b-48c0-b5ce-1c2e627355da","resource":{"resourceType":"Organization","id":"3778262e-e084-4bb5-9a47-1a144735f786","meta":{"profile":["http://hl7.org/fhir/us/qicore/StructureDefinition/qicore-organization"]},"identifier":[{"use":"temp","system":"urn:oid:2.16.840.1.113883.4.4","value":"21-3259825"}],"active":true,"type":[{"coding":[{"system":"http://terminology.hl7.org/CodeSystem/organization-type","code":"pay","display":"Payer"}]}],"name":"Blue Cross Blue Shield of Texas","telecom":[{"system":"phone","value":"(+1) 972-766-6900"}],"address":[{"use":"billing","type":"postal","line":["P.O. Box 660044"],"city":"Dallas","state":"TX","postalCode":"75266-0044","country":"USA"}]},"request":{"method":"PUT","url":"Organization/3778262e-e084-4bb5-9a47-1a144735f786"}},{"fullUrl":"https://madie.cms.gov/MeasureReport/3e8400b4-e085-4f89-af13-6d2001a1e685","resource":{"resourceType":"MeasureReport","id":"3e8400b4-e085-4f89-af13-6d2001a1e685","meta":{"profile":["http://hl7.org/fhir/us/cqfmeasures/StructureDefinition/test-case-cqfm"]},"contained":[{"resourceType":"Parameters","id":"4b7ceddc-ac91-405f-be00-3f86d490df75-parameters","parameter":[{"name":"subject","valueString":"78a3078e-68a7-4715-9490-60eaf10111a4"}]}],"extension":[{"url":"http://hl7.org/fhir/us/cqfmeasures/StructureDefinition/cqfm-inputParameters","valueReference":{"reference":"#4b7ceddc-ac91-405f-be00-3f86d490df75-parameters"}},{"url":"http://hl7.org/fhir/us/cqfmeasures/StructureDefinition/cqfm-testCaseDescription","valueMarkdown":"Screened, at risk, Referral, No assessment, DX, CP"}],"modifierExtension":[{"url":"http://hl7.org/fhir/us/cqfmeasures/StructureDefinition/cqfm-isTestCase","valueBoolean":true}],"status":"complete","type":"individual","measure":"https://madie.cms.gov/Measure/CMS986FHIRMalnutritionScore","period":{"start":"2026-01-01","end":"2026-12-31"},"group":[{"population":[{"code":{"coding":[{"system":"http://terminology.hl7.org/CodeSystem/measure-population","code":"initial-population","display":"Initial Population"}]},"count":1},{"code":{"coding":[{"system":"http://terminology.hl7.org/CodeSystem/measure-population","code":"measure-population","display":"Measure Population"}]},"count":1},{"code":{"coding":[{"system":"http://terminology.hl7.org/CodeSystem/measure-population","code":"measure-population-exclusion","display":"Measure Population Exclusion"}]},"count":0},{"code":{"coding":[{"system":"http://terminology.hl7.org/CodeSystem/measure-population","code":"measure-population-observation","display":"Measure Population Observation"}]},"count":1}]},{"population":[{"code":{"coding":[{"system":"http://terminology.hl7.org/CodeSystem/measure-population","code":"initial-population","display":"Initial Population"}]},"count":1},{"code":{"coding":[{"system":"http://terminology.hl7.org/CodeSystem/measure-population","code":"measure-population","display":"Measure Population"}]},"count":1},{"code":{"coding":[{"system":"http://terminology.hl7.org/CodeSystem/measure-population","code":"measure-population-exclusion","display":"Measure Population Exclusion"}]},"count":0},{"code":{"coding":[{"system":"http://terminology.hl7.org/CodeSystem/measure-population","code":"measure-population-observation","display":"Measure Population Observation"}]},"count":1}]},{"population":[{"code":{"coding":[{"system":"http://terminology.hl7.org/CodeSystem/measure-population","code":"initial-population","display":"Initial Population"}]},"count":1},{"code":{"coding":[{"system":"http://terminology.hl7.org/CodeSystem/measure-population","code":"measure-population","display":"Measure Population"}]},"count":1},{"code":{"coding":[{"system":"http://terminology.hl7.org/CodeSystem/measure-population","code":"measure-population-exclusion","display":"Measure Population Exclusion"}]},"count":0},{"code":{"coding":[{"system":"http://terminology.hl7.org/CodeSystem/measure-population","code":"measure-population-observation","display":"Measure Population Observation"}]},"count":1}]},{"population":[{"code":{"coding":[{"system":"http://terminology.hl7.org/CodeSystem/measure-population","code":"initial-population","display":"Initial Population"}]},"count":1},{"code":{"coding":[{"system":"http://terminology.hl7.org/CodeSystem/measure-population","code":"measure-population","display":"Measure Population"}]},"count":1},{"code":{"coding":[{"system":"http://terminology.hl7.org/CodeSystem/measure-population","code":"measure-population-exclusion","display":"Measure Population Exclusion"}]},"count":0},{"code":{"coding":[{"system":"http://terminology.hl7.org/CodeSystem/measure-population","code":"measure-population-observation","display":"Measure Population Observation"}]},"count":1}]},{"population":[{"code":{"coding":[{"system":"http://terminology.hl7.org/CodeSystem/measure-population","code":"initial-population","display":"Initial Population"}]},"count":1},{"code":{"coding":[{"system":"http://terminology.hl7.org/CodeSystem/measure-population","code":"measure-population","display":"Measure Population"}]},"count":1},{"code":{"coding":[{"system":"http://terminology.hl7.org/CodeSystem/measure-population","code":"measure-population-exclusion","display":"Measure Population Exclusion"}]},"count":0},{"code":{"coding":[{"system":"http://terminology.hl7.org/CodeSystem/measure-population","code":"measure-population-observation","display":"Measure Population Observation"}]},"count":4}]},{"population":[{"code":{"coding":[{"system":"http://terminology.hl7.org/CodeSystem/measure-population","code":"initial-population","display":"Initial Population"}]},"count":1},{"code":{"coding":[{"system":"http://terminology.hl7.org/CodeSystem/measure-population","code":"measure-population","display":"Measure Population"}]},"count":1},{"code":{"coding":[{"system":"http://terminology.hl7.org/CodeSystem/measure-population","code":"measure-population-exclusion","display":"Measure Population Exclusion"}]},"count":0},{"code":{"coding":[{"system":"http://terminology.hl7.org/CodeSystem/measure-population","code":"measure-population-observation","display":"Measure Population Observation"}]},"count":100}]}]},"request":{"method":"PUT","url":"MeasureReport/3e8400b4-e085-4f89-af13-6d2001a1e685"}}]}