{"resourceType":"Bundle","id":"tests-19d1fe56-f3d5-45cf-a3ad-71fe4f70574d-bundle","type":"transaction","entry":[{"fullUrl":"https://madie.cms.gov/Patient/19d1fe56-f3d5-45cf-a3ad-71fe4f70574d","resource":{"resourceType":"Patient","id":"19d1fe56-f3d5-45cf-a3ad-71fe4f70574d","meta":{"profile":["http://hl7.org/fhir/us/qicore/StructureDefinition/qicore-patient"]},"text":{"status":"generated","div":"<div xmlns=\"http://www.w3.org/1999/xhtml\"><div class=\"hapiHeaderText\">ScreAtriRefAsseModNodxCp2, , <b> </b></div><table class=\"hapiPropertyTable\"><tbody><tr><td>Identifier</td><td>ScreAtriRefAsseModNodxCp2</td></tr><tr><td>Date of birth</td><td><span>14 May 1950</span></td></tr></tbody></table></div>"},"extension":[{"url":"http://hl7.org/fhir/us/core/StructureDefinition/us-core-race","extension":[{"url":"ombCategory","valueCoding":{"system":"urn:oid:2.16.840.1.113883.6.238","code":"2106-3","display":"White","userSelected":true}},{"url":"text","valueString":"White"}]},{"url":"http://hl7.org/fhir/us/core/StructureDefinition/us-core-ethnicity","extension":[{"url":"ombCategory","valueCoding":{"system":"urn:oid:2.16.840.1.113883.6.238","code":"2135-2","display":"Hispanic or Latino","userSelected":true}},{"url":"text","valueString":"Hispanic or Latino"}]}],"identifier":[{"type":{"coding":[{"system":"http://terminology.hl7.org/CodeSystem/v2-0203","code":"MR"}]},"system":"https://madie.cms.gov/","value":"ScreAtriRefAsseModNodxCp2"}],"active":true,"name":[{"use":"usual","text":"ScreAtriRefAsseModNodxCp2","family":"OCCURPass4","given":["ScreAtriRefAsseModNodxCp2OCCURPass4"]}],"gender":"male","birthDate":"1954-12-01","address":[{"text":"ScreAtriRefAsseModNodxCp2, Screened Not at risk Assessed Severely Malnourished Diagnosed Care Plan, ID=ScreAtriRefAsseModNodxCp2, DOB: 14 May 1950"}]},"request":{"method":"PUT","url":"Patient/19d1fe56-f3d5-45cf-a3ad-71fe4f70574d"}},{"fullUrl":"https://madie.cms.gov/Encounter/0a7e6df8-9d3a-4dcb-8ac6-4fdceeb15349","resource":{"resourceType":"Encounter","id":"0a7e6df8-9d3a-4dcb-8ac6-4fdceeb15349","meta":{"profile":["http://hl7.org/fhir/us/qicore/StructureDefinition/qicore-encounter"]},"status":"finished","class":{"system":"http://terminology.hl7.org/CodeSystem/v3-ActCode","code":"IMP","display":"inpatient encounter"},"type":[{"coding":[{"system":"http://snomed.info/sct","code":"8715000"}]}],"subject":{"reference":"Patient/19d1fe56-f3d5-45cf-a3ad-71fe4f70574d"},"period":{"start":"2026-08-30T08:00:00.000Z","end":"2026-09-08T08:15:00.000Z"}},"request":{"method":"PUT","url":"Encounter/0a7e6df8-9d3a-4dcb-8ac6-4fdceeb15349"}},{"fullUrl":"https://madie.cms.gov/Observation/a57df8de-592f-47e5-b316-8a52a8d81e9f","resource":{"resourceType":"Observation","id":"a57df8de-592f-47e5-b316-8a52a8d81e9f","meta":{"profile":["http://hl7.org/fhir/us/qicore/StructureDefinition/qicore-observation"]},"status":"final","category":[{"coding":[{"system":"http://terminology.hl7.org/CodeSystem/observation-category","code":"survey","display":"Survey"}]}],"code":{"coding":[{"system":"http://loinc.org","code":"98967-3","display":"Nutritional Risk Screening 2002 panel","userSelected":true}]},"subject":{"reference":"Patient/19d1fe56-f3d5-45cf-a3ad-71fe4f70574d"},"effectiveDateTime":"2026-08-30T09:00:00.000+00:00","valueCodeableConcept":{"coding":[{"system":"http://snomed.info/sct","code":"129689002","display":"At risk for nutritional problem (finding)","userSelected":true}]}},"request":{"method":"PUT","url":"Observation/a57df8de-592f-47e5-b316-8a52a8d81e9f"}},{"fullUrl":"https://madie.cms.gov/Observation/f0c7d4e5-675e-46dc-9357-22daf7b2dbf1","resource":{"resourceType":"Observation","id":"f0c7d4e5-675e-46dc-9357-22daf7b2dbf1","meta":{"profile":["http://hl7.org/fhir/us/qicore/StructureDefinition/qicore-observation"]},"status":"final","category":[{"coding":[{"system":"http://terminology.hl7.org/CodeSystem/observation-category","code":"survey","display":"Survey"}]}],"code":{"coding":[{"system":"http://loinc.org","code":"75304-6","display":"Nutrition standards observation panel","userSelected":true}]},"subject":{"reference":"Patient/19d1fe56-f3d5-45cf-a3ad-71fe4f70574d"},"effectiveDateTime":"2026-08-30T10:00:00.000+00:00","valueCodeableConcept":{"coding":[{"system":"http://snomed.info/sct","code":"448765001","display":"Unintentional weight loss (finding)","userSelected":true}]}},"request":{"method":"PUT","url":"Observation/f0c7d4e5-675e-46dc-9357-22daf7b2dbf1"}},{"fullUrl":"https://madie.cms.gov/Procedure/7a251f7c-adf5-4863-94f7-36b9b6a22b3c","resource":{"resourceType":"Procedure","id":"7a251f7c-adf5-4863-94f7-36b9b6a22b3c","meta":{"profile":["http://hl7.org/fhir/us/qicore/StructureDefinition/qicore-procedure"]},"extension":[{"url":"http://hl7.org/fhir/us/qicore/StructureDefinition/qicore-recorded","valueDateTime":"2026-08-30T11:30:00.000Z"}],"status":"completed","code":{"coding":[{"system":"http://snomed.info/sct","code":"306354000","display":"Referral to hospital-based dietitian (procedure)"}],"text":"Referral to hospital-based dietitian (procedure)"},"subject":{"reference":"Patient/19d1fe56-f3d5-45cf-a3ad-71fe4f70574d"},"encounter":{"reference":"Encounter/ScreAtriRefAsseModNodxCp2DENOMPass4"},"performedPeriod":{"start":"2026-08-30T11:30:00.000Z","end":"2026-09-02T08:15:00.000Z"}},"request":{"method":"PUT","url":"Procedure/7a251f7c-adf5-4863-94f7-36b9b6a22b3c"}},{"fullUrl":"https://madie.cms.gov/Procedure/4e71e142-abfd-465e-a8fc-c0c7145ab5e4","resource":{"resourceType":"Procedure","id":"4e71e142-abfd-465e-a8fc-c0c7145ab5e4","meta":{"profile":["http://hl7.org/fhir/us/qicore/StructureDefinition/qicore-procedure"]},"extension":[{"url":"http://hl7.org/fhir/us/qicore/StructureDefinition/qicore-recorded","valueDateTime":"2025-02-02T11:30:00.000Z"}],"status":"completed","code":{"coding":[{"system":"http://snomed.info/sct","code":"413315001","display":"Nutrition/feeding management (regime/therapy)"}],"text":"Nutrition/feeding management (regime/therapy)"},"subject":{"reference":"Patient/19d1fe56-f3d5-45cf-a3ad-71fe4f70574d"},"encounter":{"reference":"Encounter/ScreAtriRefAsseModNodxCp2OCCURPass4"},"performedPeriod":{"start":"2026-08-30T11:30:00.000Z","end":"2026-09-04T08:15:00.000Z"}},"request":{"method":"PUT","url":"Procedure/4e71e142-abfd-465e-a8fc-c0c7145ab5e4"}},{"fullUrl":"https://madie.cms.gov/Coverage/188bd7a1-9528-4763-927a-a55287d10404","resource":{"resourceType":"Coverage","id":"188bd7a1-9528-4763-927a-a55287d10404","meta":{"profile":["http://hl7.org/fhir/us/qicore/StructureDefinition/qicore-coverage"]},"status":"active","type":{"coding":[{"system":"https://nahdo.org/sopt","version":"9.2","code":"11","display":"Medicare Managed Care (Includes Medicare Advantage Plans)"}]},"beneficiary":{"reference":"Patient/19d1fe56-f3d5-45cf-a3ad-71fe4f70574d"},"period":{"start":"2024-10-01T00:00:00+00:00"},"payor":[{"reference":"Organization/890316dc-a4ad-43b4-ba6f-9fb9e6eca282"}]},"request":{"method":"PUT","url":"Coverage/188bd7a1-9528-4763-927a-a55287d10404"}},{"fullUrl":"https://madie.cms.gov/Organization/951d9216-ff56-40ee-81b8-e9ff50805266","resource":{"resourceType":"Organization","id":"890316dc-a4ad-43b4-ba6f-9fb9e6eca282","meta":{"profile":["http://hl7.org/fhir/us/qicore/StructureDefinition/qicore-organization"]},"identifier":[{"use":"temp","system":"urn:oid:2.16.840.1.113883.4.4","value":"21-3259825"}],"active":true,"type":[{"coding":[{"system":"http://terminology.hl7.org/CodeSystem/organization-type","code":"pay","display":"Payer"}]}],"name":"Blue Cross Blue Shield of Texas","telecom":[{"system":"phone","value":"(+1) 972-766-6900"}],"address":[{"use":"billing","type":"postal","line":["P.O. Box 660044"],"city":"Dallas","state":"TX","postalCode":"75266-0044","country":"USA"}]},"request":{"method":"PUT","url":"Organization/890316dc-a4ad-43b4-ba6f-9fb9e6eca282"}},{"fullUrl":"https://madie.cms.gov/MeasureReport/2167256e-ec4d-4b1e-b690-4e6e956d915b","resource":{"resourceType":"MeasureReport","id":"2167256e-ec4d-4b1e-b690-4e6e956d915b","meta":{"profile":["http://hl7.org/fhir/us/cqfmeasures/StructureDefinition/test-case-cqfm"]},"contained":[{"resourceType":"Parameters","id":"63d2938f-8743-47a0-bcc0-4ebd97b7a0a5-parameters","parameter":[{"name":"subject","valueString":"19d1fe56-f3d5-45cf-a3ad-71fe4f70574d"}]}],"extension":[{"url":"http://hl7.org/fhir/us/cqfmeasures/StructureDefinition/cqfm-inputParameters","valueReference":{"reference":"#63d2938f-8743-47a0-bcc0-4ebd97b7a0a5-parameters"}},{"url":"http://hl7.org/fhir/us/cqfmeasures/StructureDefinition/cqfm-testCaseDescription","valueMarkdown":"Screened, At Risk, Referral, Assessed, Moderate Malnutrition, No Diagnosis, Nutrition Care Plan"}],"modifierExtension":[{"url":"http://hl7.org/fhir/us/cqfmeasures/StructureDefinition/cqfm-isTestCase","valueBoolean":true}],"status":"complete","type":"individual","measure":"https://madie.cms.gov/Measure/CMS986FHIRMalnutritionScore","period":{"start":"2026-01-01","end":"2026-12-31"},"group":[{"population":[{"code":{"coding":[{"system":"http://terminology.hl7.org/CodeSystem/measure-population","code":"initial-population","display":"Initial Population"}]},"count":1},{"code":{"coding":[{"system":"http://terminology.hl7.org/CodeSystem/measure-population","code":"measure-population","display":"Measure Population"}]},"count":1},{"code":{"coding":[{"system":"http://terminology.hl7.org/CodeSystem/measure-population","code":"measure-population-exclusion","display":"Measure Population Exclusion"}]},"count":0},{"code":{"coding":[{"system":"http://terminology.hl7.org/CodeSystem/measure-population","code":"measure-population-observation","display":"Measure Population Observation"}]},"count":1}]},{"population":[{"code":{"coding":[{"system":"http://terminology.hl7.org/CodeSystem/measure-population","code":"initial-population","display":"Initial Population"}]},"count":1},{"code":{"coding":[{"system":"http://terminology.hl7.org/CodeSystem/measure-population","code":"measure-population","display":"Measure Population"}]},"count":1},{"code":{"coding":[{"system":"http://terminology.hl7.org/CodeSystem/measure-population","code":"measure-population-exclusion","display":"Measure Population Exclusion"}]},"count":0},{"code":{"coding":[{"system":"http://terminology.hl7.org/CodeSystem/measure-population","code":"measure-population-observation","display":"Measure Population Observation"}]},"count":1}]},{"population":[{"code":{"coding":[{"system":"http://terminology.hl7.org/CodeSystem/measure-population","code":"initial-population","display":"Initial Population"}]},"count":1},{"code":{"coding":[{"system":"http://terminology.hl7.org/CodeSystem/measure-population","code":"measure-population","display":"Measure Population"}]},"count":1},{"code":{"coding":[{"system":"http://terminology.hl7.org/CodeSystem/measure-population","code":"measure-population-exclusion","display":"Measure Population Exclusion"}]},"count":0},{"code":{"coding":[{"system":"http://terminology.hl7.org/CodeSystem/measure-population","code":"measure-population-observation","display":"Measure Population Observation"}]},"count":0}]},{"population":[{"code":{"coding":[{"system":"http://terminology.hl7.org/CodeSystem/measure-population","code":"initial-population","display":"Initial Population"}]},"count":1},{"code":{"coding":[{"system":"http://terminology.hl7.org/CodeSystem/measure-population","code":"measure-population","display":"Measure Population"}]},"count":1},{"code":{"coding":[{"system":"http://terminology.hl7.org/CodeSystem/measure-population","code":"measure-population-exclusion","display":"Measure Population Exclusion"}]},"count":0},{"code":{"coding":[{"system":"http://terminology.hl7.org/CodeSystem/measure-population","code":"measure-population-observation","display":"Measure Population Observation"}]},"count":1}]},{"population":[{"code":{"coding":[{"system":"http://terminology.hl7.org/CodeSystem/measure-population","code":"initial-population","display":"Initial Population"}]},"count":1},{"code":{"coding":[{"system":"http://terminology.hl7.org/CodeSystem/measure-population","code":"measure-population","display":"Measure Population"}]},"count":1},{"code":{"coding":[{"system":"http://terminology.hl7.org/CodeSystem/measure-population","code":"measure-population-exclusion","display":"Measure Population Exclusion"}]},"count":0},{"code":{"coding":[{"system":"http://terminology.hl7.org/CodeSystem/measure-population","code":"measure-population-observation","display":"Measure Population Observation"}]},"count":3}]},{"population":[{"code":{"coding":[{"system":"http://terminology.hl7.org/CodeSystem/measure-population","code":"initial-population","display":"Initial Population"}]},"count":1},{"code":{"coding":[{"system":"http://terminology.hl7.org/CodeSystem/measure-population","code":"measure-population","display":"Measure Population"}]},"count":1},{"code":{"coding":[{"system":"http://terminology.hl7.org/CodeSystem/measure-population","code":"measure-population-exclusion","display":"Measure Population Exclusion"}]},"count":0},{"code":{"coding":[{"system":"http://terminology.hl7.org/CodeSystem/measure-population","code":"measure-population-observation","display":"Measure Population Observation"}]},"count":75}]}]},"request":{"method":"PUT","url":"MeasureReport/2167256e-ec4d-4b1e-b690-4e6e956d915b"}}]}