{"resourceType":"Bundle","id":"tests-ab346cb5-2c55-4171-93ea-aac9d266e6c7-bundle","type":"transaction","entry":[{"fullUrl":"https://madie.cms.gov/Patient/ab346cb5-2c55-4171-93ea-aac9d266e6c7","resource":{"resourceType":"Patient","id":"ab346cb5-2c55-4171-93ea-aac9d266e6c7","meta":{"profile":["http://hl7.org/fhir/us/qicore/StructureDefinition/qicore-patient"]},"extension":[{"url":"http://hl7.org/fhir/us/core/StructureDefinition/us-core-race","extension":[{"url":"ombCategory","valueCoding":{"system":"urn:oid:2.16.840.1.113883.6.238","code":"2028-9","display":"Asian"}},{"url":"text","valueString":"Asian"}]},{"url":"http://hl7.org/fhir/us/core/StructureDefinition/us-core-ethnicity","extension":[{"url":"ombCategory","valueCoding":{"system":"urn:oid:2.16.840.1.113883.6.238","code":"2135-2","display":"Hispanic or Latino"}},{"url":"text","valueString":"Hispanic or Latino"}]}],"identifier":[{"system":"http://hospital.smarthealthit.org","value":"999999995"}],"name":[{"family":"Bertha","given":["Betty"]}],"gender":"female","birthDate":"2001-12-31"},"request":{"method":"PUT","url":"Patient/ab346cb5-2c55-4171-93ea-aac9d266e6c7"}},{"fullUrl":"https://madie.cms.gov/Encounter/Encounter-31","resource":{"resourceType":"Encounter","id":"Encounter-31","meta":{"profile":["http://hl7.org/fhir/us/qicore/StructureDefinition/qicore-encounter"]},"status":"finished","class":{"system":"http://terminology.hl7.org/CodeSystem/v3-ActCode","code":"AMB","display":"ambulatory"},"type":[{"coding":[{"system":"http://snomed.info/sct","code":"185317003","display":"Telephone encounter (procedure)"}]}],"subject":{"reference":"Patient/Patient-28"},"period":{"start":"2025-01-01T01:00:00.000Z","end":"2025-01-01T01:15:00.000Z"}},"request":{"method":"PUT","url":"Encounter/Encounter-31"}},{"fullUrl":"https://madie.cms.gov/Procedure/Procedure-8","resource":{"resourceType":"Procedure","id":"Procedure-8","meta":{"profile":["http://hl7.org/fhir/us/qicore/StructureDefinition/qicore-procedure"]},"extension":[{"url":"http://hl7.org/fhir/us/qicore/StructureDefinition/qicore-recorded","valueDateTime":"2025-12-31T23:00:00.000Z"}],"status":"completed","code":{"coding":[{"system":"http://snomed.info/sct","code":"385765002","display":"Hospice care management (procedure)"}]},"subject":{"reference":"Patient/Patient-28"},"performedPeriod":{"start":"2025-12-31T23:00:00.000Z","end":"2025-12-31T23:59:00.000Z"}},"request":{"method":"PUT","url":"Procedure/Procedure-8"}},{"fullUrl":"https://madie.cms.gov/MeasureReport/7e283b1c-c44a-4fdc-a51a-6f7d5c59dd64","resource":{"resourceType":"MeasureReport","id":"7e283b1c-c44a-4fdc-a51a-6f7d5c59dd64","meta":{"profile":["http://hl7.org/fhir/us/cqfmeasures/StructureDefinition/test-case-cqfm"]},"contained":[{"resourceType":"Parameters","id":"960690f2-9d32-40a5-9c19-2dee23eb9f30-parameters","parameter":[{"name":"subject","valueString":"ab346cb5-2c55-4171-93ea-aac9d266e6c7"}]}],"extension":[{"url":"http://hl7.org/fhir/us/cqfmeasures/StructureDefinition/cqfm-inputParameters","valueReference":{"reference":"#960690f2-9d32-40a5-9c19-2dee23eb9f30-parameters"}},{"url":"http://hl7.org/fhir/us/cqfmeasures/StructureDefinition/cqfm-testCaseDescription","valueMarkdown":"Female 24 years old with Hospice Services performed during MP"}],"modifierExtension":[{"url":"http://hl7.org/fhir/us/cqfmeasures/StructureDefinition/cqfm-isTestCase","valueBoolean":true}],"status":"complete","type":"individual","measure":"https://madie.cms.gov/Measure/CervicalCancerScreeningFHIR","period":{"start":"2025-01-01","end":"2025-12-31"},"group":[{"population":[{"code":{"coding":[{"system":"http://terminology.hl7.org/CodeSystem/measure-population","code":"initial-population","display":"Initial Population"}]},"count":1},{"code":{"coding":[{"system":"http://terminology.hl7.org/CodeSystem/measure-population","code":"denominator","display":"Denominator"}]},"count":1},{"code":{"coding":[{"system":"http://terminology.hl7.org/CodeSystem/measure-population","code":"denominator-exclusion","display":"Denominator Exclusion"}]},"count":1},{"code":{"coding":[{"system":"http://terminology.hl7.org/CodeSystem/measure-population","code":"numerator","display":"Numerator"}]},"count":0}]}],"evaluatedResource":[{"reference":"Patient/ab346cb5-2c55-4171-93ea-aac9d266e6c7"},{"reference":"Encounter/Encounter-31"},{"reference":"Procedure/Procedure-8"}]},"request":{"method":"PUT","url":"MeasureReport/7e283b1c-c44a-4fdc-a51a-6f7d5c59dd64"}}]}