{
  "resourceType": "Bundle",
  "id": "6356d03854e383debade759e",
  "type": "transaction",
  "entry": [ {
    "fullUrl": "https://madie.cms.gov/Patient/2eec6963-508b-4072-ae9b-82677d25b591",
    "resource": {
      "resourceType": "Patient",
      "id": "2eec6963-508b-4072-ae9b-82677d25b591",
      "meta": {
        "profile": [ "http://hl7.org/fhir/us/qicore/StructureDefinition/qicore-patient" ]
      },
      "text": {
        "status": "generated",
        "div": "<div xmlns=\"http://www.w3.org/1999/xhtml\"><div class=\"hapiHeaderText\">CalcEGA19WksDxCode20Weeks <b>DENOMFAIL </b></div><table class=\"hapiPropertyTable\"><tbody><tr><td>Date of birth</td><td><span>01 February 2004</span></td></tr></tbody></table></div>"
      },
      "extension": [ {
        "url": "http://hl7.org/fhir/us/core/StructureDefinition/us-core-race",
        "extension": [ {
          "url": "ombCategory",
          "valueCoding": {
            "system": "urn:oid:2.16.840.1.113883.6.238",
            "code": "1002-5",
            "display": "American Indian or Alaska Native",
            "userSelected": true
          }
        }, {
          "url": "text",
          "valueString": "American Indian or Alaska Native"
        } ]
      }, {
        "url": "http://hl7.org/fhir/us/core/StructureDefinition/us-core-ethnicity",
        "extension": [ {
          "url": "ombCategory",
          "valueCoding": {
            "system": "urn:oid:2.16.840.1.113883.6.238",
            "code": "2135-2",
            "display": "Hispanic or Latino",
            "userSelected": true
          }
        }, {
          "url": "text",
          "valueString": "Hispanic or Latino"
        } ]
      } ],
      "identifier": [ {
        "type": {
          "coding": [ {
            "system": "http://terminology.hl7.org/CodeSystem/v2-0203",
            "code": "MR"
          } ]
        },
        "system": "https://bonnie-fhir.healthit.gov/",
        "value": "6356d03854e383debade759e"
      } ],
      "active": true,
      "name": [ {
        "use": "usual",
        "family": "DENOMFail",
        "given": [ "CalcEGA19WksDxCode20Weeks" ]
      } ],
      "gender": "female",
      "birthDate": "2004-02-01"
    },
    "request": {
      "method": "PUT",
      "url": "Patient/2eec6963-508b-4072-ae9b-82677d25b591"
    }
  }, {
    "fullUrl": "https://madie.cms.gov/Observation/67d4ecf0-9616-425a-addc-8e9668bda41c",
    "resource": {
      "resourceType": "Observation",
      "id": "67d4ecf0-9616-425a-addc-8e9668bda41c",
      "meta": {
        "profile": [ "http://hl7.org/fhir/us/qicore/StructureDefinition/qicore-observation" ]
      },
      "status": "final",
      "category": [ {
        "coding": [ {
          "system": "http://terminology.hl7.org/CodeSystem/observation-category",
          "code": "exam",
          "display": "exam",
          "userSelected": true
        } ]
      } ],
      "code": {
        "coding": [ {
          "system": "http://loinc.org",
          "code": "93857-1"
        } ]
      },
      "subject": {
        "reference": "Patient/2eec6963-508b-4072-ae9b-82677d25b591"
      },
      "effectiveDateTime": "2025-01-15T08:00:00.000+00:00",
      "valueDateTime": "2025-01-15T08:00:00.000+00:00"
    },
    "request": {
      "method": "PUT",
      "url": "Observation/67d4ecf0-9616-425a-addc-8e9668bda41c"
    }
  }, {
    "fullUrl": "https://madie.cms.gov/Encounter/29fd8f31-a764-4843-b73c-e90bfcd36919",
    "resource": {
      "resourceType": "Encounter",
      "id": "29fd8f31-a764-4843-b73c-e90bfcd36919",
      "meta": {
        "profile": [ "http://hl7.org/fhir/us/qicore/StructureDefinition/qicore-encounter" ]
      },
      "status": "finished",
      "class": {
        "system": "http://terminology.hl7.org/CodeSystem/v3-ActCode",
        "code": "IMP",
        "display": "inpatient encounter"
      },
      "type": [ {
        "coding": [ {
          "system": "http://snomed.info/sct",
          "code": "183452005"
        } ]
      } ],
      "subject": {
        "reference": "Patient/2eec6963-508b-4072-ae9b-82677d25b591"
      },
      "period": {
        "start": "2025-01-01T08:00:00.000Z",
        "end": "2025-02-05T08:15:00.000Z"
      },
      "diagnosis": [ {
        "condition": {
          "reference": "Condition/aa11e26e-84b5-4596-a831-bf30da575f54"
        }
      } ]
    },
    "request": {
      "method": "PUT",
      "url": "Encounter/29fd8f31-a764-4843-b73c-e90bfcd36919"
    }
  }, {
    "fullUrl": "https://madie.cms.gov/Observation/f2846c08-b441-4e13-9da9-f8d9f02ea119",
    "resource": {
      "resourceType": "Observation",
      "id": "f2846c08-b441-4e13-9da9-f8d9f02ea119",
      "meta": {
        "profile": [ "http://hl7.org/fhir/us/qicore/StructureDefinition/qicore-observation" ]
      },
      "status": "final",
      "category": [ {
        "coding": [ {
          "system": "http://terminology.hl7.org/CodeSystem/observation-category",
          "code": "exam",
          "display": "exam",
          "userSelected": true
        } ]
      } ],
      "code": {
        "coding": [ {
          "system": "http://loinc.org",
          "code": "11778-8"
        } ]
      },
      "subject": {
        "reference": "Patient/2eec6963-508b-4072-ae9b-82677d25b591"
      },
      "effectiveDateTime": "2025-01-15T08:00:00.000+00:00",
      "valueDateTime": "2025-06-05T08:00:00.000+00:00"
    },
    "request": {
      "method": "PUT",
      "url": "Observation/f2846c08-b441-4e13-9da9-f8d9f02ea119"
    }
  }, {
    "fullUrl": "https://madie.cms.gov/Procedure/f6b5e4f5-ef5a-465f-9738-5fb5aff4f058",
    "resource": {
      "resourceType": "Procedure",
      "id": "f6b5e4f5-ef5a-465f-9738-5fb5aff4f058",
      "meta": {
        "profile": [ "http://hl7.org/fhir/us/qicore/StructureDefinition/qicore-procedure" ]
      },
      "extension": [ {
        "url": "http://hl7.org/fhir/us/qicore/StructureDefinition/qicore-recorded",
        "valueDateTime": "2013-04-05T09:35:00-04:00"
      } ],
      "status": "completed",
      "code": {
        "coding": [ {
          "system": "http://snomed.info/sct",
          "code": "10745001"
        } ]
      },
      "subject": {
        "reference": "Patient/2eec6963-508b-4072-ae9b-82677d25b591"
      },
      "performedPeriod": {
        "start": "2025-01-01T08:00:00.000Z",
        "end": "2025-01-01T08:15:00.000Z"
      }
    },
    "request": {
      "method": "PUT",
      "url": "Procedure/f6b5e4f5-ef5a-465f-9738-5fb5aff4f058"
    }
  }, {
    "fullUrl": "https://madie.cms.gov/Condition/aa11e26e-84b5-4596-a831-bf30da575f54",
    "resource": {
      "resourceType": "Condition",
      "id": "aa11e26e-84b5-4596-a831-bf30da575f54",
      "meta": {
        "profile": [ "http://hl7.org/fhir/us/qicore/StructureDefinition/qicore-condition" ]
      },
      "category": [ {
        "coding": [ {
          "system": "http://terminology.hl7.org/CodeSystem/condition-category",
          "code": "encounter-diagnosis",
          "display": "Encounter Diagnosis"
        } ]
      } ],
      "code": {
        "coding": [ {
          "system": "http://snomed.info/sct",
          "version": "2024-03",
          "code": "23464008",
          "display": "Gestation period, 20 weeks",
          "userSelected": true
        } ]
      },
      "subject": {
        "reference": "Patient/2eec6963-508b-4072-ae9b-82677d25b591"
      },
      "recordedDate": "2025-10-24T08:00:00.000+00:00"
    },
    "request": {
      "method": "PUT",
      "url": "Condition/aa11e26e-84b5-4596-a831-bf30da575f54"
    }
  }, {
    "fullUrl": "https://madie.cms.gov/Coverage/66cb8abc-f198-4340-978e-09481571ae3e",
    "resource": {
      "resourceType": "Coverage",
      "id": "66cb8abc-f198-4340-978e-09481571ae3e",
      "meta": {
        "profile": [ "http://hl7.org/fhir/us/qicore/StructureDefinition/qicore-coverage" ]
      },
      "status": "active",
      "beneficiary": {
        "reference": "Patient/2eec6963-508b-4072-ae9b-82677d25b591"
      },
      "payor": [ {
        "reference": "Organization/3f3f420e-26f8-4a95-8335-755ca0f1807b"
      } ]
    },
    "request": {
      "method": "PUT",
      "url": "Coverage/66cb8abc-f198-4340-978e-09481571ae3e"
    }
  }, {
    "fullUrl": "https://madie.cms.gov/Organization/3f3f420e-26f8-4a95-8335-755ca0f1807b",
    "resource": {
      "resourceType": "Organization",
      "id": "3f3f420e-26f8-4a95-8335-755ca0f1807b",
      "meta": {
        "profile": [ "http://hl7.org/fhir/us/qicore/StructureDefinition/qicore-organization" ]
      },
      "identifier": [ {
        "use": "temp",
        "system": "urn:oid:2.16.840.1.113883.4.4",
        "value": "21-3259825"
      } ],
      "active": true,
      "type": [ {
        "coding": [ {
          "system": "http://terminology.hl7.org/CodeSystem/organization-type",
          "code": "pay",
          "display": "Payer"
        } ]
      } ],
      "name": "Blue Cross Blue Shield of Texas",
      "telecom": [ {
        "system": "phone",
        "value": "(+1) 972-766-6900"
      } ],
      "address": [ {
        "use": "billing",
        "type": "postal",
        "line": [ "P.O. Box 660044" ],
        "city": "Dallas",
        "state": "TX",
        "postalCode": "75266-0044",
        "country": "USA"
      } ]
    },
    "request": {
      "method": "PUT",
      "url": "Organization/3f3f420e-26f8-4a95-8335-755ca0f1807b"
    }
  }, {
    "fullUrl": "https://madie.cms.gov/Practitioner/203852d6-da59-4cbe-b8bc-7d6ddea5330a",
    "resource": {
      "resourceType": "Practitioner",
      "id": "203852d6-da59-4cbe-b8bc-7d6ddea5330a",
      "identifier": [ {
        "system": "http://hl7.org/fhir/sid/us-npi",
        "value": "123456"
      } ],
      "name": [ {
        "family": "Evil",
        "prefix": [ "Dr" ]
      } ]
    },
    "request": {
      "method": "PUT",
      "url": "Practitioner/203852d6-da59-4cbe-b8bc-7d6ddea5330a"
    }
  }, {
    "fullUrl": "https://madie.cms.gov/MeasureReport/afc4550d-3a18-4580-b554-10001f5694cf",
    "resource": {
      "resourceType": "MeasureReport",
      "id": "afc4550d-3a18-4580-b554-10001f5694cf",
      "meta": {
        "profile": [ "http://hl7.org/fhir/us/cqfmeasures/StructureDefinition/test-case-cqfm" ]
      },
      "contained": [ {
        "resourceType": "Parameters",
        "id": "e5e6d4bf-3133-48ef-a207-96ae33e39aa5-parameters",
        "parameter": [ {
          "name": "subject",
          "valueString": "2eec6963-508b-4072-ae9b-82677d25b591"
        } ]
      } ],
      "extension": [ {
        "url": "http://hl7.org/fhir/us/cqfmeasures/StructureDefinition/cqfm-inputParameters",
        "valueReference": {
          "reference": "#e5e6d4bf-3133-48ef-a207-96ae33e39aa5-parameters"
        }
      }, {
        "url": "http://hl7.org/fhir/us/cqfmeasures/StructureDefinition/cqfm-testCaseDescription",
        "valueMarkdown": "Calculated EGA = 19 weeks and 6 days.  Diagnosis code = 20 weeks.  Denom fails based on hierarchy."
      } ],
      "modifierExtension": [ {
        "url": "http://hl7.org/fhir/us/cqfmeasures/StructureDefinition/cqfm-isTestCase",
        "valueBoolean": true
      } ],
      "status": "complete",
      "type": "individual",
      "measure": "https://madie.cms.gov/Measure/CMS1028FHIRPCSevereOBComps",
      "period": {
        "start": "2025-01-01",
        "end": "2025-12-31"
      },
      "group": [ {
        "population": [ {
          "code": {
            "coding": [ {
              "system": "http://terminology.hl7.org/CodeSystem/measure-population",
              "code": "initial-population",
              "display": "Initial Population"
            } ]
          },
          "count": 1
        }, {
          "code": {
            "coding": [ {
              "system": "http://terminology.hl7.org/CodeSystem/measure-population",
              "code": "denominator",
              "display": "Denominator"
            } ]
          },
          "count": 0
        }, {
          "code": {
            "coding": [ {
              "system": "http://terminology.hl7.org/CodeSystem/measure-population",
              "code": "numerator",
              "display": "Numerator"
            } ]
          },
          "count": 0
        }, {
          "code": {
            "coding": [ {
              "system": "http://terminology.hl7.org/CodeSystem/measure-population",
              "code": "numerator-exclusion",
              "display": "Numerator Exclusion"
            } ]
          },
          "count": 0
        } ]
      }, {
        "population": [ {
          "code": {
            "coding": [ {
              "system": "http://terminology.hl7.org/CodeSystem/measure-population",
              "code": "initial-population",
              "display": "Initial Population"
            } ]
          },
          "count": 1
        }, {
          "code": {
            "coding": [ {
              "system": "http://terminology.hl7.org/CodeSystem/measure-population",
              "code": "denominator",
              "display": "Denominator"
            } ]
          },
          "count": 0
        }, {
          "code": {
            "coding": [ {
              "system": "http://terminology.hl7.org/CodeSystem/measure-population",
              "code": "numerator",
              "display": "Numerator"
            } ]
          },
          "count": 0
        }, {
          "code": {
            "coding": [ {
              "system": "http://terminology.hl7.org/CodeSystem/measure-population",
              "code": "numerator-exclusion",
              "display": "Numerator Exclusion"
            } ]
          },
          "count": 0
        } ]
      } ],
      "evaluatedResource": [ {
        "reference": "Patient/2eec6963-508b-4072-ae9b-82677d25b591"
      }, {
        "reference": "Observation/67d4ecf0-9616-425a-addc-8e9668bda41c"
      }, {
        "reference": "Encounter/29fd8f31-a764-4843-b73c-e90bfcd36919"
      }, {
        "reference": "Observation/f2846c08-b441-4e13-9da9-f8d9f02ea119"
      }, {
        "reference": "Procedure/f6b5e4f5-ef5a-465f-9738-5fb5aff4f058"
      }, {
        "reference": "Condition/aa11e26e-84b5-4596-a831-bf30da575f54"
      }, {
        "reference": "Coverage/66cb8abc-f198-4340-978e-09481571ae3e"
      }, {
        "reference": "Organization/3f3f420e-26f8-4a95-8335-755ca0f1807b"
      }, {
        "reference": "Practitioner/203852d6-da59-4cbe-b8bc-7d6ddea5330a"
      } ]
    },
    "request": {
      "method": "PUT",
      "url": "MeasureReport/afc4550d-3a18-4580-b554-10001f5694cf"
    }
  } ]
}