{"resourceType":"Bundle","id":"tests-11589117-d7b3-48d2-ac4e-b2dedd2dda37-bundle","type":"transaction","entry":[{"fullUrl":"https://madie.cms.gov/Patient/11589117-d7b3-48d2-ac4e-b2dedd2dda37","resource":{"resourceType":"Patient","id":"11589117-d7b3-48d2-ac4e-b2dedd2dda37","meta":{"profile":["http://hl7.org/fhir/us/qicore/StructureDefinition/qicore-patient"]},"text":{"status":"generated","div":"<div xmlns=\"http://www.w3.org/1999/xhtml\"><div class=\"hapiHeaderText\">Age17 Start of Encounter <b>IPPFAIL </b></div><table class=\"hapiPropertyTable\"><tbody><tr><td>Identifier</td><td>f0eda1c9668fdacdcad3378589bf6e0a71e7dec1618f14fca4d442ec96e402b1</td></tr><tr><td>Date of birth</td><td><span>08 April 2006</span></td></tr></tbody></table></div>"},"extension":[{"url":"http://hl7.org/fhir/us/core/StructureDefinition/us-core-race","extension":[{"url":"ombCategory","valueCoding":{"system":"urn:oid:2.16.840.1.113883.6.238","code":"1002-5","display":"American Indian or Alaska Native","userSelected":true}},{"url":"text","valueString":"American Indian or Alaska Native"}]},{"url":"http://hl7.org/fhir/us/core/StructureDefinition/us-core-ethnicity","extension":[{"url":"ombCategory","valueCoding":{"system":"urn:oid:2.16.840.1.113883.6.238","code":"2135-2","display":"Hispanic or Latino","userSelected":true}},{"url":"text","valueString":"Hispanic or Latino"}]}],"identifier":[{"type":{"coding":[{"system":"http://terminology.hl7.org/CodeSystem/v2-0203","code":"MR"}]},"system":"https://bonnie-fhir.healthit.gov/","value":"627a80a15a0d870123c72530"}],"active":true,"name":[{"use":"usual","family":"IPPFail","given":["Age17StartOfEncounter"]}],"gender":"male","birthDate":"2007-04-09"},"request":{"method":"PUT","url":"Patient/11589117-d7b3-48d2-ac4e-b2dedd2dda37"}},{"fullUrl":"https://madie.cms.gov/Encounter/78177d83-2869-4448-b2cf-bbb6fbbffc08","resource":{"resourceType":"Encounter","id":"78177d83-2869-4448-b2cf-bbb6fbbffc08","meta":{"profile":["http://hl7.org/fhir/us/qicore/StructureDefinition/qicore-encounter"]},"status":"finished","class":{"system":"http://terminology.hl7.org/CodeSystem/v3-ActCode","code":"EMER","display":"emergency"},"type":[{"coding":[{"system":"http://snomed.info/sct","code":"4525004"}]}],"subject":{"reference":"Patient/11589117-d7b3-48d2-ac4e-b2dedd2dda37"},"period":{"start":"2025-04-07T08:00:00.000Z","end":"2025-04-08T08:15:00.000Z"}},"request":{"method":"PUT","url":"Encounter/78177d83-2869-4448-b2cf-bbb6fbbffc08"}},{"fullUrl":"https://madie.cms.gov/Encounter/3e6d2c48-6fa1-43ad-9c70-550430ddb9fa","resource":{"resourceType":"Encounter","id":"3e6d2c48-6fa1-43ad-9c70-550430ddb9fa","meta":{"profile":["http://hl7.org/fhir/us/qicore/StructureDefinition/qicore-encounter"]},"status":"finished","class":{"system":"http://terminology.hl7.org/CodeSystem/v3-ActCode","code":"IMP","display":"inpatient encounter"},"type":[{"coding":[{"system":"http://snomed.info/sct","code":"183452005"}]}],"subject":{"reference":"Patient/11589117-d7b3-48d2-ac4e-b2dedd2dda37"},"period":{"start":"2025-04-08T09:00:00.000Z","end":"2025-04-10T08:15:00.000Z"}},"request":{"method":"PUT","url":"Encounter/3e6d2c48-6fa1-43ad-9c70-550430ddb9fa"}},{"fullUrl":"https://madie.cms.gov/Coverage/feb5c8c9-d1b0-44dd-82c1-cf86eef6d733","resource":{"resourceType":"Coverage","id":"feb5c8c9-d1b0-44dd-82c1-cf86eef6d733","meta":{"profile":["http://hl7.org/fhir/us/qicore/StructureDefinition/qicore-coverage"]},"identifier":[{"system":"http://benefitsinc.com/certificate","value":"12345"}],"status":"active","type":{"coding":[{"system":"https://nahdo.org/sopt","code":"59","display":"Other Private Insurance"}]},"policyHolder":{"reference":"Patient/11589117-d7b3-48d2-ac4e-b2dedd2dda37"},"subscriber":{"reference":"Patient/11589117-d7b3-48d2-ac4e-b2dedd2dda37"},"beneficiary":{"reference":"Patient/11589117-d7b3-48d2-ac4e-b2dedd2dda37"},"dependent":"0","relationship":{"coding":[{"system":"http://terminology.hl7.org/CodeSystem/subscriber-relationship","code":"self"}]},"period":{"start":"2025-01-01T06:00:00.000Z","end":"2025-12-31T11:06:01.000Z"},"payor":[{"reference":"Organization/9e9b3f13-a353-4173-b29b-947d6f1f2031"}],"order":9},"request":{"method":"PUT","url":"Coverage/feb5c8c9-d1b0-44dd-82c1-cf86eef6d733"}},{"fullUrl":"https://madie.cms.gov/MedicationAdministration/43b9efde-dcdd-45c7-a3b0-623f633de626","resource":{"resourceType":"MedicationAdministration","id":"43b9efde-dcdd-45c7-a3b0-623f633de626","meta":{"profile":["http://hl7.org/fhir/us/qicore/StructureDefinition/qicore-medicationadministration"]},"status":"completed","medicationCodeableConcept":{"coding":[{"system":"http://www.nlm.nih.gov/research/umls/rxnorm","code":"1010600"}]},"subject":{"reference":"Patient/11589117-d7b3-48d2-ac4e-b2dedd2dda37"},"effectivePeriod":{"start":"2025-04-07T08:00:00.000Z","end":"2025-04-07T08:15:00.000Z"}},"request":{"method":"PUT","url":"MedicationAdministration/43b9efde-dcdd-45c7-a3b0-623f633de626"}},{"fullUrl":"https://madie.cms.gov/MeasureReport/c27d5325-5933-456a-91b6-7c7d651b1595","resource":{"resourceType":"MeasureReport","id":"c27d5325-5933-456a-91b6-7c7d651b1595","meta":{"profile":["http://hl7.org/fhir/us/cqfmeasures/StructureDefinition/test-case-cqfm"]},"contained":[{"resourceType":"Parameters","id":"50019b9b-609a-4c27-b64d-56eed07db8f6-parameters","parameter":[{"name":"subject","valueString":"11589117-d7b3-48d2-ac4e-b2dedd2dda37"}]}],"extension":[{"url":"http://hl7.org/fhir/us/cqfmeasures/StructureDefinition/cqfm-inputParameters","valueReference":{"reference":"#50019b9b-609a-4c27-b64d-56eed07db8f6-parameters"}},{"url":"http://hl7.org/fhir/us/cqfmeasures/StructureDefinition/cqfm-testCaseDescription","valueMarkdown":"Inpatient encounter where patient is 17 at start of IP stay. Turns 18 day after. Does not meet IPP/Denom criteria. "}],"modifierExtension":[{"url":"http://hl7.org/fhir/us/cqfmeasures/StructureDefinition/cqfm-isTestCase","valueBoolean":true}],"status":"complete","type":"individual","measure":"https://madie.cms.gov/Measure/CMS819HHORAEFHIR","period":{"start":"2026-01-01","end":"2026-12-31"},"group":[{"population":[{"code":{"coding":[{"system":"http://terminology.hl7.org/CodeSystem/measure-population","code":"initial-population","display":"Initial Population"}]},"count":0},{"code":{"coding":[{"system":"http://terminology.hl7.org/CodeSystem/measure-population","code":"denominator","display":"Denominator"}]},"count":0},{"code":{"coding":[{"system":"http://terminology.hl7.org/CodeSystem/measure-population","code":"numerator","display":"Numerator"}]},"count":0}]}]},"request":{"method":"PUT","url":"MeasureReport/c27d5325-5933-456a-91b6-7c7d651b1595"}}]}