{
  "resourceType": "Bundle",
  "id": "633b3f9f0968f80122503cdb",
  "type": "transaction",
  "entry": [ {
    "fullUrl": "https://madie.cms.gov/Patient/abb2e07a-48c5-4e6a-94cb-1ab396e1e86a",
    "resource": {
      "resourceType": "Patient",
      "id": "abb2e07a-48c5-4e6a-94cb-1ab396e1e86a",
      "meta": {
        "profile": [ "http://hl7.org/fhir/us/qicore/StructureDefinition/qicore-patient" ]
      },
      "text": {
        "status": "generated",
        "div": "<div xmlns=\"http://www.w3.org/1999/xhtml\"><div class=\"hapiHeaderText\">EncProcEQSevereMatMorbidity <b>NUMPass </b></div><table class=\"hapiPropertyTable\"><tbody><tr><td>Date of birth</td><td><span>01 February 2004</span></td></tr></tbody></table></div>"
      },
      "extension": [ {
        "url": "http://hl7.org/fhir/us/core/StructureDefinition/us-core-race",
        "extension": [ {
          "url": "ombCategory",
          "valueCoding": {
            "system": "urn:oid:2.16.840.1.113883.6.238",
            "code": "1002-5",
            "display": "American Indian or Alaska Native",
            "userSelected": true
          }
        }, {
          "url": "text",
          "valueString": "American Indian or Alaska Native"
        } ]
      }, {
        "url": "http://hl7.org/fhir/us/core/StructureDefinition/us-core-ethnicity",
        "extension": [ {
          "url": "ombCategory",
          "valueCoding": {
            "system": "urn:oid:2.16.840.1.113883.6.238",
            "code": "2135-2",
            "display": "Hispanic or Latino",
            "userSelected": true
          }
        }, {
          "url": "text",
          "valueString": "Hispanic or Latino"
        } ]
      } ],
      "identifier": [ {
        "type": {
          "coding": [ {
            "system": "http://terminology.hl7.org/CodeSystem/v2-0203",
            "code": "MR"
          } ]
        },
        "system": "https://bonnie-fhir.healthit.gov/",
        "value": "633b3f9f0968f80122503cdb"
      } ],
      "active": true,
      "name": [ {
        "use": "usual",
        "family": "NUMPass",
        "given": [ "EncProcEQSevereMatMorbidity" ]
      } ],
      "gender": "female",
      "birthDate": "2004-02-01"
    },
    "request": {
      "method": "PUT",
      "url": "Patient/abb2e07a-48c5-4e6a-94cb-1ab396e1e86a"
    }
  }, {
    "fullUrl": "https://madie.cms.gov/Observation/c824c7fd-fa94-4fda-a585-4988ceaa794e",
    "resource": {
      "resourceType": "Observation",
      "id": "c824c7fd-fa94-4fda-a585-4988ceaa794e",
      "meta": {
        "profile": [ "http://hl7.org/fhir/us/qicore/StructureDefinition/qicore-observation" ]
      },
      "status": "final",
      "category": [ {
        "coding": [ {
          "system": "http://terminology.hl7.org/CodeSystem/observation-category",
          "code": "exam",
          "display": "exam",
          "userSelected": true
        } ]
      } ],
      "code": {
        "coding": [ {
          "system": "http://loinc.org",
          "code": "93857-1"
        } ]
      },
      "subject": {
        "reference": "Patient/abb2e07a-48c5-4e6a-94cb-1ab396e1e86a"
      },
      "effectiveDateTime": "2025-02-01T08:00:00.000+00:00",
      "valueDateTime": "2025-02-01T08:00:00+00:00"
    },
    "request": {
      "method": "PUT",
      "url": "Observation/c824c7fd-fa94-4fda-a585-4988ceaa794e"
    }
  }, {
    "fullUrl": "https://madie.cms.gov/Observation/6fdebed4-8e1c-44f7-8ae7-291dd0c4dd08",
    "resource": {
      "resourceType": "Observation",
      "id": "6fdebed4-8e1c-44f7-8ae7-291dd0c4dd08",
      "meta": {
        "profile": [ "http://hl7.org/fhir/us/qicore/StructureDefinition/qicore-observation" ]
      },
      "status": "final",
      "category": [ {
        "coding": [ {
          "system": "http://terminology.hl7.org/CodeSystem/observation-category",
          "code": "exam",
          "display": "exam",
          "userSelected": true
        } ]
      } ],
      "code": {
        "coding": [ {
          "system": "http://loinc.org",
          "code": "11884-4"
        } ]
      },
      "subject": {
        "reference": "Patient/abb2e07a-48c5-4e6a-94cb-1ab396e1e86a"
      },
      "effectiveDateTime": "2025-02-01T08:00:00.000+00:00",
      "valueQuantity": {
        "value": 20,
        "system": "http://unitsofmeasure.org",
        "code": "wk"
      }
    },
    "request": {
      "method": "PUT",
      "url": "Observation/6fdebed4-8e1c-44f7-8ae7-291dd0c4dd08"
    }
  }, {
    "fullUrl": "https://madie.cms.gov/Encounter/f2feeb9c-6f62-4a69-9c86-3b1d08871e28",
    "resource": {
      "resourceType": "Encounter",
      "id": "f2feeb9c-6f62-4a69-9c86-3b1d08871e28",
      "meta": {
        "profile": [ "http://hl7.org/fhir/us/qicore/StructureDefinition/qicore-encounter" ]
      },
      "status": "finished",
      "class": {
        "system": "http://terminology.hl7.org/CodeSystem/v3-ActCode",
        "code": "IMP",
        "display": "inpatient encounter"
      },
      "type": [ {
        "coding": [ {
          "system": "http://snomed.info/sct",
          "code": "183452005"
        } ]
      } ],
      "subject": {
        "reference": "Patient/abb2e07a-48c5-4e6a-94cb-1ab396e1e86a"
      },
      "period": {
        "start": "2025-02-01T08:00:00.000Z",
        "end": "2025-02-05T08:15:00.000Z"
      },
      "diagnosis": [ {
        "extension": [ {
          "url": "http://hl7.org/fhir/us/qicore/StructureDefinition/qicore-encounter-diagnosisPresentOnAdmission",
          "valueCodeableConcept": {
            "coding": [ {
              "system": "https://www.cms.gov/Medicare/Medicare-Fee-for-Service-Payment/HospitalAcqCond/Coding",
              "code": "N"
            } ]
          }
        } ],
        "condition": {
          "reference": "Condition/6e964bce-c6be-490b-9e9e-008757a605a4"
        }
      } ]
    },
    "request": {
      "method": "PUT",
      "url": "Encounter/f2feeb9c-6f62-4a69-9c86-3b1d08871e28"
    }
  }, {
    "fullUrl": "https://madie.cms.gov/Condition/6e964bce-c6be-490b-9e9e-008757a605a4",
    "resource": {
      "resourceType": "Condition",
      "id": "6e964bce-c6be-490b-9e9e-008757a605a4",
      "meta": {
        "profile": [ "http://hl7.org/fhir/us/qicore/StructureDefinition/qicore-condition" ]
      },
      "category": [ {
        "coding": [ {
          "system": "http://terminology.hl7.org/CodeSystem/condition-category",
          "code": "encounter-diagnosis",
          "display": "Encounter Diagnosis"
        } ]
      } ],
      "code": {
        "coding": [ {
          "system": "http://hl7.org/fhir/sid/icd-10-cm",
          "version": "2023",
          "code": "A32.7",
          "display": "Listerial sepsis",
          "userSelected": true
        } ]
      },
      "subject": {
        "reference": "Patient/abb2e07a-48c5-4e6a-94cb-1ab396e1e86a"
      },
      "recordedDate": "2025-10-26T08:00:00.000+00:00"
    },
    "request": {
      "method": "PUT",
      "url": "Condition/6e964bce-c6be-490b-9e9e-008757a605a4"
    }
  }, {
    "fullUrl": "https://madie.cms.gov/Condition/cc7fefec-08da-4d8e-a529-dd3ec10ed752",
    "resource": {
      "resourceType": "Condition",
      "id": "cc7fefec-08da-4d8e-a529-dd3ec10ed752",
      "meta": {
        "profile": [ "http://hl7.org/fhir/us/qicore/StructureDefinition/qicore-condition" ]
      },
      "category": [ {
        "coding": [ {
          "system": "http://terminology.hl7.org/CodeSystem/condition-category",
          "code": "encounter-diagnosis",
          "display": "Encounter Diagnosis"
        } ]
      } ],
      "code": {
        "coding": [ {
          "system": "http://hl7.org/fhir/sid/icd-10-cm",
          "version": "2023",
          "code": "O43.229",
          "display": "Placenta increta, unspecified trimester",
          "userSelected": true
        } ]
      },
      "subject": {
        "reference": "Patient/abb2e07a-48c5-4e6a-94cb-1ab396e1e86a"
      },
      "recordedDate": "2025-02-01T08:00:00.000+00:00"
    },
    "request": {
      "method": "PUT",
      "url": "Condition/cc7fefec-08da-4d8e-a529-dd3ec10ed752"
    }
  }, {
    "fullUrl": "https://madie.cms.gov/Coverage/90928900-223e-4e71-8e32-dc178550c518",
    "resource": {
      "resourceType": "Coverage",
      "id": "90928900-223e-4e71-8e32-dc178550c518",
      "status": "active",
      "beneficiary": {
        "reference": "Patient/abb2e07a-48c5-4e6a-94cb-1ab396e1e86a"
      },
      "period": {
        "start": "2004-02-01T08:00:00.000Z"
      },
      "payor": [ {
        "reference": "Organization/9e8f4162-f885-4886-9908-bd4c8aab1d52"
      } ]
    },
    "request": {
      "method": "PUT",
      "url": "Coverage/90928900-223e-4e71-8e32-dc178550c518"
    }
  }, {
    "fullUrl": "https://madie.cms.gov/Procedure/675cbd9c-f238-4c37-ae29-01688c7a55fb",
    "resource": {
      "resourceType": "Procedure",
      "id": "675cbd9c-f238-4c37-ae29-01688c7a55fb",
      "meta": {
        "profile": [ "http://hl7.org/fhir/us/qicore/StructureDefinition/qicore-procedure" ]
      },
      "extension": [ {
        "url": "http://hl7.org/fhir/us/qicore/StructureDefinition/qicore-recorded",
        "valueDateTime": "2013-04-05T09:35:00-04:00"
      } ],
      "status": "completed",
      "code": {
        "coding": [ {
          "system": "http://snomed.info/sct",
          "code": "10745001"
        } ]
      },
      "subject": {
        "reference": "Patient/abb2e07a-48c5-4e6a-94cb-1ab396e1e86a"
      },
      "performedPeriod": {
        "start": "2025-02-01T08:00:00.000Z",
        "end": "2025-02-05T08:15:00.000Z"
      }
    },
    "request": {
      "method": "PUT",
      "url": "Procedure/675cbd9c-f238-4c37-ae29-01688c7a55fb"
    }
  }, {
    "fullUrl": "https://madie.cms.gov/Procedure/0ad5dde8-4208-4b21-ad00-26faeb6e1b1d",
    "resource": {
      "resourceType": "Procedure",
      "id": "0ad5dde8-4208-4b21-ad00-26faeb6e1b1d",
      "meta": {
        "profile": [ "http://hl7.org/fhir/us/qicore/StructureDefinition/qicore-procedure" ]
      },
      "extension": [ {
        "url": "http://hl7.org/fhir/us/qicore/StructureDefinition/qicore-recorded",
        "valueDateTime": "2025-02-01T00:01:00-04:00"
      } ],
      "status": "completed",
      "code": {
        "coding": [ {
          "system": "http://snomed.info/sct",
          "code": "11050006"
        } ]
      },
      "subject": {
        "reference": "Patient/abb2e07a-48c5-4e6a-94cb-1ab396e1e86a"
      },
      "performedPeriod": {
        "start": "2025-02-04T00:00:00.000Z",
        "end": "2025-02-04T11:59:00.000Z"
      }
    },
    "request": {
      "method": "PUT",
      "url": "Procedure/0ad5dde8-4208-4b21-ad00-26faeb6e1b1d"
    }
  }, {
    "fullUrl": "https://madie.cms.gov/Organization/9e8f4162-f885-4886-9908-bd4c8aab1d52",
    "resource": {
      "resourceType": "Organization",
      "id": "9e8f4162-f885-4886-9908-bd4c8aab1d52",
      "meta": {
        "profile": [ "http://hl7.org/fhir/us/qicore/StructureDefinition/qicore-organization" ]
      },
      "identifier": [ {
        "use": "temp",
        "system": "urn:oid:2.16.840.1.113883.4.4",
        "value": "21-3259825"
      } ],
      "active": true,
      "type": [ {
        "coding": [ {
          "system": "http://terminology.hl7.org/CodeSystem/organization-type",
          "code": "pay",
          "display": "Payer"
        } ]
      } ],
      "name": "Blue Cross Blue Shield of Texas",
      "telecom": [ {
        "system": "phone",
        "value": "(+1) 972-766-6900"
      } ],
      "address": [ {
        "use": "billing",
        "type": "postal",
        "line": [ "P.O. Box 660044" ],
        "city": "Dallas",
        "state": "TX",
        "postalCode": "75266-0044",
        "country": "USA"
      } ]
    },
    "request": {
      "method": "PUT",
      "url": "Organization/9e8f4162-f885-4886-9908-bd4c8aab1d52"
    }
  }, {
    "fullUrl": "https://madie.cms.gov/Practitioner/cea84d82-10e9-4eec-939c-8170527c73c3",
    "resource": {
      "resourceType": "Practitioner",
      "id": "cea84d82-10e9-4eec-939c-8170527c73c3",
      "identifier": [ {
        "system": "http://hl7.org/fhir/sid/us-npi",
        "value": "123456"
      } ],
      "name": [ {
        "family": "Evil",
        "prefix": [ "Dr" ]
      } ]
    },
    "request": {
      "method": "PUT",
      "url": "Practitioner/cea84d82-10e9-4eec-939c-8170527c73c3"
    }
  }, {
    "fullUrl": "https://madie.cms.gov/MeasureReport/28e49b9e-3131-4872-87a5-556ceeeb214a",
    "resource": {
      "resourceType": "MeasureReport",
      "id": "28e49b9e-3131-4872-87a5-556ceeeb214a",
      "meta": {
        "profile": [ "http://hl7.org/fhir/us/cqfmeasures/StructureDefinition/test-case-cqfm" ]
      },
      "contained": [ {
        "resourceType": "Parameters",
        "id": "abcf5b92-c925-4bfe-8f65-bf847e682955-parameters",
        "parameter": [ {
          "name": "subject",
          "valueString": "abb2e07a-48c5-4e6a-94cb-1ab396e1e86a"
        } ]
      } ],
      "extension": [ {
        "url": "http://hl7.org/fhir/us/cqfmeasures/StructureDefinition/cqfm-inputParameters",
        "valueReference": {
          "reference": "#abcf5b92-c925-4bfe-8f65-bf847e682955-parameters"
        }
      }, {
        "url": "http://hl7.org/fhir/us/cqfmeasures/StructureDefinition/cqfm-testCaseDescription",
        "valueMarkdown": "Hysterectomy with Placenta Increta and Sepsis (SMM Diagnosis)"
      } ],
      "modifierExtension": [ {
        "url": "http://hl7.org/fhir/us/cqfmeasures/StructureDefinition/cqfm-isTestCase",
        "valueBoolean": true
      } ],
      "status": "complete",
      "type": "individual",
      "measure": "https://madie.cms.gov/Measure/CMS1028FHIRPCSevereOBComps",
      "period": {
        "start": "2025-01-01",
        "end": "2025-12-31"
      },
      "group": [ {
        "population": [ {
          "code": {
            "coding": [ {
              "system": "http://terminology.hl7.org/CodeSystem/measure-population",
              "code": "initial-population",
              "display": "Initial Population"
            } ]
          },
          "count": 1
        }, {
          "code": {
            "coding": [ {
              "system": "http://terminology.hl7.org/CodeSystem/measure-population",
              "code": "denominator",
              "display": "Denominator"
            } ]
          },
          "count": 1
        }, {
          "code": {
            "coding": [ {
              "system": "http://terminology.hl7.org/CodeSystem/measure-population",
              "code": "numerator",
              "display": "Numerator"
            } ]
          },
          "count": 1
        }, {
          "code": {
            "coding": [ {
              "system": "http://terminology.hl7.org/CodeSystem/measure-population",
              "code": "numerator-exclusion",
              "display": "Numerator Exclusion"
            } ]
          },
          "count": 0
        } ]
      }, {
        "population": [ {
          "code": {
            "coding": [ {
              "system": "http://terminology.hl7.org/CodeSystem/measure-population",
              "code": "initial-population",
              "display": "Initial Population"
            } ]
          },
          "count": 1
        }, {
          "code": {
            "coding": [ {
              "system": "http://terminology.hl7.org/CodeSystem/measure-population",
              "code": "denominator",
              "display": "Denominator"
            } ]
          },
          "count": 1
        }, {
          "code": {
            "coding": [ {
              "system": "http://terminology.hl7.org/CodeSystem/measure-population",
              "code": "numerator",
              "display": "Numerator"
            } ]
          },
          "count": 1
        }, {
          "code": {
            "coding": [ {
              "system": "http://terminology.hl7.org/CodeSystem/measure-population",
              "code": "numerator-exclusion",
              "display": "Numerator Exclusion"
            } ]
          },
          "count": 0
        } ]
      } ],
      "evaluatedResource": [ {
        "reference": "Patient/abb2e07a-48c5-4e6a-94cb-1ab396e1e86a"
      }, {
        "reference": "Observation/c824c7fd-fa94-4fda-a585-4988ceaa794e"
      }, {
        "reference": "Observation/6fdebed4-8e1c-44f7-8ae7-291dd0c4dd08"
      }, {
        "reference": "Encounter/f2feeb9c-6f62-4a69-9c86-3b1d08871e28"
      }, {
        "reference": "Condition/6e964bce-c6be-490b-9e9e-008757a605a4"
      }, {
        "reference": "Condition/cc7fefec-08da-4d8e-a529-dd3ec10ed752"
      }, {
        "reference": "Coverage/90928900-223e-4e71-8e32-dc178550c518"
      }, {
        "reference": "Procedure/675cbd9c-f238-4c37-ae29-01688c7a55fb"
      }, {
        "reference": "Procedure/0ad5dde8-4208-4b21-ad00-26faeb6e1b1d"
      }, {
        "reference": "Organization/9e8f4162-f885-4886-9908-bd4c8aab1d52"
      }, {
        "reference": "Practitioner/cea84d82-10e9-4eec-939c-8170527c73c3"
      } ]
    },
    "request": {
      "method": "PUT",
      "url": "MeasureReport/28e49b9e-3131-4872-87a5-556ceeeb214a"
    }
  } ]
}