{"resourceType":"Bundle","id":"tests-bed857ce-66f6-49fd-96a0-c78ee3021756-bundle","type":"transaction","entry":[{"resource":{"resourceType":"Bundle","id":"64d121e71252352a0771c3c4","type":"transaction","entry":[{"fullUrl":"https://madie.cms.gov/Patient/bed857ce-66f6-49fd-96a0-c78ee3021756","resource":{"resourceType":"Patient","id":"bed857ce-66f6-49fd-96a0-c78ee3021756","meta":{"profile":["http://hl7.org/fhir/us/qicore/StructureDefinition/qicore-patient"]},"extension":[{"url":"http://hl7.org/fhir/us/core/StructureDefinition/us-core-race","extension":[{"url":"ombCategory","valueCoding":{"system":"urn:oid:2.16.840.1.113883.6.238","code":"1002-5","display":"American Indian or Alaska Native","userSelected":true}},{"url":"text","valueString":"American Indian or Alaska Native"}]},{"url":"http://hl7.org/fhir/us/core/StructureDefinition/us-core-ethnicity","extension":[{"url":"ombCategory","valueCoding":{"system":"urn:oid:2.16.840.1.113883.6.238","code":"2186-5","display":"Not Hispanic or Latino","userSelected":true}},{"url":"text","valueString":"Not Hispanic or Latino"}]}],"identifier":[{"type":{"coding":[{"system":"http://terminology.hl7.org/CodeSystem/v2-0203","code":"MR"}]},"system":"https://bonnie-fhir.healthit.gov/","value":"64d121e71252352a0771c3c4"}],"name":[{"family":"IPFail","given":["Age6onJan2of2024Edge"]}],"gender":"male","birthDate":"2019-01-02"},"request":{"method":"POST","url":"Patient/bed857ce-66f6-49fd-96a0-c78ee3021756"}},{"fullUrl":"https://madie.cms.gov/Encounter/psych-visit-psychotherapy-c3c5","resource":{"resourceType":"Encounter","id":"psych-visit-psychotherapy-c3c5","meta":{"profile":["http://hl7.org/fhir/us/qicore/StructureDefinition/qicore-encounter"]},"status":"finished","class":{"system":"http://terminology.hl7.org/CodeSystem/v3-ActCode","code":"AMB","display":"ambulatory","userSelected":true},"type":[{"coding":[{"system":"http://www.ama-assn.org/go/cpt","code":"90832","userSelected":true}]}],"subject":{"reference":"Patient/bed857ce-66f6-49fd-96a0-c78ee3021756"},"period":{"start":"2025-07-12T11:45:00.000+00:00","end":"2025-07-12T11:45:00.000+00:00"},"diagnosis":[{"condition":{"reference":"Condition/major-depressive-disorder-active-c3c6"},"use":{"coding":[{"system":"http://snomed.info/sct","version":"2022-09","code":"10811161000119107","display":"Major depressive disorder in mother complicating pregnancy (disorder)","userSelected":true}]}}]},"request":{"method":"POST","url":"Encounter/psych-visit-psychotherapy-c3c5"}},{"fullUrl":"https://madie.cms.gov/Condition/major-depressive-disorder-active-c3c6","resource":{"resourceType":"Condition","id":"major-depressive-disorder-active-c3c6","meta":{"profile":["http://hl7.org/fhir/us/qicore/StructureDefinition/qicore-condition"]},"category":[{"coding":[{"system":"http://terminology.hl7.org/CodeSystem/condition-category","code":"encounter-diagnosis","display":"Encounter Diagnosis"}]}],"code":{"coding":[{"system":"http://snomed.info/sct","version":"2022-09","code":"10811121000119102","display":"Major depressive disorder in mother complicating childbirth (disorder)","userSelected":true}]},"subject":{"reference":"Patient/bed857ce-66f6-49fd-96a0-c78ee3021756"},"recordedDate":"2025-07-12T11:45:00.000+00:00"},"request":{"method":"POST","url":"Condition/major-depressive-disorder-active-c3c6"}},{"fullUrl":"https://madie.cms.gov/Procedure/suicide-risk-assessment-procedure-c3c7","resource":{"resourceType":"Procedure","id":"suicide-risk-assessment-procedure-c3c7","meta":{"profile":["http://hl7.org/fhir/us/qicore/StructureDefinition/qicore-procedure"]},"extension":[{"url":"http://hl7.org/fhir/us/qicore/StructureDefinition/qicore-recorded","valueDateTime":"2025-07-12T11:45:00.000Z"}],"status":"completed","code":{"coding":[{"system":"http://snomed.info/sct","code":"225337009","display":"Suicide risk assessment (procedure)","userSelected":true}]},"subject":{"reference":"Patient/bed857ce-66f6-49fd-96a0-c78ee3021756"},"performedPeriod":{"start":"2025-07-12T11:45:00.000+00:00","end":"2025-07-12T11:45:00.000+00:00"}},"request":{"method":"POST","url":"Procedure/suicide-risk-assessment-procedure-c3c7"}},{"fullUrl":"https://madie.cms.gov/Coverage/1","resource":{"resourceType":"Coverage","id":"1","meta":{"profile":["http://hl7.org/fhir/us/qicore/StructureDefinition/qicore-coverage"]},"status":"active","beneficiary":{"reference":"Patient/bed857ce-66f6-49fd-96a0-c78ee3021756"},"payor":[{"reference":"Organization/123456"}]},"request":{"method":"POST","url":"Coverage/1"}},{"fullUrl":"https://madie.cms.gov/Organization/123456","resource":{"resourceType":"Organization","id":"123456","meta":{"profile":["http://hl7.org/fhir/us/qicore/StructureDefinition/qicore-organization"]},"identifier":[{"use":"temp","system":"urn:oid:2.16.840.1.113883.4.4","value":"21-3259825"}],"active":true,"type":[{"coding":[{"system":"http://terminology.hl7.org/CodeSystem/organization-type","code":"pay","display":"Payer"}]}],"name":"Blue Cross Blue Shield of Texas","telecom":[{"system":"phone","value":"(+1) 972-766-6900"}],"address":[{"use":"billing","type":"postal","line":["P.O. Box 660044"],"city":"Dallas","state":"TX","postalCode":"75266-0044","country":"USA"}]},"request":{"method":"POST","url":"Organization/123456"}},{"fullUrl":"https://madie.cms.gov/Practitioner/practitioner-123456","resource":{"resourceType":"Practitioner","id":"practitioner-123456","meta":{"profile":["http://hl7.org/fhir/us/qicore/StructureDefinition/qicore-practitioner"]},"identifier":[{"system":"http://hl7.org/fhir/sid/us-npi","value":"123456"}],"name":[{"family":"Evil","prefix":["Dr"]}]},"request":{"method":"POST","url":"Practitioner/practitioner-123456"}},{"fullUrl":"https://madie.cms.gov/MeasureReport/ee23b3ed-0c30-4c6f-aaa8-fef0a8bdbf36","resource":{"resourceType":"MeasureReport","id":"ee23b3ed-0c30-4c6f-aaa8-fef0a8bdbf36","meta":{"profile":["http://hl7.org/fhir/us/cqfmeasures/StructureDefinition/test-case-cqfm"]},"contained":[{"resourceType":"Parameters","id":"f0a6145f-5a2d-4b0b-b0e4-e895b79bf2db-parameters","parameter":[{"name":"subject","valueString":"bed857ce-66f6-49fd-96a0-c78ee3021756"}]}],"extension":[{"url":"http://hl7.org/fhir/us/cqfmeasures/StructureDefinition/cqfm-inputParameters","valueReference":{"reference":"#f0a6145f-5a2d-4b0b-b0e4-e895b79bf2db-parameters"}},{"url":"http://hl7.org/fhir/us/cqfmeasures/StructureDefinition/cqfm-testCaseDescription","valueMarkdown":"Patient is 5 years 11 months 30 days at the start of the MP with depression and suicide risk assessment during psychotherapy encounter. "}],"modifierExtension":[{"url":"http://hl7.org/fhir/us/cqfmeasures/StructureDefinition/cqfm-isTestCase","valueBoolean":true}],"status":"complete","type":"individual","measure":"https://madie.cms.gov/Measure/ChildandAdolescentMajorDepressiveDisorderMDDSuicideRiskAssessmentFHIR","period":{"start":"2025-01-01","end":"2025-12-31"},"group":[{"population":[{"code":{"coding":[{"system":"http://terminology.hl7.org/CodeSystem/measure-population","code":"initial-population","display":"Initial Population"}]},"count":0},{"code":{"coding":[{"system":"http://terminology.hl7.org/CodeSystem/measure-population","code":"denominator","display":"Denominator"}]},"count":0},{"code":{"coding":[{"system":"http://terminology.hl7.org/CodeSystem/measure-population","code":"numerator","display":"Numerator"}]},"count":0}]}],"evaluatedResource":[{"reference":"https://madie.cms.gov/Patient/bed857ce-66f6-49fd-96a0-c78ee3021756"},{"reference":"https://madie.cms.gov/Encounter/psych-visit-psychotherapy-c3c5"},{"reference":"https://madie.cms.gov/Condition/major-depressive-disorder-active-c3c6"},{"reference":"https://madie.cms.gov/Procedure/suicide-risk-assessment-procedure-c3c7"},{"reference":"https://madie.cms.gov/Coverage/1"},{"reference":"https://madie.cms.gov/Organization/123456"},{"reference":"https://madie.cms.gov/Practitioner/practitioner-123456"}]},"request":{"method":"POST","url":"MeasureReport/ee23b3ed-0c30-4c6f-aaa8-fef0a8bdbf36"}}]},"request":{"method":"PUT","url":"Bundle/64d121e71252352a0771c3c4"}}]}