{"resourceType":"Bundle","id":"tests-7a210fdd-d08a-44c1-9531-b18e092e0552-bundle","type":"transaction","entry":[{"resource":{"resourceType":"Bundle","id":"64d121911252352a0771c3c3","type":"transaction","entry":[{"fullUrl":"https://madie.cms.gov/Patient/7a210fdd-d08a-44c1-9531-b18e092e0552","resource":{"resourceType":"Patient","id":"7a210fdd-d08a-44c1-9531-b18e092e0552","meta":{"profile":["http://hl7.org/fhir/us/qicore/StructureDefinition/qicore-patient"]},"extension":[{"url":"http://hl7.org/fhir/us/core/StructureDefinition/us-core-race","extension":[{"url":"ombCategory","valueCoding":{"system":"urn:oid:2.16.840.1.113883.6.238","code":"1002-5","display":"American Indian or Alaska Native","userSelected":true}},{"url":"text","valueString":"American Indian or Alaska Native"}]},{"url":"http://hl7.org/fhir/us/core/StructureDefinition/us-core-ethnicity","extension":[{"url":"ombCategory","valueCoding":{"system":"urn:oid:2.16.840.1.113883.6.238","code":"2186-5","display":"Not Hispanic or Latino","userSelected":true}},{"url":"text","valueString":"Not Hispanic or Latino"}]}],"identifier":[{"type":{"coding":[{"system":"http://terminology.hl7.org/CodeSystem/v2-0203","code":"MR"}]},"system":"https://bonnie-fhir.healthit.gov/","value":"64d121911252352a0771c3c3"}],"name":[{"family":"IPFail","given":["Age6Yrs1DayNoEnc"]}],"gender":"female","birthDate":"2017-12-31"},"request":{"method":"POST","url":"Patient/7a210fdd-d08a-44c1-9531-b18e092e0552"}},{"fullUrl":"https://madie.cms.gov/Coverage/1","resource":{"resourceType":"Coverage","id":"1","meta":{"profile":["http://hl7.org/fhir/us/qicore/StructureDefinition/qicore-coverage"]},"status":"active","beneficiary":{"reference":"Patient/7a210fdd-d08a-44c1-9531-b18e092e0552"},"payor":[{"reference":"Organization/123456"}]},"request":{"method":"POST","url":"Coverage/1"}},{"fullUrl":"https://madie.cms.gov/Organization/123456","resource":{"resourceType":"Organization","id":"123456","meta":{"profile":["http://hl7.org/fhir/us/qicore/StructureDefinition/qicore-organization"]},"identifier":[{"use":"temp","system":"urn:oid:2.16.840.1.113883.4.4","value":"21-3259825"}],"active":true,"type":[{"coding":[{"system":"http://terminology.hl7.org/CodeSystem/organization-type","code":"pay","display":"Payer"}]}],"name":"Blue Cross Blue Shield of Texas","telecom":[{"system":"phone","value":"(+1) 972-766-6900"}],"address":[{"use":"billing","type":"postal","line":["P.O. Box 660044"],"city":"Dallas","state":"TX","postalCode":"75266-0044","country":"USA"}]},"request":{"method":"POST","url":"Organization/123456"}},{"fullUrl":"https://madie.cms.gov/Practitioner/practitioner-123456","resource":{"resourceType":"Practitioner","id":"practitioner-123456","meta":{"profile":["http://hl7.org/fhir/us/qicore/StructureDefinition/qicore-practitioner"]},"identifier":[{"system":"http://hl7.org/fhir/sid/us-npi","value":"123456"}],"name":[{"family":"Evil","prefix":["Dr"]}]},"request":{"method":"POST","url":"Practitioner/practitioner-123456"}},{"fullUrl":"https://madie.cms.gov/MeasureReport/60d86fc1-e7ea-4e65-8667-8ce02e60d240","resource":{"resourceType":"MeasureReport","id":"60d86fc1-e7ea-4e65-8667-8ce02e60d240","meta":{"profile":["http://hl7.org/fhir/us/cqfmeasures/StructureDefinition/test-case-cqfm"]},"contained":[{"resourceType":"Parameters","id":"a84f69b2-3a4c-4a53-b2da-daa8befc2688-parameters","parameter":[{"name":"subject","valueString":"7a210fdd-d08a-44c1-9531-b18e092e0552"}]}],"extension":[{"url":"http://hl7.org/fhir/us/cqfmeasures/StructureDefinition/cqfm-inputParameters","valueReference":{"reference":"#a84f69b2-3a4c-4a53-b2da-daa8befc2688-parameters"}},{"url":"http://hl7.org/fhir/us/cqfmeasures/StructureDefinition/cqfm-testCaseDescription","valueMarkdown":"Patient 6 years and 1 day during measurement period, but no encounter entered"}],"modifierExtension":[{"url":"http://hl7.org/fhir/us/cqfmeasures/StructureDefinition/cqfm-isTestCase","valueBoolean":true}],"status":"complete","type":"individual","measure":"https://madie.cms.gov/Measure/ChildandAdolescentMajorDepressiveDisorderMDDSuicideRiskAssessmentFHIR","period":{"start":"2025-01-01","end":"2025-12-31"},"group":[{"population":[{"code":{"coding":[{"system":"http://terminology.hl7.org/CodeSystem/measure-population","code":"initial-population","display":"Initial Population"}]},"count":0},{"code":{"coding":[{"system":"http://terminology.hl7.org/CodeSystem/measure-population","code":"denominator","display":"Denominator"}]},"count":0},{"code":{"coding":[{"system":"http://terminology.hl7.org/CodeSystem/measure-population","code":"numerator","display":"Numerator"}]},"count":0}]}],"evaluatedResource":[{"reference":"https://madie.cms.gov/Patient/7a210fdd-d08a-44c1-9531-b18e092e0552"},{"reference":"https://madie.cms.gov/Coverage/1"},{"reference":"https://madie.cms.gov/Organization/123456"},{"reference":"https://madie.cms.gov/Practitioner/practitioner-123456"}]},"request":{"method":"POST","url":"MeasureReport/60d86fc1-e7ea-4e65-8667-8ce02e60d240"}}]},"request":{"method":"PUT","url":"Bundle/64d121911252352a0771c3c3"}}]}