{"resourceType":"Bundle","id":"tests-925a689c-440c-409d-b256-b0046a43cc6d-bundle","type":"transaction","entry":[{"fullUrl":"https://madie.cms.gov/Patient/925a689c-440c-409d-b256-b0046a43cc6d","resource":{"resourceType":"Patient","id":"925a689c-440c-409d-b256-b0046a43cc6d","meta":{"profile":["http://hl7.org/fhir/us/qicore/StructureDefinition/qicore-patient"]},"text":{"status":"generated","div":"<div xmlns=\"http://www.w3.org/1999/xhtml\"><div class=\"hapiHeaderText\">RiskAssessPsychotherapyEncrelevantDatetime <b>NUMERPASS </b></div><table class=\"hapiPropertyTable\"><tbody><tr><td>Identifier</td><td>93c3e66aae1f7f1a8106f95a744c120c</td></tr><tr><td>Date of birth</td><td><span>24 March 2001</span></td></tr></tbody></table></div>"},"extension":[{"url":"http://hl7.org/fhir/us/core/StructureDefinition/us-core-race","extension":[{"url":"ombCategory","valueCoding":{"system":"urn:oid:2.16.840.1.113883.6.238","code":"1002-5","display":"American Indian or Alaska Native","userSelected":true}},{"url":"text","valueString":"American Indian or Alaska Native"}]},{"url":"http://hl7.org/fhir/us/core/StructureDefinition/us-core-ethnicity","extension":[{"url":"ombCategory","valueCoding":{"system":"urn:oid:2.16.840.1.113883.6.238","code":"2186-5","display":"Not Hispanic or Latino","userSelected":true}},{"url":"text","valueString":"Not Hispanic or Latino"}]}],"identifier":[{"type":{"coding":[{"system":"http://terminology.hl7.org/CodeSystem/v2-0203","code":"MR"}]},"system":"https://bonnie-fhir.healthit.gov/","value":"6109650598086b538055a0dc"}],"active":true,"name":[{"use":"usual","family":"NUMPass","given":["RiskAssmtEncrelevantDatetime"]}],"gender":"male","birthDate":"2015-03-24"},"request":{"method":"PUT","url":"Patient/925a689c-440c-409d-b256-b0046a43cc6d"}},{"fullUrl":"https://madie.cms.gov/Encounter/5c98fd1ab848464ed33e9e86","resource":{"resourceType":"Encounter","id":"be1a7c68-be92-456f-95e9-51c28c7b843c","meta":{"profile":["http://hl7.org/fhir/us/qicore/StructureDefinition/qicore-encounter"]},"status":"finished","class":{"system":"http://terminology.hl7.org/CodeSystem/v3-ActCode","code":"AMB","display":"ambulatory","userSelected":true},"type":[{"coding":[{"system":"http://www.ama-assn.org/go/cpt","code":"90832"}]}],"subject":{"reference":"Patient/925a689c-440c-409d-b256-b0046a43cc6d"},"period":{"start":"2025-07-12T11:45:00.000+00:00","end":"2025-07-12T12:15:00.000+00:00"},"length":{"value":0.0,"unit":"days"},"reasonCode":[{"coding":[{"system":"http://snomed.info/sct","version":"2023-09","code":"10811161000119107","display":"Major depressive disorder in mother complicating pregnancy (disorder)","userSelected":true}]}],"diagnosis":[{"condition":{"reference":"Condition/major-depressive-disorder-active-3995"},"use":{"coding":[{"system":"http://snomed.info/sct","version":"2023-09","code":"10811161000119107","display":"Major depressive disorder in mother complicating pregnancy (disorder)","userSelected":true}]}}]},"request":{"method":"PUT","url":"Encounter/be1a7c68-be92-456f-95e9-51c28c7b843c"}},{"fullUrl":"https://madie.cms.gov/Procedure/5c98fd1ab848464ed33e9e87","resource":{"resourceType":"Procedure","id":"a33cd945-d50d-44d2-b15f-2ced28bc1258","meta":{"profile":["http://hl7.org/fhir/us/qicore/StructureDefinition/qicore-procedure"]},"extension":[{"url":"http://hl7.org/fhir/us/qicore/StructureDefinition/qicore-recorded","valueDateTime":"2025-07-12T11:47:00.000Z"}],"status":"completed","code":{"coding":[{"system":"http://snomed.info/sct","code":"225337009"}]},"subject":{"reference":"Patient/925a689c-440c-409d-b256-b0046a43cc6d"},"performedDateTime":"2025-07-12T11:47:00.000+00:00"},"request":{"method":"PUT","url":"Procedure/a33cd945-d50d-44d2-b15f-2ced28bc1258"}},{"fullUrl":"https://madie.cms.gov/Condition/major-depressive-disorder-active-3995","resource":{"resourceType":"Condition","id":"d006df79-8453-4573-b1dd-400880710dcf","meta":{"profile":["http://hl7.org/fhir/us/qicore/StructureDefinition/qicore-condition"]},"category":[{"coding":[{"system":"http://terminology.hl7.org/CodeSystem/condition-category","code":"encounter-diagnosis","display":"Encounter Diagnosis"}]}],"code":{"coding":[{"system":"http://snomed.info/sct","version":"2023-09","code":"10811121000119102","display":"Major depressive disorder in mother complicating childbirth (disorder)","userSelected":true}]},"subject":{"reference":"Patient/925a689c-440c-409d-b256-b0046a43cc6d"},"recordedDate":"2025-07-12T11:45:00.000+00:00"},"request":{"method":"PUT","url":"Condition/d006df79-8453-4573-b1dd-400880710dcf"}},{"fullUrl":"https://madie.cms.gov/Coverage/payer-ae6a","resource":{"resourceType":"Coverage","id":"916080eb-dfe1-4901-af39-6f6d86a3f099","meta":{"profile":["http://hl7.org/fhir/us/qicore/StructureDefinition/qicore-coverage"]},"identifier":[{"system":"http://benefitsinc.com/certificate","value":"12345"}],"status":"active","type":{"coding":[{"system":"https://nahdo.org/sopt","code":"19","userSelected":true}]},"beneficiary":{"reference":"Patient/925a689c-440c-409d-b256-b0046a43cc6d"},"period":{"start":"2025-04-01T08:00:00.000+00:00","end":"2025-10-01T08:15:00.000+00:00"},"payor":[{"reference":"Organization/9e9b3f13-a353-4173-b29b-947d6f1f2031"}]},"request":{"method":"PUT","url":"Coverage/916080eb-dfe1-4901-af39-6f6d86a3f099"}},{"fullUrl":"https://madie.cms.gov/Organization/123456","resource":{"resourceType":"Organization","id":"9e9b3f13-a353-4173-b29b-947d6f1f2031","meta":{"profile":["http://hl7.org/fhir/us/qicore/StructureDefinition/qicore-organization"]},"identifier":[{"use":"temp","system":"urn:oid:2.16.840.1.113883.4.4","value":"21-3259825"}],"active":true,"type":[{"coding":[{"system":"http://terminology.hl7.org/CodeSystem/organization-type","code":"pay","display":"Payer"}]}],"name":"Blue Cross Blue Shield of Texas","telecom":[{"system":"phone","value":"(+1) 972-766-6900"}],"address":[{"use":"billing","type":"postal","line":["P.O. Box 660044"],"city":"Dallas","state":"TX","postalCode":"75266-0044","country":"USA"}]},"request":{"method":"PUT","url":"Organization/9e9b3f13-a353-4173-b29b-947d6f1f2031"}},{"fullUrl":"https://madie.cms.gov/Practitioner/practitioner-123456","resource":{"resourceType":"Practitioner","id":"221c1ae2-52a0-4165-b64e-1170d1f99684","meta":{"profile":["http://hl7.org/fhir/us/qicore/StructureDefinition/qicore-practitioner"]},"identifier":[{"system":"http://hl7.org/fhir/sid/us-npi","value":"123456"}],"name":[{"family":"Evil","prefix":["Dr"]}]},"request":{"method":"PUT","url":"Practitioner/221c1ae2-52a0-4165-b64e-1170d1f99684"}},{"fullUrl":"https://madie.cms.gov/MeasureReport/18352ac6-57f0-4d6e-9cbe-c6ffeda93f80","resource":{"resourceType":"MeasureReport","id":"18352ac6-57f0-4d6e-9cbe-c6ffeda93f80","meta":{"profile":["http://hl7.org/fhir/us/cqfmeasures/StructureDefinition/test-case-cqfm"]},"contained":[{"resourceType":"Parameters","id":"a50035bc-9da2-4db2-8e26-e66e8e6213b9-parameters","parameter":[{"name":"subject","valueString":"925a689c-440c-409d-b256-b0046a43cc6d"}]}],"extension":[{"url":"http://hl7.org/fhir/us/cqfmeasures/StructureDefinition/cqfm-inputParameters","valueReference":{"reference":"#a50035bc-9da2-4db2-8e26-e66e8e6213b9-parameters"}},{"url":"http://hl7.org/fhir/us/cqfmeasures/StructureDefinition/cqfm-testCaseDescription","valueMarkdown":"Patient with depression and suicide risk assessment during psychotherapy encounter using relevantDatetime"}],"modifierExtension":[{"url":"http://hl7.org/fhir/us/cqfmeasures/StructureDefinition/cqfm-isTestCase","valueBoolean":true}],"status":"complete","type":"individual","measure":"https://madie.cms.gov/Measure/ChildandAdolescentMajorDepressiveDisorderMDDSuicideRiskAssessmentFHIR","period":{"start":"2025-01-01","end":"2025-12-31"},"group":[{"population":[{"code":{"coding":[{"system":"http://terminology.hl7.org/CodeSystem/measure-population","code":"initial-population","display":"Initial Population"}]},"count":1},{"code":{"coding":[{"system":"http://terminology.hl7.org/CodeSystem/measure-population","code":"denominator","display":"Denominator"}]},"count":1},{"code":{"coding":[{"system":"http://terminology.hl7.org/CodeSystem/measure-population","code":"numerator","display":"Numerator"}]},"count":1}]}]},"request":{"method":"PUT","url":"MeasureReport/18352ac6-57f0-4d6e-9cbe-c6ffeda93f80"}}]}