{"resourceType":"Bundle","id":"tests-d36f4d41-7e63-45b3-b264-bab670a0642f-bundle","type":"transaction","entry":[{"fullUrl":"Patient/d36f4d41-7e63-45b3-b264-bab670a0642f","resource":{"resourceType":"Patient","id":"d36f4d41-7e63-45b3-b264-bab670a0642f","meta":{"profile":["http://hl7.org/fhir/us/qicore/StructureDefinition/qicore-patient"]},"text":{"status":"generated","div":"<div xmlns=\"http://www.w3.org/1999/xhtml\"><div class=\"hapiHeaderText\">SRANotPerformedReasonIndicated <b>NUMERFAIL </b></div><table class=\"hapiPropertyTable\"><tbody><tr><td>Date of birth</td><td><span>14 May 2004</span></td></tr></tbody></table></div>"},"extension":[{"url":"http://hl7.org/fhir/us/core/StructureDefinition/us-core-race","extension":[{"url":"ombCategory","valueCoding":{"system":"urn:oid:2.16.840.1.113883.6.238","code":"2028-9","display":"Asian","userSelected":true}},{"url":"text","valueString":"Asian"}]},{"url":"http://hl7.org/fhir/us/core/StructureDefinition/us-core-ethnicity","extension":[{"url":"ombCategory","valueCoding":{"system":"urn:oid:2.16.840.1.113883.6.238","code":"2186-5","display":"Not Hispanic or Latino","userSelected":true}},{"url":"text","valueString":"Not Hispanic or Latino"}]}],"identifier":[{"type":{"coding":[{"system":"http://terminology.hl7.org/CodeSystem/v2-0203","code":"MR"}]},"system":"https://bonnie-fhir.healthit.gov/","value":"6109650598086b538055a112"}],"active":true,"name":[{"use":"usual","family":"NUMFail","given":["SRANotPerformedReasonIndicated"]}],"gender":"male","birthDate":"2016-05-14"},"request":{"method":"PUT","url":"Patient/d36f4d41-7e63-45b3-b264-bab670a0642f"}},{"fullUrl":"Encounter/5e4af49fbd36f900007c8a34","resource":{"resourceType":"Encounter","id":"5e4af49fbd36f900007c8a34","meta":{"profile":["http://hl7.org/fhir/us/qicore/StructureDefinition/qicore-encounter"]},"status":"finished","class":{"system":"http://terminology.hl7.org/CodeSystem/v3-ActCode","code":"AMB","display":"ambulatory","userSelected":true},"type":[{"coding":[{"system":"http://www.ama-assn.org/go/cpt","code":"90845"}]}],"subject":{"reference":"Patient/d36f4d41-7e63-45b3-b264-bab670a0642f"},"period":{"start":"2025-10-06T08:00:00.000+00:00","end":"2025-10-06T08:15:00.000+00:00"},"diagnosis":[{"condition":{"reference":"Condition/major-depressive-disorder-active-be96"},"use":{"coding":[{"system":"http://snomed.info/sct","code":"10811121000119102","display":"Major depressive disorder in mother complicating childbirth (disorder)","userSelected":true}]}}]},"request":{"method":"PUT","url":"Encounter/5e4af49fbd36f900007c8a34"}},{"fullUrl":"Procedure/5e4af4cbbd36f900007c8ae6","resource":{"resourceType":"Procedure","id":"5e4af4cbbd36f900007c8ae6","meta":{"profile":["http://hl7.org/fhir/us/qicore/StructureDefinition/qicore-procedure"]},"extension":[{"url":"http://hl7.org/fhir/us/qicore/StructureDefinition/qicore-recorded","valueDateTime":"2025-10-06T08:00:00+00:00"}],"modifierExtension":[{"url":"http://hl7.org/fhir/us/qicore/StructureDefinition/qicore-notDone","valueBoolean":true}],"status":"not-done","statusReason":{"coding":[{"system":"http://snomed.info/sct","code":"10811161000119107","display":"Major depressive disorder in mother complicating pregnancy (disorder)"}]},"code":{"coding":[{"system":"http://snomed.info/sct","code":"225337009"}]},"subject":{"reference":"Patient/d36f4d41-7e63-45b3-b264-bab670a0642f"},"performedPeriod":{"start":"2025-10-06T08:00:00.000Z","end":"2025-10-06T11:08:15.000Z"}},"request":{"method":"PUT","url":"Procedure/5e4af4cbbd36f900007c8ae6"}},{"fullUrl":"Condition/major-depressive-disorder-active-be96","resource":{"resourceType":"Condition","id":"major-depressive-disorder-active-be96","meta":{"profile":["http://hl7.org/fhir/us/qicore/StructureDefinition/qicore-condition"]},"category":[{"coding":[{"system":"http://terminology.hl7.org/CodeSystem/condition-category","code":"encounter-diagnosis","display":"Encounter Diagnosis"}]}],"code":{"coding":[{"system":"http://snomed.info/sct","version":"2022-09","code":"10811121000119102","display":"Major depressive disorder in mother complicating childbirth (disorder)","userSelected":true}]},"subject":{"reference":"Patient/d36f4d41-7e63-45b3-b264-bab670a0642f"},"recordedDate":"2025-10-06T08:00:00.000+00:00"},"request":{"method":"PUT","url":"Condition/major-depressive-disorder-active-be96"}},{"fullUrl":"Coverage/Coverage-1","resource":{"resourceType":"Coverage","id":"Coverage-1","meta":{"profile":["http://hl7.org/fhir/us/qicore/StructureDefinition/qicore-coverage"]},"status":"active","beneficiary":{"reference":"Patient/d36f4d41-7e63-45b3-b264-bab670a0642f"},"payor":[{"reference":"Organization/Org-123456"}]},"request":{"method":"PUT","url":"Coverage/Coverage-1"}},{"fullUrl":"Organization/Org-123456","resource":{"resourceType":"Organization","id":"Org-123456","meta":{"profile":["http://hl7.org/fhir/us/qicore/StructureDefinition/qicore-organization"]},"identifier":[{"use":"temp","system":"urn:oid:2.16.840.1.113883.4.4","value":"21-3259825"}],"active":true,"type":[{"coding":[{"system":"http://terminology.hl7.org/CodeSystem/organization-type","code":"pay","display":"Payer"}]}],"name":"Blue Cross Blue Shield of Texas","telecom":[{"system":"phone","value":"(+1) 972-766-6900"}],"address":[{"use":"billing","type":"postal","line":["P.O. Box 660044"],"city":"Dallas","state":"TX","postalCode":"75266-0044","country":"USA"}]},"request":{"method":"PUT","url":"Organization/Org-123456"}},{"fullUrl":"Practitioner/practitioner-123456","resource":{"resourceType":"Practitioner","id":"practitioner-123456","meta":{"profile":["http://hl7.org/fhir/us/qicore/StructureDefinition/qicore-practitioner"]},"identifier":[{"system":"http://hl7.org/fhir/sid/us-npi","value":"123456"}],"name":[{"family":"Evil","prefix":["Dr"]}]},"request":{"method":"PUT","url":"Practitioner/practitioner-123456"}},{"fullUrl":"MeasureReport/c08c6a20-f173-4ebf-812a-0f2c034d5ab9","resource":{"resourceType":"MeasureReport","id":"c08c6a20-f173-4ebf-812a-0f2c034d5ab9","meta":{"profile":["http://hl7.org/fhir/us/cqfmeasures/StructureDefinition/test-case-cqfm"]},"contained":[{"resourceType":"Parameters","id":"a5e9eaaa-bb88-46b4-ab3a-c16c2ce1be14-parameters","parameter":[{"name":"subject","valueString":"d36f4d41-7e63-45b3-b264-bab670a0642f"}]}],"extension":[{"url":"http://hl7.org/fhir/us/cqfmeasures/StructureDefinition/cqfm-inputParameters","valueReference":{"reference":"#a5e9eaaa-bb88-46b4-ab3a-c16c2ce1be14-parameters"}},{"url":"http://hl7.org/fhir/us/cqfmeasures/StructureDefinition/cqfm-testCaseDescription","valueMarkdown":"Patient is seen for psychoanalysis encounter for MDD and SRA is not performed for a reason- MDD."}],"modifierExtension":[{"url":"http://hl7.org/fhir/us/cqfmeasures/StructureDefinition/cqfm-isTestCase","valueBoolean":true}],"status":"complete","type":"individual","measure":"Measure/ChildandAdolescentMajorDepressiveDisorderMDDSuicideRiskAssessmentFHIR","period":{"start":"2025-01-01","end":"2025-12-31"},"group":[{"population":[{"code":{"coding":[{"system":"http://terminology.hl7.org/CodeSystem/measure-population","code":"initial-population","display":"Initial Population"}]},"count":1},{"code":{"coding":[{"system":"http://terminology.hl7.org/CodeSystem/measure-population","code":"denominator","display":"Denominator"}]},"count":1},{"code":{"coding":[{"system":"http://terminology.hl7.org/CodeSystem/measure-population","code":"numerator","display":"Numerator"}]},"count":0}]}],"evaluatedResource":[{"reference":"Patient/d36f4d41-7e63-45b3-b264-bab670a0642f"},{"reference":"Encounter/5e4af49fbd36f900007c8a34"},{"reference":"Procedure/5e4af4cbbd36f900007c8ae6"},{"reference":"Condition/major-depressive-disorder-active-be96"},{"reference":"Coverage/Coverage-1"},{"reference":"Organization/Org-123456"},{"reference":"Practitioner/practitioner-123456"}]},"request":{"method":"PUT","url":"MeasureReport/c08c6a20-f173-4ebf-812a-0f2c034d5ab9"}}]}