{"resourceType":"Bundle","id":"tests-3f4922e2-57b0-4e2f-97d6-7c1edf156f56-bundle","type":"transaction","entry":[{"fullUrl":"https://madie.cms.gov/Patient/3f4922e2-57b0-4e2f-97d6-7c1edf156f56","resource":{"resourceType":"Patient","id":"3f4922e2-57b0-4e2f-97d6-7c1edf156f56","meta":{"profile":["http://hl7.org/fhir/us/qicore/StructureDefinition/qicore-patient"]},"text":{"status":"generated","div":"<div xmlns=\"http://www.w3.org/1999/xhtml\"><div class=\"hapiHeaderText\">RiskAssessMultOVEncrelevantDatetime <b>NUMERPASS </b></div><table class=\"hapiPropertyTable\"><tbody><tr><td>Identifier</td><td>4acdd1ab2ce8b6b5853988f06278aa61</td></tr><tr><td>Date of birth</td><td><span>25 April 2000</span></td></tr></tbody></table></div>"},"extension":[{"url":"http://hl7.org/fhir/us/core/StructureDefinition/us-core-race","extension":[{"url":"ombCategory","valueCoding":{"system":"urn:oid:2.16.840.1.113883.6.238","code":"1002-5","display":"American Indian or Alaska Native","userSelected":true}},{"url":"text","valueString":"American Indian or Alaska Native"}]},{"url":"http://hl7.org/fhir/us/core/StructureDefinition/us-core-ethnicity","extension":[{"url":"ombCategory","valueCoding":{"system":"urn:oid:2.16.840.1.113883.6.238","code":"2186-5","display":"Not Hispanic or Latino","userSelected":true}},{"url":"text","valueString":"Not Hispanic or Latino"}]}],"identifier":[{"type":{"coding":[{"system":"http://terminology.hl7.org/CodeSystem/v2-0203","code":"MR"}]},"system":"https://bonnie-fhir.healthit.gov/","value":"6109650598086b538055a0dd"}],"active":true,"name":[{"use":"usual","family":"NUMPass","given":["RiskAssmtMultEncrelevantDatetime"]}],"gender":"female","birthDate":"2014-04-25"},"request":{"method":"PUT","url":"Patient/3f4922e2-57b0-4e2f-97d6-7c1edf156f56"}},{"fullUrl":"https://madie.cms.gov/Encounter/5c98fd1ab848464ed33e9e8f","resource":{"resourceType":"Encounter","id":"b9842588-753d-426c-82d1-9b98d41846f7","meta":{"profile":["http://hl7.org/fhir/us/qicore/StructureDefinition/qicore-encounter"]},"status":"finished","class":{"system":"http://terminology.hl7.org/CodeSystem/v3-ActCode","code":"AMB","display":"ambulatory","userSelected":true},"type":[{"coding":[{"system":"http://www.ama-assn.org/go/cpt","code":"99213"}]}],"subject":{"reference":"Patient/3f4922e2-57b0-4e2f-97d6-7c1edf156f56"},"period":{"start":"2025-03-27T14:30:00.000+00:00","end":"2025-03-27T15:00:00.000+00:00"},"length":{"value":0.0,"unit":"days"},"reasonCode":[{"coding":[{"system":"http://hl7.org/fhir/sid/icd-10-cm","version":"2021","code":"F32.2","display":"Major depressive disorder, single episode, severe without psychotic features","userSelected":true}]}],"diagnosis":[{"condition":{"reference":"Condition/major-depressive-disorder-active-a49c"},"use":{"coding":[{"system":"http://snomed.info/sct","version":"2023-09","code":"10811161000119107","display":"Major depressive disorder in mother complicating pregnancy (disorder)","userSelected":true}]}}]},"request":{"method":"PUT","url":"Encounter/b9842588-753d-426c-82d1-9b98d41846f7"}},{"fullUrl":"https://madie.cms.gov/Encounter/5c98fd1ab848464ed33e9e90","resource":{"resourceType":"Encounter","id":"5a8a5008-688c-4915-91af-e7a60da6ad1b","meta":{"profile":["http://hl7.org/fhir/us/qicore/StructureDefinition/qicore-encounter"]},"status":"finished","class":{"system":"http://terminology.hl7.org/CodeSystem/v3-ActCode","code":"AMB","display":"ambulatory","userSelected":true},"type":[{"coding":[{"system":"http://www.ama-assn.org/go/cpt","code":"99212"}]}],"subject":{"reference":"Patient/3f4922e2-57b0-4e2f-97d6-7c1edf156f56"},"period":{"start":"2025-05-15T11:30:00.000+00:00","end":"2025-05-15T12:00:00.000+00:00"},"length":{"value":0.0,"unit":"days"}},"request":{"method":"PUT","url":"Encounter/5a8a5008-688c-4915-91af-e7a60da6ad1b"}},{"fullUrl":"https://madie.cms.gov/Encounter/5c98fd1ab848464ed33e9e91","resource":{"resourceType":"Encounter","id":"0557328f-2b69-4e8c-97ad-cac3cc390cf9","meta":{"profile":["http://hl7.org/fhir/us/qicore/StructureDefinition/qicore-encounter"]},"status":"finished","class":{"system":"http://terminology.hl7.org/CodeSystem/v3-ActCode","code":"AMB","display":"ambulatory","userSelected":true},"type":[{"coding":[{"system":"http://www.ama-assn.org/go/cpt","code":"99212"}]}],"subject":{"reference":"Patient/3f4922e2-57b0-4e2f-97d6-7c1edf156f56"},"period":{"start":"2025-07-12T11:30:00.000+00:00","end":"2025-07-12T12:00:00.000+00:00"},"length":{"value":0.0,"unit":"days"},"reasonCode":[{"coding":[{"system":"http://snomed.info/sct","version":"2020-09","code":"10811161000119107","display":"Major depressive disorder in mother complicating pregnancy (disorder)","userSelected":true}]}],"diagnosis":[{"condition":{"reference":"Condition/major-depressive-disorder-active-a49d"},"use":{"coding":[{"system":"http://snomed.info/sct","version":"2023-09","code":"10811161000119107","display":"Major depressive disorder in mother complicating pregnancy (disorder)","userSelected":true}]}}]},"request":{"method":"PUT","url":"Encounter/0557328f-2b69-4e8c-97ad-cac3cc390cf9"}},{"fullUrl":"https://madie.cms.gov/Encounter/5c98fd1ab848464ed33e9e92","resource":{"resourceType":"Encounter","id":"ef7c19f0-6102-4a13-9ca1-41573404fbf1","meta":{"profile":["http://hl7.org/fhir/us/qicore/StructureDefinition/qicore-encounter"]},"status":"finished","class":{"system":"http://terminology.hl7.org/CodeSystem/v3-ActCode","code":"AMB","display":"ambulatory","userSelected":true},"type":[{"coding":[{"system":"http://www.ama-assn.org/go/cpt","code":"99212"}]}],"subject":{"reference":"Patient/3f4922e2-57b0-4e2f-97d6-7c1edf156f56"},"period":{"start":"2025-12-30T09:30:00.000+00:00","end":"2025-12-30T10:00:00.000+00:00"},"length":{"value":0.0,"unit":"days"}},"request":{"method":"PUT","url":"Encounter/ef7c19f0-6102-4a13-9ca1-41573404fbf1"}},{"fullUrl":"https://madie.cms.gov/Procedure/5c98fd1ab848464ed33e9e93","resource":{"resourceType":"Procedure","id":"c1ca1b8e-8628-4404-9407-2c1e447ea223","meta":{"profile":["http://hl7.org/fhir/us/qicore/StructureDefinition/qicore-procedure"]},"extension":[{"url":"http://hl7.org/fhir/us/qicore/StructureDefinition/qicore-recorded","valueDateTime":"2025-03-27T14:45:00.000+00:00"}],"status":"completed","code":{"coding":[{"system":"http://snomed.info/sct","code":"225337009"}]},"subject":{"reference":"Patient/3f4922e2-57b0-4e2f-97d6-7c1edf156f56"},"performedDateTime":"2025-03-27T14:45:00.000+00:00"},"request":{"method":"PUT","url":"Procedure/c1ca1b8e-8628-4404-9407-2c1e447ea223"}},{"fullUrl":"https://madie.cms.gov/Procedure/5c98fd1ab848464ed33e9e94","resource":{"resourceType":"Procedure","id":"43524a5a-3186-4e9f-8dc4-dd31ff6c84eb","meta":{"profile":["http://hl7.org/fhir/us/qicore/StructureDefinition/qicore-procedure"]},"extension":[{"url":"http://hl7.org/fhir/us/qicore/StructureDefinition/qicore-recorded","valueDateTime":"2025-07-12T11:45:00.000+00:00"}],"status":"completed","code":{"coding":[{"system":"http://snomed.info/sct","code":"225337009"}]},"subject":{"reference":"Patient/3f4922e2-57b0-4e2f-97d6-7c1edf156f56"},"performedDateTime":"2025-07-12T11:45:00.000+00:00"},"request":{"method":"PUT","url":"Procedure/43524a5a-3186-4e9f-8dc4-dd31ff6c84eb"}},{"fullUrl":"https://madie.cms.gov/Condition/major-depressive-disorder-active-a49c","resource":{"resourceType":"Condition","id":"9584fba4-aab1-4148-8f01-407539fdf73f","meta":{"profile":["http://hl7.org/fhir/us/qicore/StructureDefinition/qicore-condition"]},"category":[{"coding":[{"system":"http://terminology.hl7.org/CodeSystem/condition-category","code":"encounter-diagnosis","display":"encounter-diagnosis","userSelected":true}]}],"code":{"coding":[{"system":"http://snomed.info/sct","version":"2023-09","code":"10811121000119102","display":"Major depressive disorder in mother complicating childbirth (disorder)","userSelected":true}]},"subject":{"reference":"Patient/3f4922e2-57b0-4e2f-97d6-7c1edf156f56"},"recordedDate":"2025-03-27T14:30:00.000+00:00"},"request":{"method":"PUT","url":"Condition/9584fba4-aab1-4148-8f01-407539fdf73f"}},{"fullUrl":"https://madie.cms.gov/Condition/major-depressive-disorder-active-a49d","resource":{"resourceType":"Condition","id":"ce28c5b8-68b9-4835-a4fe-6066e01fed5d","meta":{"profile":["http://hl7.org/fhir/us/qicore/StructureDefinition/qicore-condition"]},"category":[{"coding":[{"system":"http://terminology.hl7.org/CodeSystem/condition-category","code":"encounter-diagnosis","display":"encounter-diagnosis","userSelected":true}]}],"code":{"coding":[{"system":"http://snomed.info/sct","version":"2023-09","code":"10811121000119102","display":"Major depressive disorder in mother complicating childbirth (disorder)","userSelected":true}]},"subject":{"reference":"Patient/3f4922e2-57b0-4e2f-97d6-7c1edf156f56"},"recordedDate":"2025-07-12T11:30:00.000+00:00"},"request":{"method":"PUT","url":"Condition/ce28c5b8-68b9-4835-a4fe-6066e01fed5d"}},{"fullUrl":"https://madie.cms.gov/Coverage/payer-f7a7","resource":{"resourceType":"Coverage","id":"9ed48395-9ed9-4041-a232-5cfdfaec702a","meta":{"profile":["http://hl7.org/fhir/us/qicore/StructureDefinition/qicore-coverage"]},"identifier":[{"system":"http://benefitsinc.com/certificate","value":"12345"}],"status":"active","type":{"coding":[{"system":"https://nahdo.org/sopt","code":"14","userSelected":true}]},"beneficiary":{"reference":"Patient/3f4922e2-57b0-4e2f-97d6-7c1edf156f56"},"period":{"start":"2025-01-01T08:00:00.000+00:00","end":"2025-12-31T11:59:00.000+00:00"},"payor":[{"reference":"Organization/3e899f33-84eb-4634-a770-a5a0bd7a80e7"}]},"request":{"method":"PUT","url":"Coverage/9ed48395-9ed9-4041-a232-5cfdfaec702a"}},{"fullUrl":"https://madie.cms.gov/Organization/123456","resource":{"resourceType":"Organization","id":"3e899f33-84eb-4634-a770-a5a0bd7a80e7","meta":{"profile":["http://hl7.org/fhir/us/qicore/StructureDefinition/qicore-organization"]},"identifier":[{"use":"temp","system":"urn:oid:2.16.840.1.113883.4.4","value":"21-3259825"}],"active":true,"type":[{"coding":[{"system":"http://terminology.hl7.org/CodeSystem/organization-type","code":"pay","display":"Payer"}]}],"name":"Blue Cross Blue Shield of Texas","telecom":[{"system":"phone","value":"(+1) 972-766-6900"}],"address":[{"use":"billing","type":"postal","line":["P.O. Box 660044"],"city":"Dallas","state":"TX","postalCode":"75266-0044","country":"USA"}]},"request":{"method":"PUT","url":"Organization/3e899f33-84eb-4634-a770-a5a0bd7a80e7"}},{"fullUrl":"https://madie.cms.gov/Practitioner/practitioner-123456","resource":{"resourceType":"Practitioner","id":"4d0f1403-d58c-44ae-80ca-caf33aa4e1dd","meta":{"profile":["http://hl7.org/fhir/us/qicore/StructureDefinition/qicore-practitioner"]},"identifier":[{"system":"http://hl7.org/fhir/sid/us-npi","value":"123456"}],"name":[{"family":"Evil","prefix":["Dr"]}]},"request":{"method":"PUT","url":"Practitioner/4d0f1403-d58c-44ae-80ca-caf33aa4e1dd"}},{"fullUrl":"https://madie.cms.gov/MeasureReport/5c80364c-5a59-4d9b-b2b0-2586887a7d43","resource":{"resourceType":"MeasureReport","id":"5c80364c-5a59-4d9b-b2b0-2586887a7d43","meta":{"profile":["http://hl7.org/fhir/us/cqfmeasures/StructureDefinition/test-case-cqfm"]},"contained":[{"resourceType":"Parameters","id":"a11c667d-53fa-4a7f-97b4-7940fdbad6ed-parameters","parameter":[{"name":"subject","valueString":"3f4922e2-57b0-4e2f-97d6-7c1edf156f56"}]}],"extension":[{"url":"http://hl7.org/fhir/us/cqfmeasures/StructureDefinition/cqfm-inputParameters","valueReference":{"reference":"#a11c667d-53fa-4a7f-97b4-7940fdbad6ed-parameters"}},{"url":"http://hl7.org/fhir/us/cqfmeasures/StructureDefinition/cqfm-testCaseDescription","valueMarkdown":"Patient with depression and suicide risk assessment during multiple office visit encounter using relevantDatetime"}],"modifierExtension":[{"url":"http://hl7.org/fhir/us/cqfmeasures/StructureDefinition/cqfm-isTestCase","valueBoolean":true}],"status":"complete","type":"individual","measure":"https://madie.cms.gov/Measure/ChildandAdolescentMajorDepressiveDisorderMDDSuicideRiskAssessmentFHIR","period":{"start":"2025-01-01","end":"2025-12-31"},"group":[{"population":[{"code":{"coding":[{"system":"http://terminology.hl7.org/CodeSystem/measure-population","code":"initial-population","display":"Initial Population"}]},"count":2},{"code":{"coding":[{"system":"http://terminology.hl7.org/CodeSystem/measure-population","code":"denominator","display":"Denominator"}]},"count":2},{"code":{"coding":[{"system":"http://terminology.hl7.org/CodeSystem/measure-population","code":"numerator","display":"Numerator"}]},"count":2}]}]},"request":{"method":"PUT","url":"MeasureReport/5c80364c-5a59-4d9b-b2b0-2586887a7d43"}}]}