{"resourceType":"Bundle","id":"tests-85e6225c-a9bb-4338-a228-297564e38c4d-bundle","type":"transaction","entry":[{"fullUrl":"https://madie.cms.gov/Patient/85e6225c-a9bb-4338-a228-297564e38c4d","resource":{"resourceType":"Patient","id":"85e6225c-a9bb-4338-a228-297564e38c4d","meta":{"profile":["http://hl7.org/fhir/us/qicore/StructureDefinition/qicore-patient"]},"text":{"status":"generated","div":"<div xmlns=\"http://www.w3.org/1999/xhtml\"><div class=\"hapiHeaderText\">PsychoanalysisEncB4MP <b>IPPFAIL </b></div><table class=\"hapiPropertyTable\"><tbody><tr><td>Identifier</td><td>588ba77e42a7e60343a4ab3297f14a40</td></tr><tr><td>Date of birth</td><td><span>13 December 2003</span></td></tr></tbody></table></div>"},"extension":[{"url":"http://hl7.org/fhir/us/core/StructureDefinition/us-core-race","extension":[{"url":"ombCategory","valueCoding":{"system":"urn:oid:2.16.840.1.113883.6.238","code":"2106-3","display":"White","userSelected":true}},{"url":"text","valueString":"White"}]},{"url":"http://hl7.org/fhir/us/core/StructureDefinition/us-core-ethnicity","extension":[{"url":"ombCategory","valueCoding":{"system":"urn:oid:2.16.840.1.113883.6.238","code":"2135-2","display":"Hispanic or Latino","userSelected":true}},{"url":"text","valueString":"Hispanic or Latino"}]}],"identifier":[{"type":{"coding":[{"system":"http://terminology.hl7.org/CodeSystem/v2-0203","code":"MR"}]},"system":"https://bonnie-fhir.healthit.gov/","value":"641d85ece79ed5094e9c4613"}],"active":true,"name":[{"use":"usual","family":"IPFail","given":["EncB4MP"]}],"gender":"female","birthDate":"2011-12-13"},"request":{"method":"PUT","url":"Patient/85e6225c-a9bb-4338-a228-297564e38c4d"}},{"fullUrl":"https://madie.cms.gov/Encounter/5c98fd1ab848464ed33e9e99","resource":{"resourceType":"Encounter","id":"c192e592-aee7-40a9-87ee-3dbbcab8a54d","status":"finished","class":{"system":"http://terminology.hl7.org/CodeSystem/v3-ActCode","code":"AMB","display":"ambulatory","userSelected":true},"type":[{"coding":[{"system":"http://www.ama-assn.org/go/cpt","code":"90845"}]}],"subject":{"reference":"Patient/85e6225c-a9bb-4338-a228-297564e38c4d"},"period":{"start":"2025-02-11T08:00:00.000+00:00","end":"2025-02-11T08:15:00.000+00:00"},"length":{"value":0.0,"unit":"days"},"reasonCode":[{"coding":[{"system":"http://snomed.info/sct","version":"2022-09","code":"10811161000119107","display":"Major depressive disorder in mother complicating pregnancy (disorder)","userSelected":true}]}],"diagnosis":[{"condition":{"reference":"Condition/major-depressive-disorder-active-c3aa"},"use":{"coding":[{"system":"http://snomed.info/sct","version":"2022-09","code":"10811161000119107","display":"Major depressive disorder in mother complicating pregnancy (disorder)","userSelected":true}]}}]},"request":{"method":"PUT","url":"Encounter/c192e592-aee7-40a9-87ee-3dbbcab8a54d"}},{"fullUrl":"https://madie.cms.gov/Condition/major-depressive-disorder-active-c3aa","resource":{"resourceType":"Condition","id":"165b46aa-bc3d-4168-9645-716381eb68f8","category":[{"coding":[{"system":"http://terminology.hl7.org/CodeSystem/condition-category","code":"encounter-diagnosis","display":"encounter-diagnosis","userSelected":true}]}],"code":{"coding":[{"system":"http://snomed.info/sct","version":"2022-09","code":"10811121000119102","display":"Major depressive disorder in mother complicating childbirth (disorder)","userSelected":true}]},"subject":{"reference":"Patient/85e6225c-a9bb-4338-a228-297564e38c4d"},"recordedDate":"2025-02-11T08:00:00.000+00:00"},"request":{"method":"PUT","url":"Condition/165b46aa-bc3d-4168-9645-716381eb68f8"}},{"fullUrl":"https://madie.cms.gov/Procedure/suicide-risk-assessment-procedure-c3ab","resource":{"resourceType":"Procedure","id":"e3114446-6c64-4c91-9c81-3a5e7efebedc","status":"completed","code":{"coding":[{"system":"http://snomed.info/sct","code":"225337009","display":"Suicide risk assessment (procedure)","userSelected":true}]},"subject":{"reference":"Patient/85e6225c-a9bb-4338-a228-297564e38c4d"},"performedPeriod":{"start":"2025-02-10T08:10:00.000+00:00","end":"2025-02-10T08:15:00.000+00:00"}},"request":{"method":"PUT","url":"Procedure/e3114446-6c64-4c91-9c81-3a5e7efebedc"}},{"fullUrl":"https://madie.cms.gov/Coverage/1","resource":{"resourceType":"Coverage","id":"b9ee2b4d-deaf-4998-82d1-4de682fc4ec6","meta":{"profile":["http://hl7.org/fhir/us/qicore/StructureDefinition/qicore-coverage"]},"status":"active","beneficiary":{"reference":"Patient/85e6225c-a9bb-4338-a228-297564e38c4d"},"payor":[{"reference":"Organization/77e4d06f-5e3c-436a-a598-80cefcca5028"}]},"request":{"method":"PUT","url":"Coverage/b9ee2b4d-deaf-4998-82d1-4de682fc4ec6"}},{"fullUrl":"https://madie.cms.gov/Organization/123456","resource":{"resourceType":"Organization","id":"77e4d06f-5e3c-436a-a598-80cefcca5028","meta":{"profile":["http://hl7.org/fhir/us/qicore/StructureDefinition/qicore-organization"]},"identifier":[{"use":"temp","system":"urn:oid:2.16.840.1.113883.4.4","value":"21-3259825"}],"active":true,"type":[{"coding":[{"system":"http://terminology.hl7.org/CodeSystem/organization-type","code":"pay","display":"Payer"}]}],"name":"Blue Cross Blue Shield of Texas","telecom":[{"system":"phone","value":"(+1) 972-766-6900"}],"address":[{"use":"billing","type":"postal","line":["P.O. Box 660044"],"city":"Dallas","state":"TX","postalCode":"75266-0044","country":"USA"}]},"request":{"method":"PUT","url":"Organization/77e4d06f-5e3c-436a-a598-80cefcca5028"}},{"fullUrl":"https://madie.cms.gov/Practitioner/practitioner-123456","resource":{"resourceType":"Practitioner","id":"24f4f0b5-5132-4886-a6e5-e3b8e6a58ec3","identifier":[{"system":"http://hl7.org/fhir/sid/us-npi","value":"123456"}],"name":[{"family":"Evil","prefix":["Dr"]}]},"request":{"method":"PUT","url":"Practitioner/24f4f0b5-5132-4886-a6e5-e3b8e6a58ec3"}},{"fullUrl":"https://madie.cms.gov/MeasureReport/98b5a87e-5deb-42b0-8897-3709b40ed17d","resource":{"resourceType":"MeasureReport","id":"98b5a87e-5deb-42b0-8897-3709b40ed17d","meta":{"profile":["http://hl7.org/fhir/us/cqfmeasures/StructureDefinition/test-case-cqfm"]},"contained":[{"resourceType":"Parameters","id":"750c3d1d-a325-4080-9d46-901d0b69d99b-parameters","parameter":[{"name":"subject","valueString":"85e6225c-a9bb-4338-a228-297564e38c4d"}]}],"extension":[{"url":"http://hl7.org/fhir/us/cqfmeasures/StructureDefinition/cqfm-inputParameters","valueReference":{"reference":"#750c3d1d-a325-4080-9d46-901d0b69d99b-parameters"}},{"url":"http://hl7.org/fhir/us/cqfmeasures/StructureDefinition/cqfm-testCaseDescription","valueMarkdown":"Patient with psychotherapy encounter before MP"}],"modifierExtension":[{"url":"http://hl7.org/fhir/us/cqfmeasures/StructureDefinition/cqfm-isTestCase","valueBoolean":true}],"status":"complete","type":"individual","measure":"https://madie.cms.gov/Measure/ChildandAdolescentMajorDepressiveDisorderMDDSuicideRiskAssessmentFHIR","period":{"start":"2025-01-01","end":"2025-12-31"},"group":[{"population":[{"code":{"coding":[{"system":"http://terminology.hl7.org/CodeSystem/measure-population","code":"initial-population","display":"Initial Population"}]},"count":0},{"code":{"coding":[{"system":"http://terminology.hl7.org/CodeSystem/measure-population","code":"denominator","display":"Denominator"}]},"count":0},{"code":{"coding":[{"system":"http://terminology.hl7.org/CodeSystem/measure-population","code":"numerator","display":"Numerator"}]},"count":0}]}]},"request":{"method":"PUT","url":"MeasureReport/98b5a87e-5deb-42b0-8897-3709b40ed17d"}}]}