{"resourceType":"Bundle","id":"tests-bb5e3c95-fbde-4ed7-9099-0dab743355ed-bundle","type":"transaction","entry":[{"fullUrl":"https://madie.cms.gov/Patient/bb5e3c95-fbde-4ed7-9099-0dab743355ed","resource":{"resourceType":"Patient","id":"bb5e3c95-fbde-4ed7-9099-0dab743355ed","meta":{"profile":["http://hl7.org/fhir/us/qicore/StructureDefinition/qicore-patient"]},"text":{"status":"generated","div":"<div xmlns=\"http://www.w3.org/1999/xhtml\"><div class=\"hapiHeaderText\">RiskAssessXTwoOVEnc <b>NUMERPASS </b></div><table class=\"hapiPropertyTable\"><tbody><tr><td>Identifier</td><td>eb39db236fbd42849665adb181c344fd</td></tr><tr><td>Date of birth</td><td><span>13 December 1995</span></td></tr></tbody></table></div>"},"extension":[{"url":"http://hl7.org/fhir/us/core/StructureDefinition/us-core-race","extension":[{"url":"ombCategory","valueCoding":{"system":"urn:oid:2.16.840.1.113883.6.238","code":"1002-5","display":"American Indian or Alaska Native","userSelected":true}},{"url":"text","valueString":"American Indian or Alaska Native"}]},{"url":"http://hl7.org/fhir/us/core/StructureDefinition/us-core-ethnicity","extension":[{"url":"ombCategory","valueCoding":{"system":"urn:oid:2.16.840.1.113883.6.238","code":"2135-2","display":"Hispanic or Latino","userSelected":true}},{"url":"text","valueString":"Hispanic or Latino"}]}],"identifier":[{"type":{"coding":[{"system":"http://terminology.hl7.org/CodeSystem/v2-0203","code":"MR"}]},"system":"https://bonnie-fhir.healthit.gov/","value":"6109650598086b538055a0e9"}],"active":true,"name":[{"use":"usual","family":"NUMPass","given":["TwoRiskAssmtOneEnc"]}],"gender":"female","birthDate":"2009-12-13"},"request":{"method":"PUT","url":"Patient/bb5e3c95-fbde-4ed7-9099-0dab743355ed"}},{"fullUrl":"https://madie.cms.gov/Encounter/5c98fd1ab848464ed33e9e8a","resource":{"resourceType":"Encounter","id":"21536fce-6d4d-46fa-9461-7ad7e72f20f7","meta":{"profile":["http://hl7.org/fhir/us/qicore/StructureDefinition/qicore-encounter"]},"status":"finished","class":{"system":"http://terminology.hl7.org/CodeSystem/v3-ActCode","code":"AMB","display":"ambulatory","userSelected":true},"type":[{"coding":[{"system":"http://www.ama-assn.org/go/cpt","code":"99203"}]}],"subject":{"reference":"Patient/bb5e3c95-fbde-4ed7-9099-0dab743355ed"},"period":{"start":"2025-02-11T08:00:00.000+00:00","end":"2025-02-11T08:18:00.000+00:00"},"reasonCode":[{"coding":[{"system":"http://snomed.info/sct","version":"2020-09","code":"10811161000119107","display":"Major depressive disorder in mother complicating pregnancy (disorder)","userSelected":true}]}],"diagnosis":[{"condition":{"reference":"Condition/major-depressive-disorder-active-a497"},"use":{"coding":[{"system":"http://snomed.info/sct","version":"2023-09","code":"10811161000119107","display":"Major depressive disorder in mother complicating pregnancy (disorder)","userSelected":true}]}}]},"request":{"method":"PUT","url":"Encounter/21536fce-6d4d-46fa-9461-7ad7e72f20f7"}},{"fullUrl":"https://madie.cms.gov/Procedure/5c98fd1ab848464ed33e9e8b","resource":{"resourceType":"Procedure","id":"d404049d-6958-4c38-939f-414d1246e2d9","meta":{"profile":["http://hl7.org/fhir/us/qicore/StructureDefinition/qicore-procedure"]},"extension":[{"url":"http://hl7.org/fhir/us/qicore/StructureDefinition/qicore-recorded","valueDateTime":"2025-02-11T08:05:00.000+00:00"}],"status":"completed","code":{"coding":[{"system":"http://snomed.info/sct","code":"225337009"}]},"subject":{"reference":"Patient/bb5e3c95-fbde-4ed7-9099-0dab743355ed"},"performedDateTime":"2025-02-11T08:05:00.000+00:00"},"request":{"method":"PUT","url":"Procedure/d404049d-6958-4c38-939f-414d1246e2d9"}},{"fullUrl":"https://madie.cms.gov/Procedure/5c98fd1ab848464ed33e9e8c","resource":{"resourceType":"Procedure","id":"0c955ba2-6d24-4467-8528-1a4cf354f18d","meta":{"profile":["http://hl7.org/fhir/us/qicore/StructureDefinition/qicore-procedure"]},"extension":[{"url":"http://hl7.org/fhir/us/qicore/StructureDefinition/qicore-recorded","valueDateTime":"2025-02-11T08:01:00.000+00:00"}],"status":"completed","code":{"coding":[{"system":"http://snomed.info/sct","code":"225337009"}]},"subject":{"reference":"Patient/bb5e3c95-fbde-4ed7-9099-0dab743355ed"},"performedDateTime":"2025-02-11T08:01:00.000+00:00"},"request":{"method":"PUT","url":"Procedure/0c955ba2-6d24-4467-8528-1a4cf354f18d"}},{"fullUrl":"https://madie.cms.gov/Condition/major-depressive-disorder-active-a497","resource":{"resourceType":"Condition","id":"5e0ec40c-8641-4060-b70f-4ef9c9663ca0","meta":{"profile":["http://hl7.org/fhir/us/qicore/StructureDefinition/qicore-condition"]},"category":[{"coding":[{"system":"http://terminology.hl7.org/CodeSystem/condition-category","code":"encounter-diagnosis","display":"encounter-diagnosis","userSelected":true}]}],"code":{"coding":[{"system":"http://snomed.info/sct","version":"2023-09","code":"10811121000119102","display":"Major depressive disorder in mother complicating childbirth (disorder)","userSelected":true}]},"subject":{"reference":"Patient/bb5e3c95-fbde-4ed7-9099-0dab743355ed"},"recordedDate":"2025-02-11T08:00:00.000+00:00"},"request":{"method":"PUT","url":"Condition/5e0ec40c-8641-4060-b70f-4ef9c9663ca0"}},{"fullUrl":"https://madie.cms.gov/Coverage/payer-f7a9","resource":{"resourceType":"Coverage","id":"644f5c5b-4b1b-4d41-82f4-2350d6101683","meta":{"profile":["http://hl7.org/fhir/us/qicore/StructureDefinition/qicore-coverage"]},"identifier":[{"system":"http://benefitsinc.com/certificate","value":"12345"}],"status":"active","type":{"coding":[{"system":"https://nahdo.org/sopt","code":"22","userSelected":true}]},"beneficiary":{"reference":"Patient/bb5e3c95-fbde-4ed7-9099-0dab743355ed"},"period":{"start":"2025-01-01T08:00:00.000+00:00","end":"2025-03-28T00:15:00.000+00:00"},"payor":[{"reference":"Organization/806b0255-13cb-4f2b-9412-571554dd2169"}]},"request":{"method":"PUT","url":"Coverage/644f5c5b-4b1b-4d41-82f4-2350d6101683"}},{"fullUrl":"https://madie.cms.gov/Organization/123456","resource":{"resourceType":"Organization","id":"806b0255-13cb-4f2b-9412-571554dd2169","meta":{"profile":["http://hl7.org/fhir/us/qicore/StructureDefinition/qicore-organization"]},"identifier":[{"use":"temp","system":"urn:oid:2.16.840.1.113883.4.4","value":"21-3259825"}],"active":true,"type":[{"coding":[{"system":"http://terminology.hl7.org/CodeSystem/organization-type","code":"pay","display":"Payer"}]}],"name":"Blue Cross Blue Shield of Texas","telecom":[{"system":"phone","value":"(+1) 972-766-6900"}],"address":[{"use":"billing","type":"postal","line":["P.O. Box 660044"],"city":"Dallas","state":"TX","postalCode":"75266-0044","country":"USA"}]},"request":{"method":"PUT","url":"Organization/806b0255-13cb-4f2b-9412-571554dd2169"}},{"fullUrl":"https://madie.cms.gov/Practitioner/practitioner-123456","resource":{"resourceType":"Practitioner","id":"1420474d-7200-4dfd-b56d-26d331a0fdc3","meta":{"profile":["http://hl7.org/fhir/us/qicore/StructureDefinition/qicore-practitioner"]},"identifier":[{"system":"http://hl7.org/fhir/sid/us-npi","value":"123456"}],"name":[{"family":"Evil","prefix":["Dr"]}]},"request":{"method":"PUT","url":"Practitioner/1420474d-7200-4dfd-b56d-26d331a0fdc3"}},{"fullUrl":"https://madie.cms.gov/MeasureReport/38d9e2bf-da16-41f8-adb4-d0122b477b66","resource":{"resourceType":"MeasureReport","id":"38d9e2bf-da16-41f8-adb4-d0122b477b66","meta":{"profile":["http://hl7.org/fhir/us/cqfmeasures/StructureDefinition/test-case-cqfm"]},"contained":[{"resourceType":"Parameters","id":"f6ee00d4-fd49-41f2-a7e6-e4064fbbb592-parameters","parameter":[{"name":"subject","valueString":"bb5e3c95-fbde-4ed7-9099-0dab743355ed"}]}],"extension":[{"url":"http://hl7.org/fhir/us/cqfmeasures/StructureDefinition/cqfm-inputParameters","valueReference":{"reference":"#f6ee00d4-fd49-41f2-a7e6-e4064fbbb592-parameters"}},{"url":"http://hl7.org/fhir/us/cqfmeasures/StructureDefinition/cqfm-testCaseDescription","valueMarkdown":"Patient with depression diagnosis and two suicide risk assessments during office visit."}],"modifierExtension":[{"url":"http://hl7.org/fhir/us/cqfmeasures/StructureDefinition/cqfm-isTestCase","valueBoolean":true}],"status":"complete","type":"individual","measure":"https://madie.cms.gov/Measure/ChildandAdolescentMajorDepressiveDisorderMDDSuicideRiskAssessmentFHIR","period":{"start":"2025-01-01","end":"2025-12-31"},"group":[{"population":[{"code":{"coding":[{"system":"http://terminology.hl7.org/CodeSystem/measure-population","code":"initial-population","display":"Initial Population"}]},"count":1},{"code":{"coding":[{"system":"http://terminology.hl7.org/CodeSystem/measure-population","code":"denominator","display":"Denominator"}]},"count":1},{"code":{"coding":[{"system":"http://terminology.hl7.org/CodeSystem/measure-population","code":"numerator","display":"Numerator"}]},"count":1}]}]},"request":{"method":"PUT","url":"MeasureReport/38d9e2bf-da16-41f8-adb4-d0122b477b66"}}]}