{"resourceType":"Bundle","id":"tests-a5c98189-aa29-4945-a2de-47c62ba4dec9-bundle","type":"transaction","entry":[{"fullUrl":"https://madie.cms.gov/Patient/a5c98189-aa29-4945-a2de-47c62ba4dec9","resource":{"resourceType":"Patient","id":"a5c98189-aa29-4945-a2de-47c62ba4dec9","meta":{"profile":["http://hl7.org/fhir/us/qicore/StructureDefinition/qicore-patient"]},"text":{"status":"generated","div":"<div xmlns=\"http://www.w3.org/1999/xhtml\"><div class=\"hapiHeaderText\">EncAfterMP <b>IPPFAIL </b></div><table class=\"hapiPropertyTable\"><tbody><tr><td>Identifier</td><td>1d040d00d80e6dc1ce0a98a28e54fe43</td></tr><tr><td>Date of birth</td><td><span>13 December 2003</span></td></tr></tbody></table></div>"},"extension":[{"url":"http://hl7.org/fhir/us/core/StructureDefinition/us-core-race","extension":[{"url":"ombCategory","valueCoding":{"system":"urn:oid:2.16.840.1.113883.6.238","code":"1002-5","display":"American Indian or Alaska Native","userSelected":true}},{"url":"text","valueString":"American Indian or Alaska Native"}]},{"url":"http://hl7.org/fhir/us/core/StructureDefinition/us-core-ethnicity","extension":[{"url":"ombCategory","valueCoding":{"system":"urn:oid:2.16.840.1.113883.6.238","code":"2186-5","display":"Not Hispanic or Latino","userSelected":true}},{"url":"text","valueString":"Not Hispanic or Latino"}]}],"identifier":[{"type":{"coding":[{"system":"http://terminology.hl7.org/CodeSystem/v2-0203","code":"MR"}]},"system":"https://bonnie-fhir.healthit.gov/","value":"6109650598086b538055a0fd"}],"active":true,"name":[{"use":"usual","family":"IPFail","given":["EncAfterMP"]}],"gender":"female","birthDate":"2007-12-13"},"request":{"method":"PUT","url":"Patient/a5c98189-aa29-4945-a2de-47c62ba4dec9"}},{"fullUrl":"https://madie.cms.gov/Encounter/5c98fd1ab848464ed33e9e9a","resource":{"resourceType":"Encounter","id":"8dfd294c-5e5b-4e11-81cd-e975d7e2bb2a","status":"finished","class":{"system":"http://terminology.hl7.org/CodeSystem/v3-ActCode","code":"AMB","display":"ambulatory","userSelected":true},"type":[{"coding":[{"system":"http://www.ama-assn.org/go/cpt","code":"90846","userSelected":true}]}],"subject":{"reference":"Patient/a5c98189-aa29-4945-a2de-47c62ba4dec9"},"period":{"start":"2025-02-01T08:00:00.000+00:00","end":"2025-02-01T08:15:00.000+00:00"},"diagnosis":[{"condition":{"reference":"Condition/major-depressive-disorder-active-c3a8"},"use":{"coding":[{"system":"http://snomed.info/sct","version":"2022-09","code":"10811161000119107","display":"Major depressive disorder in mother complicating pregnancy (disorder)","userSelected":true}]}}]},"request":{"method":"PUT","url":"Encounter/8dfd294c-5e5b-4e11-81cd-e975d7e2bb2a"}},{"fullUrl":"https://madie.cms.gov/Condition/major-depressive-disorder-active-c3a8","resource":{"resourceType":"Condition","id":"3e1f15ac-f440-4498-92f8-ad5b9d601c61","category":[{"coding":[{"system":"http://terminology.hl7.org/CodeSystem/condition-category","code":"encounter-diagnosis","display":"Encounter Diagnosis"}]}],"code":{"coding":[{"system":"http://snomed.info/sct","version":"2022-09","code":"10811121000119102","display":"Major depressive disorder in mother complicating childbirth (disorder)","userSelected":true}]},"subject":{"reference":"Patient/a5c98189-aa29-4945-a2de-47c62ba4dec9"},"recordedDate":"2025-02-01T08:00:00.000+00:00"},"request":{"method":"PUT","url":"Condition/3e1f15ac-f440-4498-92f8-ad5b9d601c61"}},{"fullUrl":"https://madie.cms.gov/Procedure/suicide-risk-assessment-procedure-c3a9","resource":{"resourceType":"Procedure","id":"4a3af052-7733-4593-8df8-cf07b4c5e484","status":"completed","code":{"coding":[{"system":"http://snomed.info/sct","code":"225337009","display":"Suicide risk assessment (procedure)","userSelected":true}]},"subject":{"reference":"Patient/a5c98189-aa29-4945-a2de-47c62ba4dec9"},"performedPeriod":{"start":"2024-02-10T08:00:00.000+00:00","end":"2024-02-10T08:15:00.000+00:00"}},"request":{"method":"PUT","url":"Procedure/4a3af052-7733-4593-8df8-cf07b4c5e484"}},{"fullUrl":"https://madie.cms.gov/Coverage/1","resource":{"resourceType":"Coverage","id":"90dc2176-9b73-43e9-932d-9f2c62e20bcc","meta":{"profile":["http://hl7.org/fhir/us/qicore/StructureDefinition/qicore-coverage"]},"status":"active","beneficiary":{"reference":"Patient/a5c98189-aa29-4945-a2de-47c62ba4dec9"},"payor":[{"reference":"Organization/e75793c9-fdf6-463a-8c1d-4ee44320dc25"}]},"request":{"method":"PUT","url":"Coverage/90dc2176-9b73-43e9-932d-9f2c62e20bcc"}},{"fullUrl":"https://madie.cms.gov/Organization/123456","resource":{"resourceType":"Organization","id":"e75793c9-fdf6-463a-8c1d-4ee44320dc25","meta":{"profile":["http://hl7.org/fhir/us/qicore/StructureDefinition/qicore-organization"]},"identifier":[{"use":"temp","system":"urn:oid:2.16.840.1.113883.4.4","value":"21-3259825"}],"active":true,"type":[{"coding":[{"system":"http://terminology.hl7.org/CodeSystem/organization-type","code":"pay","display":"Payer"}]}],"name":"Blue Cross Blue Shield of Texas","telecom":[{"system":"phone","value":"(+1) 972-766-6900"}],"address":[{"use":"billing","type":"postal","line":["P.O. Box 660044"],"city":"Dallas","state":"TX","postalCode":"75266-0044","country":"USA"}]},"request":{"method":"PUT","url":"Organization/e75793c9-fdf6-463a-8c1d-4ee44320dc25"}},{"fullUrl":"https://madie.cms.gov/Practitioner/practitioner-123456","resource":{"resourceType":"Practitioner","id":"a178ec10-0fab-4823-9ae2-8e1aa92462cc","identifier":[{"system":"http://hl7.org/fhir/sid/us-npi","value":"123456"}],"name":[{"family":"Evil","prefix":["Dr"]}]},"request":{"method":"PUT","url":"Practitioner/a178ec10-0fab-4823-9ae2-8e1aa92462cc"}},{"fullUrl":"https://madie.cms.gov/MeasureReport/627b7d87-dbad-4f3e-8c98-c41c1e1cbd3d","resource":{"resourceType":"MeasureReport","id":"627b7d87-dbad-4f3e-8c98-c41c1e1cbd3d","meta":{"profile":["http://hl7.org/fhir/us/cqfmeasures/StructureDefinition/test-case-cqfm"]},"contained":[{"resourceType":"Parameters","id":"7f621b85-80aa-4fab-a98c-0e2ce8eaff80-parameters","parameter":[{"name":"subject","valueString":"a5c98189-aa29-4945-a2de-47c62ba4dec9"}]}],"extension":[{"url":"http://hl7.org/fhir/us/cqfmeasures/StructureDefinition/cqfm-inputParameters","valueReference":{"reference":"#7f621b85-80aa-4fab-a98c-0e2ce8eaff80-parameters"}},{"url":"http://hl7.org/fhir/us/cqfmeasures/StructureDefinition/cqfm-testCaseDescription","valueMarkdown":"Patient with depression diagnosis during psych family encounter after MP"}],"modifierExtension":[{"url":"http://hl7.org/fhir/us/cqfmeasures/StructureDefinition/cqfm-isTestCase","valueBoolean":true}],"status":"complete","type":"individual","measure":"https://madie.cms.gov/Measure/ChildandAdolescentMajorDepressiveDisorderMDDSuicideRiskAssessmentFHIR","period":{"start":"2025-01-01","end":"2025-12-31"},"group":[{"population":[{"code":{"coding":[{"system":"http://terminology.hl7.org/CodeSystem/measure-population","code":"initial-population","display":"Initial Population"}]},"count":0},{"code":{"coding":[{"system":"http://terminology.hl7.org/CodeSystem/measure-population","code":"denominator","display":"Denominator"}]},"count":0},{"code":{"coding":[{"system":"http://terminology.hl7.org/CodeSystem/measure-population","code":"numerator","display":"Numerator"}]},"count":0}]}]},"request":{"method":"PUT","url":"MeasureReport/627b7d87-dbad-4f3e-8c98-c41c1e1cbd3d"}}]}