{"resourceType":"Bundle","id":"tests-818006bc-0d1c-4b40-8668-61011a74f7ec-bundle","type":"transaction","entry":[{"fullUrl":"https://madie.cms.gov/Patient/818006bc-0d1c-4b40-8668-61011a74f7ec","resource":{"resourceType":"Patient","id":"818006bc-0d1c-4b40-8668-61011a74f7ec","meta":{"profile":["http://hl7.org/fhir/us/qicore/StructureDefinition/qicore-patient"]},"extension":[{"url":"http://hl7.org/fhir/us/core/StructureDefinition/us-core-race","extension":[{"url":"ombCategory","valueCoding":{"system":"urn:oid:2.16.840.1.113883.6.238","code":"1002-5","display":"American Indian or Alaska Native","userSelected":true}},{"url":"text","valueString":"American Indian or Alaska Native"}]},{"url":"http://hl7.org/fhir/us/core/StructureDefinition/us-core-ethnicity","extension":[{"url":"ombCategory","valueCoding":{"system":"urn:oid:2.16.840.1.113883.6.238","code":"2186-5","display":"Not Hispanic or Latino","userSelected":true}},{"url":"text","valueString":"Not Hispanic or Latino"}]}],"identifier":[{"type":{"coding":[{"system":"http://terminology.hl7.org/CodeSystem/v2-0203","code":"MR"}]},"system":"https://bonnie-fhir.healthit.gov/","value":"64d118051252352a0771c3b5"}],"name":[{"family":"DENOMPass","given":["DxDuringEnc"]}],"gender":"female","birthDate":"2018-01-02"},"request":{"method":"PUT","url":"Patient/818006bc-0d1c-4b40-8668-61011a74f7ec"}},{"fullUrl":"https://madie.cms.gov/Encounter/office-visit-c3b6","resource":{"resourceType":"Encounter","id":"34726468-2d01-4e69-985c-5aba1c025926","meta":{"profile":["http://hl7.org/fhir/us/qicore/StructureDefinition/qicore-encounter"]},"status":"finished","class":{"system":"http://terminology.hl7.org/CodeSystem/v3-ActCode","code":"AMB","display":"ambulatory","userSelected":true},"type":[{"coding":[{"system":"http://snomed.info/sct","version":"2023-09","code":"185463005","display":"Visit out of hours (procedure)","userSelected":true}]}],"subject":{"reference":"Patient/818006bc-0d1c-4b40-8668-61011a74f7ec"},"period":{"start":"2025-02-11T08:00:00.000+00:00","end":"2025-02-11T08:15:00.000+00:00"},"length":{"value":0.0,"unit":"days"},"reasonCode":[{"coding":[{"system":"http://snomed.info/sct","version":"2023-09","code":"10811161000119107","display":"Major depressive disorder in mother complicating pregnancy (disorder)","userSelected":true}]}],"diagnosis":[{"condition":{"reference":"Condition/major-depressive-disorder-active-c3b8"},"use":{"coding":[{"system":"http://snomed.info/sct","version":"2023-09","code":"10811161000119107","display":"Major depressive disorder in mother complicating pregnancy (disorder)","userSelected":true}]}}]},"request":{"method":"PUT","url":"Encounter/34726468-2d01-4e69-985c-5aba1c025926"}},{"fullUrl":"https://madie.cms.gov/Condition/major-depressive-disorder-active-c3b8","resource":{"resourceType":"Condition","id":"6e7f4e14-14c2-424e-a065-35b6843a188e","meta":{"profile":["http://hl7.org/fhir/us/qicore/StructureDefinition/qicore-condition"]},"category":[{"coding":[{"system":"http://terminology.hl7.org/CodeSystem/condition-category","code":"encounter-diagnosis","display":"encounter-diagnosis","userSelected":true}]}],"code":{"coding":[{"system":"http://snomed.info/sct","version":"2023-09","code":"10811121000119102","display":"Major depressive disorder in mother complicating childbirth (disorder)","userSelected":true}]},"subject":{"reference":"Patient/818006bc-0d1c-4b40-8668-61011a74f7ec"},"recordedDate":"2025-02-11T08:00:00.000+00:00"},"request":{"method":"PUT","url":"Condition/6e7f4e14-14c2-424e-a065-35b6843a188e"}},{"fullUrl":"https://madie.cms.gov/Coverage/payer-617f","resource":{"resourceType":"Coverage","id":"20deb20e-35cb-40a5-8131-6d70e5df551d","meta":{"profile":["http://hl7.org/fhir/us/qicore/StructureDefinition/qicore-coverage"]},"identifier":[{"system":"http://benefitsinc.com/certificate","value":"12345"}],"status":"active","type":{"coding":[{"system":"https://nahdo.org/sopt","version":"9.2","code":"1","display":"MEDICARE","userSelected":true}]},"beneficiary":{"reference":"Patient/818006bc-0d1c-4b40-8668-61011a74f7ec"},"period":{"start":"2025-01-29T08:00:00.000+00:00","end":"2025-05-29T08:15:00.000+00:00"},"payor":[{"reference":"Organization/4d7da20f-8773-4347-8f6b-80adcdcee1f4"}]},"request":{"method":"PUT","url":"Coverage/20deb20e-35cb-40a5-8131-6d70e5df551d"}},{"fullUrl":"https://madie.cms.gov/Organization/123456","resource":{"resourceType":"Organization","id":"4d7da20f-8773-4347-8f6b-80adcdcee1f4","meta":{"profile":["http://hl7.org/fhir/us/qicore/StructureDefinition/qicore-organization"]},"identifier":[{"use":"temp","system":"urn:oid:2.16.840.1.113883.4.4","value":"21-3259825"}],"active":true,"type":[{"coding":[{"system":"http://terminology.hl7.org/CodeSystem/organization-type","code":"pay","display":"Payer"}]}],"name":"Blue Cross Blue Shield of Texas","telecom":[{"system":"phone","value":"(+1) 972-766-6900"}],"address":[{"use":"billing","type":"postal","line":["P.O. Box 660044"],"city":"Dallas","state":"TX","postalCode":"75266-0044","country":"USA"}]},"request":{"method":"PUT","url":"Organization/4d7da20f-8773-4347-8f6b-80adcdcee1f4"}},{"fullUrl":"https://madie.cms.gov/Practitioner/practitioner-123456","resource":{"resourceType":"Practitioner","id":"b66aaea2-e469-4814-9d3a-709732034d06","meta":{"profile":["http://hl7.org/fhir/us/qicore/StructureDefinition/qicore-practitioner"]},"identifier":[{"system":"http://hl7.org/fhir/sid/us-npi","value":"123456"}],"name":[{"family":"Evil","prefix":["Dr"]}]},"request":{"method":"PUT","url":"Practitioner/b66aaea2-e469-4814-9d3a-709732034d06"}},{"fullUrl":"https://madie.cms.gov/MeasureReport/dfbb3580-4345-436d-adc4-e099edebe0ec","resource":{"resourceType":"MeasureReport","id":"dfbb3580-4345-436d-adc4-e099edebe0ec","meta":{"profile":["http://hl7.org/fhir/us/cqfmeasures/StructureDefinition/test-case-cqfm"]},"contained":[{"resourceType":"Parameters","id":"a870058e-f700-46ad-9f47-9b2fb94a2c2c-parameters","parameter":[{"name":"subject","valueString":"818006bc-0d1c-4b40-8668-61011a74f7ec"}]}],"extension":[{"url":"http://hl7.org/fhir/us/cqfmeasures/StructureDefinition/cqfm-inputParameters","valueReference":{"reference":"#a870058e-f700-46ad-9f47-9b2fb94a2c2c-parameters"}},{"url":"http://hl7.org/fhir/us/cqfmeasures/StructureDefinition/cqfm-testCaseDescription","valueMarkdown":"Patient is over 6 years with Depression diagnosis during Office Visit encounter and Suicide Risk Assessment"}],"modifierExtension":[{"url":"http://hl7.org/fhir/us/cqfmeasures/StructureDefinition/cqfm-isTestCase","valueBoolean":true}],"status":"complete","type":"individual","measure":"https://madie.cms.gov/Measure/ChildandAdolescentMajorDepressiveDisorderMDDSuicideRiskAssessmentFHIR","period":{"start":"2025-01-01","end":"2025-12-31"},"group":[{"population":[{"code":{"coding":[{"system":"http://terminology.hl7.org/CodeSystem/measure-population","code":"initial-population","display":"Initial Population"}]},"count":1},{"code":{"coding":[{"system":"http://terminology.hl7.org/CodeSystem/measure-population","code":"denominator","display":"Denominator"}]},"count":1},{"code":{"coding":[{"system":"http://terminology.hl7.org/CodeSystem/measure-population","code":"numerator","display":"Numerator"}]},"count":0}]}]},"request":{"method":"PUT","url":"MeasureReport/dfbb3580-4345-436d-adc4-e099edebe0ec"}}]}