{"resourceType":"Bundle","id":"tests-8c08e522-8023-48ae-b0a7-b6444157507b-bundle","type":"transaction","entry":[{"fullUrl":"https://madie.cms.gov/Patient/8c08e522-8023-48ae-b0a7-b6444157507b","resource":{"resourceType":"Patient","id":"8c08e522-8023-48ae-b0a7-b6444157507b","meta":{"profile":["http://hl7.org/fhir/us/qicore/StructureDefinition/qicore-patient"]},"text":{"status":"generated","div":"<div xmlns=\"http://www.w3.org/1999/xhtml\"><div class=\"hapiHeaderText\">RiskAssessOVEnc <b>NUMERPASS </b></div><table class=\"hapiPropertyTable\"><tbody><tr><td>Identifier</td><td>b0539aaa5eb9f04ab4673fe552b86099</td></tr><tr><td>Date of birth</td><td><span>13 December 1995</span></td></tr></tbody></table></div>"},"extension":[{"url":"http://hl7.org/fhir/us/core/StructureDefinition/us-core-race","extension":[{"url":"ombCategory","valueCoding":{"system":"urn:oid:2.16.840.1.113883.6.238","code":"1002-5","display":"American Indian or Alaska Native","userSelected":true}},{"url":"text","valueString":"American Indian or Alaska Native"}]},{"url":"http://hl7.org/fhir/us/core/StructureDefinition/us-core-ethnicity","extension":[{"url":"ombCategory","valueCoding":{"system":"urn:oid:2.16.840.1.113883.6.238","code":"2186-5","display":"Not Hispanic or Latino","userSelected":true}},{"url":"text","valueString":"Not Hispanic or Latino"}]}],"identifier":[{"type":{"coding":[{"system":"http://terminology.hl7.org/CodeSystem/v2-0203","code":"MR"}]},"system":"https://bonnie-fhir.healthit.gov/","value":"6109650598086b538055a0e3"}],"active":true,"name":[{"use":"usual","family":"NUMPass","given":["RiskAssessOVEnc"]}],"gender":"female","birthDate":"2012-12-13"},"request":{"method":"PUT","url":"Patient/8c08e522-8023-48ae-b0a7-b6444157507b"}},{"fullUrl":"https://madie.cms.gov/Encounter/5c98fd1ab848464ed33e9e63","resource":{"resourceType":"Encounter","id":"611de56c-1c4b-49c7-bf4f-582228eada1b","meta":{"profile":["http://hl7.org/fhir/us/qicore/StructureDefinition/qicore-encounter"]},"status":"finished","class":{"system":"http://terminology.hl7.org/CodeSystem/v3-ActCode","code":"AMB","display":"ambulatory","userSelected":true},"type":[{"coding":[{"system":"http://snomed.info/sct","code":"185463005"}]}],"subject":{"reference":"Patient/8c08e522-8023-48ae-b0a7-b6444157507b"},"period":{"start":"2025-02-11T08:00:00.000+00:00","end":"2025-02-11T08:15:00.000+00:00"},"reasonCode":[{"coding":[{"system":"http://snomed.info/sct","code":"832007","display":"Moderate major depression","userSelected":true}]}],"diagnosis":[{"condition":{"reference":"Condition/major-depressive-disorder-active-4fa7"},"use":{"coding":[{"system":"http://snomed.info/sct","code":"10811161000119107","display":"Major Depressive Disorder-Active"}]}}]},"request":{"method":"PUT","url":"Encounter/611de56c-1c4b-49c7-bf4f-582228eada1b"}},{"fullUrl":"https://madie.cms.gov/Procedure/5c98fd1ab848464ed33e9e64","resource":{"resourceType":"Procedure","id":"37da5fe1-0b46-43d9-84f8-5cb8f7d2a671","meta":{"profile":["http://hl7.org/fhir/us/qicore/StructureDefinition/qicore-procedure"]},"extension":[{"url":"http://hl7.org/fhir/us/qicore/StructureDefinition/qicore-recorded","valueDateTime":"2025-02-11T08:05:00.000Z"}],"status":"completed","code":{"coding":[{"system":"http://snomed.info/sct","code":"225337009"}]},"subject":{"reference":"Patient/8c08e522-8023-48ae-b0a7-b6444157507b"},"performedDateTime":"2025-02-11T08:05:00.000+00:00"},"request":{"method":"PUT","url":"Procedure/37da5fe1-0b46-43d9-84f8-5cb8f7d2a671"}},{"fullUrl":"https://madie.cms.gov/Condition/major-depressive-disorder-active-4fa7","resource":{"resourceType":"Condition","id":"727e8570-7f0a-4568-ab50-963ccc08c1d5","meta":{"profile":["http://hl7.org/fhir/us/qicore/StructureDefinition/qicore-condition"]},"category":[{"coding":[{"system":"http://terminology.hl7.org/CodeSystem/condition-category","code":"encounter-diagnosis","display":"encounter-diagnosis","userSelected":true}]}],"code":{"coding":[{"system":"http://snomed.info/sct","code":"79298009","userSelected":true}]},"subject":{"reference":"Patient/8c08e522-8023-48ae-b0a7-b6444157507b"},"recordedDate":"2025-08-17T08:00:00.000+00:00"},"request":{"method":"PUT","url":"Condition/727e8570-7f0a-4568-ab50-963ccc08c1d5"}},{"fullUrl":"https://madie.cms.gov/Coverage/payer-ae6c","resource":{"resourceType":"Coverage","id":"6b2db106-430b-41b4-8dfe-be992d05822e","meta":{"profile":["http://hl7.org/fhir/us/qicore/StructureDefinition/qicore-coverage"]},"identifier":[{"system":"http://benefitsinc.com/certificate","value":"12345"}],"status":"active","type":{"coding":[{"system":"https://nahdo.org/sopt","version":"9.2","code":"1","display":"MEDICARE","userSelected":true}]},"beneficiary":{"reference":"Patient/8c08e522-8023-48ae-b0a7-b6444157507b"},"period":{"start":"2025-01-01T08:00:00.000+00:00","end":"2025-12-01T08:15:00.000+00:00"},"payor":[{"reference":"Organization/e75793c9-fdf6-463a-8c1d-4ee44320dc25"}]},"request":{"method":"PUT","url":"Coverage/6b2db106-430b-41b4-8dfe-be992d05822e"}},{"fullUrl":"https://madie.cms.gov/Organization/123456","resource":{"resourceType":"Organization","id":"e75793c9-fdf6-463a-8c1d-4ee44320dc25","meta":{"profile":["http://hl7.org/fhir/us/qicore/StructureDefinition/qicore-organization"]},"identifier":[{"use":"temp","system":"urn:oid:2.16.840.1.113883.4.4","value":"21-3259825"}],"active":true,"type":[{"coding":[{"system":"http://terminology.hl7.org/CodeSystem/organization-type","code":"pay","display":"Payer"}]}],"name":"Blue Cross Blue Shield of Texas","telecom":[{"system":"phone","value":"(+1) 972-766-6900"}],"address":[{"use":"billing","type":"postal","line":["P.O. Box 660044"],"city":"Dallas","state":"TX","postalCode":"75266-0044","country":"USA"}]},"request":{"method":"PUT","url":"Organization/e75793c9-fdf6-463a-8c1d-4ee44320dc25"}},{"fullUrl":"https://madie.cms.gov/Practitioner/practitioner-123456","resource":{"resourceType":"Practitioner","id":"013c2020-f921-40b1-ae78-64c329ebabc5","meta":{"profile":["http://hl7.org/fhir/us/qicore/StructureDefinition/qicore-practitioner"]},"identifier":[{"system":"http://hl7.org/fhir/sid/us-npi","value":"123456"}],"name":[{"family":"Evil","prefix":["Dr"]}]},"request":{"method":"PUT","url":"Practitioner/013c2020-f921-40b1-ae78-64c329ebabc5"}},{"fullUrl":"https://madie.cms.gov/MeasureReport/593e5af7-df09-4038-ab87-261643a88934","resource":{"resourceType":"MeasureReport","id":"593e5af7-df09-4038-ab87-261643a88934","meta":{"profile":["http://hl7.org/fhir/us/cqfmeasures/StructureDefinition/test-case-cqfm"]},"contained":[{"resourceType":"Parameters","id":"c33af09a-dc13-4b7a-bea7-35b373a06569-parameters","parameter":[{"name":"subject","valueString":"8c08e522-8023-48ae-b0a7-b6444157507b"}]}],"extension":[{"url":"http://hl7.org/fhir/us/cqfmeasures/StructureDefinition/cqfm-inputParameters","valueReference":{"reference":"#c33af09a-dc13-4b7a-bea7-35b373a06569-parameters"}},{"url":"http://hl7.org/fhir/us/cqfmeasures/StructureDefinition/cqfm-testCaseDescription","valueMarkdown":"Patient with depression and suicide risk assessment done during Office Visit"}],"modifierExtension":[{"url":"http://hl7.org/fhir/us/cqfmeasures/StructureDefinition/cqfm-isTestCase","valueBoolean":true}],"status":"complete","type":"individual","measure":"https://madie.cms.gov/Measure/ChildandAdolescentMajorDepressiveDisorderMDDSuicideRiskAssessmentFHIR","period":{"start":"2025-01-01","end":"2025-12-31"},"group":[{"population":[{"code":{"coding":[{"system":"http://terminology.hl7.org/CodeSystem/measure-population","code":"initial-population","display":"Initial Population"}]},"count":1},{"code":{"coding":[{"system":"http://terminology.hl7.org/CodeSystem/measure-population","code":"denominator","display":"Denominator"}]},"count":1},{"code":{"coding":[{"system":"http://terminology.hl7.org/CodeSystem/measure-population","code":"numerator","display":"Numerator"}]},"count":1}]}]},"request":{"method":"PUT","url":"MeasureReport/593e5af7-df09-4038-ab87-261643a88934"}}]}