{"resourceType":"Bundle","id":"tests-26949c32-8cf5-4bc4-8d5f-8b317498eec4-bundle","type":"transaction","entry":[{"fullUrl":"Patient/26949c32-8cf5-4bc4-8d5f-8b317498eec4","resource":{"resourceType":"Patient","id":"26949c32-8cf5-4bc4-8d5f-8b317498eec4","meta":{"profile":["http://hl7.org/fhir/us/qicore/StructureDefinition/qicore-patient"]},"text":{"status":"generated","div":"<div xmlns=\"http://www.w3.org/1999/xhtml\"><div class=\"hapiHeaderText\">RiskAssessPsychFamVisitEnc <b>NUMERPASS </b></div><table class=\"hapiPropertyTable\"><tbody><tr><td>Identifier</td><td>4e22c941d59d3d2738c5b043d6c0a1b5</td></tr><tr><td>Date of birth</td><td><span>20 November 2005</span></td></tr></tbody></table></div>"},"extension":[{"url":"http://hl7.org/fhir/us/core/StructureDefinition/us-core-race","extension":[{"url":"ombCategory","valueCoding":{"system":"urn:oid:2.16.840.1.113883.6.238","code":"2106-3","display":"White","userSelected":true}},{"url":"text","valueString":"White"}]},{"url":"http://hl7.org/fhir/us/core/StructureDefinition/us-core-ethnicity","extension":[{"url":"ombCategory","valueCoding":{"system":"urn:oid:2.16.840.1.113883.6.238","code":"2186-5","display":"Not Hispanic or Latino","userSelected":true}},{"url":"text","valueString":"Not Hispanic or Latino"}]}],"identifier":[{"type":{"coding":[{"system":"http://terminology.hl7.org/CodeSystem/v2-0203","code":"MR"}]},"system":"https://bonnie-fhir.healthit.gov/","value":"6109650598086b538055a103"}],"active":true,"name":[{"use":"usual","family":"NUMPass","given":["RiskAssessPsychFamVisitEnc"]}],"gender":"male","birthDate":"2009-11-20"},"request":{"method":"PUT","url":"Patient/26949c32-8cf5-4bc4-8d5f-8b317498eec4"}},{"fullUrl":"Encounter/5c98fd1ab848464ed33e9e73","resource":{"resourceType":"Encounter","id":"5c98fd1ab848464ed33e9e73","meta":{"profile":["http://hl7.org/fhir/us/qicore/StructureDefinition/qicore-encounter"]},"status":"finished","class":{"system":"http://terminology.hl7.org/CodeSystem/v3-ActCode","code":"AMB","display":"ambulatory","userSelected":true},"type":[{"coding":[{"system":"http://snomed.info/sct","code":"108313002"}]}],"subject":{"reference":"Patient/26949c32-8cf5-4bc4-8d5f-8b317498eec4"},"period":{"start":"2025-01-02T08:30:00.000+00:00","end":"2025-01-04T09:00:00.000+00:00"},"reasonCode":[{"coding":[{"system":"http://hl7.org/fhir/sid/icd-10-cm","version":"2021","code":"F32.9","display":"Major depressive disorder, single episode, unspecified","userSelected":true}]}],"diagnosis":[{"condition":{"reference":"Condition/major-depressive-disorder-active-a499"},"use":{"coding":[{"system":"http://hl7.org/fhir/sid/icd-10-cm","version":"2023","code":"F32.9","display":"Major depressive disorder, single episode, unspecified","userSelected":true}]}}]},"request":{"method":"PUT","url":"Encounter/5c98fd1ab848464ed33e9e73"}},{"fullUrl":"Procedure/5c98fd1ab848464ed33e9e74","resource":{"resourceType":"Procedure","id":"5c98fd1ab848464ed33e9e74","meta":{"profile":["http://hl7.org/fhir/us/qicore/StructureDefinition/qicore-procedure"]},"extension":[{"url":"http://hl7.org/fhir/us/qicore/StructureDefinition/qicore-recorded","valueDateTime":"2025-01-02T08:30:00.000Z"}],"status":"completed","code":{"coding":[{"system":"http://snomed.info/sct","code":"225337009"}]},"subject":{"reference":"Patient/26949c32-8cf5-4bc4-8d5f-8b317498eec4"},"performedDateTime":"2025-01-03T08:59:00.000+00:00"},"request":{"method":"PUT","url":"Procedure/5c98fd1ab848464ed33e9e74"}},{"fullUrl":"Condition/major-depressive-disorder-active-a499","resource":{"resourceType":"Condition","id":"major-depressive-disorder-active-a499","meta":{"profile":["http://hl7.org/fhir/us/qicore/StructureDefinition/qicore-condition"]},"category":[{"coding":[{"system":"http://terminology.hl7.org/CodeSystem/condition-category","code":"encounter-diagnosis","display":"Encounter Diagnosis"}]}],"code":{"coding":[{"system":"http://snomed.info/sct","version":"2022-09","code":"10811121000119102","display":"Major depressive disorder in mother complicating childbirth (disorder)","userSelected":true}]},"subject":{"reference":"Patient/26949c32-8cf5-4bc4-8d5f-8b317498eec4"},"recordedDate":"2025-01-01T08:30:00.000+00:00"},"request":{"method":"PUT","url":"Condition/major-depressive-disorder-active-a499"}},{"fullUrl":"Coverage/Coverage-1","resource":{"resourceType":"Coverage","id":"Coverage-1","meta":{"profile":["http://hl7.org/fhir/us/qicore/StructureDefinition/qicore-coverage"]},"status":"active","beneficiary":{"reference":"Patient/26949c32-8cf5-4bc4-8d5f-8b317498eec4"},"payor":[{"reference":"Organization/Org-123456"}]},"request":{"method":"PUT","url":"Coverage/Coverage-1"}},{"fullUrl":"Organization/Org-123456","resource":{"resourceType":"Organization","id":"Org-123456","meta":{"profile":["http://hl7.org/fhir/us/qicore/StructureDefinition/qicore-organization"]},"identifier":[{"use":"temp","system":"urn:oid:2.16.840.1.113883.4.4","value":"21-3259825"}],"active":true,"type":[{"coding":[{"system":"http://terminology.hl7.org/CodeSystem/organization-type","code":"pay","display":"Payer"}]}],"name":"Blue Cross Blue Shield of Texas","telecom":[{"system":"phone","value":"(+1) 972-766-6900"}],"address":[{"use":"billing","type":"postal","line":["P.O. Box 660044"],"city":"Dallas","state":"TX","postalCode":"75266-0044","country":"USA"}]},"request":{"method":"PUT","url":"Organization/Org-123456"}},{"fullUrl":"Practitioner/practitioner-123456","resource":{"resourceType":"Practitioner","id":"practitioner-123456","meta":{"profile":["http://hl7.org/fhir/us/qicore/StructureDefinition/qicore-practitioner"]},"identifier":[{"system":"http://hl7.org/fhir/sid/us-npi","value":"123456"}],"name":[{"family":"Evil","prefix":["Dr"]}]},"request":{"method":"PUT","url":"Practitioner/practitioner-123456"}},{"fullUrl":"MeasureReport/b63f4fd3-81bd-4f9e-a418-423f2124b7c5","resource":{"resourceType":"MeasureReport","id":"b63f4fd3-81bd-4f9e-a418-423f2124b7c5","meta":{"profile":["http://hl7.org/fhir/us/cqfmeasures/StructureDefinition/test-case-cqfm"]},"contained":[{"resourceType":"Parameters","id":"c08e73fe-562b-4eeb-9ead-527082e9f421-parameters","parameter":[{"name":"subject","valueString":"26949c32-8cf5-4bc4-8d5f-8b317498eec4"}]}],"extension":[{"url":"http://hl7.org/fhir/us/cqfmeasures/StructureDefinition/cqfm-inputParameters","valueReference":{"reference":"#c08e73fe-562b-4eeb-9ead-527082e9f421-parameters"}},{"url":"http://hl7.org/fhir/us/cqfmeasures/StructureDefinition/cqfm-testCaseDescription","valueMarkdown":"Patient with Depression Diagnosis and Suicide Risk Assessment during Psych Visit - Family Psychotherapy encounter"}],"modifierExtension":[{"url":"http://hl7.org/fhir/us/cqfmeasures/StructureDefinition/cqfm-isTestCase","valueBoolean":true}],"status":"complete","type":"individual","measure":"Measure/ChildandAdolescentMajorDepressiveDisorderMDDSuicideRiskAssessmentFHIR","period":{"start":"2025-01-01","end":"2025-12-31"},"group":[{"population":[{"code":{"coding":[{"system":"http://terminology.hl7.org/CodeSystem/measure-population","code":"initial-population","display":"Initial Population"}]},"count":1},{"code":{"coding":[{"system":"http://terminology.hl7.org/CodeSystem/measure-population","code":"denominator","display":"Denominator"}]},"count":1},{"code":{"coding":[{"system":"http://terminology.hl7.org/CodeSystem/measure-population","code":"numerator","display":"Numerator"}]},"count":1}]}],"evaluatedResource":[{"reference":"Patient/26949c32-8cf5-4bc4-8d5f-8b317498eec4"},{"reference":"Encounter/5c98fd1ab848464ed33e9e73"},{"reference":"Procedure/5c98fd1ab848464ed33e9e74"},{"reference":"Condition/major-depressive-disorder-active-a499"},{"reference":"Coverage/Coverage-1"},{"reference":"Organization/Org-123456"},{"reference":"Practitioner/practitioner-123456"}]},"request":{"method":"PUT","url":"MeasureReport/b63f4fd3-81bd-4f9e-a418-423f2124b7c5"}}]}