{"resourceType":"Bundle","id":"tests-b46f442c-e46e-488d-8c80-1f91492c759b-bundle","type":"transaction","entry":[{"fullUrl":"https://madie.cms.gov/Patient/b46f442c-e46e-488d-8c80-1f91492c759b","resource":{"resourceType":"Patient","id":"b46f442c-e46e-488d-8c80-1f91492c759b","meta":{"profile":["http://hl7.org/fhir/us/qicore/StructureDefinition/qicore-patient"]},"text":{"status":"generated","div":"<div xmlns=\"http://www.w3.org/1999/xhtml\"><div class=\"hapiHeaderText\">PtCorAgeDepDxInOVEnc <b>DENOMPASS </b></div><table class=\"hapiPropertyTable\"><tbody><tr><td>Identifier</td><td>8bd8d45d92ff2bbf257cc266fc1c9dbb</td></tr><tr><td>Date of birth</td><td><span>02 January 2005</span></td></tr></tbody></table></div>"},"extension":[{"url":"http://hl7.org/fhir/us/core/StructureDefinition/us-core-race","extension":[{"url":"ombCategory","valueCoding":{"system":"urn:oid:2.16.840.1.113883.6.238","code":"1002-5","display":"American Indian or Alaska Native","userSelected":true}},{"url":"text","valueString":"American Indian or Alaska Native"}]},{"url":"http://hl7.org/fhir/us/core/StructureDefinition/us-core-ethnicity","extension":[{"url":"ombCategory","valueCoding":{"system":"urn:oid:2.16.840.1.113883.6.238","code":"2186-5","display":"Not Hispanic or Latino","userSelected":true}},{"url":"text","valueString":"Not Hispanic or Latino"}]}],"identifier":[{"type":{"coding":[{"system":"http://terminology.hl7.org/CodeSystem/v2-0203","code":"MR"}]},"system":"https://bonnie-fhir.healthit.gov/","value":"6109650598086b538055a0fe"}],"active":true,"name":[{"use":"usual","family":"IPPass","given":["MDDDxInOPEnc"]}],"gender":"female","birthDate":"2018-01-02"},"request":{"method":"PUT","url":"Patient/b46f442c-e46e-488d-8c80-1f91492c759b"}},{"fullUrl":"https://madie.cms.gov/Encounter/5c98fd1ab848464ed33e9e81","resource":{"resourceType":"Encounter","id":"f4f7e942-6d8a-48c6-ab7f-e7997a1a0240","meta":{"profile":["http://hl7.org/fhir/us/qicore/StructureDefinition/qicore-encounter"]},"status":"finished","class":{"system":"http://terminology.hl7.org/CodeSystem/v3-ActCode","code":"AMB","display":"ambulatory","userSelected":true},"type":[{"coding":[{"system":"http://snomed.info/sct","code":"77406008"}]}],"subject":{"reference":"Patient/b46f442c-e46e-488d-8c80-1f91492c759b"},"period":{"start":"2025-02-11T08:00:00.000+00:00","end":"2025-02-11T08:30:00.000+00:00"},"diagnosis":[{"condition":{"reference":"Condition/major-depressive-disorder-active-7d3e"},"use":{"coding":[{"system":"http://snomed.info/sct","code":"10811161000119107","display":"Major Depressive Disorder-Active"}]}}]},"request":{"method":"PUT","url":"Encounter/f4f7e942-6d8a-48c6-ab7f-e7997a1a0240"}},{"fullUrl":"https://madie.cms.gov/Condition/major-depressive-disorder-active-7d3e","resource":{"resourceType":"Condition","id":"a62e9e6d-f86a-4f0b-a568-95440afe6fcd","meta":{"profile":["http://hl7.org/fhir/us/qicore/StructureDefinition/qicore-condition"]},"clinicalStatus":{"coding":[{"system":"http://terminology.hl7.org/CodeSystem/condition-clinical","code":"active","display":"Active","userSelected":true}]},"verificationStatus":{"coding":[{"system":"http://terminology.hl7.org/CodeSystem/condition-ver-status","code":"confirmed","display":"Confirmed","userSelected":true}]},"category":[{"coding":[{"system":"http://terminology.hl7.org/CodeSystem/condition-category","code":"encounter-diagnosis","display":"Encounter Diagnosis","userSelected":true}]}],"code":{"coding":[{"system":"http://snomed.info/sct","code":"10811161000119107","userSelected":true}]},"subject":{"reference":"Patient/b46f442c-e46e-488d-8c80-1f91492c759b"},"onsetDateTime":"2025-02-11T08:00:00.000+00:00","recordedDate":"2025-02-11T08:00:00.000+00:00"},"request":{"method":"PUT","url":"Condition/a62e9e6d-f86a-4f0b-a568-95440afe6fcd"}},{"fullUrl":"https://madie.cms.gov/Coverage/payer-618c","resource":{"resourceType":"Coverage","id":"7a42e90b-e269-4308-bc7e-27c159836f45","meta":{"profile":["http://hl7.org/fhir/us/qicore/StructureDefinition/qicore-coverage"]},"status":"active","type":{"coding":[{"system":"https://nahdo.org/sopt","version":"9.2","code":"1","display":"MEDICARE","userSelected":true}]},"beneficiary":{"reference":"Patient/b46f442c-e46e-488d-8c80-1f91492c759b"},"period":{"start":"2025-01-29T08:00:00.000+00:00","end":"2025-09-29T08:15:00.000+00:00"},"payor":[{"reference":"Organization/5ad6ea38-07e9-4482-9e1b-c09eee595be9"}]},"request":{"method":"PUT","url":"Coverage/7a42e90b-e269-4308-bc7e-27c159836f45"}},{"fullUrl":"https://madie.cms.gov/Organization/123456","resource":{"resourceType":"Organization","id":"5ad6ea38-07e9-4482-9e1b-c09eee595be9","meta":{"profile":["http://hl7.org/fhir/us/qicore/StructureDefinition/qicore-organization"]},"identifier":[{"use":"temp","system":"urn:oid:2.16.840.1.113883.4.4","value":"21-3259825"}],"active":true,"type":[{"coding":[{"system":"http://terminology.hl7.org/CodeSystem/organization-type","code":"pay","display":"Payer"}]}],"name":"Blue Cross Blue Shield of Texas","telecom":[{"system":"phone","value":"(+1) 972-766-6900"}],"address":[{"use":"billing","type":"postal","line":["P.O. Box 660044"],"city":"Dallas","state":"TX","postalCode":"75266-0044","country":"USA"}]},"request":{"method":"PUT","url":"Organization/5ad6ea38-07e9-4482-9e1b-c09eee595be9"}},{"fullUrl":"https://madie.cms.gov/Practitioner/practitioner-123456","resource":{"resourceType":"Practitioner","id":"de016ce6-4a1a-417c-9c0c-079a772a0670","meta":{"profile":["http://hl7.org/fhir/us/qicore/StructureDefinition/qicore-practitioner"]},"identifier":[{"system":"http://hl7.org/fhir/sid/us-npi","value":"123456"}],"name":[{"family":"Evil","prefix":["Dr"]}]},"request":{"method":"PUT","url":"Practitioner/de016ce6-4a1a-417c-9c0c-079a772a0670"}},{"fullUrl":"https://madie.cms.gov/MeasureReport/6593b927-f241-4b46-a15e-d0399a19310e","resource":{"resourceType":"MeasureReport","id":"6593b927-f241-4b46-a15e-d0399a19310e","meta":{"profile":["http://hl7.org/fhir/us/cqfmeasures/StructureDefinition/test-case-cqfm"]},"contained":[{"resourceType":"Parameters","id":"991a4ad4-46e6-4914-99a7-204c437303bd-parameters","parameter":[{"name":"subject","valueString":"b46f442c-e46e-488d-8c80-1f91492c759b"}]}],"extension":[{"url":"http://hl7.org/fhir/us/cqfmeasures/StructureDefinition/cqfm-inputParameters","valueReference":{"reference":"#991a4ad4-46e6-4914-99a7-204c437303bd-parameters"}},{"url":"http://hl7.org/fhir/us/cqfmeasures/StructureDefinition/cqfm-testCaseDescription","valueMarkdown":"Patient completed Outpatient Consultation with Major Depressive Disorder diagnosis during the MP"}],"modifierExtension":[{"url":"http://hl7.org/fhir/us/cqfmeasures/StructureDefinition/cqfm-isTestCase","valueBoolean":true}],"status":"complete","type":"individual","measure":"https://madie.cms.gov/Measure/ChildandAdolescentMajorDepressiveDisorderMDDSuicideRiskAssessmentFHIR","period":{"start":"2025-01-01","end":"2025-12-31"},"group":[{"population":[{"code":{"coding":[{"system":"http://terminology.hl7.org/CodeSystem/measure-population","code":"initial-population","display":"Initial Population"}]},"count":1},{"code":{"coding":[{"system":"http://terminology.hl7.org/CodeSystem/measure-population","code":"denominator","display":"Denominator"}]},"count":1},{"code":{"coding":[{"system":"http://terminology.hl7.org/CodeSystem/measure-population","code":"numerator","display":"Numerator"}]},"count":0}]}]},"request":{"method":"PUT","url":"MeasureReport/6593b927-f241-4b46-a15e-d0399a19310e"}}]}