{"resourceType":"Bundle","id":"tests-5443d3b4-6d8a-45a0-b9d9-409aeabff8d7-bundle","type":"transaction","entry":[{"fullUrl":"https://madie.cms.gov/Patient/5443d3b4-6d8a-45a0-b9d9-409aeabff8d7","resource":{"resourceType":"Patient","id":"5443d3b4-6d8a-45a0-b9d9-409aeabff8d7","meta":{"profile":["http://hl7.org/fhir/us/qicore/StructureDefinition/qicore-patient"]},"extension":[{"url":"http://hl7.org/fhir/us/core/StructureDefinition/us-core-race","extension":[{"url":"ombCategory","valueCoding":{"system":"urn:oid:2.16.840.1.113883.6.238","code":"1002-5","display":"American Indian or Alaska Native","userSelected":true}},{"url":"text","valueString":"American Indian or Alaska Native"}]},{"url":"http://hl7.org/fhir/us/core/StructureDefinition/us-core-ethnicity","extension":[{"url":"ombCategory","valueCoding":{"system":"urn:oid:2.16.840.1.113883.6.238","code":"2186-5","display":"Not Hispanic or Latino","userSelected":true}},{"url":"text","valueString":"Not Hispanic or Latino"}]}],"identifier":[{"type":{"coding":[{"system":"http://terminology.hl7.org/CodeSystem/v2-0203","code":"MR"}]},"system":"https://bonnie-fhir.healthit.gov/","value":"64d121e71252352a0771c3c4"}],"name":[{"family":"IPFail","given":["Age5Yr11Mo30DayOnJan2Edge"]}],"gender":"male","birthDate":"2020-01-02"},"request":{"method":"PUT","url":"Patient/5443d3b4-6d8a-45a0-b9d9-409aeabff8d7"}},{"fullUrl":"https://madie.cms.gov/Encounter/psych-visit-psychotherapy-c3c5","resource":{"resourceType":"Encounter","id":"cc8394c8-6a97-4c7f-ae56-f7657a40dde9","status":"finished","class":{"system":"http://terminology.hl7.org/CodeSystem/v3-ActCode","code":"AMB","display":"ambulatory","userSelected":true},"type":[{"coding":[{"system":"http://www.ama-assn.org/go/cpt","code":"90832","userSelected":true}]}],"subject":{"reference":"Patient/5443d3b4-6d8a-45a0-b9d9-409aeabff8d7"},"period":{"start":"2026-07-12T11:45:00.000+00:00","end":"2026-07-12T11:45:00.000+00:00"},"diagnosis":[{"condition":{"reference":"Condition/major-depressive-disorder-active-c3c6"},"use":{"coding":[{"system":"http://snomed.info/sct","version":"2022-09","code":"10811161000119107","display":"Major depressive disorder in mother complicating pregnancy (disorder)","userSelected":true}]}}]},"request":{"method":"PUT","url":"Encounter/cc8394c8-6a97-4c7f-ae56-f7657a40dde9"}},{"fullUrl":"https://madie.cms.gov/Condition/major-depressive-disorder-active-c3c6","resource":{"resourceType":"Condition","id":"bde49574-f3fd-4f31-a85a-5c3f727b9782","category":[{"coding":[{"system":"http://terminology.hl7.org/CodeSystem/condition-category","code":"encounter-diagnosis","display":"encounter-diagnosis","userSelected":true}]}],"code":{"coding":[{"system":"http://snomed.info/sct","version":"2022-09","code":"10811121000119102","display":"Major depressive disorder in mother complicating childbirth (disorder)","userSelected":true}]},"subject":{"reference":"Patient/5443d3b4-6d8a-45a0-b9d9-409aeabff8d7"},"recordedDate":"2026-07-12T11:45:00.000+00:00"},"request":{"method":"PUT","url":"Condition/bde49574-f3fd-4f31-a85a-5c3f727b9782"}},{"fullUrl":"https://madie.cms.gov/Procedure/suicide-risk-assessment-procedure-c3c7","resource":{"resourceType":"Procedure","id":"076c6e02-8e28-4a4d-8ef3-71d36c2d0aee","status":"completed","code":{"coding":[{"system":"http://snomed.info/sct","code":"225337009","display":"Suicide risk assessment (procedure)","userSelected":true}]},"subject":{"reference":"Patient/5443d3b4-6d8a-45a0-b9d9-409aeabff8d7"},"performedPeriod":{"start":"2026-07-12T11:47:00.000+00:00","end":"2026-07-12T11:49:00.000+00:00"}},"request":{"method":"PUT","url":"Procedure/076c6e02-8e28-4a4d-8ef3-71d36c2d0aee"}},{"fullUrl":"https://madie.cms.gov/Coverage/payer-f7aa","resource":{"resourceType":"Coverage","id":"bec91264-4b6f-4a97-adfe-44c0351325f9","status":"active","type":{"coding":[{"system":"http://www.nlm.nih.gov/research/umls/sop","version":"9.2","code":"1","display":"MEDICARE","userSelected":true}]},"beneficiary":{"reference":"Patient/5443d3b4-6d8a-45a0-b9d9-409aeabff8d7"},"period":{"start":"2026-01-28T08:00:00.000+00:00","end":"2026-08-28T00:15:00.000+00:00"},"payor":[{"reference":"Organization/806b0255-13cb-4f2b-9412-571554dd2169"}]},"request":{"method":"PUT","url":"Coverage/bec91264-4b6f-4a97-adfe-44c0351325f9"}},{"fullUrl":"https://madie.cms.gov/Organization/123456","resource":{"resourceType":"Organization","id":"806b0255-13cb-4f2b-9412-571554dd2169","meta":{"profile":["http://hl7.org/fhir/us/qicore/StructureDefinition/qicore-organization"]},"identifier":[{"use":"temp","system":"urn:oid:2.16.840.1.113883.4.4","value":"21-3259825"}],"active":true,"type":[{"coding":[{"system":"http://terminology.hl7.org/CodeSystem/organization-type","code":"pay","display":"Payer"}]}],"name":"Blue Cross Blue Shield of Texas","telecom":[{"system":"phone","value":"(+1) 972-766-6900"}],"address":[{"use":"billing","type":"postal","line":["P.O. Box 660044"],"city":"Dallas","state":"TX","postalCode":"75266-0044","country":"USA"}]},"request":{"method":"PUT","url":"Organization/806b0255-13cb-4f2b-9412-571554dd2169"}},{"fullUrl":"https://madie.cms.gov/Practitioner/practitioner-123456","resource":{"resourceType":"Practitioner","id":"80e5e445-651b-4b02-972f-e62c9fd9e1fb","identifier":[{"system":"http://hl7.org/fhir/sid/us-npi","value":"123456"}],"name":[{"family":"Evil","prefix":["Dr"]}]},"request":{"method":"PUT","url":"Practitioner/80e5e445-651b-4b02-972f-e62c9fd9e1fb"}},{"fullUrl":"https://madie.cms.gov/MeasureReport/fe9a9a32-f2c2-4e00-8bf3-d90275acc2f4","resource":{"resourceType":"MeasureReport","id":"fe9a9a32-f2c2-4e00-8bf3-d90275acc2f4","meta":{"profile":["http://hl7.org/fhir/us/cqfmeasures/StructureDefinition/test-case-cqfm"]},"contained":[{"resourceType":"Parameters","id":"adf79d31-3982-4dce-8a17-55a8629038b8-parameters","parameter":[{"name":"subject","valueString":"5443d3b4-6d8a-45a0-b9d9-409aeabff8d7"}]}],"extension":[{"url":"http://hl7.org/fhir/us/cqfmeasures/StructureDefinition/cqfm-inputParameters","valueReference":{"reference":"#adf79d31-3982-4dce-8a17-55a8629038b8-parameters"}},{"url":"http://hl7.org/fhir/us/cqfmeasures/StructureDefinition/cqfm-testCaseDescription","valueMarkdown":"Patient is 5 years 11 months 30 days at the start of the MP with depression and suicide risk assessment during psychotherapy encounter"}],"modifierExtension":[{"url":"http://hl7.org/fhir/us/cqfmeasures/StructureDefinition/cqfm-isTestCase","valueBoolean":true}],"status":"complete","type":"individual","measure":"https://madie.cms.gov/Measure/ChildandAdolescentMajorDepressiveDisorderMDDSuicideRiskAssessmentFHIR","period":{"start":"2025-01-01","end":"2025-12-31"},"group":[{"population":[{"code":{"coding":[{"system":"http://terminology.hl7.org/CodeSystem/measure-population","code":"initial-population","display":"Initial Population"}]},"count":0},{"code":{"coding":[{"system":"http://terminology.hl7.org/CodeSystem/measure-population","code":"denominator","display":"Denominator"}]},"count":0},{"code":{"coding":[{"system":"http://terminology.hl7.org/CodeSystem/measure-population","code":"numerator","display":"Numerator"}]},"count":0}]}]},"request":{"method":"PUT","url":"MeasureReport/fe9a9a32-f2c2-4e00-8bf3-d90275acc2f4"}}]}