{
  "resourceType": "Bundle",
  "id": "NUMEXPass-FallPOA2ndFallWithInjuryDuringEnc",
  "type": "transaction",
  "entry": [ {
    "fullUrl": "https://madie.cms.gov/Encounter/0e577140-c700-4bfa-b5c7-f73d48837ad2",
    "resource": {
      "resourceType": "Encounter",
      "id": "0e577140-c700-4bfa-b5c7-f73d48837ad2",
      "meta": {
        "profile": [ "http://hl7.org/fhir/us/qicore/StructureDefinition/qicore-encounter" ]
      },
      "status": "finished",
      "class": {
        "system": "http://terminology.hl7.org/CodeSystem/v3-ActCode",
        "code": "IMP",
        "display": "inpatient encounter"
      },
      "type": [ {
        "coding": [ {
          "system": "http://snomed.info/sct",
          "code": "183452005"
        } ]
      } ],
      "subject": {
        "reference": "Patient/a2630a47-3cd8-470c-9fe2-8f4e1066a2d0"
      },
      "period": {
        "start": "2026-11-09T11:00:00+00:00",
        "end": "2026-11-12T08:15:00+00:00"
      },
      "diagnosis": [ {
        "extension": [ {
          "url": "http://hl7.org/fhir/us/qicore/StructureDefinition/qicore-encounter-diagnosisPresentOnAdmission",
          "valueCodeableConcept": {
            "coding": [ {
              "system": "https://www.cms.gov/Medicare/Medicare-Fee-for-Service-Payment/HospitalAcqCond/Coding",
              "code": "Y"
            } ]
          }
        } ],
        "condition": {
          "reference": "Condition/e4df2f5b-ede6-4cc6-ac52-184e55287df8"
        }
      }, {
        "extension": [ {
          "url": "http://hl7.org/fhir/us/qicore/StructureDefinition/qicore-encounter-diagnosisPresentOnAdmission",
          "valueCodeableConcept": {
            "coding": [ {
              "system": "https://www.cms.gov/Medicare/Medicare-Fee-for-Service-Payment/HospitalAcqCond/Coding",
              "code": "N"
            } ]
          }
        } ],
        "condition": {
          "reference": "Condition/f2a576f3-eac4-43b3-a861-a1d44e36587e"
        }
      } ]
    },
    "request": {
      "method": "PUT",
      "url": "Encounter/0e577140-c700-4bfa-b5c7-f73d48837ad2"
    }
  }, {
    "fullUrl": "https://madie.cms.gov/Encounter/c64e31cc-24a6-4c2e-baf3-59c328eaaa85",
    "resource": {
      "resourceType": "Encounter",
      "id": "c64e31cc-24a6-4c2e-baf3-59c328eaaa85",
      "meta": {
        "profile": [ "http://hl7.org/fhir/us/qicore/StructureDefinition/qicore-encounter" ]
      },
      "status": "finished",
      "class": {
        "system": "http://terminology.hl7.org/CodeSystem/v3-ActCode",
        "code": "IMP",
        "display": "inpatient encounter"
      },
      "type": [ {
        "coding": [ {
          "system": "http://snomed.info/sct",
          "code": "4525004"
        } ]
      } ],
      "subject": {
        "reference": "Patient/a2630a47-3cd8-470c-9fe2-8f4e1066a2d0"
      },
      "period": {
        "start": "2026-11-09T08:00:00+00:00",
        "end": "2026-11-09T10:15:00+00:00"
      }
    },
    "request": {
      "method": "PUT",
      "url": "Encounter/c64e31cc-24a6-4c2e-baf3-59c328eaaa85"
    }
  }, {
    "fullUrl": "https://madie.cms.gov/Condition/f2a576f3-eac4-43b3-a861-a1d44e36587e",
    "resource": {
      "resourceType": "Condition",
      "id": "f2a576f3-eac4-43b3-a861-a1d44e36587e",
      "meta": {
        "profile": [ "http://hl7.org/fhir/us/qicore/StructureDefinition/qicore-condition" ]
      },
      "clinicalStatus": {
        "coding": [ {
          "system": "http://terminology.hl7.org/CodeSystem/condition-clinical",
          "code": "active"
        } ]
      },
      "verificationStatus": {
        "coding": [ {
          "system": "http://terminology.hl7.org/CodeSystem/condition-ver-status",
          "code": "confirmed"
        } ]
      },
      "category": [ {
        "coding": [ {
          "system": "http://terminology.hl7.org/CodeSystem/condition-category",
          "code": "encounter-diagnosis",
          "display": "Encounter Diagnosis"
        } ]
      } ],
      "code": {
        "coding": [ {
          "system": "http://hl7.org/fhir/sid/icd-10-cm",
          "code": "S01.00XA"
        } ]
      },
      "subject": {
        "reference": "Patient/a2630a47-3cd8-470c-9fe2-8f4e1066a2d0"
      },
      "encounter": {
        "reference": "Encounter/0e577140-c700-4bfa-b5c7-f73d48837ad2"
      }
    },
    "request": {
      "method": "PUT",
      "url": "Condition/f2a576f3-eac4-43b3-a861-a1d44e36587e"
    }
  }, {
    "fullUrl": "https://madie.cms.gov/Condition/e4df2f5b-ede6-4cc6-ac52-184e55287df8",
    "resource": {
      "resourceType": "Condition",
      "id": "e4df2f5b-ede6-4cc6-ac52-184e55287df8",
      "meta": {
        "profile": [ "http://hl7.org/fhir/us/qicore/StructureDefinition/qicore-condition" ]
      },
      "clinicalStatus": {
        "coding": [ {
          "system": "http://terminology.hl7.org/CodeSystem/condition-clinical",
          "code": "active"
        } ]
      },
      "verificationStatus": {
        "coding": [ {
          "system": "http://terminology.hl7.org/CodeSystem/condition-ver-status",
          "code": "confirmed"
        } ]
      },
      "category": [ {
        "coding": [ {
          "system": "http://terminology.hl7.org/CodeSystem/condition-category",
          "code": "encounter-diagnosis",
          "display": "Encounter Diagnosis"
        } ]
      } ],
      "code": {
        "coding": [ {
          "system": "http://hl7.org/fhir/sid/icd-10-cm",
          "code": "W08.XXXA"
        } ]
      },
      "subject": {
        "reference": "Patient/a2630a47-3cd8-470c-9fe2-8f4e1066a2d0"
      },
      "encounter": {
        "reference": "Encounter/0e577140-c700-4bfa-b5c7-f73d48837ad2"
      }
    },
    "request": {
      "method": "PUT",
      "url": "Condition/e4df2f5b-ede6-4cc6-ac52-184e55287df8"
    }
  }, {
    "fullUrl": "https://madie.cms.gov/Patient/a2630a47-3cd8-470c-9fe2-8f4e1066a2d0",
    "resource": {
      "resourceType": "Patient",
      "id": "a2630a47-3cd8-470c-9fe2-8f4e1066a2d0",
      "meta": {
        "profile": [ "http://hl7.org/fhir/us/qicore/StructureDefinition/qicore-patient" ]
      },
      "extension": [ {
        "url": "http://hl7.org/fhir/us/core/StructureDefinition/us-core-race",
        "extension": [ {
          "url": "ombCategory",
          "valueCoding": {
            "system": "urn:oid:2.16.840.1.113883.6.238",
            "code": "2028-9",
            "display": "Asian",
            "userSelected": true
          }
        }, {
          "url": "text",
          "valueString": "Asian"
        } ]
      }, {
        "url": "http://hl7.org/fhir/us/core/StructureDefinition/us-core-ethnicity",
        "extension": [ {
          "url": "ombCategory",
          "valueCoding": {
            "system": "urn:oid:2.16.840.1.113883.6.238",
            "code": "2186-5",
            "display": "Not Hispanic or Latino",
            "userSelected": true
          }
        }, {
          "url": "text",
          "valueString": "Not Hispanic or Latino"
        } ]
      } ],
      "identifier": [ {
        "type": {
          "coding": [ {
            "system": "http://terminology.hl7.org/CodeSystem/v2-0203",
            "code": "MR"
          } ]
        },
        "system": "https://bonnie-fhir.healthit.gov/",
        "value": "61152a3b98086b7a79cbd7c1"
      } ],
      "active": true,
      "name": [ {
        "use": "usual",
        "family": "NUMEXPass",
        "given": [ "FallPOA2ndFallWithInjuryDuringEnc" ]
      } ],
      "gender": "male",
      "birthDate": "1992-09-09"
    },
    "request": {
      "method": "PUT",
      "url": "Patient/a2630a47-3cd8-470c-9fe2-8f4e1066a2d0"
    }
  }, {
    "fullUrl": "https://madie.cms.gov/AdverseEvent/2d9fdd17-467b-4974-9ffc-1e4ec89b47e4",
    "resource": {
      "resourceType": "AdverseEvent",
      "id": "2d9fdd17-467b-4974-9ffc-1e4ec89b47e4",
      "meta": {
        "profile": [ "http://hl7.org/fhir/us/qicore/StructureDefinition/qicore-adverseevent" ]
      },
      "actuality": "actual",
      "event": {
        "coding": [ {
          "system": "http://snomed.info/sct",
          "code": "14047009"
        } ]
      },
      "subject": {
        "reference": "Patient/a2630a47-3cd8-470c-9fe2-8f4e1066a2d0"
      },
      "date": "2026-11-10T11:00:00+00:00"
    },
    "request": {
      "method": "PUT",
      "url": "AdverseEvent/2d9fdd17-467b-4974-9ffc-1e4ec89b47e4"
    }
  }, {
    "fullUrl": "https://madie.cms.gov/MeasureReport/94b780f9-eaff-4d53-aff6-eef03eacb88f",
    "resource": {
      "resourceType": "MeasureReport",
      "id": "94b780f9-eaff-4d53-aff6-eef03eacb88f",
      "meta": {
        "profile": [ "http://hl7.org/fhir/us/cqfmeasures/StructureDefinition/test-case-cqfm" ]
      },
      "contained": [ {
        "resourceType": "Parameters",
        "id": "d21abf47-c7aa-4102-b9ba-238285e46217-parameters",
        "parameter": [ {
          "name": "subject",
          "valueString": "a2630a47-3cd8-470c-9fe2-8f4e1066a2d0"
        } ]
      } ],
      "extension": [ {
        "url": "http://hl7.org/fhir/us/cqfmeasures/StructureDefinition/cqfm-inputParameters",
        "valueReference": {
          "reference": "#d21abf47-c7aa-4102-b9ba-238285e46217-parameters"
        }
      }, {
        "url": "http://hl7.org/fhir/us/cqfmeasures/StructureDefinition/cqfm-testCaseDescription",
        "valueMarkdown": "Encounter diagnoses include: Fall POA and Moderate injury NPOA. Patient has adverse event fall later in encounter (which meets Numerator), but is excluded from both MOs since Fall POA meets Num and Denom Exclusion."
      } ],
      "modifierExtension": [ {
        "url": "http://hl7.org/fhir/us/cqfmeasures/StructureDefinition/cqfm-isTestCase",
        "valueBoolean": true
      } ],
      "status": "complete",
      "type": "individual",
      "measure": "https://madie.cms.gov/Measure/FallsWithInjuryFHIR",
      "period": {
        "start": "2026-01-01",
        "end": "2026-12-31"
      },
      "group": [ {
        "population": [ {
          "code": {
            "coding": [ {
              "system": "http://terminology.hl7.org/CodeSystem/measure-population",
              "code": "initial-population",
              "display": "Initial Population"
            } ]
          },
          "count": 1
        }, {
          "code": {
            "coding": [ {
              "system": "http://terminology.hl7.org/CodeSystem/measure-population",
              "code": "denominator",
              "display": "Denominator"
            } ]
          },
          "count": 1
        }, {
          "code": {
            "coding": [ {
              "system": "http://terminology.hl7.org/CodeSystem/measure-population",
              "code": "denominator-exclusion",
              "display": "Denominator Exclusion"
            } ]
          },
          "count": 1
        }, {
          "code": {
            "coding": [ {
              "system": "http://terminology.hl7.org/CodeSystem/measure-population",
              "code": "numerator",
              "display": "Numerator"
            } ]
          },
          "count": 1
        }, {
          "code": {
            "coding": [ {
              "system": "http://terminology.hl7.org/CodeSystem/measure-population",
              "code": "numerator-exclusion",
              "display": "Numerator Exclusion"
            } ]
          },
          "count": 1
        } ]
      } ],
      "evaluatedResource": [ {
        "reference": "Encounter/0e577140-c700-4bfa-b5c7-f73d48837ad2"
      }, {
        "reference": "Encounter/c64e31cc-24a6-4c2e-baf3-59c328eaaa85"
      }, {
        "reference": "Condition/f2a576f3-eac4-43b3-a861-a1d44e36587e"
      }, {
        "reference": "Condition/e4df2f5b-ede6-4cc6-ac52-184e55287df8"
      }, {
        "reference": "Patient/a2630a47-3cd8-470c-9fe2-8f4e1066a2d0"
      }, {
        "reference": "AdverseEvent/2d9fdd17-467b-4974-9ffc-1e4ec89b47e4"
      } ]
    },
    "request": {
      "method": "PUT",
      "url": "MeasureReport/94b780f9-eaff-4d53-aff6-eef03eacb88f"
    }
  } ]
}