{
  "resourceType": "Bundle",
  "id": "60f82c2f98086b570510e2bb",
  "type": "transaction",
  "entry": [ {
    "fullUrl": "https://madie.cms.gov/Patient/cb7c95fc-6d6b-4e07-81e8-a79385142b94",
    "resource": {
      "resourceType": "Patient",
      "id": "cb7c95fc-6d6b-4e07-81e8-a79385142b94",
      "meta": {
        "profile": [ "http://hl7.org/fhir/us/qicore/StructureDefinition/qicore-patient" ]
      },
      "text": {
        "status": "generated",
        "div": "<div xmlns=\"http://www.w3.org/1999/xhtml\"><div class=\"hapiHeaderText\">3Enc2WithAntithrombic1WithtPA <b>NUMER&amp;DENEXPASS-LCG </b></div><table class=\"hapiPropertyTable\"><tbody><tr><td>Identifier</td><td>020dc4464ac8810d734b6702e424d7c5d535f8554cec1d7976a2fc68ac0b3268</td></tr><tr><td>Date of birth</td><td><span>26 September 1975</span></td></tr></tbody></table></div>"
      },
      "extension": [ {
        "url": "http://hl7.org/fhir/us/core/StructureDefinition/us-core-race",
        "extension": [ {
          "url": "ombCategory",
          "valueCoding": {
            "system": "urn:oid:2.16.840.1.113883.6.238",
            "code": "2054-5",
            "display": "Black or African American",
            "userSelected": true
          }
        }, {
          "url": "text",
          "valueString": "Black or African American"
        } ]
      }, {
        "url": "http://hl7.org/fhir/us/core/StructureDefinition/us-core-ethnicity",
        "extension": [ {
          "url": "ombCategory",
          "valueCoding": {
            "system": "urn:oid:2.16.840.1.113883.6.238",
            "code": "2186-5",
            "display": "Not Hispanic or Latino",
            "userSelected": true
          }
        }, {
          "url": "text",
          "valueString": "Not Hispanic or Latino"
        } ]
      } ],
      "identifier": [ {
        "type": {
          "coding": [ {
            "system": "http://terminology.hl7.org/CodeSystem/v2-0203",
            "code": "MR"
          } ]
        },
        "system": "https://bonnie-fhir.healthit.gov/",
        "value": "60f82c2f98086b570510e2bb"
      } ],
      "active": true,
      "name": [ {
        "use": "usual",
        "family": "NUMER&DENEXPass-LCG",
        "given": [ "3Enc2WithAntithrombic1WithtPA" ]
      } ],
      "gender": "female",
      "birthDate": "1976-09-26"
    },
    "request": {
      "method": "PUT",
      "url": "Patient/cb7c95fc-6d6b-4e07-81e8-a79385142b94"
    }
  }, {
    "fullUrl": "https://madie.cms.gov/Encounter/5fccc8b0-f996-4c0c-87c4-8073bcb142df",
    "resource": {
      "resourceType": "Encounter",
      "id": "5fccc8b0-f996-4c0c-87c4-8073bcb142df",
      "meta": {
        "profile": [ "http://hl7.org/fhir/us/qicore/StructureDefinition/qicore-encounter" ]
      },
      "status": "finished",
      "class": {
        "system": "http://terminology.hl7.org/CodeSystem/v3-ActCode",
        "code": "IMP",
        "display": "inpatient encounter"
      },
      "type": [ {
        "coding": [ {
          "system": "http://snomed.info/sct",
          "code": "183452005"
        } ]
      } ],
      "subject": {
        "reference": "Patient/cb7c95fc-6d6b-4e07-81e8-a79385142b94"
      },
      "period": {
        "start": "2026-09-09T09:00:00+00:00",
        "end": "2026-09-12T11:15:00+00:00"
      },
      "length": {
        "value": 0,
        "unit": "days"
      },
      "diagnosis": [ {
        "condition": {
          "reference": "Condition/406269b0-b211-4e34-8ced-238d03aa5f6a"
        },
        "use": {
          "coding": [ {
            "system": "http://terminology.hl7.org/CodeSystem/diagnosis-role",
            "code": "billing",
            "display": "Billing"
          } ]
        },
        "rank": 1
      } ]
    },
    "request": {
      "method": "PUT",
      "url": "Encounter/5fccc8b0-f996-4c0c-87c4-8073bcb142df"
    }
  }, {
    "fullUrl": "https://madie.cms.gov/Encounter/52f4a702-215e-4a30-a6b0-302bdc9f1044",
    "resource": {
      "resourceType": "Encounter",
      "id": "52f4a702-215e-4a30-a6b0-302bdc9f1044",
      "meta": {
        "profile": [ "http://hl7.org/fhir/us/qicore/StructureDefinition/qicore-encounter" ]
      },
      "status": "finished",
      "class": {
        "system": "http://terminology.hl7.org/CodeSystem/v3-ActCode",
        "code": "IMP",
        "display": "inpatient encounter"
      },
      "type": [ {
        "coding": [ {
          "system": "http://snomed.info/sct",
          "code": "32485007"
        } ]
      } ],
      "subject": {
        "reference": "Patient/cb7c95fc-6d6b-4e07-81e8-a79385142b94"
      },
      "period": {
        "start": "2026-10-10T09:00:00+00:00",
        "end": "2026-10-12T11:15:00+00:00"
      },
      "length": {
        "value": 2,
        "unit": "days"
      },
      "diagnosis": [ {
        "condition": {
          "reference": "Condition/7f81aadf-c230-44fc-86f3-eccdd59ba5db"
        },
        "use": {
          "coding": [ {
            "system": "http://terminology.hl7.org/CodeSystem/diagnosis-role",
            "code": "billing",
            "display": "Billing"
          } ]
        },
        "rank": 1
      } ]
    },
    "request": {
      "method": "PUT",
      "url": "Encounter/52f4a702-215e-4a30-a6b0-302bdc9f1044"
    }
  }, {
    "fullUrl": "https://madie.cms.gov/Encounter/97c15677-4be9-46f8-83b9-8f416f841f7e",
    "resource": {
      "resourceType": "Encounter",
      "id": "97c15677-4be9-46f8-83b9-8f416f841f7e",
      "meta": {
        "profile": [ "http://hl7.org/fhir/us/qicore/StructureDefinition/qicore-encounter" ]
      },
      "status": "finished",
      "class": {
        "system": "http://terminology.hl7.org/CodeSystem/v3-ActCode",
        "code": "IMP",
        "display": "inpatient encounter"
      },
      "type": [ {
        "coding": [ {
          "system": "http://snomed.info/sct",
          "code": "183452005"
        } ]
      } ],
      "subject": {
        "reference": "Patient/cb7c95fc-6d6b-4e07-81e8-a79385142b94"
      },
      "period": {
        "start": "2026-07-09T09:00:00+00:00",
        "end": "2026-07-17T11:15:00+00:00"
      },
      "diagnosis": [ {
        "condition": {
          "reference": "Condition/77fe18d7-ccd0-4b07-b8a6-5db3b1ee62b5"
        },
        "use": {
          "coding": [ {
            "system": "http://terminology.hl7.org/CodeSystem/diagnosis-role",
            "code": "billing",
            "display": "Billing"
          } ]
        },
        "rank": 1
      } ]
    },
    "request": {
      "method": "PUT",
      "url": "Encounter/97c15677-4be9-46f8-83b9-8f416f841f7e"
    }
  }, {
    "fullUrl": "https://madie.cms.gov/MedicationAdministration/4a4080eb-bdd1-484e-9320-66461a2153d4",
    "resource": {
      "resourceType": "MedicationAdministration",
      "id": "4a4080eb-bdd1-484e-9320-66461a2153d4",
      "meta": {
        "profile": [ "http://hl7.org/fhir/us/qicore/StructureDefinition/qicore-medicationadministration" ]
      },
      "status": "completed",
      "medicationCodeableConcept": {
        "coding": [ {
          "system": "http://www.nlm.nih.gov/research/umls/rxnorm",
          "code": "1037045"
        } ]
      },
      "subject": {
        "reference": "Patient/cb7c95fc-6d6b-4e07-81e8-a79385142b94"
      },
      "effectivePeriod": {
        "start": "2026-09-09T11:00:00+00:00"
      }
    },
    "request": {
      "method": "PUT",
      "url": "MedicationAdministration/4a4080eb-bdd1-484e-9320-66461a2153d4"
    }
  }, {
    "fullUrl": "https://madie.cms.gov/MedicationAdministration/9eab1859-2bf2-4eef-b6bc-b6aac968b30c",
    "resource": {
      "resourceType": "MedicationAdministration",
      "id": "9eab1859-2bf2-4eef-b6bc-b6aac968b30c",
      "meta": {
        "profile": [ "http://hl7.org/fhir/us/qicore/StructureDefinition/qicore-medicationadministration" ]
      },
      "extension": [ {
        "url": "http://hl7.org/fhir/us/qicore/StructureDefinition/qicore-recorded",
        "valueDateTime": "2026-10-10T09:00:00+00:00"
      } ],
      "status": "completed",
      "medicationCodeableConcept": {
        "coding": [ {
          "system": "http://www.nlm.nih.gov/research/umls/rxnorm",
          "code": "1037045"
        } ]
      },
      "subject": {
        "reference": "Patient/cb7c95fc-6d6b-4e07-81e8-a79385142b94"
      },
      "effectivePeriod": {
        "start": "2026-10-10T09:00:00+00:00",
        "end": "2026-10-12T11:15:00+00:00"
      }
    },
    "request": {
      "method": "PUT",
      "url": "MedicationAdministration/9eab1859-2bf2-4eef-b6bc-b6aac968b30c"
    }
  }, {
    "fullUrl": "https://madie.cms.gov/Coverage/6ff21ec1-5b7b-46f2-9c2e-68a11ac72948",
    "resource": {
      "resourceType": "Coverage",
      "id": "6ff21ec1-5b7b-46f2-9c2e-68a11ac72948",
      "status": "active",
      "beneficiary": {
        "reference": "Patient/cb7c95fc-6d6b-4e07-81e8-a79385142b94"
      },
      "period": {
        "start": "1976-09-26T08:00:00+00:00"
      },
      "payor": [ {
        "reference": "Organization/5ab95168-23ec-48f2-921c-08daf911c56e"
      } ]
    },
    "request": {
      "method": "PUT",
      "url": "Coverage/6ff21ec1-5b7b-46f2-9c2e-68a11ac72948"
    }
  }, {
    "fullUrl": "https://madie.cms.gov/Procedure/2c7d6192-904c-443e-b9cf-406297cbadee",
    "resource": {
      "resourceType": "Procedure",
      "id": "2c7d6192-904c-443e-b9cf-406297cbadee",
      "meta": {
        "profile": [ "http://hl7.org/fhir/us/qicore/StructureDefinition/qicore-procedure" ]
      },
      "extension": [ {
        "url": "http://hl7.org/fhir/us/qicore/StructureDefinition/qicore-recorded",
        "valueDateTime": "2026-11-19T09:35:00-04:00"
      } ],
      "status": "completed",
      "code": {
        "coding": [ {
          "system": "http://snomed.info/sct",
          "code": "307521008"
        } ]
      },
      "subject": {
        "reference": "Patient/cb7c95fc-6d6b-4e07-81e8-a79385142b94"
      },
      "performedPeriod": {
        "start": "2026-07-10T09:00:00+00:00"
      }
    },
    "request": {
      "method": "PUT",
      "url": "Procedure/2c7d6192-904c-443e-b9cf-406297cbadee"
    }
  }, {
    "fullUrl": "https://madie.cms.gov/Condition/406269b0-b211-4e34-8ced-238d03aa5f6a",
    "resource": {
      "resourceType": "Condition",
      "id": "406269b0-b211-4e34-8ced-238d03aa5f6a",
      "meta": {
        "profile": [ "http://hl7.org/fhir/us/qicore/StructureDefinition/qicore-condition" ]
      },
      "clinicalStatus": {
        "coding": [ {
          "system": "http://terminology.hl7.org/CodeSystem/condition-clinical",
          "code": "active"
        } ]
      },
      "verificationStatus": {
        "coding": [ {
          "system": "http://terminology.hl7.org/CodeSystem/condition-ver-status",
          "code": "confirmed"
        } ]
      },
      "category": [ {
        "coding": [ {
          "system": "http://terminology.hl7.org/CodeSystem/condition-category",
          "code": "encounter-diagnosis",
          "display": "Encounter Diagnosis"
        } ]
      } ],
      "code": {
        "coding": [ {
          "system": "http://snomed.info/sct",
          "version": "2020-09",
          "code": "111297002",
          "display": "Nonparalytic stroke (disorder)",
          "userSelected": true
        } ]
      },
      "subject": {
        "reference": "Patient/cb7c95fc-6d6b-4e07-81e8-a79385142b94"
      },
      "recordedDate": "2026-08-16T08:00:00.000+00:00"
    },
    "request": {
      "method": "PUT",
      "url": "Condition/406269b0-b211-4e34-8ced-238d03aa5f6a"
    }
  }, {
    "fullUrl": "https://madie.cms.gov/Condition/7f81aadf-c230-44fc-86f3-eccdd59ba5db",
    "resource": {
      "resourceType": "Condition",
      "id": "7f81aadf-c230-44fc-86f3-eccdd59ba5db",
      "meta": {
        "profile": [ "http://hl7.org/fhir/us/qicore/StructureDefinition/qicore-condition" ]
      },
      "clinicalStatus": {
        "coding": [ {
          "system": "http://terminology.hl7.org/CodeSystem/condition-clinical",
          "code": "active"
        } ]
      },
      "verificationStatus": {
        "coding": [ {
          "system": "http://terminology.hl7.org/CodeSystem/condition-ver-status",
          "code": "confirmed"
        } ]
      },
      "category": [ {
        "coding": [ {
          "system": "http://terminology.hl7.org/CodeSystem/condition-category",
          "code": "encounter-diagnosis",
          "display": "Encounter Diagnosis"
        } ]
      } ],
      "code": {
        "coding": [ {
          "system": "http://snomed.info/sct",
          "version": "2020-09",
          "code": "111297002",
          "display": "Nonparalytic stroke (disorder)",
          "userSelected": true
        } ]
      },
      "subject": {
        "reference": "Patient/cb7c95fc-6d6b-4e07-81e8-a79385142b94"
      },
      "recordedDate": "2026-08-16T08:00:00.000+00:00"
    },
    "request": {
      "method": "PUT",
      "url": "Condition/7f81aadf-c230-44fc-86f3-eccdd59ba5db"
    }
  }, {
    "fullUrl": "https://madie.cms.gov/Condition/77fe18d7-ccd0-4b07-b8a6-5db3b1ee62b5",
    "resource": {
      "resourceType": "Condition",
      "id": "77fe18d7-ccd0-4b07-b8a6-5db3b1ee62b5",
      "meta": {
        "profile": [ "http://hl7.org/fhir/us/qicore/StructureDefinition/qicore-condition" ]
      },
      "clinicalStatus": {
        "coding": [ {
          "system": "http://terminology.hl7.org/CodeSystem/condition-clinical",
          "code": "active"
        } ]
      },
      "verificationStatus": {
        "coding": [ {
          "system": "http://terminology.hl7.org/CodeSystem/condition-ver-status",
          "code": "confirmed"
        } ]
      },
      "category": [ {
        "coding": [ {
          "system": "http://terminology.hl7.org/CodeSystem/condition-category",
          "code": "encounter-diagnosis",
          "display": "Encounter Diagnosis"
        } ]
      } ],
      "code": {
        "coding": [ {
          "system": "http://snomed.info/sct",
          "version": "2020-09",
          "code": "111297002",
          "display": "Nonparalytic stroke (disorder)",
          "userSelected": true
        } ]
      },
      "subject": {
        "reference": "Patient/cb7c95fc-6d6b-4e07-81e8-a79385142b94"
      },
      "recordedDate": "2026-08-16T08:00:00.000+00:00"
    },
    "request": {
      "method": "PUT",
      "url": "Condition/77fe18d7-ccd0-4b07-b8a6-5db3b1ee62b5"
    }
  }, {
    "fullUrl": "https://madie.cms.gov/Organization/5ab95168-23ec-48f2-921c-08daf911c56e",
    "resource": {
      "resourceType": "Organization",
      "id": "5ab95168-23ec-48f2-921c-08daf911c56e",
      "meta": {
        "profile": [ "http://hl7.org/fhir/us/qicore/StructureDefinition/qicore-organization" ]
      },
      "identifier": [ {
        "use": "temp",
        "system": "urn:oid:2.16.840.1.113883.4.4",
        "value": "21-3259825"
      } ],
      "active": true,
      "type": [ {
        "coding": [ {
          "system": "http://terminology.hl7.org/CodeSystem/organization-type",
          "code": "pay",
          "display": "Payer"
        } ]
      } ],
      "name": "Blue Cross Blue Shield of Texas",
      "telecom": [ {
        "system": "phone",
        "value": "(+1) 972-766-6900"
      } ],
      "address": [ {
        "use": "billing",
        "type": "postal",
        "line": [ "P.O. Box 660044" ],
        "city": "Dallas",
        "state": "TX",
        "postalCode": "75266-0044",
        "country": "USA"
      } ]
    },
    "request": {
      "method": "PUT",
      "url": "Organization/5ab95168-23ec-48f2-921c-08daf911c56e"
    }
  }, {
    "fullUrl": "https://madie.cms.gov/Practitioner/98764476-23c8-48a9-9d62-6a8ab9e05014",
    "resource": {
      "resourceType": "Practitioner",
      "id": "98764476-23c8-48a9-9d62-6a8ab9e05014",
      "identifier": [ {
        "system": "http://hl7.org/fhir/sid/us-npi",
        "value": "123456"
      } ],
      "name": [ {
        "family": "Evil",
        "prefix": [ "Dr" ]
      } ]
    },
    "request": {
      "method": "PUT",
      "url": "Practitioner/98764476-23c8-48a9-9d62-6a8ab9e05014"
    }
  }, {
    "fullUrl": "https://madie.cms.gov/MeasureReport/e51eee18-f359-4cca-9804-9be976471178",
    "resource": {
      "resourceType": "MeasureReport",
      "id": "e51eee18-f359-4cca-9804-9be976471178",
      "meta": {
        "profile": [ "http://hl7.org/fhir/us/cqfmeasures/StructureDefinition/test-case-cqfm" ]
      },
      "contained": [ {
        "resourceType": "Parameters",
        "id": "cfe9ee61-77e2-444a-a88a-dafc9aba6fdd-parameters",
        "parameter": [ {
          "name": "subject",
          "valueString": "cb7c95fc-6d6b-4e07-81e8-a79385142b94"
        } ]
      } ],
      "extension": [ {
        "url": "http://hl7.org/fhir/us/cqfmeasures/StructureDefinition/cqfm-inputParameters",
        "valueReference": {
          "reference": "#cfe9ee61-77e2-444a-a88a-dafc9aba6fdd-parameters"
        }
      }, {
        "url": "http://hl7.org/fhir/us/cqfmeasures/StructureDefinition/cqfm-testCaseDescription",
        "valueMarkdown": "Patient receives tPA in first encounter and antithrombotics in last 2 encounters. Testing to ensure medications without end dates do not interfere with encounters that follow. Executes as expected. \n"
      } ],
      "modifierExtension": [ {
        "url": "http://hl7.org/fhir/us/cqfmeasures/StructureDefinition/cqfm-isTestCase",
        "valueBoolean": true
      } ],
      "status": "complete",
      "type": "individual",
      "measure": "https://madie.cms.gov/Measure/CMS72FHIRSTKAntithromboticDay2",
      "period": {
        "start": "2026-01-01",
        "end": "2026-12-31"
      },
      "group": [ {
        "population": [ {
          "code": {
            "coding": [ {
              "system": "http://terminology.hl7.org/CodeSystem/measure-population",
              "code": "initial-population",
              "display": "Initial Population"
            } ]
          },
          "count": 3
        }, {
          "code": {
            "coding": [ {
              "system": "http://terminology.hl7.org/CodeSystem/measure-population",
              "code": "denominator",
              "display": "Denominator"
            } ]
          },
          "count": 3
        }, {
          "code": {
            "coding": [ {
              "system": "http://terminology.hl7.org/CodeSystem/measure-population",
              "code": "denominator-exclusion",
              "display": "Denominator Exclusion"
            } ]
          },
          "count": 1
        }, {
          "code": {
            "coding": [ {
              "system": "http://terminology.hl7.org/CodeSystem/measure-population",
              "code": "numerator",
              "display": "Numerator"
            } ]
          },
          "count": 2
        }, {
          "code": {
            "coding": [ {
              "system": "http://terminology.hl7.org/CodeSystem/measure-population",
              "code": "denominator-exception",
              "display": "Denominator Exception"
            } ]
          },
          "count": 0
        } ]
      } ],
      "evaluatedResource": [ {
        "reference": "Patient/cb7c95fc-6d6b-4e07-81e8-a79385142b94"
      }, {
        "reference": "Encounter/5fccc8b0-f996-4c0c-87c4-8073bcb142df"
      }, {
        "reference": "Encounter/52f4a702-215e-4a30-a6b0-302bdc9f1044"
      }, {
        "reference": "Encounter/97c15677-4be9-46f8-83b9-8f416f841f7e"
      }, {
        "reference": "MedicationAdministration/4a4080eb-bdd1-484e-9320-66461a2153d4"
      }, {
        "reference": "MedicationAdministration/9eab1859-2bf2-4eef-b6bc-b6aac968b30c"
      }, {
        "reference": "Coverage/6ff21ec1-5b7b-46f2-9c2e-68a11ac72948"
      }, {
        "reference": "Procedure/2c7d6192-904c-443e-b9cf-406297cbadee"
      }, {
        "reference": "Condition/406269b0-b211-4e34-8ced-238d03aa5f6a"
      }, {
        "reference": "Condition/7f81aadf-c230-44fc-86f3-eccdd59ba5db"
      }, {
        "reference": "Condition/77fe18d7-ccd0-4b07-b8a6-5db3b1ee62b5"
      }, {
        "reference": "Organization/5ab95168-23ec-48f2-921c-08daf911c56e"
      }, {
        "reference": "Practitioner/98764476-23c8-48a9-9d62-6a8ab9e05014"
      } ]
    },
    "request": {
      "method": "PUT",
      "url": "MeasureReport/e51eee18-f359-4cca-9804-9be976471178"
    }
  } ]
}