{
  "resourceType": "Bundle",
  "id": "6413828e4b11b147841ab91b",
  "type": "transaction",
  "entry": [ {
    "fullUrl": "Patient/52988c36-5e85-4818-9baa-983a3e27281a",
    "resource": {
      "resourceType": "Patient",
      "id": "52988c36-5e85-4818-9baa-983a3e27281a",
      "meta": {
        "profile": [ "http://hl7.org/fhir/us/qicore/StructureDefinition/qicore-patient" ]
      },
      "extension": [ {
        "url": "http://hl7.org/fhir/us/core/StructureDefinition/us-core-race",
        "extension": [ {
          "url": "ombCategory",
          "valueCoding": {
            "system": "urn:oid:2.16.840.1.113883.6.238",
            "code": "2076-8",
            "display": "Native Hawaiian or Other Pacific Islander",
            "userSelected": true
          }
        }, {
          "url": "text",
          "valueString": "Native Hawaiian or Other Pacific Islander"
        } ]
      }, {
        "url": "http://hl7.org/fhir/us/core/StructureDefinition/us-core-ethnicity",
        "extension": [ {
          "url": "ombCategory",
          "valueCoding": {
            "system": "urn:oid:2.16.840.1.113883.6.238",
            "code": "2186-5",
            "display": "Not Hispanic or Latino",
            "userSelected": true
          }
        }, {
          "url": "text",
          "valueString": "Not Hispanic or Latino"
        } ]
      } ],
      "identifier": [ {
        "type": {
          "coding": [ {
            "system": "http://terminology.hl7.org/CodeSystem/v2-0203",
            "code": "MR"
          } ]
        },
        "system": "https://bonnie-fhir.healthit.gov/",
        "value": "6413828e4b11b147841ab91b"
      } ],
      "name": [ {
        "family": "NUMERPass",
        "given": [ "OfficeVisitEGFRAndUACR" ]
      } ],
      "gender": "unknown",
      "birthDate": "1956-12-01"
    },
    "request": {
      "method": "PUT",
      "url": "Patient/52988c36-5e85-4818-9baa-983a3e27281a"
    }
  }, {
    "fullUrl": "Condition/diabetes-b917",
    "resource": {
      "resourceType": "Condition",
      "id": "diabetes-b917",
      "meta": {
        "profile": [ "http://hl7.org/fhir/us/qicore/StructureDefinition/qicore-condition" ]
      },
      "clinicalStatus": {
        "coding": [ {
          "system": "http://terminology.hl7.org/CodeSystem/condition-clinical",
          "code": "active",
          "display": "active",
          "userSelected": true
        } ]
      },
      "category": [ {
        "coding": [ {
          "system": "http://terminology.hl7.org/CodeSystem/condition-category",
          "code": "problem-list-item",
          "display": "problem-list-item",
          "userSelected": true
        } ]
      } ],
      "code": {
        "coding": [ {
          "system": "http://snomed.info/sct",
          "version": "2021-09",
          "code": "102781000119107",
          "display": "Sensory neuropathy due to type 1 diabetes mellitus (disorder)",
          "userSelected": true
        } ]
      },
      "subject": {
        "reference": "Patient/52988c36-5e85-4818-9baa-983a3e27281a"
      },
      "onsetDateTime": "2023-12-14T08:00:00.000+00:00"
    },
    "request": {
      "method": "PUT",
      "url": "Condition/diabetes-b917"
    }
  }, {
    "fullUrl": "Observation/estimated-glomerular-filtration-rate-b919",
    "resource": {
      "resourceType": "Observation",
      "id": "estimated-glomerular-filtration-rate-b919",
      "meta": {
        "profile": [ "http://hl7.org/fhir/us/qicore/StructureDefinition/qicore-observation" ]
      },
      "status": "final",
      "category": [ {
        "coding": [ {
          "system": "http://terminology.hl7.org/CodeSystem/observation-category",
          "code": "laboratory",
          "display": "laboratory",
          "userSelected": true
        } ]
      } ],
      "code": {
        "coding": [ {
          "system": "http://loinc.org",
          "version": "2.71",
          "code": "48642-3",
          "display": "Glomerular filtration rate/1.73 sq M.predicted among non-blacks [Volume Rate/Area] in Serum, Plasma or Blood by Creatinine-based formula (MDRD)",
          "userSelected": true
        } ]
      },
      "subject": {
        "reference": "Patient/52988c36-5e85-4818-9baa-983a3e27281a"
      },
      "effectiveDateTime": "2025-03-16T08:00:00.000+00:00",
      "valueBoolean": true
    },
    "request": {
      "method": "PUT",
      "url": "Observation/estimated-glomerular-filtration-rate-b919"
    }
  }, {
    "fullUrl": "Observation/urine-albumin-creatinine-ratio-b91a",
    "resource": {
      "resourceType": "Observation",
      "id": "urine-albumin-creatinine-ratio-b91a",
      "meta": {
        "profile": [ "http://hl7.org/fhir/us/qicore/StructureDefinition/qicore-observation" ]
      },
      "status": "final",
      "category": [ {
        "coding": [ {
          "system": "http://terminology.hl7.org/CodeSystem/observation-category",
          "code": "laboratory",
          "display": "laboratory",
          "userSelected": true
        } ]
      } ],
      "code": {
        "coding": [ {
          "system": "http://loinc.org",
          "version": "2.71",
          "code": "13705-9",
          "display": "Albumin/Creatinine [Mass Ratio] in 24 hour Urine",
          "userSelected": true
        } ]
      },
      "subject": {
        "reference": "Patient/52988c36-5e85-4818-9baa-983a3e27281a"
      },
      "effectiveDateTime": "2025-03-16T08:00:00.000+00:00",
      "issued": "2025-03-16T08:00:00.000+00:00",
      "valueBoolean": true
    },
    "request": {
      "method": "PUT",
      "url": "Observation/urine-albumin-creatinine-ratio-b91a"
    }
  }, {
    "fullUrl": "Encounter/office-visit-b91c",
    "resource": {
      "resourceType": "Encounter",
      "id": "office-visit-b91c",
      "meta": {
        "profile": [ "http://hl7.org/fhir/us/qicore/StructureDefinition/qicore-encounter" ]
      },
      "status": "finished",
      "class": {
        "system": "http://terminology.hl7.org/CodeSystem/v3-ActCode",
        "code": "AMB",
        "display": "ambulatory",
        "userSelected": true
      },
      "type": [ {
        "coding": [ {
          "system": "http://www.ama-assn.org/go/cpt",
          "code": "99213"
        } ]
      } ],
      "subject": {
        "reference": "Patient/52988c36-5e85-4818-9baa-983a3e27281a"
      },
      "period": {
        "start": "2025-03-16T08:00:00.000+00:00",
        "end": "2025-03-16T08:15:00.000+00:00"
      }
    },
    "request": {
      "method": "PUT",
      "url": "Encounter/office-visit-b91c"
    }
  }, {
    "fullUrl": "MeasureReport/c9d25136-d322-4de5-a298-5f47ddb65e58",
    "resource": {
      "resourceType": "MeasureReport",
      "id": "c9d25136-d322-4de5-a298-5f47ddb65e58",
      "meta": {
        "profile": [ "http://hl7.org/fhir/us/cqfmeasures/StructureDefinition/test-case-cqfm" ]
      },
      "contained": [ {
        "resourceType": "Parameters",
        "id": "f04450ff-83ea-4e19-8e05-2766042bd8d8-parameters",
        "parameter": [ {
          "name": "subject",
          "valueString": "52988c36-5e85-4818-9baa-983a3e27281a"
        } ]
      } ],
      "extension": [ {
        "url": "http://hl7.org/fhir/us/cqfmeasures/StructureDefinition/cqfm-inputParameters",
        "valueReference": {
          "reference": "#f04450ff-83ea-4e19-8e05-2766042bd8d8-parameters"
        }
      }, {
        "url": "http://hl7.org/fhir/us/cqfmeasures/StructureDefinition/cqfm-testCaseDescription",
        "valueMarkdown": "This patient is 67 years old with a qualifying office visit encounter and active  diabetes, with both qualifying lab tests. This case tests the numerator criteria."
      } ],
      "modifierExtension": [ {
        "url": "http://hl7.org/fhir/us/cqfmeasures/StructureDefinition/cqfm-isTestCase",
        "valueBoolean": true
      } ],
      "status": "complete",
      "type": "individual",
      "measure": "Measure/KidneyHealthEvaluationFHIR",
      "period": {
        "start": "2025-01-01",
        "end": "2025-12-31"
      },
      "group": [ {
        "population": [ {
          "code": {
            "coding": [ {
              "system": "http://terminology.hl7.org/CodeSystem/measure-population",
              "code": "initial-population",
              "display": "Initial Population"
            } ]
          },
          "count": 1
        }, {
          "code": {
            "coding": [ {
              "system": "http://terminology.hl7.org/CodeSystem/measure-population",
              "code": "denominator",
              "display": "Denominator"
            } ]
          },
          "count": 1
        }, {
          "code": {
            "coding": [ {
              "system": "http://terminology.hl7.org/CodeSystem/measure-population",
              "code": "denominator-exclusion",
              "display": "Denominator Exclusion"
            } ]
          },
          "count": 0
        }, {
          "code": {
            "coding": [ {
              "system": "http://terminology.hl7.org/CodeSystem/measure-population",
              "code": "numerator",
              "display": "Numerator"
            } ]
          },
          "count": 1
        } ]
      } ],
      "evaluatedResource": [ {
        "reference": "Patient/52988c36-5e85-4818-9baa-983a3e27281a"
      }, {
        "reference": "Condition/diabetes-b917"
      }, {
        "reference": "Observation/estimated-glomerular-filtration-rate-b919"
      }, {
        "reference": "Observation/urine-albumin-creatinine-ratio-b91a"
      }, {
        "reference": "Encounter/office-visit-b91c"
      } ]
    },
    "request": {
      "method": "PUT",
      "url": "MeasureReport/c9d25136-d322-4de5-a298-5f47ddb65e58"
    }
  } ]
}
