{
  "resourceType": "Bundle",
  "id": "m1f044ef3e654daa2559",
  "type": "transaction",
  "entry": [ {
    "fullUrl": "https://madie.cms.gov/Patient/acbb3f41-f15e-4166-9f9b-d4f73318cb34",
    "resource": {
      "resourceType": "Patient",
      "id": "acbb3f41-f15e-4166-9f9b-d4f73318cb34",
      "meta": {
        "profile": [ "http://hl7.org/fhir/us/qicore/StructureDefinition/qicore-patient" ]
      },
      "extension": [ {
        "url": "http://hl7.org/fhir/us/core/StructureDefinition/us-core-race",
        "extension": [ {
          "url": "ombCategory",
          "valueCoding": {
            "system": "urn:oid:2.16.840.1.113883.6.238",
            "code": "1002-5",
            "display": "American Indian or Alaska Native",
            "userSelected": true
          }
        }, {
          "url": "text",
          "valueString": "American Indian or Alaska Native"
        } ]
      }, {
        "url": "http://hl7.org/fhir/us/core/StructureDefinition/us-core-ethnicity",
        "extension": [ {
          "url": "ombCategory",
          "valueCoding": {
            "system": "urn:oid:2.16.840.1.113883.6.238",
            "code": "2135-2",
            "display": "Hispanic or Latino",
            "userSelected": true
          }
        }, {
          "url": "text",
          "valueString": "Hispanic or Latino"
        } ]
      } ],
      "identifier": [ {
        "type": {
          "coding": [ {
            "system": "http://terminology.hl7.org/CodeSystem/v2-0203",
            "code": "MR"
          } ]
        },
        "system": "https://bonnie-fhir.healthit.gov/",
        "value": "9208e6d2-2b92-4865-9c95-ffef2a9f3111"
      } ],
      "name": [ {
        "family": "DENEXCL11PASS",
        "given": [ "HospiceDiagnosisOverlapEDStart" ]
      } ],
      "gender": "male",
      "birthDate": "1986-09-15"
    },
    "request": {
      "method": "PUT",
      "url": "Patient/acbb3f41-f15e-4166-9f9b-d4f73318cb34"
    }
  }, {
    "fullUrl": "https://madie.cms.gov/Encounter/85ad7b32-51a7-49a5-828d-fcba16a9ebd6",
    "resource": {
      "resourceType": "Encounter",
      "id": "85ad7b32-51a7-49a5-828d-fcba16a9ebd6",
      "meta": {
        "profile": [ "http://hl7.org/fhir/us/qicore/StructureDefinition/qicore-encounter" ]
      },
      "status": "finished",
      "class": {
        "system": "http://terminology.hl7.org/CodeSystem/v3-ActCode",
        "code": "EMER",
        "display": "emergency",
        "userSelected": true
      },
      "type": [ {
        "coding": [ {
          "system": "http://snomed.info/sct",
          "version": "2020-09",
          "code": "4525004",
          "display": "Emergency department patient visit",
          "userSelected": true
        } ]
      } ],
      "subject": {
        "reference": "Patient/acbb3f41-f15e-4166-9f9b-d4f73318cb34"
      },
      "period": {
        "start": "2026-10-09T05:00:00.000+00:00",
        "end": "2026-10-13T17:00:00.000+00:00"
      },
      "reasonCode": [ {
        "coding": [ {
          "system": "http://hl7.org/fhir/sid/icd-10-cm",
          "code": "I21.21",
          "display": "ST elevation (STEMI) myocardial infarction involving left circumflex coronary artery",
          "userSelected": true
        } ]
      } ]
    },
    "request": {
      "method": "PUT",
      "url": "Encounter/85ad7b32-51a7-49a5-828d-fcba16a9ebd6"
    }
  }, {
    "fullUrl": "https://madie.cms.gov/Condition/d6a42727-db48-461a-bd53-f1f369fec248",
    "resource": {
      "resourceType": "Condition",
      "id": "d6a42727-db48-461a-bd53-f1f369fec248",
      "meta": {
        "profile": [ "http://hl7.org/fhir/us/qicore/StructureDefinition/qicore-condition" ]
      },
      "clinicalStatus": {
        "coding": [ {
          "system": "http://terminology.hl7.org/CodeSystem/condition-clinical",
          "code": "inactive",
          "display": "Inactive",
          "userSelected": true
        } ]
      },
      "category": [ {
        "coding": [ {
          "system": "http://terminology.hl7.org/CodeSystem/condition-category",
          "code": "problem-list-item",
          "display": "Problem List Item",
          "userSelected": true
        } ]
      } ],
      "code": {
        "coding": [ {
          "system": "http://snomed.info/sct",
          "code": "170936009",
          "display": "Shared care - hospice and general practitioner (finding)",
          "userSelected": true
        } ]
      },
      "subject": {
        "reference": "Patient/acbb3f41-f15e-4166-9f9b-d4f73318cb34"
      },
      "onsetDateTime": "2026-10-08T12:00:00.000+00:00",
      "abatementDateTime": "2026-11-30T02:00:00.000+00:00"
    },
    "request": {
      "method": "PUT",
      "url": "Condition/d6a42727-db48-461a-bd53-f1f369fec248"
    }
  }, {
    "fullUrl": "https://madie.cms.gov/MeasureReport/25ebffca-d82f-49de-a084-167825a97a26",
    "resource": {
      "resourceType": "MeasureReport",
      "id": "25ebffca-d82f-49de-a084-167825a97a26",
      "meta": {
        "profile": [ "http://hl7.org/fhir/us/cqfmeasures/StructureDefinition/test-case-cqfm" ]
      },
      "contained": [ {
        "resourceType": "Parameters",
        "id": "65014c74-e1c5-4045-9a62-e850a31925b9-parameters",
        "parameter": [ {
          "name": "subject",
          "valueString": "acbb3f41-f15e-4166-9f9b-d4f73318cb34"
        } ]
      } ],
      "extension": [ {
        "url": "http://hl7.org/fhir/us/cqfmeasures/StructureDefinition/cqfm-inputParameters",
        "valueReference": {
          "reference": "#65014c74-e1c5-4045-9a62-e850a31925b9-parameters"
        }
      }, {
        "url": "http://hl7.org/fhir/us/cqfmeasures/StructureDefinition/cqfm-testCaseDescription",
        "valueMarkdown": "Patients has hospice diagnosis that overlaps ED start"
      } ],
      "modifierExtension": [ {
        "url": "http://hl7.org/fhir/us/cqfmeasures/StructureDefinition/cqfm-isTestCase",
        "valueBoolean": true
      } ],
      "status": "complete",
      "type": "individual",
      "measure": "https://madie.cms.gov/Measure/CMS996FHIRAptTxforSTEMI",
      "period": {
        "start": "2026-01-01",
        "end": "2026-12-31"
      },
      "group": [ {
        "population": [ {
          "code": {
            "coding": [ {
              "system": "http://terminology.hl7.org/CodeSystem/measure-population",
              "code": "initial-population",
              "display": "Initial Population"
            } ]
          },
          "count": 1
        }, {
          "code": {
            "coding": [ {
              "system": "http://terminology.hl7.org/CodeSystem/measure-population",
              "code": "denominator",
              "display": "Denominator"
            } ]
          },
          "count": 1
        }, {
          "code": {
            "coding": [ {
              "system": "http://terminology.hl7.org/CodeSystem/measure-population",
              "code": "denominator-exclusion",
              "display": "Denominator Exclusion"
            } ]
          },
          "count": 1
        }, {
          "code": {
            "coding": [ {
              "system": "http://terminology.hl7.org/CodeSystem/measure-population",
              "code": "numerator",
              "display": "Numerator"
            } ]
          },
          "count": 0
        }, {
          "code": {
            "coding": [ {
              "system": "http://terminology.hl7.org/CodeSystem/measure-population",
              "code": "denominator-exception",
              "display": "Denominator Exception"
            } ]
          },
          "count": 0
        } ]
      } ],
      "evaluatedResource": [ {
        "reference": "Patient/acbb3f41-f15e-4166-9f9b-d4f73318cb34"
      }, {
        "reference": "Encounter/85ad7b32-51a7-49a5-828d-fcba16a9ebd6"
      }, {
        "reference": "Condition/d6a42727-db48-461a-bd53-f1f369fec248"
      } ]
    },
    "request": {
      "method": "PUT",
      "url": "MeasureReport/25ebffca-d82f-49de-a084-167825a97a26"
    }
  } ]
}