{
  "resourceType": "Bundle",
  "id": "DENEXPass-FallDxPOAByIndicatorW",
  "type": "transaction",
  "entry": [ {
    "fullUrl": "https://madie.cms.gov/Encounter/0d3a0446-e513-4cb9-b1be-e1527873d8f1",
    "resource": {
      "resourceType": "Encounter",
      "id": "0d3a0446-e513-4cb9-b1be-e1527873d8f1",
      "meta": {
        "profile": [ "http://hl7.org/fhir/us/qicore/StructureDefinition/qicore-encounter" ]
      },
      "status": "finished",
      "class": {
        "system": "http://terminology.hl7.org/CodeSystem/v3-ActCode",
        "code": "IMP",
        "display": "inpatient encounter"
      },
      "type": [ {
        "coding": [ {
          "system": "http://snomed.info/sct",
          "code": "183452005"
        } ]
      } ],
      "subject": {
        "reference": "Patient/76c1dbbc-10c3-43af-acd3-41cf5d4838eb"
      },
      "period": {
        "start": "2026-04-10T08:00:00+00:00",
        "end": "2026-04-16T08:15:00+00:00"
      },
      "diagnosis": [ {
        "extension": [ {
          "url": "http://hl7.org/fhir/us/qicore/StructureDefinition/qicore-encounter-diagnosisPresentOnAdmission",
          "valueCodeableConcept": {
            "coding": [ {
              "system": "https://www.cms.gov/Medicare/Medicare-Fee-for-Service-Payment/HospitalAcqCond/Coding",
              "code": "W"
            } ]
          }
        } ],
        "condition": {
          "reference": "Condition/ddfd7d48-f4b5-47b3-8b04-e4317bc442a4"
        }
      } ]
    },
    "request": {
      "method": "PUT",
      "url": "Encounter/0d3a0446-e513-4cb9-b1be-e1527873d8f1"
    }
  }, {
    "fullUrl": "https://madie.cms.gov/Condition/ddfd7d48-f4b5-47b3-8b04-e4317bc442a4",
    "resource": {
      "resourceType": "Condition",
      "id": "ddfd7d48-f4b5-47b3-8b04-e4317bc442a4",
      "meta": {
        "profile": [ "http://hl7.org/fhir/us/qicore/StructureDefinition/qicore-condition" ]
      },
      "clinicalStatus": {
        "coding": [ {
          "system": "http://terminology.hl7.org/CodeSystem/condition-clinical",
          "code": "active"
        } ]
      },
      "verificationStatus": {
        "coding": [ {
          "system": "http://terminology.hl7.org/CodeSystem/condition-ver-status",
          "code": "confirmed"
        } ]
      },
      "category": [ {
        "coding": [ {
          "system": "http://terminology.hl7.org/CodeSystem/condition-category",
          "code": "encounter-diagnosis",
          "display": "Encounter Diagnosis"
        } ]
      } ],
      "code": {
        "coding": [ {
          "system": "http://snomed.info/sct",
          "code": "14047009"
        } ]
      },
      "subject": {
        "reference": "Patient/76c1dbbc-10c3-43af-acd3-41cf5d4838eb"
      },
      "encounter": {
        "reference": "Encounter/0d3a0446-e513-4cb9-b1be-e1527873d8f1"
      }
    },
    "request": {
      "method": "PUT",
      "url": "Condition/ddfd7d48-f4b5-47b3-8b04-e4317bc442a4"
    }
  }, {
    "fullUrl": "https://madie.cms.gov/Patient/76c1dbbc-10c3-43af-acd3-41cf5d4838eb",
    "resource": {
      "resourceType": "Patient",
      "id": "76c1dbbc-10c3-43af-acd3-41cf5d4838eb",
      "meta": {
        "profile": [ "http://hl7.org/fhir/us/qicore/StructureDefinition/qicore-patient" ]
      },
      "extension": [ {
        "url": "http://hl7.org/fhir/us/core/StructureDefinition/us-core-race",
        "extension": [ {
          "url": "ombCategory",
          "valueCoding": {
            "system": "urn:oid:2.16.840.1.113883.6.238",
            "code": "1002-5",
            "display": "American Indian or Alaska Native",
            "userSelected": true
          }
        }, {
          "url": "text",
          "valueString": "American Indian or Alaska Native"
        } ]
      }, {
        "url": "http://hl7.org/fhir/us/core/StructureDefinition/us-core-ethnicity",
        "extension": [ {
          "url": "ombCategory",
          "valueCoding": {
            "system": "urn:oid:2.16.840.1.113883.6.238",
            "code": "2135-2",
            "display": "Hispanic or Latino",
            "userSelected": true
          }
        }, {
          "url": "text",
          "valueString": "Hispanic or Latino"
        } ]
      } ],
      "identifier": [ {
        "type": {
          "coding": [ {
            "system": "http://terminology.hl7.org/CodeSystem/v2-0203",
            "code": "MR"
          } ]
        },
        "system": "https://bonnie-fhir.healthit.gov/",
        "value": "61152a3b98086b7a79cbd7c1"
      } ],
      "active": true,
      "name": [ {
        "use": "usual",
        "family": "DENEXPass",
        "given": [ "FallDxPOAByIndicatorW" ]
      } ],
      "gender": "female",
      "birthDate": "1964-12-11"
    },
    "request": {
      "method": "PUT",
      "url": "Patient/76c1dbbc-10c3-43af-acd3-41cf5d4838eb"
    }
  }, {
    "fullUrl": "https://madie.cms.gov/MeasureReport/183f4842-a9aa-4232-a175-f4fd29cf1404",
    "resource": {
      "resourceType": "MeasureReport",
      "id": "183f4842-a9aa-4232-a175-f4fd29cf1404",
      "meta": {
        "profile": [ "http://hl7.org/fhir/us/cqfmeasures/StructureDefinition/test-case-cqfm" ]
      },
      "contained": [ {
        "resourceType": "Parameters",
        "id": "06eb7fb2-eefa-4f69-9d98-a43d25bb46f6-parameters",
        "parameter": [ {
          "name": "subject",
          "valueString": "76c1dbbc-10c3-43af-acd3-41cf5d4838eb"
        } ]
      } ],
      "extension": [ {
        "url": "http://hl7.org/fhir/us/cqfmeasures/StructureDefinition/cqfm-inputParameters",
        "valueReference": {
          "reference": "#06eb7fb2-eefa-4f69-9d98-a43d25bb46f6-parameters"
        }
      }, {
        "url": "http://hl7.org/fhir/us/cqfmeasures/StructureDefinition/cqfm-testCaseDescription",
        "valueMarkdown": "IP encounter w/Fall POA indicator = W. Meets Denom Exclusion."
      } ],
      "modifierExtension": [ {
        "url": "http://hl7.org/fhir/us/cqfmeasures/StructureDefinition/cqfm-isTestCase",
        "valueBoolean": true
      } ],
      "status": "complete",
      "type": "individual",
      "measure": "https://madie.cms.gov/Measure/FallsWithInjuryFHIR",
      "period": {
        "start": "2026-01-01",
        "end": "2026-12-31"
      },
      "group": [ {
        "population": [ {
          "code": {
            "coding": [ {
              "system": "http://terminology.hl7.org/CodeSystem/measure-population",
              "code": "initial-population",
              "display": "Initial Population"
            } ]
          },
          "count": 1
        }, {
          "code": {
            "coding": [ {
              "system": "http://terminology.hl7.org/CodeSystem/measure-population",
              "code": "denominator",
              "display": "Denominator"
            } ]
          },
          "count": 1
        }, {
          "code": {
            "coding": [ {
              "system": "http://terminology.hl7.org/CodeSystem/measure-population",
              "code": "denominator-exclusion",
              "display": "Denominator Exclusion"
            } ]
          },
          "count": 1
        }, {
          "code": {
            "coding": [ {
              "system": "http://terminology.hl7.org/CodeSystem/measure-population",
              "code": "numerator",
              "display": "Numerator"
            } ]
          },
          "count": 0
        }, {
          "code": {
            "coding": [ {
              "system": "http://terminology.hl7.org/CodeSystem/measure-population",
              "code": "numerator-exclusion",
              "display": "Numerator Exclusion"
            } ]
          },
          "count": 1
        } ]
      } ],
      "evaluatedResource": [ {
        "reference": "Encounter/0d3a0446-e513-4cb9-b1be-e1527873d8f1"
      }, {
        "reference": "Condition/ddfd7d48-f4b5-47b3-8b04-e4317bc442a4"
      }, {
        "reference": "Patient/76c1dbbc-10c3-43af-acd3-41cf5d4838eb"
      } ]
    },
    "request": {
      "method": "PUT",
      "url": "MeasureReport/183f4842-a9aa-4232-a175-f4fd29cf1404"
    }
  } ]
}