{
  "resourceType": "Bundle",
  "id": "63050905-516c-41e9-8e97-c792143fdd0d",
  "type": "transaction",
  "entry": [ {
    "fullUrl": "https://madie.cms.gov/Patient/7961993e-f025-4a12-9bb8-461c6ab3870e",
    "resource": {
      "resourceType": "Patient",
      "id": "7961993e-f025-4a12-9bb8-461c6ab3870e",
      "meta": {
        "profile": [ "http://hl7.org/fhir/us/qicore/StructureDefinition/qicore-patient" ]
      },
      "text": {
        "status": "generated",
        "div": "<div xmlns=\"http://www.w3.org/1999/xhtml\"><div class=\"hapiHeaderText\">FactorXaDuringICUDxVTERemission <b>NUMERPASS </b></div><table class=\"hapiPropertyTable\"><tbody><tr><td>Identifier</td><td>ba9e367399672c89721f9d3c22d115ac</td></tr><tr><td>Date of birth</td><td><span>03 March 1974</span></td></tr></tbody></table></div>"
      },
      "extension": [ {
        "url": "http://hl7.org/fhir/us/core/StructureDefinition/us-core-race",
        "extension": [ {
          "url": "ombCategory",
          "valueCoding": {
            "system": "urn:oid:2.16.840.1.113883.6.238",
            "code": "1002-5",
            "display": "American Indian or Alaska Native",
            "userSelected": true
          }
        }, {
          "url": "text",
          "valueString": "American Indian or Alaska Native"
        } ]
      }, {
        "url": "http://hl7.org/fhir/us/core/StructureDefinition/us-core-ethnicity",
        "extension": [ {
          "url": "ombCategory",
          "valueCoding": {
            "system": "urn:oid:2.16.840.1.113883.6.238",
            "code": "2135-2",
            "display": "Hispanic or Latino",
            "userSelected": true
          }
        }, {
          "url": "text",
          "valueString": "Hispanic or Latino"
        } ]
      } ],
      "identifier": [ {
        "type": {
          "coding": [ {
            "system": "http://terminology.hl7.org/CodeSystem/v2-0203",
            "code": "MR"
          } ]
        },
        "system": "https://bonnie-fhir.healthit.gov/",
        "value": "63050905-516c-41e9-8e97-c792143fdd0d"
      } ],
      "active": true,
      "name": [ {
        "use": "usual",
        "family": "NUMERPass",
        "given": [ "FactorXaDuringICUDxVTERemission" ]
      } ],
      "gender": "female",
      "birthDate": "1975-03-03"
    },
    "request": {
      "method": "PUT",
      "url": "Patient/7961993e-f025-4a12-9bb8-461c6ab3870e"
    }
  }, {
    "fullUrl": "https://madie.cms.gov/Encounter/a7885786-e5f2-44ae-88c1-6ba2d3437b15",
    "resource": {
      "resourceType": "Encounter",
      "id": "a7885786-e5f2-44ae-88c1-6ba2d3437b15",
      "meta": {
        "profile": [ "http://hl7.org/fhir/us/qicore/StructureDefinition/qicore-encounter" ]
      },
      "status": "finished",
      "class": {
        "system": "http://terminology.hl7.org/CodeSystem/v3-ActCode",
        "code": "IMP",
        "display": "inpatient encounter"
      },
      "type": [ {
        "coding": [ {
          "system": "http://snomed.info/sct",
          "code": "8715000"
        } ]
      } ],
      "subject": {
        "reference": "Patient/7961993e-f025-4a12-9bb8-461c6ab3870e"
      },
      "period": {
        "start": "2026-12-04T08:00:00+00:00",
        "end": "2026-12-30T08:15:00+00:00"
      },
      "length": {
        "value": 26,
        "unit": "days"
      },
      "location": [ {
        "location": {
          "reference": "Location/646b8bbc-80cb-4aa6-b17e-2ec067c22cd0"
        },
        "period": {
          "start": "2026-12-06T08:00:00.000+00:00",
          "end": "2026-12-08T08:15:00.000+00:00"
        }
      } ]
    },
    "request": {
      "method": "PUT",
      "url": "Encounter/a7885786-e5f2-44ae-88c1-6ba2d3437b15"
    }
  }, {
    "fullUrl": "https://madie.cms.gov/Coverage/16ac8d13-9ac3-4eec-8ec8-b7bc9e1cedfe",
    "resource": {
      "resourceType": "Coverage",
      "id": "16ac8d13-9ac3-4eec-8ec8-b7bc9e1cedfe",
      "status": "active",
      "beneficiary": {
        "reference": "Patient/7961993e-f025-4a12-9bb8-461c6ab3870e"
      },
      "period": {
        "start": "1975-03-03T08:00:00+00:00"
      },
      "payor": [ {
        "reference": "Organization/0b0b677b-67ac-49b6-ac70-88b80f9aec6c"
      } ]
    },
    "request": {
      "method": "PUT",
      "url": "Coverage/16ac8d13-9ac3-4eec-8ec8-b7bc9e1cedfe"
    }
  }, {
    "fullUrl": "https://madie.cms.gov/Condition/1c25ac0d-9e9d-4f88-b1fa-70e74afc82c1",
    "resource": {
      "resourceType": "Condition",
      "id": "1c25ac0d-9e9d-4f88-b1fa-70e74afc82c1",
      "meta": {
        "profile": [ "http://hl7.org/fhir/us/qicore/StructureDefinition/qicore-condition" ]
      },
      "clinicalStatus": {
        "coding": [ {
          "system": "http://terminology.hl7.org/CodeSystem/condition-clinical",
          "code": "remission"
        } ]
      },
      "verificationStatus": {
        "coding": [ {
          "system": "http://terminology.hl7.org/CodeSystem/condition-ver-status",
          "code": "confirmed"
        } ]
      },
      "category": [ {
        "coding": [ {
          "system": "http://terminology.hl7.org/CodeSystem/condition-category",
          "code": "problem-list-item",
          "display": "Problem List Item"
        } ]
      } ],
      "code": {
        "coding": [ {
          "system": "http://hl7.org/fhir/sid/icd-10-cm",
          "code": "I26.09",
          "display": "Other pulmonary embolism with acute cor pulmonale"
        } ]
      },
      "subject": {
        "reference": "Patient/7961993e-f025-4a12-9bb8-461c6ab3870e"
      },
      "onsetPeriod": {
        "start": "2026-11-03T08:00:00+00:00",
        "end": "2026-12-03T08:00:00+00:00"
      }
    },
    "request": {
      "method": "PUT",
      "url": "Condition/1c25ac0d-9e9d-4f88-b1fa-70e74afc82c1"
    }
  }, {
    "fullUrl": "https://madie.cms.gov/MedicationAdministration/f8f2f1c0-f180-4bf8-9a95-a324f5a9fe3f",
    "resource": {
      "resourceType": "MedicationAdministration",
      "id": "f8f2f1c0-f180-4bf8-9a95-a324f5a9fe3f",
      "meta": {
        "profile": [ "http://hl7.org/fhir/us/qicore/StructureDefinition/qicore-medicationadministration" ]
      },
      "status": "completed",
      "medicationCodeableConcept": {
        "coding": [ {
          "system": "http://www.nlm.nih.gov/research/umls/rxnorm",
          "code": "1599543",
          "display": "edoxaban 15 MG Oral Tablet"
        } ]
      },
      "subject": {
        "reference": "Patient/7961993e-f025-4a12-9bb8-461c6ab3870e"
      },
      "effectivePeriod": {
        "start": "2026-12-06T11:30:00+00:00",
        "end": "2026-12-06T11:35:00+00:00"
      }
    },
    "request": {
      "method": "PUT",
      "url": "MedicationAdministration/f8f2f1c0-f180-4bf8-9a95-a324f5a9fe3f"
    }
  }, {
    "fullUrl": "https://madie.cms.gov/Location/646b8bbc-80cb-4aa6-b17e-2ec067c22cd0",
    "resource": {
      "resourceType": "Location",
      "id": "646b8bbc-80cb-4aa6-b17e-2ec067c22cd0",
      "meta": {
        "profile": [ "http://hl7.org/fhir/us/qicore/StructureDefinition/qicore-location" ]
      },
      "identifier": [ {
        "use": "usual",
        "system": "http://exampleoflocation.com",
        "value": "B1-S.F2"
      } ],
      "name": "Medical Surgical East, first floor",
      "type": [ {
        "coding": [ {
          "system": "https://www.cdc.gov/nhsn/cdaportal/terminology/codesystem/hsloc.html",
          "version": "2020",
          "code": "1025-6",
          "display": "Trauma Critical Care",
          "userSelected": true
        } ]
      } ]
    },
    "request": {
      "method": "PUT",
      "url": "Location/646b8bbc-80cb-4aa6-b17e-2ec067c22cd0"
    }
  }, {
    "fullUrl": "https://madie.cms.gov/Organization/0b0b677b-67ac-49b6-ac70-88b80f9aec6c",
    "resource": {
      "resourceType": "Organization",
      "id": "0b0b677b-67ac-49b6-ac70-88b80f9aec6c",
      "meta": {
        "profile": [ "http://hl7.org/fhir/us/qicore/StructureDefinition/qicore-organization" ]
      },
      "identifier": [ {
        "use": "temp",
        "system": "urn:oid:2.16.840.1.113883.4.4",
        "value": "21-3259825"
      } ],
      "active": true,
      "type": [ {
        "coding": [ {
          "system": "http://terminology.hl7.org/CodeSystem/organization-type",
          "code": "pay",
          "display": "Payer"
        } ]
      } ],
      "name": "Blue Cross Blue Shield of Texas",
      "telecom": [ {
        "system": "phone",
        "value": "(+1) 972-766-6900"
      } ],
      "address": [ {
        "use": "billing",
        "type": "postal",
        "line": [ "P.O. Box 660044" ],
        "city": "Dallas",
        "state": "TX",
        "postalCode": "75266-0044",
        "country": "USA"
      } ]
    },
    "request": {
      "method": "PUT",
      "url": "Organization/0b0b677b-67ac-49b6-ac70-88b80f9aec6c"
    }
  }, {
    "fullUrl": "https://madie.cms.gov/MeasureReport/299001f0-f013-42e9-a62c-30f2a837a143",
    "resource": {
      "resourceType": "MeasureReport",
      "id": "299001f0-f013-42e9-a62c-30f2a837a143",
      "meta": {
        "profile": [ "http://hl7.org/fhir/us/cqfmeasures/StructureDefinition/test-case-cqfm" ]
      },
      "contained": [ {
        "resourceType": "Parameters",
        "id": "2a8d6f14-9af0-45bf-9c25-170e009b72af-parameters",
        "parameter": [ {
          "name": "subject",
          "valueString": "7961993e-f025-4a12-9bb8-461c6ab3870e"
        } ]
      } ],
      "extension": [ {
        "url": "http://hl7.org/fhir/us/cqfmeasures/StructureDefinition/cqfm-inputParameters",
        "valueReference": {
          "reference": "#2a8d6f14-9af0-45bf-9c25-170e009b72af-parameters"
        }
      }, {
        "url": "http://hl7.org/fhir/us/cqfmeasures/StructureDefinition/cqfm-testCaseDescription",
        "valueMarkdown": "Test and cover Dx clinicalstatus is remission"
      } ],
      "modifierExtension": [ {
        "url": "http://hl7.org/fhir/us/cqfmeasures/StructureDefinition/cqfm-isTestCase",
        "valueBoolean": true
      } ],
      "status": "complete",
      "type": "individual",
      "measure": "https://madie.cms.gov/Measure/CMS190VTEProphylaxisICUFHIR",
      "period": {
        "start": "2026-01-01",
        "end": "2026-12-31"
      },
      "group": [ {
        "population": [ {
          "code": {
            "coding": [ {
              "system": "http://terminology.hl7.org/CodeSystem/measure-population",
              "code": "initial-population",
              "display": "Initial Population"
            } ]
          },
          "count": 1
        }, {
          "code": {
            "coding": [ {
              "system": "http://terminology.hl7.org/CodeSystem/measure-population",
              "code": "denominator",
              "display": "Denominator"
            } ]
          },
          "count": 1
        }, {
          "code": {
            "coding": [ {
              "system": "http://terminology.hl7.org/CodeSystem/measure-population",
              "code": "denominator-exclusion",
              "display": "Denominator Exclusion"
            } ]
          },
          "count": 0
        }, {
          "code": {
            "coding": [ {
              "system": "http://terminology.hl7.org/CodeSystem/measure-population",
              "code": "numerator",
              "display": "Numerator"
            } ]
          },
          "count": 1
        }, {
          "code": {
            "coding": [ {
              "system": "http://terminology.hl7.org/CodeSystem/measure-population",
              "code": "denominator-exception",
              "display": "Denominator Exception"
            } ]
          },
          "count": 0
        } ]
      } ],
      "evaluatedResource": [ {
        "reference": "Patient/7961993e-f025-4a12-9bb8-461c6ab3870e"
      }, {
        "reference": "Encounter/a7885786-e5f2-44ae-88c1-6ba2d3437b15"
      }, {
        "reference": "Coverage/16ac8d13-9ac3-4eec-8ec8-b7bc9e1cedfe"
      }, {
        "reference": "Condition/1c25ac0d-9e9d-4f88-b1fa-70e74afc82c1"
      }, {
        "reference": "MedicationAdministration/f8f2f1c0-f180-4bf8-9a95-a324f5a9fe3f"
      }, {
        "reference": "Location/646b8bbc-80cb-4aa6-b17e-2ec067c22cd0"
      }, {
        "reference": "Organization/0b0b677b-67ac-49b6-ac70-88b80f9aec6c"
      } ]
    },
    "request": {
      "method": "PUT",
      "url": "MeasureReport/299001f0-f013-42e9-a62c-30f2a837a143"
    }
  } ]
}