{
  "resourceType": "Bundle",
  "id": "612e6a9b02c62a011f2ea8e2",
  "type": "transaction",
  "entry": [ {
    "fullUrl": "https://madie.cms.gov/Patient/ce7eb418-e867-4474-af7b-b185145e6abe",
    "resource": {
      "resourceType": "Patient",
      "id": "ce7eb418-e867-4474-af7b-b185145e6abe",
      "meta": {
        "profile": [ "http://hl7.org/fhir/us/qicore/StructureDefinition/qicore-patient" ]
      },
      "text": {
        "status": "generated",
        "div": "<div xmlns=\"http://www.w3.org/1999/xhtml\"><div class=\"hapiHeaderText\">MA_ThrombDT23HrAfterAnes <b>NUMERPASS </b></div><table class=\"hapiPropertyTable\"><tbody><tr><td>Identifier</td><td>949829b80a2718d749070ce8b95b6a8d</td></tr><tr><td>Date of birth</td><td><span>02 January 1974</span></td></tr></tbody></table></div>"
      },
      "extension": [ {
        "url": "http://hl7.org/fhir/us/core/StructureDefinition/us-core-race",
        "extension": [ {
          "url": "ombCategory",
          "valueCoding": {
            "system": "urn:oid:2.16.840.1.113883.6.238",
            "code": "1002-5",
            "display": "American Indian or Alaska Native",
            "userSelected": true
          }
        }, {
          "url": "text",
          "valueString": "American Indian or Alaska Native"
        } ]
      }, {
        "url": "http://hl7.org/fhir/us/core/StructureDefinition/us-core-ethnicity",
        "extension": [ {
          "url": "ombCategory",
          "valueCoding": {
            "system": "urn:oid:2.16.840.1.113883.6.238",
            "code": "2135-2",
            "display": "Hispanic or Latino",
            "userSelected": true
          }
        }, {
          "url": "text",
          "valueString": "Hispanic or Latino"
        } ]
      } ],
      "identifier": [ {
        "type": {
          "coding": [ {
            "system": "http://terminology.hl7.org/CodeSystem/v2-0203",
            "code": "MR"
          } ]
        },
        "system": "https://bonnie-fhir.healthit.gov/",
        "value": "612e6a9b02c62a011f2ea8e2"
      } ],
      "active": true,
      "name": [ {
        "use": "usual",
        "family": "NUMERPass",
        "given": [ "MA_ThrombDT23HrAfterAnes" ]
      } ],
      "gender": "male",
      "birthDate": "1975-01-02"
    },
    "request": {
      "method": "PUT",
      "url": "Patient/ce7eb418-e867-4474-af7b-b185145e6abe"
    }
  }, {
    "fullUrl": "https://madie.cms.gov/Encounter/e49fcb47-8f6c-45d0-b1e1-a92172e879e7",
    "resource": {
      "resourceType": "Encounter",
      "id": "e49fcb47-8f6c-45d0-b1e1-a92172e879e7",
      "meta": {
        "profile": [ "http://hl7.org/fhir/us/qicore/StructureDefinition/qicore-encounter" ]
      },
      "status": "finished",
      "class": {
        "system": "http://terminology.hl7.org/CodeSystem/v3-ActCode",
        "code": "IMP",
        "display": "inpatient encounter"
      },
      "type": [ {
        "coding": [ {
          "system": "http://snomed.info/sct",
          "code": "8715000"
        } ]
      } ],
      "subject": {
        "reference": "Patient/ce7eb418-e867-4474-af7b-b185145e6abe"
      },
      "period": {
        "start": "2026-11-01T08:00:00+00:00",
        "end": "2026-11-26T08:15:00+00:00"
      },
      "length": {
        "value": 25.0,
        "unit": "days"
      }
    },
    "request": {
      "method": "PUT",
      "url": "Encounter/e49fcb47-8f6c-45d0-b1e1-a92172e879e7"
    }
  }, {
    "fullUrl": "https://madie.cms.gov/Coverage/4712a7e0-1ac3-4108-911a-61f26adeacc0",
    "resource": {
      "resourceType": "Coverage",
      "id": "4712a7e0-1ac3-4108-911a-61f26adeacc0",
      "status": "active",
      "beneficiary": {
        "reference": "Patient/ce7eb418-e867-4474-af7b-b185145e6abe"
      },
      "period": {
        "start": "1975-01-02T08:00:00+00:00"
      },
      "payor": [ {
        "reference": "Organization/01562b82-1360-416d-af7a-571bb580ec6c"
      } ]
    },
    "request": {
      "method": "PUT",
      "url": "Coverage/4712a7e0-1ac3-4108-911a-61f26adeacc0"
    }
  }, {
    "fullUrl": "https://madie.cms.gov/MedicationAdministration/fee5a329-bfd7-4ddf-8422-cdda00f57f8d",
    "resource": {
      "resourceType": "MedicationAdministration",
      "id": "fee5a329-bfd7-4ddf-8422-cdda00f57f8d",
      "meta": {
        "profile": [ "http://hl7.org/fhir/us/qicore/StructureDefinition/qicore-medicationadministration" ]
      },
      "status": "completed",
      "medicationCodeableConcept": {
        "coding": [ {
          "system": "http://www.nlm.nih.gov/research/umls/rxnorm",
          "code": "308351"
        } ]
      },
      "subject": {
        "reference": "Patient/ce7eb418-e867-4474-af7b-b185145e6abe"
      },
      "effectiveDateTime": "2026-11-03T09:00:00+00:00"
    },
    "request": {
      "method": "PUT",
      "url": "MedicationAdministration/fee5a329-bfd7-4ddf-8422-cdda00f57f8d"
    }
  }, {
    "fullUrl": "https://madie.cms.gov/Procedure/281d24ab-d425-4fe6-a36d-fcf3ff5da3e8",
    "resource": {
      "resourceType": "Procedure",
      "id": "281d24ab-d425-4fe6-a36d-fcf3ff5da3e8",
      "meta": {
        "profile": [ "http://hl7.org/fhir/us/qicore/StructureDefinition/qicore-procedure" ]
      },
      "extension": [ {
        "url": "http://hl7.org/fhir/us/qicore/StructureDefinition/qicore-recorded",
        "valueDateTime": "2013-11-03T09:35:00-04:00"
      } ],
      "status": "completed",
      "code": {
        "coding": [ {
          "system": "http://snomed.info/sct",
          "code": "18946005"
        } ]
      },
      "subject": {
        "reference": "Patient/ce7eb418-e867-4474-af7b-b185145e6abe"
      },
      "performedPeriod": {
        "start": "2026-11-02T09:00:00+00:00",
        "end": "2026-11-02T10:15:00+00:00"
      }
    },
    "request": {
      "method": "PUT",
      "url": "Procedure/281d24ab-d425-4fe6-a36d-fcf3ff5da3e8"
    }
  }, {
    "fullUrl": "https://madie.cms.gov/Organization/01562b82-1360-416d-af7a-571bb580ec6c",
    "resource": {
      "resourceType": "Organization",
      "id": "01562b82-1360-416d-af7a-571bb580ec6c",
      "meta": {
        "profile": [ "http://hl7.org/fhir/us/qicore/StructureDefinition/qicore-organization" ]
      },
      "identifier": [ {
        "use": "temp",
        "system": "urn:oid:2.16.840.1.113883.4.4",
        "value": "21-3259825"
      } ],
      "active": true,
      "type": [ {
        "coding": [ {
          "system": "http://terminology.hl7.org/CodeSystem/organization-type",
          "code": "pay",
          "display": "Payer"
        } ]
      } ],
      "name": "Blue Cross Blue Shield of Texas",
      "telecom": [ {
        "system": "phone",
        "value": "(+1) 972-766-6900"
      } ],
      "address": [ {
        "use": "billing",
        "type": "postal",
        "line": [ "P.O. Box 660044" ],
        "city": "Dallas",
        "state": "TX",
        "postalCode": "75266-0044",
        "country": "USA"
      } ]
    },
    "request": {
      "method": "PUT",
      "url": "Organization/01562b82-1360-416d-af7a-571bb580ec6c"
    }
  }, {
    "fullUrl": "https://madie.cms.gov/Practitioner/e5c7f8d9-8c85-46a4-bcee-a2570a5111f5",
    "resource": {
      "resourceType": "Practitioner",
      "id": "e5c7f8d9-8c85-46a4-bcee-a2570a5111f5",
      "identifier": [ {
        "system": "http://hl7.org/fhir/sid/us-npi",
        "value": "123456"
      } ],
      "name": [ {
        "family": "Evil",
        "prefix": [ "Dr" ]
      } ]
    },
    "request": {
      "method": "PUT",
      "url": "Practitioner/e5c7f8d9-8c85-46a4-bcee-a2570a5111f5"
    }
  }, {
    "fullUrl": "https://madie.cms.gov/MeasureReport/194c5977-d9a6-411b-aa63-ad89933aa2e4",
    "resource": {
      "resourceType": "MeasureReport",
      "id": "194c5977-d9a6-411b-aa63-ad89933aa2e4",
      "meta": {
        "profile": [ "http://hl7.org/fhir/us/cqfmeasures/StructureDefinition/test-case-cqfm" ]
      },
      "contained": [ {
        "resourceType": "Parameters",
        "id": "426b1264-f19e-4a0b-a483-6835289c5a32-parameters",
        "parameter": [ {
          "name": "subject",
          "valueString": "ce7eb418-e867-4474-af7b-b185145e6abe"
        } ]
      } ],
      "extension": [ {
        "url": "http://hl7.org/fhir/us/cqfmeasures/StructureDefinition/cqfm-inputParameters",
        "valueReference": {
          "reference": "#426b1264-f19e-4a0b-a483-6835289c5a32-parameters"
        }
      }, {
        "url": "http://hl7.org/fhir/us/cqfmeasures/StructureDefinition/cqfm-testCaseDescription",
        "valueMarkdown": "direct thrombin inhibitor administered = 1 day after end of anesthesia\n"
      } ],
      "modifierExtension": [ {
        "url": "http://hl7.org/fhir/us/cqfmeasures/StructureDefinition/cqfm-isTestCase",
        "valueBoolean": true
      } ],
      "status": "complete",
      "type": "individual",
      "measure": "https://madie.cms.gov/Measure/CMS108VTEProphylaxisFHIR",
      "period": {
        "start": "2026-01-01",
        "end": "2026-12-31"
      },
      "group": [ {
        "population": [ {
          "code": {
            "coding": [ {
              "system": "http://terminology.hl7.org/CodeSystem/measure-population",
              "code": "initial-population",
              "display": "Initial Population"
            } ]
          },
          "count": 1
        }, {
          "code": {
            "coding": [ {
              "system": "http://terminology.hl7.org/CodeSystem/measure-population",
              "code": "denominator",
              "display": "Denominator"
            } ]
          },
          "count": 1
        }, {
          "code": {
            "coding": [ {
              "system": "http://terminology.hl7.org/CodeSystem/measure-population",
              "code": "denominator-exclusion",
              "display": "Denominator Exclusion"
            } ]
          },
          "count": 0
        }, {
          "code": {
            "coding": [ {
              "system": "http://terminology.hl7.org/CodeSystem/measure-population",
              "code": "numerator",
              "display": "Numerator"
            } ]
          },
          "count": 1
        } ]
      } ],
      "evaluatedResource": [ {
        "reference": "Patient/ce7eb418-e867-4474-af7b-b185145e6abe"
      }, {
        "reference": "Encounter/e49fcb47-8f6c-45d0-b1e1-a92172e879e7"
      }, {
        "reference": "Coverage/4712a7e0-1ac3-4108-911a-61f26adeacc0"
      }, {
        "reference": "MedicationAdministration/fee5a329-bfd7-4ddf-8422-cdda00f57f8d"
      }, {
        "reference": "Procedure/281d24ab-d425-4fe6-a36d-fcf3ff5da3e8"
      }, {
        "reference": "Organization/01562b82-1360-416d-af7a-571bb580ec6c"
      }, {
        "reference": "Practitioner/e5c7f8d9-8c85-46a4-bcee-a2570a5111f5"
      } ]
    },
    "request": {
      "method": "PUT",
      "url": "MeasureReport/194c5977-d9a6-411b-aa63-ad89933aa2e4"
    }
  } ]
}