{"resourceType":"Bundle","id":"tests-d3cc8712-ba04-4dba-aebd-a772e49e2741-bundle","type":"transaction","entry":[{"fullUrl":"https://madie.cms.gov/Patient/d3cc8712-ba04-4dba-aebd-a772e49e2741","resource":{"resourceType":"Patient","id":"d3cc8712-ba04-4dba-aebd-a772e49e2741","meta":{"profile":["http://hl7.org/fhir/us/qicore/StructureDefinition/qicore-patient"]},"extension":[{"url":"http://hl7.org/fhir/us/core/StructureDefinition/us-core-race","extension":[{"url":"ombCategory","valueCoding":{"system":"urn:oid:2.16.840.1.113883.6.238","code":"1002-5","display":"American Indian or Alaska Native","userSelected":true}},{"url":"text","valueString":"American Indian or Alaska Native"}]},{"url":"http://hl7.org/fhir/us/core/StructureDefinition/us-core-ethnicity","extension":[{"url":"ombCategory","valueCoding":{"system":"urn:oid:2.16.840.1.113883.6.238","code":"2135-2","display":"Hispanic or Latino","userSelected":true}},{"url":"text","valueString":"Hispanic or Latino"}]}],"identifier":[{"type":{"coding":[{"system":"http://terminology.hl7.org/CodeSystem/v2-0203","code":"MR"}]},"system":"https://bonnie-fhir.healthit.gov/","value":"62fa88b5e884ee19102758b5"}],"name":[{"family":"DENEXFail","given":["HypertensionDuringEnc"]}],"gender":"male","birthDate":"2004-06-18"},"request":{"method":"PUT","url":"Patient/d3cc8712-ba04-4dba-aebd-a772e49e2741"}},{"fullUrl":"https://madie.cms.gov/Encounter/encounter-to-screen-for-blood-pressure-b30d","resource":{"resourceType":"Encounter","id":"bcae02f4-b1c7-48d4-b33b-8dcb59e44afc","meta":{"profile":["http://hl7.org/fhir/us/qicore/StructureDefinition/qicore-encounter"]},"status":"finished","class":{"system":"http://terminology.hl7.org/CodeSystem/v3-ActCode","code":"AMB","display":"ambulatory"},"type":[{"coding":[{"system":"http://snomed.info/sct","version":"2022-03","code":"103705002","display":"Patient status observation (procedure)","userSelected":true}]}],"subject":{"reference":"Patient/d3cc8712-ba04-4dba-aebd-a772e49e2741"},"period":{"start":"2025-01-01T08:00:00.000+00:00","end":"2025-01-01T10:00:00.000+00:00"}},"request":{"method":"PUT","url":"Encounter/bcae02f4-b1c7-48d4-b33b-8dcb59e44afc"}},{"fullUrl":"https://madie.cms.gov/Condition/diagnosis-of-hypertension-b30e","resource":{"resourceType":"Condition","id":"e176e19e-ce4b-4dea-b174-98773ce8049f","meta":{"profile":["http://hl7.org/fhir/us/qicore/StructureDefinition/qicore-condition"]},"clinicalStatus":{"coding":[{"system":"http://terminology.hl7.org/CodeSystem/condition-clinical","code":"active","display":"active","userSelected":true}]},"verificationStatus":{"coding":[{"system":"http://terminology.hl7.org/CodeSystem/condition-ver-status","code":"confirmed","display":"Confirmed","userSelected":true}]},"category":[{"coding":[{"system":"http://terminology.hl7.org/CodeSystem/condition-category","code":"problem-list-item","display":"Problem List Item"}]}],"code":{"coding":[{"system":"http://snomed.info/sct","version":"2022-03","code":"10725009","display":"Benign hypertension (disorder)","userSelected":true}]},"subject":{"reference":"Patient/d3cc8712-ba04-4dba-aebd-a772e49e2741"},"onsetPeriod":{"start":"2025-01-02T00:01:00.000+00:00"}},"request":{"method":"PUT","url":"Condition/e176e19e-ce4b-4dea-b174-98773ce8049f"}},{"fullUrl":"https://madie.cms.gov/Coverage/1","resource":{"resourceType":"Coverage","id":"eb0d11ea-3e15-498b-b1e1-311605084077","meta":{"profile":["http://hl7.org/fhir/us/qicore/StructureDefinition/qicore-coverage"]},"status":"active","beneficiary":{"reference":"Patient/d3cc8712-ba04-4dba-aebd-a772e49e2741"},"payor":[{"reference":"Organization/ec8cac12-7dd8-4c6e-8c44-d6c645085c80"}]},"request":{"method":"PUT","url":"Coverage/eb0d11ea-3e15-498b-b1e1-311605084077"}},{"fullUrl":"https://madie.cms.gov/Organization/123456","resource":{"resourceType":"Organization","id":"ec8cac12-7dd8-4c6e-8c44-d6c645085c80","meta":{"profile":["http://hl7.org/fhir/us/qicore/StructureDefinition/qicore-organization"]},"identifier":[{"use":"temp","system":"urn:oid:2.16.840.1.113883.4.4","value":"21-3259825"}],"active":true,"type":[{"coding":[{"system":"http://terminology.hl7.org/CodeSystem/organization-type","code":"pay","display":"Payer"}]}],"name":"Blue Cross Blue Shield of Texas","telecom":[{"system":"phone","value":"(+1) 972-766-6900"}],"address":[{"use":"billing","type":"postal","line":["P.O. Box 660044"],"city":"Dallas","state":"TX","postalCode":"75266-0044","country":"USA"}]},"request":{"method":"PUT","url":"Organization/ec8cac12-7dd8-4c6e-8c44-d6c645085c80"}},{"fullUrl":"https://madie.cms.gov/Practitioner/practitioner-123456","resource":{"resourceType":"Practitioner","id":"202ee316-2439-4e6d-a3b7-111dbe89737e","meta":{"profile":["http://hl7.org/fhir/us/qicore/StructureDefinition/qicore-practitioner"]},"identifier":[{"system":"http://hl7.org/fhir/sid/us-npi","value":"123456"}],"name":[{"family":"Evil","prefix":["Dr"]}]},"request":{"method":"PUT","url":"Practitioner/202ee316-2439-4e6d-a3b7-111dbe89737e"}},{"fullUrl":"https://madie.cms.gov/MeasureReport/0da903f6-32ae-47a5-83a3-c3b4d9675648","resource":{"resourceType":"MeasureReport","id":"0da903f6-32ae-47a5-83a3-c3b4d9675648","meta":{"profile":["http://hl7.org/fhir/us/cqfmeasures/StructureDefinition/test-case-cqfm"]},"contained":[{"resourceType":"Parameters","id":"caaac7d1-4738-4b0a-bbc8-8d8ffccf0df1-parameters","parameter":[{"name":"subject","valueString":"d3cc8712-ba04-4dba-aebd-a772e49e2741"}]}],"extension":[{"url":"http://hl7.org/fhir/us/cqfmeasures/StructureDefinition/cqfm-inputParameters","valueReference":{"reference":"#caaac7d1-4738-4b0a-bbc8-8d8ffccf0df1-parameters"}},{"url":"http://hl7.org/fhir/us/cqfmeasures/StructureDefinition/cqfm-testCaseDescription","valueMarkdown":"Encounter with BP reading where HTN identified 1 minute after end of day of enc"}],"modifierExtension":[{"url":"http://hl7.org/fhir/us/cqfmeasures/StructureDefinition/cqfm-isTestCase","valueBoolean":true}],"status":"complete","type":"individual","measure":"https://madie.cms.gov/Measure/PCSBPScreeningFollowUpFHIR","period":{"start":"2025-01-01","end":"2025-12-31"},"group":[{"population":[{"code":{"coding":[{"system":"http://terminology.hl7.org/CodeSystem/measure-population","code":"initial-population","display":"Initial Population"}]},"count":1},{"code":{"coding":[{"system":"http://terminology.hl7.org/CodeSystem/measure-population","code":"denominator","display":"Denominator"}]},"count":1},{"code":{"coding":[{"system":"http://terminology.hl7.org/CodeSystem/measure-population","code":"denominator-exclusion","display":"Denominator Exclusion"}]},"count":0},{"code":{"coding":[{"system":"http://terminology.hl7.org/CodeSystem/measure-population","code":"numerator","display":"Numerator"}]},"count":0},{"code":{"coding":[{"system":"http://terminology.hl7.org/CodeSystem/measure-population","code":"denominator-exception","display":"Denominator Exception"}]},"count":0}]}]},"request":{"method":"PUT","url":"MeasureReport/0da903f6-32ae-47a5-83a3-c3b4d9675648"}}]}