{"resourceType":"Bundle","id":"tests-831a0ba9-8b96-4414-901c-70add57d2cc4-bundle","type":"transaction","entry":[{"fullUrl":"https://madie.cms.gov/Patient/831a0ba9-8b96-4414-901c-70add57d2cc4","resource":{"resourceType":"Patient","id":"831a0ba9-8b96-4414-901c-70add57d2cc4","meta":{"profile":["http://hl7.org/fhir/us/qicore/StructureDefinition/qicore-patient"]},"extension":[{"url":"http://hl7.org/fhir/us/core/StructureDefinition/us-core-race","extension":[{"url":"ombCategory","valueCoding":{"system":"urn:oid:2.16.840.1.113883.6.238","code":"1002-5","display":"American Indian or Alaska Native","userSelected":true}},{"url":"text","valueString":"American Indian or Alaska Native"}]},{"url":"http://hl7.org/fhir/us/core/StructureDefinition/us-core-ethnicity","extension":[{"url":"ombCategory","valueCoding":{"system":"urn:oid:2.16.840.1.113883.6.238","code":"2135-2","display":"Hispanic or Latino","userSelected":true}},{"url":"text","valueString":"Hispanic or Latino"}]}],"identifier":[{"type":{"coding":[{"system":"http://terminology.hl7.org/CodeSystem/v2-0203","code":"MR"}]},"system":"https://bonnie-fhir.healthit.gov/","value":"62cdd64162b2323a168e975e"}],"name":[{"family":"NUMERFail","given":["SystolicNoDiastolic"]}],"gender":"male","birthDate":"1974-12-31"},"request":{"method":"PUT","url":"Patient/831a0ba9-8b96-4414-901c-70add57d2cc4"}},{"fullUrl":"https://madie.cms.gov/Encounter/encounter-to-screen-for-blood-pressure-975f","resource":{"resourceType":"Encounter","id":"b1b61cbd-6b3c-4756-a270-4f7ad084b409","meta":{"profile":["http://hl7.org/fhir/us/qicore/StructureDefinition/qicore-encounter"]},"status":"finished","class":{"system":"http://terminology.hl7.org/CodeSystem/v3-ActCode","code":"AMB","display":"ambulatory"},"type":[{"coding":[{"system":"http://snomed.info/sct","version":"2022-03","code":"103705002","display":"Patient status observation (procedure)","userSelected":true}]}],"subject":{"reference":"Patient/831a0ba9-8b96-4414-901c-70add57d2cc4"},"period":{"start":"2025-12-31T08:00:00.000+00:00","end":"2025-12-31T08:45:00.000+00:00"}},"request":{"method":"PUT","url":"Encounter/b1b61cbd-6b3c-4756-a270-4f7ad084b409"}},{"fullUrl":"https://madie.cms.gov/Observation/systolic-blood-pressure-9760","resource":{"resourceType":"Observation","id":"2754e421-3810-4c6d-b6cb-b9b3681e65f2","meta":{"profile":["http://hl7.org/fhir/us/qicore/StructureDefinition/qicore-observation"]},"status":"final","category":[{"coding":[{"system":"http://terminology.hl7.org/CodeSystem/observation-category","code":"procedure","display":"Procedure"}]}],"code":{"coding":[{"system":"http://loinc.org","code":"8480-6","display":"Systolic blood pressure","userSelected":true}]},"subject":{"reference":"Patient/831a0ba9-8b96-4414-901c-70add57d2cc4"},"effectiveDateTime":"2025-12-31T08:05:00.000+00:00","valueQuantity":{"value":160.0,"unit":"mm[Hg]"}},"request":{"method":"PUT","url":"Observation/2754e421-3810-4c6d-b6cb-b9b3681e65f2"}},{"fullUrl":"https://madie.cms.gov/ServiceRequest/follow-up-within-4-weeks-9762","resource":{"resourceType":"ServiceRequest","id":"84c7815a-8e7a-4708-bfbb-57a5b8a37ff1","meta":{"profile":["http://hl7.org/fhir/us/qicore/StructureDefinition/qicore-servicerequest"]},"status":"active","intent":"order","code":{"coding":[{"system":"http://snomed.info/sct","version":"2022-03","code":"183617005","display":"Follow-up 1 day (finding)","userSelected":true}]},"subject":{"reference":"Patient/831a0ba9-8b96-4414-901c-70add57d2cc4"},"authoredOn":"2025-12-31T08:30:00.000+00:00"},"request":{"method":"PUT","url":"ServiceRequest/84c7815a-8e7a-4708-bfbb-57a5b8a37ff1"}},{"fullUrl":"https://madie.cms.gov/ServiceRequest/dietary-recommendations-9763","resource":{"resourceType":"ServiceRequest","id":"ff881ff3-1e57-48c5-adde-02f411f81ffb","meta":{"profile":["http://hl7.org/fhir/us/qicore/StructureDefinition/qicore-servicerequest"]},"status":"active","intent":"order","code":{"coding":[{"system":"http://snomed.info/sct","version":"2022-03","code":"103699006","display":"Patient referral to dietitian (procedure)","userSelected":true}]},"subject":{"reference":"Patient/831a0ba9-8b96-4414-901c-70add57d2cc4"},"authoredOn":"2025-12-31T08:30:00.000+00:00"},"request":{"method":"PUT","url":"ServiceRequest/ff881ff3-1e57-48c5-adde-02f411f81ffb"}},{"fullUrl":"https://madie.cms.gov/Coverage/1","resource":{"resourceType":"Coverage","id":"3a874ade-290a-47c1-94d2-c4900dcc7671","meta":{"profile":["http://hl7.org/fhir/us/qicore/StructureDefinition/qicore-coverage"]},"status":"active","beneficiary":{"reference":"Patient/831a0ba9-8b96-4414-901c-70add57d2cc4"},"payor":[{"reference":"Organization/18ca435c-cae6-4c34-8033-af717477f9fc"}]},"request":{"method":"PUT","url":"Coverage/3a874ade-290a-47c1-94d2-c4900dcc7671"}},{"fullUrl":"https://madie.cms.gov/Organization/123456","resource":{"resourceType":"Organization","id":"18ca435c-cae6-4c34-8033-af717477f9fc","meta":{"profile":["http://hl7.org/fhir/us/qicore/StructureDefinition/qicore-organization"]},"identifier":[{"use":"temp","system":"urn:oid:2.16.840.1.113883.4.4","value":"21-3259825"}],"active":true,"type":[{"coding":[{"system":"http://terminology.hl7.org/CodeSystem/organization-type","code":"pay","display":"Payer"}]}],"name":"Blue Cross Blue Shield of Texas","telecom":[{"system":"phone","value":"(+1) 972-766-6900"}],"address":[{"use":"billing","type":"postal","line":["P.O. Box 660044"],"city":"Dallas","state":"TX","postalCode":"75266-0044","country":"USA"}]},"request":{"method":"PUT","url":"Organization/18ca435c-cae6-4c34-8033-af717477f9fc"}},{"fullUrl":"https://madie.cms.gov/Practitioner/practitioner-123456","resource":{"resourceType":"Practitioner","id":"61ec04a3-0064-4bf8-ac20-1e76eb817699","meta":{"profile":["http://hl7.org/fhir/us/qicore/StructureDefinition/qicore-practitioner"]},"identifier":[{"system":"http://hl7.org/fhir/sid/us-npi","value":"123456"}],"name":[{"family":"Evil","prefix":["Dr"]}]},"request":{"method":"PUT","url":"Practitioner/61ec04a3-0064-4bf8-ac20-1e76eb817699"}},{"fullUrl":"https://madie.cms.gov/MeasureReport/23d849f1-faf8-4149-9dec-c7b5fd8bedf0","resource":{"resourceType":"MeasureReport","id":"23d849f1-faf8-4149-9dec-c7b5fd8bedf0","meta":{"profile":["http://hl7.org/fhir/us/cqfmeasures/StructureDefinition/test-case-cqfm"]},"contained":[{"resourceType":"Parameters","id":"6e02be5e-7c0e-4f9b-8570-3376c40a11ef-parameters","parameter":[{"name":"subject","valueString":"831a0ba9-8b96-4414-901c-70add57d2cc4"}]}],"extension":[{"url":"http://hl7.org/fhir/us/cqfmeasures/StructureDefinition/cqfm-inputParameters","valueReference":{"reference":"#6e02be5e-7c0e-4f9b-8570-3376c40a11ef-parameters"}},{"url":"http://hl7.org/fhir/us/cqfmeasures/StructureDefinition/cqfm-testCaseDescription","valueMarkdown":"Age 18+, encounter last day of MP, systolic 160 mm[Hg], but no diastolic documented. Follow up within 4 wks recommended and referred to dietician "}],"modifierExtension":[{"url":"http://hl7.org/fhir/us/cqfmeasures/StructureDefinition/cqfm-isTestCase","valueBoolean":true}],"status":"complete","type":"individual","measure":"https://madie.cms.gov/Measure/PCSBPScreeningFollowUpFHIR","period":{"start":"2025-01-01","end":"2025-12-31"},"group":[{"population":[{"code":{"coding":[{"system":"http://terminology.hl7.org/CodeSystem/measure-population","code":"initial-population","display":"Initial Population"}]},"count":1},{"code":{"coding":[{"system":"http://terminology.hl7.org/CodeSystem/measure-population","code":"denominator","display":"Denominator"}]},"count":1},{"code":{"coding":[{"system":"http://terminology.hl7.org/CodeSystem/measure-population","code":"denominator-exclusion","display":"Denominator Exclusion"}]},"count":0},{"code":{"coding":[{"system":"http://terminology.hl7.org/CodeSystem/measure-population","code":"numerator","display":"Numerator"}]},"count":0},{"code":{"coding":[{"system":"http://terminology.hl7.org/CodeSystem/measure-population","code":"denominator-exception","display":"Denominator Exception"}]},"count":0}]}]},"request":{"method":"PUT","url":"MeasureReport/23d849f1-faf8-4149-9dec-c7b5fd8bedf0"}}]}