{"resourceType":"Bundle","id":"tests-695cee04-cf12-411e-a258-99e430093a4e-bundle","type":"transaction","entry":[{"fullUrl":"https://madie.cms.gov/Patient/695cee04-cf12-411e-a258-99e430093a4e","resource":{"resourceType":"Patient","id":"695cee04-cf12-411e-a258-99e430093a4e","meta":{"profile":["http://hl7.org/fhir/us/qicore/StructureDefinition/qicore-patient"]},"extension":[{"url":"http://hl7.org/fhir/us/core/StructureDefinition/us-core-race","extension":[{"url":"ombCategory","valueCoding":{"system":"urn:oid:2.16.840.1.113883.6.238","code":"2054-5","display":"Black or African American","userSelected":true}},{"url":"text","valueString":"Black or African American"}]},{"url":"http://hl7.org/fhir/us/core/StructureDefinition/us-core-ethnicity","extension":[{"url":"ombCategory","valueCoding":{"system":"urn:oid:2.16.840.1.113883.6.238","code":"2135-2","display":"Hispanic or Latino","userSelected":true}},{"url":"text","valueString":"Hispanic or Latino"}]}],"identifier":[{"type":{"coding":[{"system":"http://terminology.hl7.org/CodeSystem/v2-0203","code":"MR"}]},"system":"https://bonnie-fhir.healthit.gov/","value":"62d728a9c22c612899b40d62"}],"name":[{"family":"DENEXCEPPassX2","given":["2HTN130DeclinedLabOthers"]}],"gender":"male","birthDate":"2005-01-31"},"request":{"method":"PUT","url":"Patient/695cee04-cf12-411e-a258-99e430093a4e"}},{"fullUrl":"https://madie.cms.gov/Encounter/encounter-to-screen-for-blood-pressure-d1ae","resource":{"resourceType":"Encounter","id":"7a096b5e-0a4c-423f-a1af-c489c09555a4","meta":{"profile":["http://hl7.org/fhir/us/qicore/StructureDefinition/qicore-encounter"]},"status":"finished","class":{"system":"http://terminology.hl7.org/CodeSystem/v3-ActCode","code":"AMB","display":"ambulatory"},"type":[{"coding":[{"system":"http://snomed.info/sct","version":"2022-03","code":"103705002","display":"Patient status observation (procedure)","userSelected":true}]}],"subject":{"reference":"Patient/695cee04-cf12-411e-a258-99e430093a4e"},"period":{"start":"2025-01-01T00:00:00.000+00:00","end":"2025-01-01T00:30:00.000+00:00"}},"request":{"method":"PUT","url":"Encounter/7a096b5e-0a4c-423f-a1af-c489c09555a4"}},{"fullUrl":"https://madie.cms.gov/Observation/blood-pressure-1a","resource":{"resourceType":"Observation","id":"b96faed2-10d1-4ba6-9c0d-4d4da1e2eddc","meta":{"profile":["http://hl7.org/fhir/StructureDefinition/bp"]},"status":"final","category":[{"coding":[{"system":"http://terminology.hl7.org/CodeSystem/observation-category","code":"vital-signs","display":"Vital Signs"}],"text":"Vital Signs"}],"code":{"coding":[{"system":"http://loinc.org","code":"85354-9","display":"Blood pressure panel"}]},"subject":{"reference":"Patient/695cee04-cf12-411e-a258-99e430093a4e"},"effectiveDateTime":"2025-01-01T00:01:00.000Z","component":[{"code":{"coding":[{"system":"http://loinc.org","code":"8480-6","display":"Systolic blood pressure"}]},"valueQuantity":{"value":130,"unit":"mmHg","system":"http://unitsofmeasure.org","code":"mm[Hg]"}},{"code":{"coding":[{"system":"http://loinc.org","code":"8462-4","display":"Diastolic blood pressure"}]},"valueQuantity":{"value":79,"unit":"mmHg","system":"http://unitsofmeasure.org","code":"mm[Hg]"}}]},"request":{"method":"PUT","url":"Observation/b96faed2-10d1-4ba6-9c0d-4d4da1e2eddc"}},{"fullUrl":"https://madie.cms.gov/ServiceRequest/weight-reduction-recommended-41ce","resource":{"resourceType":"ServiceRequest","id":"079b94f7-0c9f-481c-b84f-56cdc5258c41","meta":{"profile":["http://hl7.org/fhir/us/qicore/StructureDefinition/qicore-servicenotrequested"]},"extension":[{"url":"http://hl7.org/fhir/us/qicore/StructureDefinition/qicore-doNotPerformReason","valueCodeableConcept":{"coding":[{"system":"http://snomed.info/sct","code":"413311005","display":"Patient non-compliant - declined intervention / support (situation)","userSelected":true}]}}],"status":"completed","intent":"order","doNotPerform":true,"code":{"coding":[{"system":"http://snomed.info/sct","version":"2022-03","code":"1181000175107","display":"Recommendation to lose weight (procedure)","userSelected":true}]},"subject":{"reference":"Patient/695cee04-cf12-411e-a258-99e430093a4e"},"authoredOn":"2025-01-01T00:05:00.000+00:00"},"request":{"method":"PUT","url":"ServiceRequest/079b94f7-0c9f-481c-b84f-56cdc5258c41"}},{"fullUrl":"https://madie.cms.gov/Encounter/encounter-to-screen-for-blood-pressure-41d1","resource":{"resourceType":"Encounter","id":"2e8ea6ae-9b35-4436-ba73-c9eba3ac707a","meta":{"profile":["http://hl7.org/fhir/us/qicore/StructureDefinition/qicore-encounter"]},"status":"finished","class":{"system":"http://terminology.hl7.org/CodeSystem/v3-ActCode","code":"AMB","display":"ambulatory"},"type":[{"coding":[{"system":"http://snomed.info/sct","version":"2022-03","code":"103705002","display":"Patient status observation (procedure)","userSelected":true}]}],"subject":{"reference":"Patient/695cee04-cf12-411e-a258-99e430093a4e"},"period":{"start":"2025-12-31T23:30:00.000+00:00","end":"2025-12-31T23:59:00.000+00:00"}},"request":{"method":"PUT","url":"Encounter/2e8ea6ae-9b35-4436-ba73-c9eba3ac707a"}},{"fullUrl":"https://madie.cms.gov/Observation/blood-pressure-2a","resource":{"resourceType":"Observation","id":"d8f06f0e-9ff1-49e3-9c4e-88ef725885b0","meta":{"profile":["http://hl7.org/fhir/StructureDefinition/bp"]},"status":"final","category":[{"coding":[{"system":"http://terminology.hl7.org/CodeSystem/observation-category","code":"vital-signs","display":"Vital Signs"}],"text":"Vital Signs"}],"code":{"coding":[{"system":"http://loinc.org","code":"85354-9","display":"Blood pressure panel"}]},"subject":{"reference":"Patient/695cee04-cf12-411e-a258-99e430093a4e"},"effectiveDateTime":"2025-12-31T23:31:00.000Z","component":[{"code":{"coding":[{"system":"http://loinc.org","code":"8480-6","display":"Systolic blood pressure"}]},"valueQuantity":{"value":130,"unit":"mmHg","system":"http://unitsofmeasure.org","code":"mm[Hg]"}},{"code":{"coding":[{"system":"http://loinc.org","code":"8462-4","display":"Diastolic blood pressure"}]},"valueQuantity":{"value":90,"unit":"mmHg","system":"http://unitsofmeasure.org","code":"mm[Hg]"}}]},"request":{"method":"PUT","url":"Observation/d8f06f0e-9ff1-49e3-9c4e-88ef725885b0"}},{"fullUrl":"https://madie.cms.gov/ServiceRequest/referral-or-counseling-for-alcohol-consumption-41d4","resource":{"resourceType":"ServiceRequest","id":"3380abc2-56a8-4087-90ec-a0b86164038d","meta":{"profile":["http://hl7.org/fhir/us/qicore/StructureDefinition/qicore-servicenotrequested"]},"extension":[{"url":"http://hl7.org/fhir/us/qicore/StructureDefinition/qicore-doNotPerformReason","valueCodeableConcept":{"coding":[{"system":"http://snomed.info/sct","code":"105480006","display":"Procedure declined by patient (situation)","userSelected":true}]}}],"status":"completed","intent":"order","doNotPerform":true,"code":{"coding":[{"system":"http://snomed.info/sct","version":"2022-03","code":"20093000","display":"Alcohol rehabilitation and detoxification (regime/therapy)","userSelected":true}]},"subject":{"reference":"Patient/695cee04-cf12-411e-a258-99e430093a4e"},"authoredOn":"2025-12-31T23:01:00.000+00:00"},"request":{"method":"PUT","url":"ServiceRequest/3380abc2-56a8-4087-90ec-a0b86164038d"}},{"fullUrl":"https://madie.cms.gov/MedicationRequest/pharmacologic-therapy-for-hypertension-0d65","resource":{"resourceType":"MedicationRequest","id":"bb714731-1799-4a67-a2ad-63a3b63261e0","meta":{"profile":["http://hl7.org/fhir/us/qicore/StructureDefinition/qicore-mednotrequested"]},"status":"completed","intent":"order","doNotPerform":true,"medicationCodeableConcept":{"coding":[{"system":"http://www.nlm.nih.gov/research/umls/rxnorm","code":"1000001","display":"amlodipine 5 MG / hydrochlorothiazide 25 MG / olmesartan medoxomil 40 MG Oral Tablet","userSelected":true}]},"subject":{"reference":"Patient/695cee04-cf12-411e-a258-99e430093a4e"},"authoredOn":"2025-12-31T23:58:00.000+00:00","requester":{"reference":"Practitioner/example"},"reasonCode":[{"coding":[{"system":"http://snomed.info/sct","code":"105480006","display":"Procedure declined by patient (situation)"}]}]},"request":{"method":"PUT","url":"MedicationRequest/bb714731-1799-4a67-a2ad-63a3b63261e0"}},{"fullUrl":"https://madie.cms.gov/ServiceRequest/laboratory-tests-for-hypertension-0d66","resource":{"resourceType":"ServiceRequest","id":"e2d3fe9a-0521-4f36-b53d-d5339ba2031a","meta":{"profile":["http://hl7.org/fhir/us/qicore/StructureDefinition/qicore-servicenotrequested"]},"extension":[{"url":"http://hl7.org/fhir/us/qicore/StructureDefinition/qicore-doNotPerformReason","valueCodeableConcept":{"coding":[{"system":"http://snomed.info/sct","version":"2022-03","code":"413311005","display":"Patient non-compliant - declined intervention / support (situation)","userSelected":true}]}}],"status":"completed","intent":"order","doNotPerform":true,"code":{"coding":[{"system":"http://loinc.org","version":"2.72","code":"24320-4","display":"Basic metabolic 1998 panel - Serum or Plasma","userSelected":true}]},"subject":{"reference":"Patient/695cee04-cf12-411e-a258-99e430093a4e"},"authoredOn":"2025-12-31T23:58:00.000+00:00"},"request":{"method":"PUT","url":"ServiceRequest/e2d3fe9a-0521-4f36-b53d-d5339ba2031a"}},{"fullUrl":"https://madie.cms.gov/ServiceRequest/ekg-12-channel-panel-0d67","resource":{"resourceType":"ServiceRequest","id":"eaa0646e-0617-4381-bcc2-fd62f6428b63","meta":{"profile":["http://hl7.org/fhir/us/qicore/StructureDefinition/qicore-servicenotrequested"]},"extension":[{"url":"http://hl7.org/fhir/us/qicore/StructureDefinition/qicore-doNotPerformReason","valueCodeableConcept":{"coding":[{"system":"http://snomed.info/sct","version":"2022-03","code":"413311005","display":"Patient non-compliant - declined intervention / support (situation)","userSelected":true}]}}],"status":"completed","intent":"order","doNotPerform":true,"code":{"coding":[{"system":"http://loinc.org","code":"34534-8","display":"EKG 12 channel panel","userSelected":true}]},"subject":{"reference":"Patient/695cee04-cf12-411e-a258-99e430093a4e"},"authoredOn":"2025-12-31T23:31:00.000+00:00"},"request":{"method":"PUT","url":"ServiceRequest/eaa0646e-0617-4381-bcc2-fd62f6428b63"}},{"fullUrl":"https://madie.cms.gov/ServiceRequest/follow-up-4-6-months-finding-0d68","resource":{"resourceType":"ServiceRequest","id":"a12ffecd-fb1f-4f41-8c2f-c472862bf4f0","meta":{"profile":["http://hl7.org/fhir/us/qicore/StructureDefinition/qicore-servicenotrequested"]},"extension":[{"url":"http://hl7.org/fhir/us/qicore/StructureDefinition/qicore-doNotPerformReason","valueCodeableConcept":{"coding":[{"system":"http://snomed.info/sct","version":"2022-03","code":"413311005","display":"Patient non-compliant - declined intervention / support (situation)","userSelected":true}]}}],"status":"completed","intent":"order","doNotPerform":true,"code":{"coding":[{"system":"http://snomed.info/sct","code":"183625007","display":"Follow-up 4-6 months (finding)","userSelected":true}]},"subject":{"reference":"Patient/695cee04-cf12-411e-a258-99e430093a4e"},"authoredOn":"2025-12-31T23:45:00.000+00:00"},"request":{"method":"PUT","url":"ServiceRequest/a12ffecd-fb1f-4f41-8c2f-c472862bf4f0"}},{"fullUrl":"https://madie.cms.gov/Coverage/1","resource":{"resourceType":"Coverage","id":"bd112f05-5f07-4d9b-bde5-aa2efe2f2fce","meta":{"profile":["http://hl7.org/fhir/us/qicore/StructureDefinition/qicore-coverage"]},"status":"active","beneficiary":{"reference":"Patient/695cee04-cf12-411e-a258-99e430093a4e"},"payor":[{"reference":"Organization/33ead57e-5e04-40e4-95ea-bc3cdbd58917"}]},"request":{"method":"PUT","url":"Coverage/bd112f05-5f07-4d9b-bde5-aa2efe2f2fce"}},{"fullUrl":"https://madie.cms.gov/Organization/123456","resource":{"resourceType":"Organization","id":"33ead57e-5e04-40e4-95ea-bc3cdbd58917","meta":{"profile":["http://hl7.org/fhir/us/qicore/StructureDefinition/qicore-organization"]},"identifier":[{"use":"temp","system":"urn:oid:2.16.840.1.113883.4.4","value":"21-3259825"}],"active":true,"type":[{"coding":[{"system":"http://terminology.hl7.org/CodeSystem/organization-type","code":"pay","display":"Payer"}]}],"name":"Blue Cross Blue Shield of Texas","telecom":[{"system":"phone","value":"(+1) 972-766-6900"}],"address":[{"use":"billing","type":"postal","line":["P.O. Box 660044"],"city":"Dallas","state":"TX","postalCode":"75266-0044","country":"USA"}]},"request":{"method":"PUT","url":"Organization/33ead57e-5e04-40e4-95ea-bc3cdbd58917"}},{"fullUrl":"https://madie.cms.gov/Practitioner/practitioner-123456","resource":{"resourceType":"Practitioner","id":"91f10a96-75ff-4184-a1f0-18f5420c537d","meta":{"profile":["http://hl7.org/fhir/us/qicore/StructureDefinition/qicore-practitioner"]},"identifier":[{"system":"http://hl7.org/fhir/sid/us-npi","value":"123456"}],"name":[{"family":"Evil","prefix":["Dr"]}]},"request":{"method":"PUT","url":"Practitioner/91f10a96-75ff-4184-a1f0-18f5420c537d"}},{"fullUrl":"https://madie.cms.gov/MeasureReport/4e044586-e101-4ae8-9eb8-7f4dabd6100c","resource":{"resourceType":"MeasureReport","id":"4e044586-e101-4ae8-9eb8-7f4dabd6100c","meta":{"profile":["http://hl7.org/fhir/us/cqfmeasures/StructureDefinition/test-case-cqfm"]},"contained":[{"resourceType":"Parameters","id":"1dafd983-29f5-4f74-a7eb-64fe87844f9e-parameters","parameter":[{"name":"subject","valueString":"695cee04-cf12-411e-a258-99e430093a4e"}]}],"extension":[{"url":"http://hl7.org/fhir/us/cqfmeasures/StructureDefinition/cqfm-inputParameters","valueReference":{"reference":"#1dafd983-29f5-4f74-a7eb-64fe87844f9e-parameters"}},{"url":"http://hl7.org/fhir/us/cqfmeasures/StructureDefinition/cqfm-testCaseDescription","valueMarkdown":"2 encounters during MP; BP reading taken in both encounters, 1st enc.  1/01 0000-0030,  BP 130/79, weight loss recommended, pt declined (excepPas; 2nd enc. 12/31 at 2300-2359, BP 130/90 Patient declined lab test, detox, medications (excepPass). "}],"modifierExtension":[{"url":"http://hl7.org/fhir/us/cqfmeasures/StructureDefinition/cqfm-isTestCase","valueBoolean":true}],"status":"complete","type":"individual","measure":"https://madie.cms.gov/Measure/PCSBPScreeningFollowUpFHIR","period":{"start":"2025-01-01","end":"2025-12-31"},"group":[{"population":[{"code":{"coding":[{"system":"http://terminology.hl7.org/CodeSystem/measure-population","code":"initial-population","display":"Initial Population"}]},"count":2},{"code":{"coding":[{"system":"http://terminology.hl7.org/CodeSystem/measure-population","code":"denominator","display":"Denominator"}]},"count":2},{"code":{"coding":[{"system":"http://terminology.hl7.org/CodeSystem/measure-population","code":"denominator-exclusion","display":"Denominator Exclusion"}]},"count":0},{"code":{"coding":[{"system":"http://terminology.hl7.org/CodeSystem/measure-population","code":"numerator","display":"Numerator"}]},"count":0},{"code":{"coding":[{"system":"http://terminology.hl7.org/CodeSystem/measure-population","code":"denominator-exception","display":"Denominator Exception"}]},"count":2}]}]},"request":{"method":"PUT","url":"MeasureReport/4e044586-e101-4ae8-9eb8-7f4dabd6100c"}}]}