{"resourceType":"Bundle","id":"tests-58e117e5-ab51-4acf-92d1-55d70582eaa5-bundle","type":"transaction","entry":[{"fullUrl":"https://madie.cms.gov/Patient/58e117e5-ab51-4acf-92d1-55d70582eaa5","resource":{"resourceType":"Patient","id":"58e117e5-ab51-4acf-92d1-55d70582eaa5","meta":{"profile":["http://hl7.org/fhir/us/qicore/StructureDefinition/qicore-patient"]},"extension":[{"url":"http://hl7.org/fhir/us/core/StructureDefinition/us-core-race","extension":[{"url":"ombCategory","valueCoding":{"system":"urn:oid:2.16.840.1.113883.6.238","code":"2106-3","display":"White","userSelected":true}},{"url":"text","valueString":"White"}]},{"url":"http://hl7.org/fhir/us/core/StructureDefinition/us-core-ethnicity","extension":[{"url":"ombCategory","valueCoding":{"system":"urn:oid:2.16.840.1.113883.6.238","code":"2186-5","display":"Not Hispanic or Latino","userSelected":true}},{"url":"text","valueString":"Not Hispanic or Latino"}]}],"identifier":[{"type":{"coding":[{"system":"http://terminology.hl7.org/CodeSystem/v2-0203","code":"MR"}]},"system":"https://bonnie-fhir.healthit.gov/","value":"62cc369c67cd2f796b838ab3"}],"name":[{"family":"NUMERFail","given":["FirstHTNWeightRecNoFU"]}],"gender":"male","birthDate":"2004-01-31"},"request":{"method":"PUT","url":"Patient/58e117e5-ab51-4acf-92d1-55d70582eaa5"}},{"fullUrl":"https://madie.cms.gov/Encounter/encounter-to-screen-for-blood-pressure-d1ae","resource":{"resourceType":"Encounter","id":"9cc12c54-ff03-410f-837f-d99614d7a98a","meta":{"profile":["http://hl7.org/fhir/us/qicore/StructureDefinition/qicore-encounter"]},"status":"finished","class":{"system":"http://terminology.hl7.org/CodeSystem/v3-ActCode","code":"AMB","display":"ambulatory"},"type":[{"coding":[{"system":"http://snomed.info/sct","version":"2022-03","code":"103705002","display":"Patient status observation (procedure)","userSelected":true}]}],"subject":{"reference":"Patient/58e117e5-ab51-4acf-92d1-55d70582eaa5"},"period":{"start":"2025-01-01T08:00:00.000+00:00","end":"2025-01-01T08:30:00.000+00:00"}},"request":{"method":"PUT","url":"Encounter/9cc12c54-ff03-410f-837f-d99614d7a98a"}},{"fullUrl":"https://madie.cms.gov/Observation/systolic-blood-pressure-d1af","resource":{"resourceType":"Observation","id":"728e9918-52d1-426a-a899-1dedc9e9507c","meta":{"profile":["http://hl7.org/fhir/us/qicore/StructureDefinition/qicore-observation"]},"status":"final","category":[{"coding":[{"system":"http://terminology.hl7.org/CodeSystem/observation-category","code":"procedure","display":"Procedure"}]}],"code":{"coding":[{"system":"http://loinc.org","code":"8480-6","display":"Systolic blood pressure","userSelected":true}]},"subject":{"reference":"Patient/58e117e5-ab51-4acf-92d1-55d70582eaa5"},"effectiveDateTime":"2025-01-01T08:05:00.000+00:00","valueQuantity":{"value":130.0,"unit":"mm[Hg]"}},"request":{"method":"PUT","url":"Observation/728e9918-52d1-426a-a899-1dedc9e9507c"}},{"fullUrl":"https://madie.cms.gov/Observation/diastolic-blood-pressure-d1b0","resource":{"resourceType":"Observation","id":"5c927269-5f34-48bc-9bd7-fb2c9a6b85f1","meta":{"profile":["http://hl7.org/fhir/us/qicore/StructureDefinition/qicore-observation"]},"status":"final","category":[{"coding":[{"system":"http://terminology.hl7.org/CodeSystem/observation-category","code":"procedure","display":"Procedure"}]}],"code":{"coding":[{"system":"http://loinc.org","code":"8462-4","display":"Diastolic blood pressure","userSelected":true}]},"subject":{"reference":"Patient/58e117e5-ab51-4acf-92d1-55d70582eaa5"},"effectiveDateTime":"2025-01-01T08:05:00.000+00:00","valueQuantity":{"value":80.0,"unit":"mm[Hg]"}},"request":{"method":"PUT","url":"Observation/5c927269-5f34-48bc-9bd7-fb2c9a6b85f1"}},{"fullUrl":"https://madie.cms.gov/ServiceRequest/weight-reduction-recommended-8ab2","resource":{"resourceType":"ServiceRequest","id":"82bccfd3-4b81-48f5-8044-17448d38ca92","meta":{"profile":["http://hl7.org/fhir/us/qicore/StructureDefinition/qicore-servicerequest"]},"status":"active","intent":"order","code":{"coding":[{"system":"http://snomed.info/sct","version":"2022-03","code":"1181000175107","display":"Recommendation to lose weight (procedure)","userSelected":true}]},"subject":{"reference":"Patient/58e117e5-ab51-4acf-92d1-55d70582eaa5"},"authoredOn":"2025-01-01T08:25:00.000+00:00"},"request":{"method":"PUT","url":"ServiceRequest/82bccfd3-4b81-48f5-8044-17448d38ca92"}},{"fullUrl":"https://madie.cms.gov/Coverage/1","resource":{"resourceType":"Coverage","id":"aee25127-768b-4965-a427-ad4538186ef7","meta":{"profile":["http://hl7.org/fhir/us/qicore/StructureDefinition/qicore-coverage"]},"status":"active","beneficiary":{"reference":"Patient/58e117e5-ab51-4acf-92d1-55d70582eaa5"},"payor":[{"reference":"Organization/80e3e0d1-b2aa-43a6-b1d2-00bfa3164a0f"}]},"request":{"method":"PUT","url":"Coverage/aee25127-768b-4965-a427-ad4538186ef7"}},{"fullUrl":"https://madie.cms.gov/Organization/123456","resource":{"resourceType":"Organization","id":"80e3e0d1-b2aa-43a6-b1d2-00bfa3164a0f","meta":{"profile":["http://hl7.org/fhir/us/qicore/StructureDefinition/qicore-organization"]},"identifier":[{"use":"temp","system":"urn:oid:2.16.840.1.113883.4.4","value":"21-3259825"}],"active":true,"type":[{"coding":[{"system":"http://terminology.hl7.org/CodeSystem/organization-type","code":"pay","display":"Payer"}]}],"name":"Blue Cross Blue Shield of Texas","telecom":[{"system":"phone","value":"(+1) 972-766-6900"}],"address":[{"use":"billing","type":"postal","line":["P.O. Box 660044"],"city":"Dallas","state":"TX","postalCode":"75266-0044","country":"USA"}]},"request":{"method":"PUT","url":"Organization/80e3e0d1-b2aa-43a6-b1d2-00bfa3164a0f"}},{"fullUrl":"https://madie.cms.gov/Practitioner/practitioner-123456","resource":{"resourceType":"Practitioner","id":"1bda10ca-2e71-4e29-b388-92ee2647f356","meta":{"profile":["http://hl7.org/fhir/us/qicore/StructureDefinition/qicore-practitioner"]},"identifier":[{"system":"http://hl7.org/fhir/sid/us-npi","value":"123456"}],"name":[{"family":"Evil","prefix":["Dr"]}]},"request":{"method":"PUT","url":"Practitioner/1bda10ca-2e71-4e29-b388-92ee2647f356"}},{"fullUrl":"https://madie.cms.gov/MeasureReport/21c07359-0c37-4cb2-a505-d0a0fdab2cbe","resource":{"resourceType":"MeasureReport","id":"21c07359-0c37-4cb2-a505-d0a0fdab2cbe","meta":{"profile":["http://hl7.org/fhir/us/cqfmeasures/StructureDefinition/test-case-cqfm"]},"contained":[{"resourceType":"Parameters","id":"7e454bb1-53a9-4c37-be4f-abe59bd6457a-parameters","parameter":[{"name":"subject","valueString":"58e117e5-ab51-4acf-92d1-55d70582eaa5"}]}],"extension":[{"url":"http://hl7.org/fhir/us/cqfmeasures/StructureDefinition/cqfm-inputParameters","valueReference":{"reference":"#7e454bb1-53a9-4c37-be4f-abe59bd6457a-parameters"}},{"url":"http://hl7.org/fhir/us/cqfmeasures/StructureDefinition/cqfm-testCaseDescription","valueMarkdown":"Encounter first day of MP, BP reading 130/80, weight loss recommended but no follow up although first HTN reading. "}],"modifierExtension":[{"url":"http://hl7.org/fhir/us/cqfmeasures/StructureDefinition/cqfm-isTestCase","valueBoolean":true}],"status":"complete","type":"individual","measure":"https://madie.cms.gov/Measure/PCSBPScreeningFollowUpFHIR","period":{"start":"2025-01-01","end":"2025-12-31"},"group":[{"population":[{"code":{"coding":[{"system":"http://terminology.hl7.org/CodeSystem/measure-population","code":"initial-population","display":"Initial Population"}]},"count":1},{"code":{"coding":[{"system":"http://terminology.hl7.org/CodeSystem/measure-population","code":"denominator","display":"Denominator"}]},"count":1},{"code":{"coding":[{"system":"http://terminology.hl7.org/CodeSystem/measure-population","code":"denominator-exclusion","display":"Denominator Exclusion"}]},"count":0},{"code":{"coding":[{"system":"http://terminology.hl7.org/CodeSystem/measure-population","code":"numerator","display":"Numerator"}]},"count":0},{"code":{"coding":[{"system":"http://terminology.hl7.org/CodeSystem/measure-population","code":"denominator-exception","display":"Denominator Exception"}]},"count":0}]}]},"request":{"method":"PUT","url":"MeasureReport/21c07359-0c37-4cb2-a505-d0a0fdab2cbe"}}]}