{"resourceType":"Bundle","id":"tests-695cee04-cf12-411e-a258-99e430093a4e-bundle","type":"transaction","entry":[{"fullUrl":"https://madie.cms.gov/Patient/695cee04-cf12-411e-a258-99e430093a4e","resource":{"resourceType":"Patient","id":"695cee04-cf12-411e-a258-99e430093a4e","meta":{"profile":["http://hl7.org/fhir/us/qicore/StructureDefinition/qicore-patient"]},"extension":[{"url":"http://hl7.org/fhir/us/core/StructureDefinition/us-core-race","extension":[{"url":"ombCategory","valueCoding":{"system":"urn:oid:2.16.840.1.113883.6.238","code":"2054-5","display":"Black or African American","userSelected":true}},{"url":"text","valueString":"Black or African American"}]},{"url":"http://hl7.org/fhir/us/core/StructureDefinition/us-core-ethnicity","extension":[{"url":"ombCategory","valueCoding":{"system":"urn:oid:2.16.840.1.113883.6.238","code":"2135-2","display":"Hispanic or Latino","userSelected":true}},{"url":"text","valueString":"Hispanic or Latino"}]}],"identifier":[{"type":{"coding":[{"system":"http://terminology.hl7.org/CodeSystem/v2-0203","code":"MR"}]},"system":"https://bonnie-fhir.healthit.gov/","value":"62d728a9c22c612899b40d62"}],"name":[{"family":"DENEXCEPPassX2","given":["2HTN130DeclinedLabOthers"]}],"gender":"male","birthDate":"2005-01-31"},"request":{"method":"PUT","url":"Patient/695cee04-cf12-411e-a258-99e430093a4e"}},{"fullUrl":"https://madie.cms.gov/Encounter/encounter-to-screen-for-blood-pressure-d1ae","resource":{"resourceType":"Encounter","id":"df9e5601-9159-4832-b434-423718d5faba","meta":{"profile":["http://hl7.org/fhir/us/qicore/StructureDefinition/qicore-encounter"]},"status":"finished","class":{"system":"http://terminology.hl7.org/CodeSystem/v3-ActCode","code":"AMB","display":"ambulatory"},"type":[{"coding":[{"system":"http://snomed.info/sct","version":"2022-03","code":"103705002","display":"Patient status observation (procedure)","userSelected":true}]}],"subject":{"reference":"Patient/695cee04-cf12-411e-a258-99e430093a4e"},"period":{"start":"2025-01-01T00:00:00.000+00:00","end":"2025-01-01T00:30:00.000+00:00"}},"request":{"method":"PUT","url":"Encounter/df9e5601-9159-4832-b434-423718d5faba"}},{"fullUrl":"https://madie.cms.gov/Observation/blood-pressure-1a","resource":{"resourceType":"Observation","id":"8a75cf8f-615d-4b5b-9ac8-d4af9061dc3c","meta":{"profile":["http://hl7.org/fhir/StructureDefinition/bp"]},"status":"final","category":[{"coding":[{"system":"http://terminology.hl7.org/CodeSystem/observation-category","code":"vital-signs","display":"Vital Signs"}],"text":"Vital Signs"}],"code":{"coding":[{"system":"http://loinc.org","code":"85354-9","display":"Blood pressure panel"}]},"subject":{"reference":"Patient/695cee04-cf12-411e-a258-99e430093a4e"},"effectiveDateTime":"2025-01-01T00:01:00.000Z","component":[{"code":{"coding":[{"system":"http://loinc.org","code":"8480-6","display":"Systolic blood pressure"}]},"valueQuantity":{"value":130,"unit":"mmHg","system":"http://unitsofmeasure.org","code":"mm[Hg]"}},{"code":{"coding":[{"system":"http://loinc.org","code":"8462-4","display":"Diastolic blood pressure"}]},"valueQuantity":{"value":79,"unit":"mmHg","system":"http://unitsofmeasure.org","code":"mm[Hg]"}}]},"request":{"method":"PUT","url":"Observation/8a75cf8f-615d-4b5b-9ac8-d4af9061dc3c"}},{"fullUrl":"https://madie.cms.gov/ServiceRequest/weight-reduction-recommended-41ce","resource":{"resourceType":"ServiceRequest","id":"c932e647-5d6c-46fa-aa09-89157d3cf4b7","meta":{"profile":["http://hl7.org/fhir/us/qicore/StructureDefinition/qicore-servicenotrequested"]},"extension":[{"url":"http://hl7.org/fhir/us/qicore/StructureDefinition/qicore-doNotPerformReason","valueCodeableConcept":{"coding":[{"system":"http://snomed.info/sct","code":"413311005","display":"Patient non-compliant - declined intervention / support (situation)","userSelected":true}]}}],"status":"completed","intent":"order","doNotPerform":true,"code":{"coding":[{"system":"http://snomed.info/sct","version":"2022-03","code":"1181000175107","display":"Recommendation to lose weight (procedure)","userSelected":true}]},"subject":{"reference":"Patient/695cee04-cf12-411e-a258-99e430093a4e"},"authoredOn":"2025-01-01T00:05:00.000+00:00"},"request":{"method":"PUT","url":"ServiceRequest/c932e647-5d6c-46fa-aa09-89157d3cf4b7"}},{"fullUrl":"https://madie.cms.gov/Encounter/encounter-to-screen-for-blood-pressure-41d1","resource":{"resourceType":"Encounter","id":"5af0604b-ef89-432a-b59b-34e1f676f8ac","meta":{"profile":["http://hl7.org/fhir/us/qicore/StructureDefinition/qicore-encounter"]},"status":"finished","class":{"system":"http://terminology.hl7.org/CodeSystem/v3-ActCode","code":"AMB","display":"ambulatory"},"type":[{"coding":[{"system":"http://snomed.info/sct","version":"2022-03","code":"103705002","display":"Patient status observation (procedure)","userSelected":true}]}],"subject":{"reference":"Patient/695cee04-cf12-411e-a258-99e430093a4e"},"period":{"start":"2025-12-31T23:30:00.000+00:00","end":"2025-12-31T23:59:00.000+00:00"}},"request":{"method":"PUT","url":"Encounter/5af0604b-ef89-432a-b59b-34e1f676f8ac"}},{"fullUrl":"https://madie.cms.gov/Observation/blood-pressure-2a","resource":{"resourceType":"Observation","id":"43bf9ed5-9129-4c04-a882-6bc08f7d817a","meta":{"profile":["http://hl7.org/fhir/StructureDefinition/bp"]},"status":"final","category":[{"coding":[{"system":"http://terminology.hl7.org/CodeSystem/observation-category","code":"vital-signs","display":"Vital Signs"}],"text":"Vital Signs"}],"code":{"coding":[{"system":"http://loinc.org","code":"85354-9","display":"Blood pressure panel"}]},"subject":{"reference":"Patient/695cee04-cf12-411e-a258-99e430093a4e"},"effectiveDateTime":"2025-12-31T23:31:00.000Z","component":[{"code":{"coding":[{"system":"http://loinc.org","code":"8480-6","display":"Systolic blood pressure"}]},"valueQuantity":{"value":130,"unit":"mmHg","system":"http://unitsofmeasure.org","code":"mm[Hg]"}},{"code":{"coding":[{"system":"http://loinc.org","code":"8462-4","display":"Diastolic blood pressure"}]},"valueQuantity":{"value":90,"unit":"mmHg","system":"http://unitsofmeasure.org","code":"mm[Hg]"}}]},"request":{"method":"PUT","url":"Observation/43bf9ed5-9129-4c04-a882-6bc08f7d817a"}},{"fullUrl":"https://madie.cms.gov/ServiceRequest/referral-or-counseling-for-alcohol-consumption-41d4","resource":{"resourceType":"ServiceRequest","id":"90a853d3-7c83-4c64-95b0-0a312e94eb87","meta":{"profile":["http://hl7.org/fhir/us/qicore/StructureDefinition/qicore-servicenotrequested"]},"extension":[{"url":"http://hl7.org/fhir/us/qicore/StructureDefinition/qicore-doNotPerformReason","valueCodeableConcept":{"coding":[{"system":"http://snomed.info/sct","code":"105480006","display":"Procedure declined by patient (situation)","userSelected":true}]}}],"status":"completed","intent":"order","doNotPerform":true,"code":{"coding":[{"system":"http://snomed.info/sct","version":"2022-03","code":"20093000","display":"Alcohol rehabilitation and detoxification (regime/therapy)","userSelected":true}]},"subject":{"reference":"Patient/695cee04-cf12-411e-a258-99e430093a4e"},"authoredOn":"2025-12-31T23:01:00.000+00:00"},"request":{"method":"PUT","url":"ServiceRequest/90a853d3-7c83-4c64-95b0-0a312e94eb87"}},{"fullUrl":"https://madie.cms.gov/MedicationRequest/pharmacologic-therapy-for-hypertension-0d65","resource":{"resourceType":"MedicationRequest","id":"b4335e03-f35d-4497-84a2-1dd6f5bb5d6a","meta":{"profile":["http://hl7.org/fhir/us/qicore/StructureDefinition/qicore-mednotrequested"]},"status":"completed","intent":"order","doNotPerform":true,"medicationCodeableConcept":{"coding":[{"system":"http://www.nlm.nih.gov/research/umls/rxnorm","code":"1000001","display":"amlodipine 5 MG / hydrochlorothiazide 25 MG / olmesartan medoxomil 40 MG Oral Tablet","userSelected":true}]},"subject":{"reference":"Patient/695cee04-cf12-411e-a258-99e430093a4e"},"authoredOn":"2025-12-31T23:58:00.000+00:00","requester":{"reference":"Practitioner/example"},"reasonCode":[{"coding":[{"system":"http://snomed.info/sct","code":"105480006","display":"Procedure declined by patient (situation)"}]}]},"request":{"method":"PUT","url":"MedicationRequest/b4335e03-f35d-4497-84a2-1dd6f5bb5d6a"}},{"fullUrl":"https://madie.cms.gov/ServiceRequest/laboratory-tests-for-hypertension-0d66","resource":{"resourceType":"ServiceRequest","id":"ec61cc86-408f-44e3-b739-43d5c4bb5c46","meta":{"profile":["http://hl7.org/fhir/us/qicore/StructureDefinition/qicore-servicenotrequested"]},"extension":[{"url":"http://hl7.org/fhir/us/qicore/StructureDefinition/qicore-doNotPerformReason","valueCodeableConcept":{"coding":[{"system":"http://snomed.info/sct","version":"2022-03","code":"413311005","display":"Patient non-compliant - declined intervention / support (situation)","userSelected":true}]}}],"status":"completed","intent":"order","doNotPerform":true,"code":{"coding":[{"system":"http://loinc.org","version":"2.72","code":"24320-4","display":"Basic metabolic 1998 panel - Serum or Plasma","userSelected":true}]},"subject":{"reference":"Patient/695cee04-cf12-411e-a258-99e430093a4e"},"authoredOn":"2025-12-31T23:58:00.000+00:00"},"request":{"method":"PUT","url":"ServiceRequest/ec61cc86-408f-44e3-b739-43d5c4bb5c46"}},{"fullUrl":"https://madie.cms.gov/ServiceRequest/ekg-12-channel-panel-0d67","resource":{"resourceType":"ServiceRequest","id":"107c6821-6bcf-4ede-904f-aed7d1963a9a","meta":{"profile":["http://hl7.org/fhir/us/qicore/StructureDefinition/qicore-servicenotrequested"]},"extension":[{"url":"http://hl7.org/fhir/us/qicore/StructureDefinition/qicore-doNotPerformReason","valueCodeableConcept":{"coding":[{"system":"http://snomed.info/sct","version":"2022-03","code":"413311005","display":"Patient non-compliant - declined intervention / support (situation)","userSelected":true}]}}],"status":"completed","intent":"order","doNotPerform":true,"code":{"coding":[{"system":"http://loinc.org","code":"34534-8","display":"EKG 12 channel panel","userSelected":true}]},"subject":{"reference":"Patient/695cee04-cf12-411e-a258-99e430093a4e"},"authoredOn":"2025-12-31T23:31:00.000+00:00"},"request":{"method":"PUT","url":"ServiceRequest/107c6821-6bcf-4ede-904f-aed7d1963a9a"}},{"fullUrl":"https://madie.cms.gov/ServiceRequest/follow-up-4-6-months-finding-0d68","resource":{"resourceType":"ServiceRequest","id":"609a0710-360d-4199-9c3e-46fa3f9cf46d","meta":{"profile":["http://hl7.org/fhir/us/qicore/StructureDefinition/qicore-servicenotrequested"]},"extension":[{"url":"http://hl7.org/fhir/us/qicore/StructureDefinition/qicore-doNotPerformReason","valueCodeableConcept":{"coding":[{"system":"http://snomed.info/sct","version":"2022-03","code":"413311005","display":"Patient non-compliant - declined intervention / support (situation)","userSelected":true}]}}],"status":"completed","intent":"order","doNotPerform":true,"code":{"coding":[{"system":"http://snomed.info/sct","code":"183625007","display":"Follow-up 4-6 months (finding)","userSelected":true}]},"subject":{"reference":"Patient/695cee04-cf12-411e-a258-99e430093a4e"},"authoredOn":"2025-12-31T23:45:00.000+00:00"},"request":{"method":"PUT","url":"ServiceRequest/609a0710-360d-4199-9c3e-46fa3f9cf46d"}},{"fullUrl":"https://madie.cms.gov/Coverage/1","resource":{"resourceType":"Coverage","id":"91f017b1-5734-463f-897d-63f8dcea3226","meta":{"profile":["http://hl7.org/fhir/us/qicore/StructureDefinition/qicore-coverage"]},"status":"active","beneficiary":{"reference":"Patient/695cee04-cf12-411e-a258-99e430093a4e"},"payor":[{"reference":"Organization/77e4d06f-5e3c-436a-a598-80cefcca5028"}]},"request":{"method":"PUT","url":"Coverage/91f017b1-5734-463f-897d-63f8dcea3226"}},{"fullUrl":"https://madie.cms.gov/Organization/123456","resource":{"resourceType":"Organization","id":"77e4d06f-5e3c-436a-a598-80cefcca5028","meta":{"profile":["http://hl7.org/fhir/us/qicore/StructureDefinition/qicore-organization"]},"identifier":[{"use":"temp","system":"urn:oid:2.16.840.1.113883.4.4","value":"21-3259825"}],"active":true,"type":[{"coding":[{"system":"http://terminology.hl7.org/CodeSystem/organization-type","code":"pay","display":"Payer"}]}],"name":"Blue Cross Blue Shield of Texas","telecom":[{"system":"phone","value":"(+1) 972-766-6900"}],"address":[{"use":"billing","type":"postal","line":["P.O. Box 660044"],"city":"Dallas","state":"TX","postalCode":"75266-0044","country":"USA"}]},"request":{"method":"PUT","url":"Organization/77e4d06f-5e3c-436a-a598-80cefcca5028"}},{"fullUrl":"https://madie.cms.gov/Practitioner/practitioner-123456","resource":{"resourceType":"Practitioner","id":"e7bc5b6f-c628-4c04-8eb5-6f796ee3801c","meta":{"profile":["http://hl7.org/fhir/us/qicore/StructureDefinition/qicore-practitioner"]},"identifier":[{"system":"http://hl7.org/fhir/sid/us-npi","value":"123456"}],"name":[{"family":"Evil","prefix":["Dr"]}]},"request":{"method":"PUT","url":"Practitioner/e7bc5b6f-c628-4c04-8eb5-6f796ee3801c"}},{"fullUrl":"https://madie.cms.gov/MeasureReport/4e044586-e101-4ae8-9eb8-7f4dabd6100c","resource":{"resourceType":"MeasureReport","id":"4e044586-e101-4ae8-9eb8-7f4dabd6100c","meta":{"profile":["http://hl7.org/fhir/us/cqfmeasures/StructureDefinition/test-case-cqfm"]},"contained":[{"resourceType":"Parameters","id":"1dafd983-29f5-4f74-a7eb-64fe87844f9e-parameters","parameter":[{"name":"subject","valueString":"695cee04-cf12-411e-a258-99e430093a4e"}]}],"extension":[{"url":"http://hl7.org/fhir/us/cqfmeasures/StructureDefinition/cqfm-inputParameters","valueReference":{"reference":"#1dafd983-29f5-4f74-a7eb-64fe87844f9e-parameters"}},{"url":"http://hl7.org/fhir/us/cqfmeasures/StructureDefinition/cqfm-testCaseDescription","valueMarkdown":"2 encounters during MP; BP reading taken in both encounters, 1st enc.  1/01 0000-0030,  BP 130/79, weight loss recommended, pt declined (excepPas; 2nd enc. 12/31 at 2300-2359, BP 130/90 Patient declined lab test, detox, medications (excepPass). "}],"modifierExtension":[{"url":"http://hl7.org/fhir/us/cqfmeasures/StructureDefinition/cqfm-isTestCase","valueBoolean":true}],"status":"complete","type":"individual","measure":"https://madie.cms.gov/Measure/PCSBPScreeningFollowUpFHIR","period":{"start":"2025-01-01","end":"2025-12-31"},"group":[{"population":[{"code":{"coding":[{"system":"http://terminology.hl7.org/CodeSystem/measure-population","code":"initial-population","display":"Initial Population"}]},"count":2},{"code":{"coding":[{"system":"http://terminology.hl7.org/CodeSystem/measure-population","code":"denominator","display":"Denominator"}]},"count":2},{"code":{"coding":[{"system":"http://terminology.hl7.org/CodeSystem/measure-population","code":"denominator-exclusion","display":"Denominator Exclusion"}]},"count":0},{"code":{"coding":[{"system":"http://terminology.hl7.org/CodeSystem/measure-population","code":"numerator","display":"Numerator"}]},"count":0},{"code":{"coding":[{"system":"http://terminology.hl7.org/CodeSystem/measure-population","code":"denominator-exception","display":"Denominator Exception"}]},"count":2}]}]},"request":{"method":"PUT","url":"MeasureReport/4e044586-e101-4ae8-9eb8-7f4dabd6100c"}}]}