{"resourceType":"Bundle","id":"tests-095ef9fa-0b0e-477f-9fd3-364ccfb9ee34-bundle","type":"transaction","entry":[{"fullUrl":"https://madie.cms.gov/Patient/095ef9fa-0b0e-477f-9fd3-364ccfb9ee34","resource":{"resourceType":"Patient","id":"095ef9fa-0b0e-477f-9fd3-364ccfb9ee34","meta":{"profile":["http://hl7.org/fhir/us/qicore/StructureDefinition/qicore-patient"]},"extension":[{"url":"http://hl7.org/fhir/us/core/StructureDefinition/us-core-race","extension":[{"url":"ombCategory","valueCoding":{"system":"urn:oid:2.16.840.1.113883.6.238","code":"1002-5","display":"American Indian or Alaska Native","userSelected":true}},{"url":"text","valueString":"American Indian or Alaska Native"}]},{"url":"http://hl7.org/fhir/us/core/StructureDefinition/us-core-ethnicity","extension":[{"url":"ombCategory","valueCoding":{"system":"urn:oid:2.16.840.1.113883.6.238","code":"2135-2","display":"Hispanic or Latino","userSelected":true}},{"url":"text","valueString":"Hispanic or Latino"}]}],"identifier":[{"type":{"coding":[{"system":"http://terminology.hl7.org/CodeSystem/v2-0203","code":"MR"}]},"system":"https://bonnie-fhir.healthit.gov/","value":"62cddc0a62b2323a168e9764"}],"name":[{"family":"NUMERPass","given":["SecondReadingOver130"]}],"gender":"male","birthDate":"1974-12-31"},"request":{"method":"PUT","url":"Patient/095ef9fa-0b0e-477f-9fd3-364ccfb9ee34"}},{"fullUrl":"https://madie.cms.gov/Encounter/encounter-to-screen-for-blood-pressure-975f","resource":{"resourceType":"Encounter","id":"080fadc4-13e8-4fc5-a318-4cdd0af52020","meta":{"profile":["http://hl7.org/fhir/us/qicore/StructureDefinition/qicore-encounter"]},"status":"finished","class":{"system":"http://terminology.hl7.org/CodeSystem/v3-ActCode","code":"AMB","display":"ambulatory"},"type":[{"coding":[{"system":"http://snomed.info/sct","version":"2022-03","code":"103705002","display":"Patient status observation (procedure)","userSelected":true}]}],"subject":{"reference":"Patient/095ef9fa-0b0e-477f-9fd3-364ccfb9ee34"},"period":{"start":"2025-01-01T08:00:00.000+00:00","end":"2025-01-01T08:45:00.000+00:00"}},"request":{"method":"PUT","url":"Encounter/080fadc4-13e8-4fc5-a318-4cdd0af52020"}},{"fullUrl":"https://madie.cms.gov/ServiceRequest/follow-up-within-4-weeks-9762","resource":{"resourceType":"ServiceRequest","id":"afcdac0a-fb3d-4a89-aa39-05ae743717c0","meta":{"profile":["http://hl7.org/fhir/us/qicore/StructureDefinition/qicore-servicerequest"]},"status":"active","intent":"order","code":{"coding":[{"system":"http://snomed.info/sct","version":"2022-03","code":"183617005","display":"Follow-up 1 day (finding)","userSelected":true}]},"subject":{"reference":"Patient/095ef9fa-0b0e-477f-9fd3-364ccfb9ee34"},"authoredOn":"2025-01-01T08:30:00.000+00:00"},"request":{"method":"PUT","url":"ServiceRequest/afcdac0a-fb3d-4a89-aa39-05ae743717c0"}},{"fullUrl":"https://madie.cms.gov/Encounter/encounter-to-screen-for-blood-pressure-69d7","resource":{"resourceType":"Encounter","id":"23a665c9-fe91-4793-b883-fc41963ca7d0","meta":{"profile":["http://hl7.org/fhir/us/qicore/StructureDefinition/qicore-encounter"]},"status":"finished","class":{"system":"http://terminology.hl7.org/CodeSystem/v3-ActCode","code":"AMB","display":"ambulatory"},"type":[{"coding":[{"system":"http://snomed.info/sct","version":"2022-03","code":"103705002","display":"Patient status observation (procedure)","userSelected":true}]}],"subject":{"reference":"Patient/095ef9fa-0b0e-477f-9fd3-364ccfb9ee34"},"period":{"start":"2025-12-31T10:00:00.000+00:00","end":"2025-12-31T10:30:00.000+00:00"}},"request":{"method":"PUT","url":"Encounter/23a665c9-fe91-4793-b883-fc41963ca7d0"}},{"fullUrl":"https://madie.cms.gov/ServiceRequest/follow-up-within-4-weeks-69da","resource":{"resourceType":"ServiceRequest","id":"7d93d213-24c0-4844-8518-36412e9ddbea","meta":{"profile":["http://hl7.org/fhir/us/qicore/StructureDefinition/qicore-servicerequest"]},"status":"active","intent":"order","code":{"coding":[{"system":"http://snomed.info/sct","version":"2022-03","code":"183624006","display":"Follow-up 2-3 months (finding)","userSelected":true}]},"subject":{"reference":"Patient/095ef9fa-0b0e-477f-9fd3-364ccfb9ee34"},"authoredOn":"2025-12-31T10:10:00.000+00:00"},"request":{"method":"PUT","url":"ServiceRequest/7d93d213-24c0-4844-8518-36412e9ddbea"}},{"fullUrl":"https://madie.cms.gov/ServiceRequest/referral-or-counseling-for-alcohol-consumption-69db","resource":{"resourceType":"ServiceRequest","id":"aaa288c2-fc33-450b-9322-739d6c47754f","meta":{"profile":["http://hl7.org/fhir/us/qicore/StructureDefinition/qicore-servicerequest"]},"status":"active","intent":"order","code":{"coding":[{"system":"http://snomed.info/sct","version":"2022-03","code":"20093000","display":"Alcohol rehabilitation and detoxification (regime/therapy)","userSelected":true}]},"subject":{"reference":"Patient/095ef9fa-0b0e-477f-9fd3-364ccfb9ee34"},"authoredOn":"2025-01-01T08:30:00.000+00:00"},"request":{"method":"PUT","url":"ServiceRequest/aaa288c2-fc33-450b-9322-739d6c47754f"}},{"fullUrl":"https://madie.cms.gov/ServiceRequest/ekg-12-channel-panel-69dc","resource":{"resourceType":"ServiceRequest","id":"e37e9e68-d832-4dd6-bcf6-2cc138673738","meta":{"profile":["http://hl7.org/fhir/us/qicore/StructureDefinition/qicore-servicerequest"]},"status":"active","intent":"order","code":{"coding":[{"system":"http://loinc.org","code":"34534-8","display":"EKG 12 channel panel","userSelected":true}]},"subject":{"reference":"Patient/095ef9fa-0b0e-477f-9fd3-364ccfb9ee34"},"authoredOn":"2025-12-31T10:10:00.000+00:00"},"request":{"method":"PUT","url":"ServiceRequest/e37e9e68-d832-4dd6-bcf6-2cc138673738"}},{"fullUrl":"https://madie.cms.gov/ServiceRequest/lifestyle-recommendation-69dd","resource":{"resourceType":"ServiceRequest","id":"7b1e9617-51fe-4697-9ddf-4e55ca980b8e","meta":{"profile":["http://hl7.org/fhir/us/qicore/StructureDefinition/qicore-servicerequest"]},"status":"active","intent":"order","code":{"coding":[{"system":"http://snomed.info/sct","version":"2022-03","code":"313204009","display":"Lifestyle education (procedure)","userSelected":true}]},"subject":{"reference":"Patient/095ef9fa-0b0e-477f-9fd3-364ccfb9ee34"},"authoredOn":"2025-12-31T10:10:00.000+00:00"},"request":{"method":"PUT","url":"ServiceRequest/7b1e9617-51fe-4697-9ddf-4e55ca980b8e"}},{"fullUrl":"https://madie.cms.gov/MedicationRequest/pharmacologic-therapy-for-hypertension-69de","resource":{"resourceType":"MedicationRequest","id":"8141c6e0-685e-4a49-a0a7-bd4220670b56","meta":{"profile":["http://hl7.org/fhir/us/qicore/StructureDefinition/qicore-medicationrequest"]},"status":"active","intent":"order","medicationCodeableConcept":{"coding":[{"system":"http://www.nlm.nih.gov/research/umls/rxnorm","code":"1000001","display":"amlodipine 5 MG / hydrochlorothiazide 25 MG / olmesartan medoxomil 40 MG Oral Tablet","userSelected":true}]},"subject":{"reference":"Patient/095ef9fa-0b0e-477f-9fd3-364ccfb9ee34"},"authoredOn":"2025-12-31T10:10:00.000+00:00","requester":{"reference":"Practitioner/example","display":"Patrick Pump"}},"request":{"method":"PUT","url":"MedicationRequest/8141c6e0-685e-4a49-a0a7-bd4220670b56"}},{"fullUrl":"https://madie.cms.gov/Observation/blood-pressure-1","resource":{"resourceType":"Observation","id":"a3269802-5cba-4144-b43b-aedc7cf88d55","meta":{"profile":["http://hl7.org/fhir/StructureDefinition/bp"]},"status":"corrected","category":[{"coding":[{"system":"http://terminology.hl7.org/CodeSystem/observation-category","code":"vital-signs","display":"Vital Signs"}],"text":"Vital Signs"}],"code":{"coding":[{"system":"http://loinc.org","code":"85354-9","display":"Blood pressure panel"}]},"subject":{"reference":"Patient/095ef9fa-0b0e-477f-9fd3-364ccfb9ee34"},"effectiveDateTime":"2025-01-01T08:05:00.000Z","component":[{"code":{"coding":[{"system":"http://loinc.org","code":"8480-6","display":"Systolic blood pressure"}]},"valueQuantity":{"value":130,"unit":"mmHg","system":"http://unitsofmeasure.org","code":"mm[Hg]"}},{"code":{"coding":[{"system":"http://loinc.org","code":"8462-4","display":"Diastolic blood pressure"}]},"valueQuantity":{"value":80,"unit":"mmHg","system":"http://unitsofmeasure.org","code":"mm[Hg]"}}]},"request":{"method":"PUT","url":"Observation/a3269802-5cba-4144-b43b-aedc7cf88d55"}},{"fullUrl":"https://madie.cms.gov/Observation/blood-pressure-2","resource":{"resourceType":"Observation","id":"e32a8cc5-258e-48bf-8db5-5692baafe1de","meta":{"profile":["http://hl7.org/fhir/StructureDefinition/bp"]},"status":"final","category":[{"coding":[{"system":"http://terminology.hl7.org/CodeSystem/observation-category","code":"vital-signs","display":"Vital Signs"}],"text":"Vital Signs"}],"code":{"coding":[{"system":"http://loinc.org","code":"85354-9","display":"Blood pressure panel"}]},"subject":{"reference":"Patient/095ef9fa-0b0e-477f-9fd3-364ccfb9ee34"},"effectiveDateTime":"2025-12-31T10:05:00.000Z","component":[{"code":{"coding":[{"system":"http://loinc.org","code":"8480-6","display":"Systolic blood pressure"}]},"valueQuantity":{"value":131,"unit":"mmHg","system":"http://unitsofmeasure.org","code":"mm[Hg]"}},{"code":{"coding":[{"system":"http://loinc.org","code":"8462-4","display":"Diastolic blood pressure"}]},"valueQuantity":{"value":80,"unit":"mmHg","system":"http://unitsofmeasure.org","code":"mm[Hg]"}}]},"request":{"method":"PUT","url":"Observation/e32a8cc5-258e-48bf-8db5-5692baafe1de"}},{"fullUrl":"https://madie.cms.gov/Coverage/1","resource":{"resourceType":"Coverage","id":"0532b4bd-f145-4916-a732-3783dc02e69a","meta":{"profile":["http://hl7.org/fhir/us/qicore/StructureDefinition/qicore-coverage"]},"status":"active","beneficiary":{"reference":"Patient/095ef9fa-0b0e-477f-9fd3-364ccfb9ee34"},"payor":[{"reference":"Organization/9e9b3f13-a353-4173-b29b-947d6f1f2031"}]},"request":{"method":"PUT","url":"Coverage/0532b4bd-f145-4916-a732-3783dc02e69a"}},{"fullUrl":"https://madie.cms.gov/Organization/123456","resource":{"resourceType":"Organization","id":"9e9b3f13-a353-4173-b29b-947d6f1f2031","meta":{"profile":["http://hl7.org/fhir/us/qicore/StructureDefinition/qicore-organization"]},"identifier":[{"use":"temp","system":"urn:oid:2.16.840.1.113883.4.4","value":"21-3259825"}],"active":true,"type":[{"coding":[{"system":"http://terminology.hl7.org/CodeSystem/organization-type","code":"pay","display":"Payer"}]}],"name":"Blue Cross Blue Shield of Texas","telecom":[{"system":"phone","value":"(+1) 972-766-6900"}],"address":[{"use":"billing","type":"postal","line":["P.O. Box 660044"],"city":"Dallas","state":"TX","postalCode":"75266-0044","country":"USA"}]},"request":{"method":"PUT","url":"Organization/9e9b3f13-a353-4173-b29b-947d6f1f2031"}},{"fullUrl":"https://madie.cms.gov/MeasureReport/d73eb416-173d-4307-8b58-833d87641638","resource":{"resourceType":"MeasureReport","id":"d73eb416-173d-4307-8b58-833d87641638","meta":{"profile":["http://hl7.org/fhir/us/cqfmeasures/StructureDefinition/test-case-cqfm"]},"contained":[{"resourceType":"Parameters","id":"ce036e73-096b-4a8a-b13d-5d9688ab75c6-parameters","parameter":[{"name":"subject","valueString":"095ef9fa-0b0e-477f-9fd3-364ccfb9ee34"}]}],"extension":[{"url":"http://hl7.org/fhir/us/cqfmeasures/StructureDefinition/cqfm-inputParameters","valueReference":{"reference":"#ce036e73-096b-4a8a-b13d-5d9688ab75c6-parameters"}},{"url":"http://hl7.org/fhir/us/cqfmeasures/StructureDefinition/cqfm-testCaseDescription","valueMarkdown":"Age 18+, encounter 01/01 0800 - 0845 during MP, second BP reading 130/80 with detox order, f/u in 1 day.\n2nd enc. 12/31 1000-1045, BP 131/80, EKG, lifestyle education, medication, f/u 1 day"}],"modifierExtension":[{"url":"http://hl7.org/fhir/us/cqfmeasures/StructureDefinition/cqfm-isTestCase","valueBoolean":true}],"status":"complete","type":"individual","measure":"https://madie.cms.gov/Measure/PCSBPScreeningFollowUpFHIR","period":{"start":"2025-01-01","end":"2025-12-31"},"group":[{"population":[{"code":{"coding":[{"system":"http://terminology.hl7.org/CodeSystem/measure-population","code":"initial-population","display":"Initial Population"}]},"count":2},{"code":{"coding":[{"system":"http://terminology.hl7.org/CodeSystem/measure-population","code":"denominator","display":"Denominator"}]},"count":2},{"code":{"coding":[{"system":"http://terminology.hl7.org/CodeSystem/measure-population","code":"denominator-exclusion","display":"Denominator Exclusion"}]},"count":0},{"code":{"coding":[{"system":"http://terminology.hl7.org/CodeSystem/measure-population","code":"numerator","display":"Numerator"}]},"count":2},{"code":{"coding":[{"system":"http://terminology.hl7.org/CodeSystem/measure-population","code":"denominator-exception","display":"Denominator Exception"}]},"count":0}]}]},"request":{"method":"PUT","url":"MeasureReport/d73eb416-173d-4307-8b58-833d87641638"}}]}