{"resourceType":"Bundle","id":"tests-5210ccf4-ddf8-4692-aa39-b03d84e9a469-bundle","type":"transaction","entry":[{"fullUrl":"https://madie.cms.gov/Patient/5210ccf4-ddf8-4692-aa39-b03d84e9a469","resource":{"resourceType":"Patient","id":"5210ccf4-ddf8-4692-aa39-b03d84e9a469","meta":{"profile":["http://hl7.org/fhir/us/qicore/StructureDefinition/qicore-patient"]},"extension":[{"url":"http://hl7.org/fhir/us/core/StructureDefinition/us-core-race","extension":[{"url":"ombCategory","valueCoding":{"system":"urn:oid:2.16.840.1.113883.6.238","code":"1002-5","display":"American Indian or Alaska Native","userSelected":true}},{"url":"text","valueString":"American Indian or Alaska Native"}]},{"url":"http://hl7.org/fhir/us/core/StructureDefinition/us-core-ethnicity","extension":[{"url":"ombCategory","valueCoding":{"system":"urn:oid:2.16.840.1.113883.6.238","code":"2135-2","display":"Hispanic or Latino","userSelected":true}},{"url":"text","valueString":"Hispanic or Latino"}]}],"identifier":[{"type":{"coding":[{"system":"http://terminology.hl7.org/CodeSystem/v2-0203","code":"MR"}]},"system":"https://bonnie-fhir.healthit.gov/","value":"SecondHighBPECGMedsNonPharm"}],"name":[{"family":"NUMERPass","given":["SecondHighBPECGMedsNonPharm"]}],"gender":"male","birthDate":"1974-12-31"},"request":{"method":"PUT","url":"Patient/5210ccf4-ddf8-4692-aa39-b03d84e9a469"}},{"fullUrl":"https://madie.cms.gov/Encounter/encounter-to-screen-for-blood-pressure-975f","resource":{"resourceType":"Encounter","id":"9dfd273a-b92d-44b8-ab7a-ee145f07470e","meta":{"profile":["http://hl7.org/fhir/us/qicore/StructureDefinition/qicore-encounter"]},"status":"finished","class":{"system":"http://terminology.hl7.org/CodeSystem/v3-ActCode","code":"AMB","display":"ambulatory"},"type":[{"coding":[{"system":"http://snomed.info/sct","version":"2022-03","code":"103705002","display":"Patient status observation (procedure)","userSelected":true}]}],"subject":{"reference":"Patient/5210ccf4-ddf8-4692-aa39-b03d84e9a469"},"period":{"start":"2025-01-01T08:00:00.000+00:00","end":"2025-01-01T08:45:00.000+00:00"}},"request":{"method":"PUT","url":"Encounter/9dfd273a-b92d-44b8-ab7a-ee145f07470e"}},{"fullUrl":"https://madie.cms.gov/ServiceRequest/follow-up-within-4-weeks-9762","resource":{"resourceType":"ServiceRequest","id":"44b27839-a195-44b9-a071-69bc3b6e0aac","meta":{"profile":["http://hl7.org/fhir/us/qicore/StructureDefinition/qicore-servicerequest"]},"status":"active","intent":"order","code":{"coding":[{"system":"http://snomed.info/sct","version":"2022-03","code":"183617005","display":"Follow-up 1 day (finding)","userSelected":true}]},"subject":{"reference":"Patient/5210ccf4-ddf8-4692-aa39-b03d84e9a469"},"authoredOn":"2025-01-01T08:30:00.000+00:00"},"request":{"method":"PUT","url":"ServiceRequest/44b27839-a195-44b9-a071-69bc3b6e0aac"}},{"fullUrl":"https://madie.cms.gov/Encounter/encounter-to-screen-for-blood-pressure-69d7","resource":{"resourceType":"Encounter","id":"6fd04603-cc13-4ae0-8c40-65c0cea99afe","meta":{"profile":["http://hl7.org/fhir/us/qicore/StructureDefinition/qicore-encounter"]},"status":"finished","class":{"system":"http://terminology.hl7.org/CodeSystem/v3-ActCode","code":"AMB","display":"ambulatory"},"type":[{"coding":[{"system":"http://snomed.info/sct","version":"2022-03","code":"103705002","display":"Patient status observation (procedure)","userSelected":true}]}],"subject":{"reference":"Patient/5210ccf4-ddf8-4692-aa39-b03d84e9a469"},"period":{"start":"2025-12-31T10:00:00.000+00:00","end":"2025-12-31T10:45:00.000+00:00"}},"request":{"method":"PUT","url":"Encounter/6fd04603-cc13-4ae0-8c40-65c0cea99afe"}},{"fullUrl":"https://madie.cms.gov/ServiceRequest/follow-up-within-4-weeks-69da","resource":{"resourceType":"ServiceRequest","id":"e683153e-9d36-4b50-88af-32e428dae630","meta":{"profile":["http://hl7.org/fhir/us/qicore/StructureDefinition/qicore-servicerequest"]},"status":"active","intent":"order","code":{"coding":[{"system":"http://snomed.info/sct","version":"2022-03","code":"183620002","display":"Follow-up 1 week (finding)","userSelected":true}]},"subject":{"reference":"Patient/5210ccf4-ddf8-4692-aa39-b03d84e9a469"},"authoredOn":"2025-12-31T10:10:00.000+00:00"},"request":{"method":"PUT","url":"ServiceRequest/e683153e-9d36-4b50-88af-32e428dae630"}},{"fullUrl":"https://madie.cms.gov/ServiceRequest/referral-or-counseling-for-alcohol-consumption-69db","resource":{"resourceType":"ServiceRequest","id":"11244727-d023-47da-b0ff-454b269caddc","meta":{"profile":["http://hl7.org/fhir/us/qicore/StructureDefinition/qicore-servicerequest"]},"status":"active","intent":"order","code":{"coding":[{"system":"http://snomed.info/sct","version":"2022-03","code":"20093000","display":"Alcohol rehabilitation and detoxification (regime/therapy)","userSelected":true}]},"subject":{"reference":"Patient/5210ccf4-ddf8-4692-aa39-b03d84e9a469"},"authoredOn":"2025-01-01T08:30:00.000+00:00"},"request":{"method":"PUT","url":"ServiceRequest/11244727-d023-47da-b0ff-454b269caddc"}},{"fullUrl":"https://madie.cms.gov/ServiceRequest/ekg-study-69dc","resource":{"resourceType":"ServiceRequest","id":"0ed3f8cf-aa84-4a2e-96be-1ffceb5c5377","meta":{"profile":["http://hl7.org/fhir/us/qicore/StructureDefinition/qicore-servicenotrequested"]},"extension":[{"url":"http://hl7.org/fhir/us/qicore/StructureDefinition/qicore-doNotPerformReason","valueCodeableConcept":{"coding":[{"system":"http://snomed.info/sct","version":"2022-03","code":"413311005","display":"Patient non-compliant - declined intervention / support (situation)","userSelected":true}]}}],"status":"completed","intent":"order","doNotPerform":true,"code":{"coding":[{"system":"http://loinc.org","code":"11524-6","display":"EKG study","userSelected":true}]},"subject":{"reference":"Patient/5210ccf4-ddf8-4692-aa39-b03d84e9a469"},"authoredOn":"2025-12-31T10:10:00.000+00:00"},"request":{"method":"PUT","url":"ServiceRequest/0ed3f8cf-aa84-4a2e-96be-1ffceb5c5377"}},{"fullUrl":"https://madie.cms.gov/ServiceRequest/lifestyle-recommendation-69dd","resource":{"resourceType":"ServiceRequest","id":"20cdb157-9724-4752-96a7-59d6936c2100","meta":{"profile":["http://hl7.org/fhir/us/qicore/StructureDefinition/qicore-servicerequest"]},"status":"active","intent":"order","code":{"coding":[{"system":"http://snomed.info/sct","version":"2022-03","code":"313204009","display":"Lifestyle education (procedure)","userSelected":true}]},"subject":{"reference":"Patient/5210ccf4-ddf8-4692-aa39-b03d84e9a469"},"authoredOn":"2025-12-31T10:10:00.000+00:00"},"request":{"method":"PUT","url":"ServiceRequest/20cdb157-9724-4752-96a7-59d6936c2100"}},{"fullUrl":"https://madie.cms.gov/MedicationRequest/pharmacologic-therapy-for-hypertension-69de","resource":{"resourceType":"MedicationRequest","id":"6142f335-2f45-4bee-99b2-994e5841912d","meta":{"profile":["http://hl7.org/fhir/us/qicore/StructureDefinition/qicore-medicationrequest"]},"status":"active","intent":"order","medicationCodeableConcept":{"coding":[{"system":"http://www.nlm.nih.gov/research/umls/rxnorm","code":"1000001","display":"amlodipine 5 MG / hydrochlorothiazide 25 MG / olmesartan medoxomil 40 MG Oral Tablet","userSelected":true}]},"subject":{"reference":"Patient/5210ccf4-ddf8-4692-aa39-b03d84e9a469"},"authoredOn":"2025-12-31T10:10:00.000+00:00","requester":{"reference":"Practitioner/example","display":"Patrick Pump"}},"request":{"method":"PUT","url":"MedicationRequest/6142f335-2f45-4bee-99b2-994e5841912d"}},{"fullUrl":"https://madie.cms.gov/Observation/blood-pressure-1","resource":{"resourceType":"Observation","id":"10e255b5-1f6d-4e4e-b5c4-3a24c765895f","meta":{"profile":["http://hl7.org/fhir/StructureDefinition/bp"]},"status":"final","category":[{"coding":[{"system":"http://terminology.hl7.org/CodeSystem/observation-category","code":"vital-signs","display":"Vital Signs"}],"text":"Vital Signs"}],"code":{"coding":[{"system":"http://loinc.org","code":"85354-9","display":"Blood pressure panel"}]},"subject":{"reference":"Patient/5210ccf4-ddf8-4692-aa39-b03d84e9a469"},"effectiveDateTime":"2025-01-01T08:05:00.000Z","component":[{"code":{"coding":[{"system":"http://loinc.org","code":"8480-6","display":"Systolic blood pressure"}]},"valueQuantity":{"value":140,"unit":"mmHg","system":"http://unitsofmeasure.org","code":"mm[Hg]"}},{"code":{"coding":[{"system":"http://loinc.org","code":"8462-4","display":"Diastolic blood pressure"}]},"valueQuantity":{"value":90,"unit":"mmHg","system":"http://unitsofmeasure.org","code":"mm[Hg]"}}]},"request":{"method":"PUT","url":"Observation/10e255b5-1f6d-4e4e-b5c4-3a24c765895f"}},{"fullUrl":"https://madie.cms.gov/Observation/blood-pressure-2","resource":{"resourceType":"Observation","id":"525e03d8-42c3-4a5f-82dd-42cb06d21f5b","meta":{"profile":["http://hl7.org/fhir/StructureDefinition/bp"]},"status":"final","category":[{"coding":[{"system":"http://terminology.hl7.org/CodeSystem/observation-category","code":"vital-signs","display":"Vital Signs"}],"text":"Vital Signs"}],"code":{"coding":[{"system":"http://loinc.org","code":"85354-9","display":"Blood pressure panel"}]},"subject":{"reference":"Patient/5210ccf4-ddf8-4692-aa39-b03d84e9a469"},"effectiveDateTime":"2025-12-31T10:05:00.000Z","component":[{"code":{"coding":[{"system":"http://loinc.org","code":"8480-6","display":"Systolic blood pressure"}]},"valueQuantity":{"value":160,"unit":"mmHg","system":"http://unitsofmeasure.org","code":"mm[Hg]"}},{"code":{"coding":[{"system":"http://loinc.org","code":"8462-4","display":"Diastolic blood pressure"}]},"valueQuantity":{"value":90,"unit":"mmHg","system":"http://unitsofmeasure.org","code":"mm[Hg]"}}]},"request":{"method":"PUT","url":"Observation/525e03d8-42c3-4a5f-82dd-42cb06d21f5b"}},{"fullUrl":"https://madie.cms.gov/Coverage/1","resource":{"resourceType":"Coverage","id":"f75b7aef-14ee-4c38-b7df-4d8d92a64a18","meta":{"profile":["http://hl7.org/fhir/us/qicore/StructureDefinition/qicore-coverage"]},"status":"active","beneficiary":{"reference":"Patient/5210ccf4-ddf8-4692-aa39-b03d84e9a469"},"payor":[{"reference":"Organization/3e899f33-84eb-4634-a770-a5a0bd7a80e7"}]},"request":{"method":"PUT","url":"Coverage/f75b7aef-14ee-4c38-b7df-4d8d92a64a18"}},{"fullUrl":"https://madie.cms.gov/Organization/123456","resource":{"resourceType":"Organization","id":"3e899f33-84eb-4634-a770-a5a0bd7a80e7","meta":{"profile":["http://hl7.org/fhir/us/qicore/StructureDefinition/qicore-organization"]},"identifier":[{"use":"temp","system":"urn:oid:2.16.840.1.113883.4.4","value":"21-3259825"}],"active":true,"type":[{"coding":[{"system":"http://terminology.hl7.org/CodeSystem/organization-type","code":"pay","display":"Payer"}]}],"name":"Blue Cross Blue Shield of Texas","telecom":[{"system":"phone","value":"(+1) 972-766-6900"}],"address":[{"use":"billing","type":"postal","line":["P.O. Box 660044"],"city":"Dallas","state":"TX","postalCode":"75266-0044","country":"USA"}]},"request":{"method":"PUT","url":"Organization/3e899f33-84eb-4634-a770-a5a0bd7a80e7"}},{"fullUrl":"https://madie.cms.gov/MeasureReport/a2ef7767-3457-4ad0-978e-b791fdbfbb96","resource":{"resourceType":"MeasureReport","id":"a2ef7767-3457-4ad0-978e-b791fdbfbb96","meta":{"profile":["http://hl7.org/fhir/us/cqfmeasures/StructureDefinition/test-case-cqfm"]},"contained":[{"resourceType":"Parameters","id":"174fac06-5776-4c81-ae91-65d6c10a6fd6-parameters","parameter":[{"name":"subject","valueString":"5210ccf4-ddf8-4692-aa39-b03d84e9a469"}]}],"extension":[{"url":"http://hl7.org/fhir/us/cqfmeasures/StructureDefinition/cqfm-inputParameters","valueReference":{"reference":"#174fac06-5776-4c81-ae91-65d6c10a6fd6-parameters"}},{"url":"http://hl7.org/fhir/us/cqfmeasures/StructureDefinition/cqfm-testCaseDescription","valueMarkdown":"Enc 1/1  0800-0845 during MP, BP 140/90, follow up in 1 day, alcohol consumption for rehab/detox, \n2nd Enc 12/31 @1000-1045 BP 160/90, f/u in 2 -3 mo. EKG study refused, lifestyle changes recommended, medication."}],"modifierExtension":[{"url":"http://hl7.org/fhir/us/cqfmeasures/StructureDefinition/cqfm-isTestCase","valueBoolean":true}],"status":"complete","type":"individual","measure":"https://madie.cms.gov/Measure/PCSBPScreeningFollowUpFHIR","period":{"start":"2025-01-01","end":"2025-12-31"},"group":[{"population":[{"code":{"coding":[{"system":"http://terminology.hl7.org/CodeSystem/measure-population","code":"initial-population","display":"Initial Population"}]},"count":2},{"code":{"coding":[{"system":"http://terminology.hl7.org/CodeSystem/measure-population","code":"denominator","display":"Denominator"}]},"count":2},{"code":{"coding":[{"system":"http://terminology.hl7.org/CodeSystem/measure-population","code":"denominator-exclusion","display":"Denominator Exclusion"}]},"count":0},{"code":{"coding":[{"system":"http://terminology.hl7.org/CodeSystem/measure-population","code":"numerator","display":"Numerator"}]},"count":1},{"code":{"coding":[{"system":"http://terminology.hl7.org/CodeSystem/measure-population","code":"denominator-exception","display":"Denominator Exception"}]},"count":1}]}]},"request":{"method":"PUT","url":"MeasureReport/a2ef7767-3457-4ad0-978e-b791fdbfbb96"}}]}