{"resourceType":"Bundle","id":"tests-6924b5e5-412b-4135-b74e-7f400676c8bd-bundle","type":"transaction","entry":[{"fullUrl":"https://madie.cms.gov/Patient/6924b5e5-412b-4135-b74e-7f400676c8bd","resource":{"resourceType":"Patient","id":"6924b5e5-412b-4135-b74e-7f400676c8bd","meta":{"profile":["http://hl7.org/fhir/us/qicore/StructureDefinition/qicore-patient"]},"extension":[{"url":"http://hl7.org/fhir/us/core/StructureDefinition/us-core-race","extension":[{"url":"ombCategory","valueCoding":{"system":"urn:oid:2.16.840.1.113883.6.238","code":"2106-3","display":"White","userSelected":true}},{"url":"text","valueString":"White"}]},{"url":"http://hl7.org/fhir/us/core/StructureDefinition/us-core-ethnicity","extension":[{"url":"ombCategory","valueCoding":{"system":"urn:oid:2.16.840.1.113883.6.238","code":"2186-5","display":"Not Hispanic or Latino","userSelected":true}},{"url":"text","valueString":"Not Hispanic or Latino"}]}],"identifier":[{"type":{"coding":[{"system":"http://terminology.hl7.org/CodeSystem/v2-0203","code":"MR"}]},"system":"https://bonnie-fhir.healthit.gov/","value":"62fa895dd13907679e12d617"}],"name":[{"family":"DENEXCEPFail","given":["ElevatedDeclineFUIntentPlan"]}],"gender":"male","birthDate":"2004-01-31"},"request":{"method":"PUT","url":"Patient/6924b5e5-412b-4135-b74e-7f400676c8bd"}},{"fullUrl":"https://madie.cms.gov/Encounter/encounter-to-screen-for-blood-pressure-d1ae","resource":{"resourceType":"Encounter","id":"edf30e57-3c7d-42a0-bc00-ebf67f3e3908","meta":{"profile":["http://hl7.org/fhir/us/qicore/StructureDefinition/qicore-encounter"]},"status":"finished","class":{"system":"http://terminology.hl7.org/CodeSystem/v3-ActCode","code":"AMB","display":"ambulatory"},"type":[{"coding":[{"system":"http://snomed.info/sct","version":"2023-03","code":"103705002","display":"Patient status observation (procedure)","userSelected":true}]}],"subject":{"reference":"Patient/6924b5e5-412b-4135-b74e-7f400676c8bd"},"period":{"start":"2025-12-31T08:00:00.000+00:00","end":"2025-12-31T08:30:00.000+00:00"}},"request":{"method":"PUT","url":"Encounter/edf30e57-3c7d-42a0-bc00-ebf67f3e3908"}},{"fullUrl":"https://madie.cms.gov/Observation/systolic-blood-pressure-d1af","resource":{"resourceType":"Observation","id":"52eb620c-4834-4c74-9e22-f445832f7c7f","meta":{"profile":["http://hl7.org/fhir/us/qicore/StructureDefinition/qicore-observation"]},"status":"final","category":[{"coding":[{"system":"http://terminology.hl7.org/CodeSystem/observation-category","code":"procedure","display":"Procedure"}]}],"code":{"coding":[{"system":"http://loinc.org","code":"8480-6","display":"Systolic blood pressure","userSelected":true}]},"subject":{"reference":"Patient/6924b5e5-412b-4135-b74e-7f400676c8bd"},"effectiveDateTime":"2025-12-31T08:05:00.000+00:00","valueQuantity":{"value":120.0,"unit":"mm[Hg]","system":"https://ucum.org","code":"mm[Hg]"}},"request":{"method":"PUT","url":"Observation/52eb620c-4834-4c74-9e22-f445832f7c7f"}},{"fullUrl":"https://madie.cms.gov/Observation/diastolic-blood-pressure-d1b0","resource":{"resourceType":"Observation","id":"7b6d3f6e-49ac-49cf-8dad-3db1d2946719","meta":{"profile":["http://hl7.org/fhir/us/qicore/StructureDefinition/qicore-observation"]},"status":"final","category":[{"coding":[{"system":"http://terminology.hl7.org/CodeSystem/observation-category","code":"procedure","display":"Procedure"}]}],"code":{"coding":[{"system":"http://loinc.org","code":"8462-4","display":"Diastolic blood pressure","userSelected":true}]},"subject":{"reference":"Patient/6924b5e5-412b-4135-b74e-7f400676c8bd"},"effectiveDateTime":"2025-12-31T08:05:00.000+00:00","valueQuantity":{"value":79.0,"unit":"mm[Hg]","system":"https://ucum.org","code":"mm[Hg]"}},"request":{"method":"PUT","url":"Observation/7b6d3f6e-49ac-49cf-8dad-3db1d2946719"}},{"fullUrl":"https://madie.cms.gov/ServiceRequest/follow-up-2-3-months-finding-0d6d","resource":{"resourceType":"ServiceRequest","id":"3dbfd263-2813-4826-9e35-f1b800661fd3","meta":{"profile":["http://hl7.org/fhir/us/qicore/StructureDefinition/qicore-servicenotrequested"]},"extension":[{"url":"http://hl7.org/fhir/us/qicore/StructureDefinition/qicore-doNotPerformReason","valueCodeableConcept":{"coding":[{"system":"http://snomed.info/sct","code":"105480006","display":"Procedure declined by patient (situation)","userSelected":true}]}}],"status":"completed","intent":"plan","doNotPerform":true,"code":{"coding":[{"system":"http://snomed.info/sct","code":"183624006","display":"Follow-up 2-3 months (finding)","userSelected":true}]},"subject":{"reference":"Patient/6924b5e5-412b-4135-b74e-7f400676c8bd"},"authoredOn":"2025-12-31T08:20:00.000+00:00"},"request":{"method":"PUT","url":"ServiceRequest/3dbfd263-2813-4826-9e35-f1b800661fd3"}},{"fullUrl":"https://madie.cms.gov/Coverage/1","resource":{"resourceType":"Coverage","id":"c32af1b1-2988-4b3c-b42f-6deb714931b4","meta":{"profile":["http://hl7.org/fhir/us/qicore/StructureDefinition/qicore-coverage"]},"status":"active","beneficiary":{"reference":"Patient/6924b5e5-412b-4135-b74e-7f400676c8bd"},"payor":[{"reference":"Organization/3e899f33-84eb-4634-a770-a5a0bd7a80e7"}]},"request":{"method":"PUT","url":"Coverage/c32af1b1-2988-4b3c-b42f-6deb714931b4"}},{"fullUrl":"https://madie.cms.gov/Organization/123456","resource":{"resourceType":"Organization","id":"3e899f33-84eb-4634-a770-a5a0bd7a80e7","meta":{"profile":["http://hl7.org/fhir/us/qicore/StructureDefinition/qicore-organization"]},"identifier":[{"use":"temp","system":"urn:oid:2.16.840.1.113883.4.4","value":"21-3259825"}],"active":true,"type":[{"coding":[{"system":"http://terminology.hl7.org/CodeSystem/organization-type","code":"pay","display":"Payer"}]}],"name":"Blue Cross Blue Shield of Texas","telecom":[{"system":"phone","value":"(+1) 972-766-6900"}],"address":[{"use":"billing","type":"postal","line":["P.O. Box 660044"],"city":"Dallas","state":"TX","postalCode":"75266-0044","country":"USA"}]},"request":{"method":"PUT","url":"Organization/3e899f33-84eb-4634-a770-a5a0bd7a80e7"}},{"fullUrl":"https://madie.cms.gov/Practitioner/practitioner-123456","resource":{"resourceType":"Practitioner","id":"30c3b4f1-dd62-4390-9b2e-542d6950aadf","meta":{"profile":["http://hl7.org/fhir/us/qicore/StructureDefinition/qicore-practitioner"]},"identifier":[{"system":"http://hl7.org/fhir/sid/us-npi","value":"123456"}],"name":[{"family":"Evil","prefix":["Dr"]}]},"request":{"method":"PUT","url":"Practitioner/30c3b4f1-dd62-4390-9b2e-542d6950aadf"}},{"fullUrl":"https://madie.cms.gov/MeasureReport/fb8eb340-239c-4bed-9d9f-169b90441087","resource":{"resourceType":"MeasureReport","id":"fb8eb340-239c-4bed-9d9f-169b90441087","meta":{"profile":["http://hl7.org/fhir/us/cqfmeasures/StructureDefinition/test-case-cqfm"]},"contained":[{"resourceType":"Parameters","id":"52a052c0-46b5-4417-bfbf-d2f3e50dd579-parameters","parameter":[{"name":"subject","valueString":"6924b5e5-412b-4135-b74e-7f400676c8bd"}]}],"extension":[{"url":"http://hl7.org/fhir/us/cqfmeasures/StructureDefinition/cqfm-inputParameters","valueReference":{"reference":"#52a052c0-46b5-4417-bfbf-d2f3e50dd579-parameters"}},{"url":"http://hl7.org/fhir/us/cqfmeasures/StructureDefinition/cqfm-testCaseDescription","valueMarkdown":"Enc last day of MP, age 20, BP 120/79, declined f/u in 2-3 months, fails because 'intent' was a plan, not an order. "}],"modifierExtension":[{"url":"http://hl7.org/fhir/us/cqfmeasures/StructureDefinition/cqfm-isTestCase","valueBoolean":true}],"status":"complete","type":"individual","measure":"https://madie.cms.gov/Measure/PCSBPScreeningFollowUpFHIR","period":{"start":"2025-01-01","end":"2025-12-31"},"group":[{"population":[{"code":{"coding":[{"system":"http://terminology.hl7.org/CodeSystem/measure-population","code":"initial-population","display":"Initial Population"}]},"count":1},{"code":{"coding":[{"system":"http://terminology.hl7.org/CodeSystem/measure-population","code":"denominator","display":"Denominator"}]},"count":1},{"code":{"coding":[{"system":"http://terminology.hl7.org/CodeSystem/measure-population","code":"denominator-exclusion","display":"Denominator Exclusion"}]},"count":0},{"code":{"coding":[{"system":"http://terminology.hl7.org/CodeSystem/measure-population","code":"numerator","display":"Numerator"}]},"count":0},{"code":{"coding":[{"system":"http://terminology.hl7.org/CodeSystem/measure-population","code":"denominator-exception","display":"Denominator Exception"}]},"count":0}]}]},"request":{"method":"PUT","url":"MeasureReport/fb8eb340-239c-4bed-9d9f-169b90441087"}}]}