{"resourceType":"Bundle","id":"tests-c41f9946-cb0f-4489-8367-581a5b876165-bundle","type":"transaction","entry":[{"fullUrl":"https://madie.cms.gov/Patient/c41f9946-cb0f-4489-8367-581a5b876165","resource":{"resourceType":"Patient","id":"c41f9946-cb0f-4489-8367-581a5b876165","meta":{"profile":["http://hl7.org/fhir/us/qicore/StructureDefinition/qicore-patient"]},"extension":[{"url":"http://hl7.org/fhir/us/core/StructureDefinition/us-core-race","extension":[{"url":"ombCategory","valueCoding":{"system":"urn:oid:2.16.840.1.113883.6.238","code":"2054-5","display":"Black or African American","userSelected":true}},{"url":"text","valueString":"Black or African American"}]},{"url":"http://hl7.org/fhir/us/core/StructureDefinition/us-core-ethnicity","extension":[{"url":"ombCategory","valueCoding":{"system":"urn:oid:2.16.840.1.113883.6.238","code":"2135-2","display":"Hispanic or Latino","userSelected":true}},{"url":"text","valueString":"Hispanic or Latino"}]}],"identifier":[{"type":{"coding":[{"system":"http://terminology.hl7.org/CodeSystem/v2-0203","code":"MR"}]},"system":"https://bonnie-fhir.healthit.gov/","value":"62d08d43ab06d8c02b5741d0"}],"name":[{"family":"DENEXCEPPassX2","given":["2HTN130DeclinedLabOthers"]}],"gender":"male","birthDate":"2005-01-31"},"request":{"method":"PUT","url":"Patient/c41f9946-cb0f-4489-8367-581a5b876165"}},{"fullUrl":"https://madie.cms.gov/Encounter/encounter-to-screen-for-blood-pressure-d1ae","resource":{"resourceType":"Encounter","id":"0e478d76-476a-4ee9-97a0-a48341d80afb","meta":{"profile":["http://hl7.org/fhir/us/qicore/StructureDefinition/qicore-encounter"]},"status":"finished","class":{"system":"http://terminology.hl7.org/CodeSystem/v3-ActCode","code":"AMB","display":"ambulatory"},"type":[{"coding":[{"system":"http://snomed.info/sct","version":"2022-03","code":"103705002","display":"Patient status observation (procedure)","userSelected":true}]}],"subject":{"reference":"Patient/c41f9946-cb0f-4489-8367-581a5b876165"},"period":{"start":"2025-01-01T08:00:00.000+00:00","end":"2025-01-01T08:30:00.000+00:00"}},"request":{"method":"PUT","url":"Encounter/0e478d76-476a-4ee9-97a0-a48341d80afb"}},{"fullUrl":"https://madie.cms.gov/Observation/blood-pressure-2a","resource":{"resourceType":"Observation","id":"10f9329e-020e-4225-82f1-03e155481c4f","meta":{"profile":["http://hl7.org/fhir/StructureDefinition/bp"]},"status":"corrected","category":[{"coding":[{"system":"http://terminology.hl7.org/CodeSystem/observation-category","code":"vital-signs","display":"Vital Signs"}],"text":"Vital Signs"}],"code":{"coding":[{"system":"http://loinc.org","code":"85354-9","display":"Blood pressure panel"}]},"subject":{"reference":"Patient/c41f9946-cb0f-4489-8367-581a5b876165"},"effectiveDateTime":"2025-01-01T08:05:00.000Z","component":[{"code":{"coding":[{"system":"http://loinc.org","code":"8480-6","display":"Systolic blood pressure"}]},"valueQuantity":{"value":140,"unit":"mmHg","system":"http://unitsofmeasure.org","code":"mm[Hg]"}},{"code":{"coding":[{"system":"http://loinc.org","code":"8462-4","display":"Diastolic blood pressure"}]},"valueQuantity":{"value":79,"unit":"mmHg","system":"http://unitsofmeasure.org","code":"mm[Hg]"}}]},"request":{"method":"PUT","url":"Observation/10f9329e-020e-4225-82f1-03e155481c4f"}},{"fullUrl":"https://madie.cms.gov/ServiceRequest/weight-reduction-recommended-41ce","resource":{"resourceType":"ServiceRequest","id":"d1fa812e-d272-422e-8946-71e729b549c8","meta":{"profile":["http://hl7.org/fhir/us/qicore/StructureDefinition/qicore-servicenotrequested"]},"extension":[{"url":"http://hl7.org/fhir/us/qicore/StructureDefinition/qicore-doNotPerformReason","valueCodeableConcept":{"coding":[{"system":"http://snomed.info/sct","code":"413311005","display":"Patient non-compliant - declined intervention / support (situation)","userSelected":true}]}}],"status":"completed","intent":"order","doNotPerform":true,"code":{"coding":[{"system":"http://snomed.info/sct","version":"2022-03","code":"1181000175107","display":"Recommendation to lose weight (procedure)","userSelected":true}]},"subject":{"reference":"Patient/c41f9946-cb0f-4489-8367-581a5b876165"},"authoredOn":"2025-01-01T08:05:00.000+00:00"},"request":{"method":"PUT","url":"ServiceRequest/d1fa812e-d272-422e-8946-71e729b549c8"}},{"fullUrl":"https://madie.cms.gov/Encounter/encounter-to-screen-for-blood-pressure-41d1","resource":{"resourceType":"Encounter","id":"ea322e31-e86f-4ba3-bb26-cab49464b0f1","meta":{"profile":["http://hl7.org/fhir/us/qicore/StructureDefinition/qicore-encounter"]},"status":"finished","class":{"system":"http://terminology.hl7.org/CodeSystem/v3-ActCode","code":"AMB","display":"ambulatory"},"type":[{"coding":[{"system":"http://snomed.info/sct","version":"2022-03","code":"103705002","display":"Patient status observation (procedure)","userSelected":true}]}],"subject":{"reference":"Patient/c41f9946-cb0f-4489-8367-581a5b876165"},"period":{"start":"2025-12-31T10:00:00.000+00:00","end":"2025-12-31T10:45:00.000+00:00"}},"request":{"method":"PUT","url":"Encounter/ea322e31-e86f-4ba3-bb26-cab49464b0f1"}},{"fullUrl":"https://madie.cms.gov/Observation/blood-pressure-2b","resource":{"resourceType":"Observation","id":"7cbcee18-ac1f-4e1b-95ca-ebe3d7cd77a3","meta":{"profile":["http://hl7.org/fhir/StructureDefinition/bp"]},"status":"final","category":[{"coding":[{"system":"http://terminology.hl7.org/CodeSystem/observation-category","code":"vital-signs","display":"Vital Signs"}],"text":"Vital Signs"}],"code":{"coding":[{"system":"http://loinc.org","code":"85354-9","display":"Blood pressure panel"}]},"subject":{"reference":"Patient/c41f9946-cb0f-4489-8367-581a5b876165"},"effectiveDateTime":"2025-12-31T10:05:00.000Z","component":[{"code":{"coding":[{"system":"http://loinc.org","code":"8480-6","display":"Systolic blood pressure"}]},"valueQuantity":{"value":140,"unit":"mmHg","system":"http://unitsofmeasure.org","code":"mm[Hg]"}},{"code":{"coding":[{"system":"http://loinc.org","code":"8462-4","display":"Diastolic blood pressure"}]},"valueQuantity":{"value":90,"unit":"mmHg","system":"http://unitsofmeasure.org","code":"mm[Hg]"}}]},"request":{"method":"PUT","url":"Observation/7cbcee18-ac1f-4e1b-95ca-ebe3d7cd77a3"}},{"fullUrl":"https://madie.cms.gov/ServiceRequest/referral-or-counseling-for-alcohol-consumption-41d4","resource":{"resourceType":"ServiceRequest","id":"c8ee9691-c139-4f5a-9aa7-04deeea86873","meta":{"profile":["http://hl7.org/fhir/us/qicore/StructureDefinition/qicore-servicenotrequested"]},"extension":[{"url":"http://hl7.org/fhir/us/qicore/StructureDefinition/qicore-doNotPerformReason","valueCodeableConcept":{"coding":[{"system":"http://snomed.info/sct","code":"105480006","display":"Procedure declined by patient (situation)","userSelected":true}]}}],"status":"completed","intent":"order","doNotPerform":true,"code":{"coding":[{"system":"http://snomed.info/sct","version":"2022-03","code":"20093000","display":"Alcohol rehabilitation and detoxification (regime/therapy)","userSelected":true}]},"subject":{"reference":"Patient/c41f9946-cb0f-4489-8367-581a5b876165"},"authoredOn":"2025-12-31T10:20:00.000+00:00"},"request":{"method":"PUT","url":"ServiceRequest/c8ee9691-c139-4f5a-9aa7-04deeea86873"}},{"fullUrl":"https://madie.cms.gov/MedicationRequest/pharmacologic-therapy-for-hypertension-0d65","resource":{"resourceType":"MedicationRequest","id":"158413e5-4580-491f-8ea0-b1dab4e356ef","meta":{"profile":["http://hl7.org/fhir/us/qicore/StructureDefinition/qicore-mednotrequested"]},"status":"completed","intent":"order","doNotPerform":true,"medicationCodeableConcept":{"coding":[{"system":"http://www.nlm.nih.gov/research/umls/rxnorm","code":"1000001","display":"amlodipine 5 MG / hydrochlorothiazide 25 MG / olmesartan medoxomil 40 MG Oral Tablet","userSelected":true}]},"subject":{"reference":"Patient/c41f9946-cb0f-4489-8367-581a5b876165"},"authoredOn":"2025-12-31T10:20:00.000+00:00","requester":{"reference":"Practitioner/example"},"reasonCode":[{"coding":[{"system":"http://snomed.info/sct","code":"105480006","display":"Procedure declined by patient (situation)"}]}]},"request":{"method":"PUT","url":"MedicationRequest/158413e5-4580-491f-8ea0-b1dab4e356ef"}},{"fullUrl":"https://madie.cms.gov/ServiceRequest/laboratory-tests-for-hypertension-0d66","resource":{"resourceType":"ServiceRequest","id":"cd15266c-c063-4b9c-9f70-e2344ee5b378","meta":{"profile":["http://hl7.org/fhir/us/qicore/StructureDefinition/qicore-servicenotrequested"]},"extension":[{"url":"http://hl7.org/fhir/us/qicore/StructureDefinition/qicore-doNotPerformReason","valueCodeableConcept":{"coding":[{"system":"http://snomed.info/sct","version":"2022-03","code":"413311005","display":"Patient non-compliant - declined intervention / support (situation)","userSelected":true}]}}],"status":"completed","intent":"order","doNotPerform":true,"code":{"coding":[{"system":"http://loinc.org","version":"2.72","code":"24320-4","display":"Basic metabolic 1998 panel - Serum or Plasma","userSelected":true}]},"subject":{"reference":"Patient/c41f9946-cb0f-4489-8367-581a5b876165"},"authoredOn":"2025-12-31T10:02:00.000+00:00"},"request":{"method":"PUT","url":"ServiceRequest/cd15266c-c063-4b9c-9f70-e2344ee5b378"}},{"fullUrl":"https://madie.cms.gov/ServiceRequest/ekg-12-channel-panel-0d67","resource":{"resourceType":"ServiceRequest","id":"88005603-b5ee-4f1e-ab9b-0d34e08f4c26","meta":{"profile":["http://hl7.org/fhir/us/qicore/StructureDefinition/qicore-servicenotrequested"]},"extension":[{"url":"http://hl7.org/fhir/us/qicore/StructureDefinition/qicore-doNotPerformReason","valueCodeableConcept":{"coding":[{"system":"http://snomed.info/sct","version":"2022-03","code":"413311005","display":"Patient non-compliant - declined intervention / support (situation)","userSelected":true}]}}],"status":"completed","intent":"order","doNotPerform":true,"code":{"coding":[{"system":"http://loinc.org","code":"34534-8","display":"EKG 12 channel panel","userSelected":true}]},"subject":{"reference":"Patient/c41f9946-cb0f-4489-8367-581a5b876165"},"authoredOn":"2025-12-31T10:20:00.000+00:00"},"request":{"method":"PUT","url":"ServiceRequest/88005603-b5ee-4f1e-ab9b-0d34e08f4c26"}},{"fullUrl":"https://madie.cms.gov/ServiceRequest/follow-up-4-6-months-finding-0d68","resource":{"resourceType":"ServiceRequest","id":"04d1fe69-ecec-4ce3-985c-ddb0d5914429","meta":{"profile":["http://hl7.org/fhir/us/qicore/StructureDefinition/qicore-servicenotrequested"]},"extension":[{"url":"http://hl7.org/fhir/us/qicore/StructureDefinition/qicore-doNotPerformReason","valueCodeableConcept":{"coding":[{"system":"http://snomed.info/sct","version":"2022-03","code":"413311005","display":"Patient non-compliant - declined intervention / support (situation)","userSelected":true}]}}],"status":"completed","intent":"order","doNotPerform":true,"code":{"coding":[{"system":"http://snomed.info/sct","code":"183625007","display":"Follow-up 4-6 months (finding)","userSelected":true}]},"subject":{"reference":"Patient/c41f9946-cb0f-4489-8367-581a5b876165"},"authoredOn":"2025-12-31T10:20:00.000+00:00"},"request":{"method":"PUT","url":"ServiceRequest/04d1fe69-ecec-4ce3-985c-ddb0d5914429"}},{"fullUrl":"https://madie.cms.gov/Coverage/1","resource":{"resourceType":"Coverage","id":"9a414ea8-2185-42c6-8e6c-ab8c9f02822f","meta":{"profile":["http://hl7.org/fhir/us/qicore/StructureDefinition/qicore-coverage"]},"status":"active","beneficiary":{"reference":"Patient/c41f9946-cb0f-4489-8367-581a5b876165"},"payor":[{"reference":"Organization/f4907415-83c5-4eae-ab0b-cb63a840880d"}]},"request":{"method":"PUT","url":"Coverage/9a414ea8-2185-42c6-8e6c-ab8c9f02822f"}},{"fullUrl":"https://madie.cms.gov/Organization/123456","resource":{"resourceType":"Organization","id":"f4907415-83c5-4eae-ab0b-cb63a840880d","meta":{"profile":["http://hl7.org/fhir/us/qicore/StructureDefinition/qicore-organization"]},"identifier":[{"use":"temp","system":"urn:oid:2.16.840.1.113883.4.4","value":"21-3259825"}],"active":true,"type":[{"coding":[{"system":"http://terminology.hl7.org/CodeSystem/organization-type","code":"pay","display":"Payer"}]}],"name":"Blue Cross Blue Shield of Texas","telecom":[{"system":"phone","value":"(+1) 972-766-6900"}],"address":[{"use":"billing","type":"postal","line":["P.O. Box 660044"],"city":"Dallas","state":"TX","postalCode":"75266-0044","country":"USA"}]},"request":{"method":"PUT","url":"Organization/f4907415-83c5-4eae-ab0b-cb63a840880d"}},{"fullUrl":"https://madie.cms.gov/Practitioner/practitioner-123456","resource":{"resourceType":"Practitioner","id":"96ac0f23-1f95-4eb3-ad90-4017f3de58ae","meta":{"profile":["http://hl7.org/fhir/us/qicore/StructureDefinition/qicore-practitioner"]},"identifier":[{"system":"http://hl7.org/fhir/sid/us-npi","value":"123456"}],"name":[{"family":"Evil","prefix":["Dr"]}]},"request":{"method":"PUT","url":"Practitioner/96ac0f23-1f95-4eb3-ad90-4017f3de58ae"}},{"fullUrl":"https://madie.cms.gov/MeasureReport/44293507-88a1-4f19-8109-6b1152574e2c","resource":{"resourceType":"MeasureReport","id":"44293507-88a1-4f19-8109-6b1152574e2c","meta":{"profile":["http://hl7.org/fhir/us/cqfmeasures/StructureDefinition/test-case-cqfm"]},"contained":[{"resourceType":"Parameters","id":"42186655-6840-4a0c-9ab6-13f78b3a16cc-parameters","parameter":[{"name":"subject","valueString":"c41f9946-cb0f-4489-8367-581a5b876165"}]}],"extension":[{"url":"http://hl7.org/fhir/us/cqfmeasures/StructureDefinition/cqfm-inputParameters","valueReference":{"reference":"#42186655-6840-4a0c-9ab6-13f78b3a16cc-parameters"}},{"url":"http://hl7.org/fhir/us/cqfmeasures/StructureDefinition/cqfm-testCaseDescription","valueMarkdown":"1st enc. 01/01 0800-0830 during MP 140/79 (corrected), declined recommendation to lose weight.\n2nd enc. 12/31 1000-1045 during MP 140/90, declined EKG, medication, detox, "}],"modifierExtension":[{"url":"http://hl7.org/fhir/us/cqfmeasures/StructureDefinition/cqfm-isTestCase","valueBoolean":true}],"status":"complete","type":"individual","measure":"https://madie.cms.gov/Measure/PCSBPScreeningFollowUpFHIR","period":{"start":"2025-01-01","end":"2025-12-31"},"group":[{"population":[{"code":{"coding":[{"system":"http://terminology.hl7.org/CodeSystem/measure-population","code":"initial-population","display":"Initial Population"}]},"count":2},{"code":{"coding":[{"system":"http://terminology.hl7.org/CodeSystem/measure-population","code":"denominator","display":"Denominator"}]},"count":2},{"code":{"coding":[{"system":"http://terminology.hl7.org/CodeSystem/measure-population","code":"denominator-exclusion","display":"Denominator Exclusion"}]},"count":0},{"code":{"coding":[{"system":"http://terminology.hl7.org/CodeSystem/measure-population","code":"numerator","display":"Numerator"}]},"count":0},{"code":{"coding":[{"system":"http://terminology.hl7.org/CodeSystem/measure-population","code":"denominator-exception","display":"Denominator Exception"}]},"count":2}]}]},"request":{"method":"PUT","url":"MeasureReport/44293507-88a1-4f19-8109-6b1152574e2c"}}]}