{"resourceType":"Bundle","id":"tests-8b62d275-3bc3-4d2a-b307-4b5287e86687-bundle","type":"transaction","entry":[{"fullUrl":"https://madie.cms.gov/Patient/8b62d275-3bc3-4d2a-b307-4b5287e86687","resource":{"resourceType":"Patient","id":"8b62d275-3bc3-4d2a-b307-4b5287e86687","meta":{"profile":["http://hl7.org/fhir/us/qicore/StructureDefinition/qicore-patient"]},"extension":[{"url":"http://hl7.org/fhir/us/core/StructureDefinition/us-core-race","extension":[{"url":"ombCategory","valueCoding":{"system":"urn:oid:2.16.840.1.113883.6.238","code":"2106-3","display":"White","userSelected":true}},{"url":"text","valueString":"White"}]},{"url":"http://hl7.org/fhir/us/core/StructureDefinition/us-core-ethnicity","extension":[{"url":"ombCategory","valueCoding":{"system":"urn:oid:2.16.840.1.113883.6.238","code":"2186-5","display":"Not Hispanic or Latino","userSelected":true}},{"url":"text","valueString":"Not Hispanic or Latino"}]}],"identifier":[{"type":{"coding":[{"system":"http://terminology.hl7.org/CodeSystem/v2-0203","code":"MR"}]},"system":"https://bonnie-fhir.healthit.gov/","value":"62d73464c22c612899b40d69"}],"name":[{"family":"NUMERPass","given":["ElevatedBP2to3Mo"]}],"gender":"male","birthDate":"2004-12-31"},"request":{"method":"PUT","url":"Patient/8b62d275-3bc3-4d2a-b307-4b5287e86687"}},{"fullUrl":"https://madie.cms.gov/Encounter/encounter-to-screen-for-blood-pressure-d1ae","resource":{"resourceType":"Encounter","id":"468b2ce7-3ae4-4bfd-adaa-21959dc2190b","meta":{"profile":["http://hl7.org/fhir/us/qicore/StructureDefinition/qicore-encounter"]},"status":"finished","class":{"system":"http://terminology.hl7.org/CodeSystem/v3-ActCode","code":"AMB","display":"ambulatory"},"type":[{"coding":[{"system":"http://snomed.info/sct","version":"2022-03","code":"103705002","display":"Patient status observation (procedure)","userSelected":true}]}],"subject":{"reference":"Patient/8b62d275-3bc3-4d2a-b307-4b5287e86687"},"period":{"start":"2025-01-01T08:00:00.000+00:00","end":"2025-01-01T08:30:00.000+00:00"}},"request":{"method":"PUT","url":"Encounter/468b2ce7-3ae4-4bfd-adaa-21959dc2190b"}},{"fullUrl":"https://madie.cms.gov/Observation/blood-pressure-d1af","resource":{"resourceType":"Observation","id":"48f1f7f5-22be-4e39-b15f-fb763b62d9c0","meta":{"profile":["http://hl7.org/fhir/StructureDefinition/bp"]},"status":"final","category":[{"coding":[{"system":"http://terminology.hl7.org/CodeSystem/observation-category","code":"vital-signs","display":"Vital Signs"}],"text":"Vital Signs"}],"code":{"coding":[{"system":"http://loinc.org","code":"85354-9","display":"Blood pressure panel"}]},"subject":{"reference":"Patient/8b62d275-3bc3-4d2a-b307-4b5287e86687"},"effectiveDateTime":"2025-01-01T08:05:00.000Z","component":[{"code":{"coding":[{"system":"http://loinc.org","code":"8480-6","display":"Systolic blood pressure"}]},"valueQuantity":{"value":120,"unit":"mmHg","system":"http://unitsofmeasure.org","code":"mm[Hg]"}},{"code":{"coding":[{"system":"http://loinc.org","code":"8462-4","display":"Diastolic blood pressure"}]},"valueQuantity":{"value":79,"unit":"mmHg","system":"http://unitsofmeasure.org","code":"mm[Hg]"}}]},"request":{"method":"PUT","url":"Observation/48f1f7f5-22be-4e39-b15f-fb763b62d9c0"}},{"fullUrl":"https://madie.cms.gov/ServiceRequest/follow-up-2-3-months-finding-0d6a","resource":{"resourceType":"ServiceRequest","id":"9a55badf-8f3b-4f78-93a4-e9acc139bf35","meta":{"profile":["http://hl7.org/fhir/us/qicore/StructureDefinition/qicore-servicerequest"]},"status":"active","intent":"order","code":{"coding":[{"system":"http://snomed.info/sct","code":"183624006","display":"Follow-up 2-3 months (finding)","userSelected":true}]},"subject":{"reference":"Patient/8b62d275-3bc3-4d2a-b307-4b5287e86687"},"authoredOn":"2025-01-01T08:25:00.000+00:00"},"request":{"method":"PUT","url":"ServiceRequest/9a55badf-8f3b-4f78-93a4-e9acc139bf35"}},{"fullUrl":"https://madie.cms.gov/ServiceRequest/recommendation-to-increase-physical-activity-0d6b","resource":{"resourceType":"ServiceRequest","id":"7c989ef7-f240-4448-aae5-5598cf38c916","meta":{"profile":["http://hl7.org/fhir/us/qicore/StructureDefinition/qicore-servicerequest"]},"status":"active","intent":"order","code":{"coding":[{"system":"http://snomed.info/sct","version":"2022-03","code":"281090004","display":"Recommendation to exercise (procedure)","userSelected":true}]},"subject":{"reference":"Patient/8b62d275-3bc3-4d2a-b307-4b5287e86687"},"authoredOn":"2025-01-01T08:25:00.000+00:00"},"request":{"method":"PUT","url":"ServiceRequest/7c989ef7-f240-4448-aae5-5598cf38c916"}},{"fullUrl":"https://madie.cms.gov/Coverage/1","resource":{"resourceType":"Coverage","id":"ea5daea9-4b49-4484-9b6a-d520ab686119","meta":{"profile":["http://hl7.org/fhir/us/qicore/StructureDefinition/qicore-coverage"]},"status":"active","beneficiary":{"reference":"Patient/8b62d275-3bc3-4d2a-b307-4b5287e86687"},"payor":[{"reference":"Organization/5ad6ea38-07e9-4482-9e1b-c09eee595be9"}]},"request":{"method":"PUT","url":"Coverage/ea5daea9-4b49-4484-9b6a-d520ab686119"}},{"fullUrl":"https://madie.cms.gov/Organization/123456","resource":{"resourceType":"Organization","id":"5ad6ea38-07e9-4482-9e1b-c09eee595be9","meta":{"profile":["http://hl7.org/fhir/us/qicore/StructureDefinition/qicore-organization"]},"identifier":[{"use":"temp","system":"urn:oid:2.16.840.1.113883.4.4","value":"21-3259825"}],"active":true,"type":[{"coding":[{"system":"http://terminology.hl7.org/CodeSystem/organization-type","code":"pay","display":"Payer"}]}],"name":"Blue Cross Blue Shield of Texas","telecom":[{"system":"phone","value":"(+1) 972-766-6900"}],"address":[{"use":"billing","type":"postal","line":["P.O. Box 660044"],"city":"Dallas","state":"TX","postalCode":"75266-0044","country":"USA"}]},"request":{"method":"PUT","url":"Organization/5ad6ea38-07e9-4482-9e1b-c09eee595be9"}},{"fullUrl":"https://madie.cms.gov/MeasureReport/58ab8f49-f845-4f05-a09d-542c4e58a3af","resource":{"resourceType":"MeasureReport","id":"58ab8f49-f845-4f05-a09d-542c4e58a3af","meta":{"profile":["http://hl7.org/fhir/us/cqfmeasures/StructureDefinition/test-case-cqfm"]},"contained":[{"resourceType":"Parameters","id":"3e4c9bec-b36e-4058-a387-8cf2bd73bbdc-parameters","parameter":[{"name":"subject","valueString":"8b62d275-3bc3-4d2a-b307-4b5287e86687"}]}],"extension":[{"url":"http://hl7.org/fhir/us/cqfmeasures/StructureDefinition/cqfm-inputParameters","valueReference":{"reference":"#3e4c9bec-b36e-4058-a387-8cf2bd73bbdc-parameters"}},{"url":"http://hl7.org/fhir/us/cqfmeasures/StructureDefinition/cqfm-testCaseDescription","valueMarkdown":"Age 18 one day before encounter which was the first day of the MP, Elevated 01/01 @0800 -0830; BP  120/79 return visit in 2 -3 months for review. "}],"modifierExtension":[{"url":"http://hl7.org/fhir/us/cqfmeasures/StructureDefinition/cqfm-isTestCase","valueBoolean":true}],"status":"complete","type":"individual","measure":"https://madie.cms.gov/Measure/PCSBPScreeningFollowUpFHIR","period":{"start":"2025-01-01","end":"2025-12-31"},"group":[{"population":[{"code":{"coding":[{"system":"http://terminology.hl7.org/CodeSystem/measure-population","code":"initial-population","display":"Initial Population"}]},"count":1},{"code":{"coding":[{"system":"http://terminology.hl7.org/CodeSystem/measure-population","code":"denominator","display":"Denominator"}]},"count":1},{"code":{"coding":[{"system":"http://terminology.hl7.org/CodeSystem/measure-population","code":"denominator-exclusion","display":"Denominator Exclusion"}]},"count":0},{"code":{"coding":[{"system":"http://terminology.hl7.org/CodeSystem/measure-population","code":"numerator","display":"Numerator"}]},"count":1},{"code":{"coding":[{"system":"http://terminology.hl7.org/CodeSystem/measure-population","code":"denominator-exception","display":"Denominator Exception"}]},"count":0}]}]},"request":{"method":"PUT","url":"MeasureReport/58ab8f49-f845-4f05-a09d-542c4e58a3af"}}]}