{"resourceType":"Bundle","id":"tests-61e522ed-d51b-4398-bb65-6cf7fefe179f-bundle","type":"transaction","entry":[{"fullUrl":"https://madie.cms.gov/Patient/61e522ed-d51b-4398-bb65-6cf7fefe179f","resource":{"resourceType":"Patient","id":"61e522ed-d51b-4398-bb65-6cf7fefe179f","meta":{"profile":["http://hl7.org/fhir/us/qicore/StructureDefinition/qicore-patient"]},"text":{"status":"generated","div":"<div xmlns=\"http://www.w3.org/1999/xhtml\"><div class=\"hapiHeaderText\">PtRef_MO_Riv_DayOfAnes_ProcRvltDT <b>NUMERPASS </b></div><table class=\"hapiPropertyTable\"><tbody><tr><td>Identifier</td><td>bec2580a47ed4bf7691b191e0654b2de</td></tr><tr><td>Date of birth</td><td><span>02 January 1974</span></td></tr></tbody></table></div>"},"extension":[{"url":"http://hl7.org/fhir/us/core/StructureDefinition/us-core-race","extension":[{"url":"ombCategory","valueCoding":{"system":"urn:oid:2.16.840.1.113883.6.238","code":"1002-5","display":"American Indian or Alaska Native","userSelected":true}},{"url":"text","valueString":"American Indian or Alaska Native"}]},{"url":"http://hl7.org/fhir/us/core/StructureDefinition/us-core-ethnicity","extension":[{"url":"ombCategory","valueCoding":{"system":"urn:oid:2.16.840.1.113883.6.238","code":"2135-2","display":"Hispanic or Latino","userSelected":true}},{"url":"text","valueString":"Hispanic or Latino"}]}],"identifier":[{"type":{"coding":[{"system":"http://terminology.hl7.org/CodeSystem/v2-0203","code":"MR"}]},"system":"https://bonnie-fhir.healthit.gov/","value":"612e6b2e02c62a011f2ecc81"}],"active":true,"name":[{"use":"usual","family":"NUMERPass","given":["PtRef_MO_Riv_DayOfAnes_ProcRvltDT"]}],"gender":"male","birthDate":"1975-01-02"},"request":{"method":"PUT","url":"Patient/61e522ed-d51b-4398-bb65-6cf7fefe179f"}},{"fullUrl":"https://madie.cms.gov/Encounter/f6a83c77-be40-4948-bda1-521991a23516","resource":{"resourceType":"Encounter","id":"f6a83c77-be40-4948-bda1-521991a23516","meta":{"profile":["http://hl7.org/fhir/us/qicore/StructureDefinition/qicore-encounter"]},"status":"finished","class":{"system":"http://terminology.hl7.org/CodeSystem/v3-ActCode","code":"IMP","display":"inpatient encounter"},"type":[{"coding":[{"system":"http://snomed.info/sct","code":"8715000"}]}],"subject":{"reference":"Patient/61e522ed-d51b-4398-bb65-6cf7fefe179f"},"period":{"start":"2026-11-01T08:00:00+00:00","end":"2026-11-26T08:15:00+00:00"},"length":{"value":25,"unit":"days"}},"request":{"method":"PUT","url":"Encounter/f6a83c77-be40-4948-bda1-521991a23516"}},{"fullUrl":"https://madie.cms.gov/Coverage/7f4fc7f3-d207-446b-84ea-6078accd675f","resource":{"resourceType":"Coverage","id":"7f4fc7f3-d207-446b-84ea-6078accd675f","status":"active","beneficiary":{"reference":"Patient/61e522ed-d51b-4398-bb65-6cf7fefe179f"},"period":{"start":"1975-01-02T08:00:00+00:00"},"payor":[{"reference":"Organization/18ca435c-cae6-4c34-8033-af717477f9fc"}]},"request":{"method":"PUT","url":"Coverage/7f4fc7f3-d207-446b-84ea-6078accd675f"}},{"fullUrl":"https://madie.cms.gov/MedicationRequest/253637f6-6e67-49f3-bee8-5420e3270bb0","resource":{"resourceType":"MedicationRequest","id":"253637f6-6e67-49f3-bee8-5420e3270bb0","meta":{"profile":["http://hl7.org/fhir/us/qicore/StructureDefinition/qicore-mednotrequested"]},"status":"completed","intent":"order","category":[{"coding":[{"system":"http://terminology.hl7.org/CodeSystem/medicationrequest-category","code":"community"}]}],"doNotPerform":true,"medicationCodeableConcept":{"coding":[{"system":"http://www.nlm.nih.gov/research/umls/rxnorm","code":"1114198"}]},"subject":{"reference":"Patient/61e522ed-d51b-4398-bb65-6cf7fefe179f"},"authoredOn":"2026-11-01T07:00:00+00:00","requester":{"reference":"Practitioner/123456"},"reasonCode":[{"coding":[{"system":"http://snomed.info/sct","code":"443390004","display":"Refusal of treatment by patient (situation)","userSelected":true}]}],"dosageInstruction":[{"timing":{"repeat":{"boundsPeriod":{"start":"2026-11-03T09:00:00+00:00"}}}}]},"request":{"method":"PUT","url":"MedicationRequest/253637f6-6e67-49f3-bee8-5420e3270bb0"}},{"fullUrl":"https://madie.cms.gov/Procedure/da8f6f52-4752-4d9d-bf05-2eb32a4da697","resource":{"resourceType":"Procedure","id":"da8f6f52-4752-4d9d-bf05-2eb32a4da697","meta":{"profile":["http://hl7.org/fhir/us/qicore/StructureDefinition/qicore-procedure"]},"extension":[{"url":"http://hl7.org/fhir/us/qicore/StructureDefinition/qicore-recorded","valueDateTime":"2013-11-19T09:35:00-04:00"}],"status":"completed","code":{"coding":[{"system":"http://snomed.info/sct","code":"18946005"}]},"subject":{"reference":"Patient/61e522ed-d51b-4398-bb65-6cf7fefe179f"},"performedDateTime":"2026-11-02T09:15:00.000+00:00"},"request":{"method":"PUT","url":"Procedure/da8f6f52-4752-4d9d-bf05-2eb32a4da697"}},{"fullUrl":"https://madie.cms.gov/Organization/ddb7a35c-7d82-4135-896d-04b7baaacac7","resource":{"resourceType":"Organization","id":"18ca435c-cae6-4c34-8033-af717477f9fc","meta":{"profile":["http://hl7.org/fhir/us/qicore/StructureDefinition/qicore-organization"]},"identifier":[{"use":"temp","system":"urn:oid:2.16.840.1.113883.4.4","value":"21-3259825"}],"active":true,"type":[{"coding":[{"system":"http://terminology.hl7.org/CodeSystem/organization-type","code":"pay","display":"Payer"}]}],"name":"Blue Cross Blue Shield of Texas","telecom":[{"system":"phone","value":"(+1) 972-766-6900"}],"address":[{"use":"billing","type":"postal","line":["P.O. Box 660044"],"city":"Dallas","state":"TX","postalCode":"75266-0044","country":"USA"}]},"request":{"method":"PUT","url":"Organization/18ca435c-cae6-4c34-8033-af717477f9fc"}},{"fullUrl":"https://madie.cms.gov/Practitioner/e71a7b91-05b5-438c-8684-87fec0fb6858","resource":{"resourceType":"Practitioner","id":"e71a7b91-05b5-438c-8684-87fec0fb6858","identifier":[{"system":"http://hl7.org/fhir/sid/us-npi","value":"123456"}],"name":[{"family":"Evil","prefix":["Dr"]}]},"request":{"method":"PUT","url":"Practitioner/e71a7b91-05b5-438c-8684-87fec0fb6858"}},{"fullUrl":"https://madie.cms.gov/MeasureReport/295eb543-7adf-4b35-9ef8-20c980e6b903","resource":{"resourceType":"MeasureReport","id":"295eb543-7adf-4b35-9ef8-20c980e6b903","meta":{"profile":["http://hl7.org/fhir/us/cqfmeasures/StructureDefinition/test-case-cqfm"]},"contained":[{"resourceType":"Parameters","id":"3a884db9-7fda-43ec-ad8d-b40dd2834b45-parameters","parameter":[{"name":"subject","valueString":"61e522ed-d51b-4398-bb65-6cf7fefe179f"}]}],"extension":[{"url":"http://hl7.org/fhir/us/cqfmeasures/StructureDefinition/cqfm-inputParameters","valueReference":{"reference":"#3a884db9-7fda-43ec-ad8d-b40dd2834b45-parameters"}},{"url":"http://hl7.org/fhir/us/cqfmeasures/StructureDefinition/cqfm-testCaseDescription","valueMarkdown":"Rivaroxaban refused <= 1 day after end of anesthesia as revelant Datetime\n"}],"modifierExtension":[{"url":"http://hl7.org/fhir/us/cqfmeasures/StructureDefinition/cqfm-isTestCase","valueBoolean":true}],"status":"complete","type":"individual","measure":"https://madie.cms.gov/Measure/CMS108VTEProphylaxisFHIR","period":{"start":"2026-01-01","end":"2026-12-31"},"group":[{"population":[{"code":{"coding":[{"system":"http://terminology.hl7.org/CodeSystem/measure-population","code":"initial-population","display":"Initial Population"}]},"count":1},{"code":{"coding":[{"system":"http://terminology.hl7.org/CodeSystem/measure-population","code":"denominator","display":"Denominator"}]},"count":1},{"code":{"coding":[{"system":"http://terminology.hl7.org/CodeSystem/measure-population","code":"denominator-exclusion","display":"Denominator Exclusion"}]},"count":0},{"code":{"coding":[{"system":"http://terminology.hl7.org/CodeSystem/measure-population","code":"numerator","display":"Numerator"}]},"count":1}]}]},"request":{"method":"PUT","url":"MeasureReport/295eb543-7adf-4b35-9ef8-20c980e6b903"}}]}