{"resourceType":"Bundle","id":"tests-ee7d6d89-bc00-4a58-ada5-8ee8c867ec74-bundle","type":"transaction","entry":[{"fullUrl":"https://madie.cms.gov/Patient/ee7d6d89-bc00-4a58-ada5-8ee8c867ec74","resource":{"resourceType":"Patient","id":"ee7d6d89-bc00-4a58-ada5-8ee8c867ec74","meta":{"profile":["http://hl7.org/fhir/us/qicore/StructureDefinition/qicore-patient"]},"text":{"status":"generated","div":"<div xmlns=\"http://www.w3.org/1999/xhtml\"><div class=\"hapiHeaderText\">PtRef_DO_GCS_1DayAFAnes <b>NUMERPASS </b></div><table class=\"hapiPropertyTable\"><tbody><tr><td>Identifier</td><td>24fc1ce85ce14557dd4d9eba17df9f17</td></tr><tr><td>Date of birth</td><td><span>02 January 1974</span></td></tr></tbody></table></div>"},"extension":[{"url":"http://hl7.org/fhir/us/core/StructureDefinition/us-core-race","extension":[{"url":"ombCategory","valueCoding":{"system":"urn:oid:2.16.840.1.113883.6.238","code":"1002-5","display":"American Indian or Alaska Native","userSelected":true}},{"url":"text","valueString":"American Indian or Alaska Native"}]},{"url":"http://hl7.org/fhir/us/core/StructureDefinition/us-core-ethnicity","extension":[{"url":"ombCategory","valueCoding":{"system":"urn:oid:2.16.840.1.113883.6.238","code":"2135-2","display":"Hispanic or Latino","userSelected":true}},{"url":"text","valueString":"Hispanic or Latino"}]}],"identifier":[{"type":{"coding":[{"system":"http://terminology.hl7.org/CodeSystem/v2-0203","code":"MR"}]},"system":"https://bonnie-fhir.healthit.gov/","value":"612e6a7002c62a011f2ea15f"}],"active":true,"name":[{"use":"usual","family":"NUMERPass","given":["PtRef_DO_GCS_1DayAFAnes"]}],"gender":"male","birthDate":"1975-01-02"},"request":{"method":"PUT","url":"Patient/ee7d6d89-bc00-4a58-ada5-8ee8c867ec74"}},{"fullUrl":"https://madie.cms.gov/Encounter/1dab86ac-07ad-45eb-a8e2-117848036307","resource":{"resourceType":"Encounter","id":"1dab86ac-07ad-45eb-a8e2-117848036307","meta":{"profile":["http://hl7.org/fhir/us/qicore/StructureDefinition/qicore-encounter"]},"status":"finished","class":{"system":"http://terminology.hl7.org/CodeSystem/v3-ActCode","code":"IMP","display":"inpatient encounter"},"type":[{"coding":[{"system":"http://snomed.info/sct","code":"8715000"}]}],"subject":{"reference":"Patient/ee7d6d89-bc00-4a58-ada5-8ee8c867ec74"},"period":{"start":"2026-11-01T08:00:00+00:00","end":"2026-11-26T08:15:00+00:00"},"length":{"value":25,"unit":"days"}},"request":{"method":"PUT","url":"Encounter/1dab86ac-07ad-45eb-a8e2-117848036307"}},{"fullUrl":"https://madie.cms.gov/Coverage/a13a3a3b-0098-48de-a8fd-e71ff53c3c16","resource":{"resourceType":"Coverage","id":"a13a3a3b-0098-48de-a8fd-e71ff53c3c16","status":"active","beneficiary":{"reference":"Patient/ee7d6d89-bc00-4a58-ada5-8ee8c867ec74"},"period":{"start":"1975-01-02T08:00:00+00:00"},"payor":[{"reference":"Organization/5ad6ea38-07e9-4482-9e1b-c09eee595be9"}]},"request":{"method":"PUT","url":"Coverage/a13a3a3b-0098-48de-a8fd-e71ff53c3c16"}},{"fullUrl":"https://madie.cms.gov/Procedure/dba46698-68cb-4fdc-aa52-59a4bc93ca7a","resource":{"resourceType":"Procedure","id":"dba46698-68cb-4fdc-aa52-59a4bc93ca7a","meta":{"profile":["http://hl7.org/fhir/us/qicore/StructureDefinition/qicore-procedure"]},"extension":[{"url":"http://hl7.org/fhir/us/qicore/StructureDefinition/qicore-recorded","valueDateTime":"2013-11-03T09:35:00-04:00"}],"status":"completed","code":{"coding":[{"system":"http://snomed.info/sct","code":"18946005"}]},"subject":{"reference":"Patient/ee7d6d89-bc00-4a58-ada5-8ee8c867ec74"},"performedPeriod":{"start":"2026-11-02T09:00:00+00:00","end":"2026-11-02T09:15:00+00:00"}},"request":{"method":"PUT","url":"Procedure/dba46698-68cb-4fdc-aa52-59a4bc93ca7a"}},{"fullUrl":"https://madie.cms.gov/ServiceRequest/22f69c20-1c93-464d-8bf4-e0e7defc3869","resource":{"resourceType":"ServiceRequest","id":"22f69c20-1c93-464d-8bf4-e0e7defc3869","meta":{"profile":["http://hl7.org/fhir/us/qicore/StructureDefinition/qicore-servicenotrequested"]},"extension":[{"url":"http://hl7.org/fhir/us/qicore/StructureDefinition/qicore-doNotPerformReason","valueCodeableConcept":{"coding":[{"system":"http://snomed.info/sct","code":"443390004","display":"Refusal of treatment by patient (situation)"}]}}],"status":"completed","intent":"order","doNotPerform":true,"code":{"coding":[{"system":"http://snomed.info/sct","version":"2025-03","code":"348681001","display":"Graduated compression elastic hosiery (physical object)","userSelected":true}]},"subject":{"reference":"Patient/ee7d6d89-bc00-4a58-ada5-8ee8c867ec74"},"authoredOn":"2026-11-03T11:00:00.000+00:00"},"request":{"method":"PUT","url":"ServiceRequest/22f69c20-1c93-464d-8bf4-e0e7defc3869"}},{"fullUrl":"https://madie.cms.gov/Organization/804e4620-4712-4f6a-bce1-275039ee4074","resource":{"resourceType":"Organization","id":"5ad6ea38-07e9-4482-9e1b-c09eee595be9","meta":{"profile":["http://hl7.org/fhir/us/qicore/StructureDefinition/qicore-organization"]},"identifier":[{"use":"temp","system":"urn:oid:2.16.840.1.113883.4.4","value":"21-3259825"}],"active":true,"type":[{"coding":[{"system":"http://terminology.hl7.org/CodeSystem/organization-type","code":"pay","display":"Payer"}]}],"name":"Blue Cross Blue Shield of Texas","telecom":[{"system":"phone","value":"(+1) 972-766-6900"}],"address":[{"use":"billing","type":"postal","line":["P.O. Box 660044"],"city":"Dallas","state":"TX","postalCode":"75266-0044","country":"USA"}]},"request":{"method":"PUT","url":"Organization/5ad6ea38-07e9-4482-9e1b-c09eee595be9"}},{"fullUrl":"https://madie.cms.gov/Practitioner/12f60eb2-bd9b-4067-9c09-0de3a3b2b914","resource":{"resourceType":"Practitioner","id":"12f60eb2-bd9b-4067-9c09-0de3a3b2b914","identifier":[{"system":"http://hl7.org/fhir/sid/us-npi","value":"123456"}],"name":[{"family":"Evil","prefix":["Dr"]}]},"request":{"method":"PUT","url":"Practitioner/12f60eb2-bd9b-4067-9c09-0de3a3b2b914"}},{"fullUrl":"https://madie.cms.gov/MeasureReport/6ae4f419-40e8-4126-bc6b-8234d7c5f7a1","resource":{"resourceType":"MeasureReport","id":"6ae4f419-40e8-4126-bc6b-8234d7c5f7a1","meta":{"profile":["http://hl7.org/fhir/us/cqfmeasures/StructureDefinition/test-case-cqfm"]},"contained":[{"resourceType":"Parameters","id":"bb37ad02-2fb6-4062-af9c-dfb8f53c1a85-parameters","parameter":[{"name":"subject","valueString":"ee7d6d89-bc00-4a58-ada5-8ee8c867ec74"}]}],"extension":[{"url":"http://hl7.org/fhir/us/cqfmeasures/StructureDefinition/cqfm-inputParameters","valueReference":{"reference":"#bb37ad02-2fb6-4062-af9c-dfb8f53c1a85-parameters"}},{"url":"http://hl7.org/fhir/us/cqfmeasures/StructureDefinition/cqfm-testCaseDescription","valueMarkdown":"GCS refused = 1 day after end of anesthesia;\n"}],"modifierExtension":[{"url":"http://hl7.org/fhir/us/cqfmeasures/StructureDefinition/cqfm-isTestCase","valueBoolean":true}],"status":"complete","type":"individual","measure":"https://madie.cms.gov/Measure/CMS108VTEProphylaxisFHIR","period":{"start":"2026-01-01","end":"2026-12-31"},"group":[{"population":[{"code":{"coding":[{"system":"http://terminology.hl7.org/CodeSystem/measure-population","code":"initial-population","display":"Initial Population"}]},"count":1},{"code":{"coding":[{"system":"http://terminology.hl7.org/CodeSystem/measure-population","code":"denominator","display":"Denominator"}]},"count":1},{"code":{"coding":[{"system":"http://terminology.hl7.org/CodeSystem/measure-population","code":"denominator-exclusion","display":"Denominator Exclusion"}]},"count":0},{"code":{"coding":[{"system":"http://terminology.hl7.org/CodeSystem/measure-population","code":"numerator","display":"Numerator"}]},"count":1}]}]},"request":{"method":"PUT","url":"MeasureReport/6ae4f419-40e8-4126-bc6b-8234d7c5f7a1"}}]}