{"resourceType":"Bundle","id":"tests-4df4e9bf-dff3-448c-a6f1-6415d8ebb8a6-bundle","type":"transaction","entry":[{"fullUrl":"https://madie.cms.gov/Patient/4df4e9bf-dff3-448c-a6f1-6415d8ebb8a6","resource":{"resourceType":"Patient","id":"4df4e9bf-dff3-448c-a6f1-6415d8ebb8a6","meta":{"profile":["http://hl7.org/fhir/us/qicore/StructureDefinition/qicore-patient"]},"text":{"status":"generated","div":"<div xmlns=\"http://www.w3.org/1999/xhtml\"><div class=\"hapiHeaderText\">MA_Glyco_IPEnc_MedAdmRvltDT <b>NUMERPASS </b></div><table class=\"hapiPropertyTable\"><tbody><tr><td>Identifier</td><td>f3f0e593658312f8c4ef6efb1bb1d75a</td></tr><tr><td>Date of birth</td><td><span>02 January 1974</span></td></tr></tbody></table></div>"},"extension":[{"url":"http://hl7.org/fhir/us/core/StructureDefinition/us-core-race","extension":[{"url":"ombCategory","valueCoding":{"system":"urn:oid:2.16.840.1.113883.6.238","code":"1002-5","display":"American Indian or Alaska Native","userSelected":true}},{"url":"text","valueString":"American Indian or Alaska Native"}]},{"url":"http://hl7.org/fhir/us/core/StructureDefinition/us-core-ethnicity","extension":[{"url":"ombCategory","valueCoding":{"system":"urn:oid:2.16.840.1.113883.6.238","code":"2135-2","display":"Hispanic or Latino","userSelected":true}},{"url":"text","valueString":"Hispanic or Latino"}]}],"identifier":[{"type":{"coding":[{"system":"http://terminology.hl7.org/CodeSystem/v2-0203","code":"MR"}]},"system":"https://bonnie-fhir.healthit.gov/","value":"612e6a6a02c62a011f2ea049"}],"active":true,"name":[{"use":"usual","family":"NUMERPass","given":["MA_Glyco_IPEnc_MedAdmRvltDT"]}],"gender":"male","birthDate":"1975-01-02"},"request":{"method":"PUT","url":"Patient/4df4e9bf-dff3-448c-a6f1-6415d8ebb8a6"}},{"fullUrl":"https://madie.cms.gov/Encounter/6223a426-3afe-4a1d-a1e0-c65295f95f74","resource":{"resourceType":"Encounter","id":"6223a426-3afe-4a1d-a1e0-c65295f95f74","meta":{"profile":["http://hl7.org/fhir/us/qicore/StructureDefinition/qicore-encounter"]},"status":"finished","class":{"system":"http://terminology.hl7.org/CodeSystem/v3-ActCode","code":"IMP","display":"inpatient encounter"},"type":[{"coding":[{"system":"http://snomed.info/sct","code":"8715000"}]}],"subject":{"reference":"Patient/4df4e9bf-dff3-448c-a6f1-6415d8ebb8a6"},"period":{"start":"2026-11-01T08:00:00+00:00","end":"2026-11-26T08:15:00+00:00"},"length":{"value":25.0,"unit":"days"}},"request":{"method":"PUT","url":"Encounter/6223a426-3afe-4a1d-a1e0-c65295f95f74"}},{"fullUrl":"https://madie.cms.gov/Coverage/79537b19-153f-4ade-8643-14c5d2a1f0e4","resource":{"resourceType":"Coverage","id":"79537b19-153f-4ade-8643-14c5d2a1f0e4","status":"active","beneficiary":{"reference":"Patient/4df4e9bf-dff3-448c-a6f1-6415d8ebb8a6"},"period":{"start":"1975-01-02T08:00:00+00:00"},"payor":[{"reference":"Organization/5ad6ea38-07e9-4482-9e1b-c09eee595be9"}]},"request":{"method":"PUT","url":"Coverage/79537b19-153f-4ade-8643-14c5d2a1f0e4"}},{"fullUrl":"https://madie.cms.gov/MedicationAdministration/d03bac37-efa2-4fce-9fa2-9e9a4c003f56","resource":{"resourceType":"MedicationAdministration","id":"d03bac37-efa2-4fce-9fa2-9e9a4c003f56","meta":{"profile":["http://hl7.org/fhir/us/qicore/StructureDefinition/qicore-medicationadministration"]},"status":"completed","medicationCodeableConcept":{"coding":[{"system":"http://www.nlm.nih.gov/research/umls/rxnorm","code":"200349"}]},"subject":{"reference":"Patient/4df4e9bf-dff3-448c-a6f1-6415d8ebb8a6"},"effectiveDateTime":"2026-11-01T09:00:00+00:00"},"request":{"method":"PUT","url":"MedicationAdministration/d03bac37-efa2-4fce-9fa2-9e9a4c003f56"}},{"fullUrl":"https://madie.cms.gov/Organization/47eebb9a-5685-4099-ba4d-d06254bab797","resource":{"resourceType":"Organization","id":"5ad6ea38-07e9-4482-9e1b-c09eee595be9","meta":{"profile":["http://hl7.org/fhir/us/qicore/StructureDefinition/qicore-organization"]},"identifier":[{"use":"temp","system":"urn:oid:2.16.840.1.113883.4.4","value":"21-3259825"}],"active":true,"type":[{"coding":[{"system":"http://terminology.hl7.org/CodeSystem/organization-type","code":"pay","display":"Payer"}]}],"name":"Blue Cross Blue Shield of Texas","telecom":[{"system":"phone","value":"(+1) 972-766-6900"}],"address":[{"use":"billing","type":"postal","line":["P.O. Box 660044"],"city":"Dallas","state":"TX","postalCode":"75266-0044","country":"USA"}]},"request":{"method":"PUT","url":"Organization/5ad6ea38-07e9-4482-9e1b-c09eee595be9"}},{"fullUrl":"https://madie.cms.gov/Practitioner/94ef469e-fa70-4d65-a647-4654c857a1ef","resource":{"resourceType":"Practitioner","id":"94ef469e-fa70-4d65-a647-4654c857a1ef","identifier":[{"system":"http://hl7.org/fhir/sid/us-npi","value":"123456"}],"name":[{"family":"Evil","prefix":["Dr"]}]},"request":{"method":"PUT","url":"Practitioner/94ef469e-fa70-4d65-a647-4654c857a1ef"}},{"fullUrl":"https://madie.cms.gov/MeasureReport/6d699d53-30c9-4d1c-be2d-5a4e920cf1c2","resource":{"resourceType":"MeasureReport","id":"6d699d53-30c9-4d1c-be2d-5a4e920cf1c2","meta":{"profile":["http://hl7.org/fhir/us/cqfmeasures/StructureDefinition/test-case-cqfm"]},"contained":[{"resourceType":"Parameters","id":"0bb02691-562d-4a40-a60f-ce2922b14fdc-parameters","parameter":[{"name":"subject","valueString":"4df4e9bf-dff3-448c-a6f1-6415d8ebb8a6"}]}],"extension":[{"url":"http://hl7.org/fhir/us/cqfmeasures/StructureDefinition/cqfm-inputParameters","valueReference":{"reference":"#0bb02691-562d-4a40-a60f-ce2922b14fdc-parameters"}},{"url":"http://hl7.org/fhir/us/cqfmeasures/StructureDefinition/cqfm-testCaseDescription","valueMarkdown":"glycoprotein IIb/IIIa inibitor =0  day after start of IP encounter\n"}],"modifierExtension":[{"url":"http://hl7.org/fhir/us/cqfmeasures/StructureDefinition/cqfm-isTestCase","valueBoolean":true}],"status":"complete","type":"individual","measure":"https://madie.cms.gov/Measure/CMS108VTEProphylaxisFHIR","period":{"start":"2026-01-01","end":"2026-12-31"},"group":[{"population":[{"code":{"coding":[{"system":"http://terminology.hl7.org/CodeSystem/measure-population","code":"initial-population","display":"Initial Population"}]},"count":1},{"code":{"coding":[{"system":"http://terminology.hl7.org/CodeSystem/measure-population","code":"denominator","display":"Denominator"}]},"count":1},{"code":{"coding":[{"system":"http://terminology.hl7.org/CodeSystem/measure-population","code":"denominator-exclusion","display":"Denominator Exclusion"}]},"count":0},{"code":{"coding":[{"system":"http://terminology.hl7.org/CodeSystem/measure-population","code":"numerator","display":"Numerator"}]},"count":1}]}]},"request":{"method":"PUT","url":"MeasureReport/6d699d53-30c9-4d1c-be2d-5a4e920cf1c2"}}]}