{"resourceType":"Bundle","id":"tests-a8083d97-85af-4e1e-8770-30c49a287194-bundle","type":"transaction","entry":[{"fullUrl":"https://madie.cms.gov/Patient/a8083d97-85af-4e1e-8770-30c49a287194","resource":{"resourceType":"Patient","id":"a8083d97-85af-4e1e-8770-30c49a287194","meta":{"profile":["http://hl7.org/fhir/us/qicore/StructureDefinition/qicore-patient"]},"text":{"status":"generated","div":"<div xmlns=\"http://www.w3.org/1999/xhtml\"><div class=\"hapiHeaderText\">VTERiskAssEndEDendOnIPEncStart <b>NUMERPASS </b></div><table class=\"hapiPropertyTable\"><tbody><tr><td>Identifier</td><td>9eeaae30f2c13f342ba722a8c92cd6bf</td></tr><tr><td>Date of birth</td><td><span>02 January 1974</span></td></tr></tbody></table></div>"},"extension":[{"url":"http://hl7.org/fhir/us/core/StructureDefinition/us-core-race","extension":[{"url":"ombCategory","valueCoding":{"system":"urn:oid:2.16.840.1.113883.6.238","code":"1002-5","display":"American Indian or Alaska Native","userSelected":true}},{"url":"text","valueString":"American Indian or Alaska Native"}]},{"url":"http://hl7.org/fhir/us/core/StructureDefinition/us-core-ethnicity","extension":[{"url":"ombCategory","valueCoding":{"system":"urn:oid:2.16.840.1.113883.6.238","code":"2135-2","display":"Hispanic or Latino","userSelected":true}},{"url":"text","valueString":"Hispanic or Latino"}]}],"identifier":[{"type":{"coding":[{"system":"http://terminology.hl7.org/CodeSystem/v2-0203","code":"MR"}]},"system":"https://bonnie-fhir.healthit.gov/","value":"612e6b2902c62a011f2ecaf3"}],"active":true,"name":[{"use":"usual","family":"NUMERPass","given":["VTERiskAssEndEDendOnIPEncStart"]}],"gender":"male","birthDate":"1975-01-02"},"request":{"method":"PUT","url":"Patient/a8083d97-85af-4e1e-8770-30c49a287194"}},{"fullUrl":"https://madie.cms.gov/Encounter/fad1c360-d6de-4823-b719-548ab97f0c6c","resource":{"resourceType":"Encounter","id":"fad1c360-d6de-4823-b719-548ab97f0c6c","meta":{"profile":["http://hl7.org/fhir/us/qicore/StructureDefinition/qicore-encounter"]},"status":"finished","class":{"system":"http://terminology.hl7.org/CodeSystem/v3-ActCode","code":"EMER","display":"emergency"},"type":[{"coding":[{"system":"http://snomed.info/sct","code":"4525004"}]}],"subject":{"reference":"Patient/a8083d97-85af-4e1e-8770-30c49a287194"},"period":{"start":"2026-11-01T06:00:00+00:00","end":"2026-11-01T08:00:00+00:00"},"length":{"value":0.0,"unit":"days"}},"request":{"method":"PUT","url":"Encounter/fad1c360-d6de-4823-b719-548ab97f0c6c"}},{"fullUrl":"https://madie.cms.gov/Encounter/3d7fa2b0-fb2d-45aa-8800-96663779d997","resource":{"resourceType":"Encounter","id":"3d7fa2b0-fb2d-45aa-8800-96663779d997","meta":{"profile":["http://hl7.org/fhir/us/qicore/StructureDefinition/qicore-encounter"]},"status":"finished","class":{"system":"http://terminology.hl7.org/CodeSystem/v3-ActCode","code":"IMP","display":"inpatient encounter"},"type":[{"coding":[{"system":"http://snomed.info/sct","code":"8715000"}]}],"subject":{"reference":"Patient/a8083d97-85af-4e1e-8770-30c49a287194"},"period":{"start":"2026-11-01T08:00:00+00:00","end":"2026-11-26T08:15:00+00:00"},"length":{"value":25.0,"unit":"days"}},"request":{"method":"PUT","url":"Encounter/3d7fa2b0-fb2d-45aa-8800-96663779d997"}},{"fullUrl":"https://madie.cms.gov/Observation/1b8995bf-604c-429b-bf60-e93454c38bb4","resource":{"resourceType":"Observation","id":"1b8995bf-604c-429b-bf60-e93454c38bb4","meta":{"profile":["http://hl7.org/fhir/us/qicore/StructureDefinition/qicore-observation"]},"status":"final","category":[{"coding":[{"system":"http://terminology.hl7.org/CodeSystem/observation-category","code":"exam","display":"Exam","userSelected":true}]}],"code":{"coding":[{"system":"http://loinc.org","code":"72136-5"}]},"subject":{"reference":"Patient/a8083d97-85af-4e1e-8770-30c49a287194"},"effectivePeriod":{"end":"2026-11-01T07:15:00.000+00:00"},"valueCodeableConcept":{"coding":[{"system":"http://snomed.info/sct","code":"260362008","display":"Low Risk"}]}},"request":{"method":"PUT","url":"Observation/1b8995bf-604c-429b-bf60-e93454c38bb4"}},{"fullUrl":"https://madie.cms.gov/Coverage/42dbedbe-b964-4e8c-bcc6-25ea08f4b29e","resource":{"resourceType":"Coverage","id":"42dbedbe-b964-4e8c-bcc6-25ea08f4b29e","status":"active","beneficiary":{"reference":"Patient/a8083d97-85af-4e1e-8770-30c49a287194"},"period":{"start":"1975-01-02T08:00:00+00:00"},"payor":[{"reference":"Organization/18ca435c-cae6-4c34-8033-af717477f9fc"}]},"request":{"method":"PUT","url":"Coverage/42dbedbe-b964-4e8c-bcc6-25ea08f4b29e"}},{"fullUrl":"https://madie.cms.gov/Organization/ba1fcd22-7a36-47bb-8f44-f4b55d3fb367","resource":{"resourceType":"Organization","id":"18ca435c-cae6-4c34-8033-af717477f9fc","meta":{"profile":["http://hl7.org/fhir/us/qicore/StructureDefinition/qicore-organization"]},"identifier":[{"use":"temp","system":"urn:oid:2.16.840.1.113883.4.4","value":"21-3259825"}],"active":true,"type":[{"coding":[{"system":"http://terminology.hl7.org/CodeSystem/organization-type","code":"pay","display":"Payer"}]}],"name":"Blue Cross Blue Shield of Texas","telecom":[{"system":"phone","value":"(+1) 972-766-6900"}],"address":[{"use":"billing","type":"postal","line":["P.O. Box 660044"],"city":"Dallas","state":"TX","postalCode":"75266-0044","country":"USA"}]},"request":{"method":"PUT","url":"Organization/18ca435c-cae6-4c34-8033-af717477f9fc"}},{"fullUrl":"https://madie.cms.gov/Practitioner/0e70b87a-d311-4d49-b749-85e72a10c329","resource":{"resourceType":"Practitioner","id":"0e70b87a-d311-4d49-b749-85e72a10c329","identifier":[{"system":"http://hl7.org/fhir/sid/us-npi","value":"123456"}],"name":[{"family":"Evil","prefix":["Dr"]}]},"request":{"method":"PUT","url":"Practitioner/0e70b87a-d311-4d49-b749-85e72a10c329"}},{"fullUrl":"https://madie.cms.gov/MeasureReport/7a9e6940-63b3-4669-b115-33839788d07c","resource":{"resourceType":"MeasureReport","id":"7a9e6940-63b3-4669-b115-33839788d07c","meta":{"profile":["http://hl7.org/fhir/us/cqfmeasures/StructureDefinition/test-case-cqfm"]},"contained":[{"resourceType":"Parameters","id":"dd7c29bf-5b7e-4d7c-8820-e8a1bb1a0c1f-parameters","parameter":[{"name":"subject","valueString":"a8083d97-85af-4e1e-8770-30c49a287194"}]}],"extension":[{"url":"http://hl7.org/fhir/us/cqfmeasures/StructureDefinition/cqfm-inputParameters","valueReference":{"reference":"#dd7c29bf-5b7e-4d7c-8820-e8a1bb1a0c1f-parameters"}},{"url":"http://hl7.org/fhir/us/cqfmeasures/StructureDefinition/cqfm-testCaseDescription","valueMarkdown":"\">18, LOS<120 day,Risk, RCA period end (with start datetime is null)in ED, and ED.end = IP.start\n\"\n"}],"modifierExtension":[{"url":"http://hl7.org/fhir/us/cqfmeasures/StructureDefinition/cqfm-isTestCase","valueBoolean":true}],"status":"complete","type":"individual","measure":"https://madie.cms.gov/Measure/CMS108VTEProphylaxisFHIR","period":{"start":"2026-01-01","end":"2026-12-31"},"group":[{"population":[{"code":{"coding":[{"system":"http://terminology.hl7.org/CodeSystem/measure-population","code":"initial-population","display":"Initial Population"}]},"count":1},{"code":{"coding":[{"system":"http://terminology.hl7.org/CodeSystem/measure-population","code":"denominator","display":"Denominator"}]},"count":1},{"code":{"coding":[{"system":"http://terminology.hl7.org/CodeSystem/measure-population","code":"denominator-exclusion","display":"Denominator Exclusion"}]},"count":0},{"code":{"coding":[{"system":"http://terminology.hl7.org/CodeSystem/measure-population","code":"numerator","display":"Numerator"}]},"count":1}]}]},"request":{"method":"PUT","url":"MeasureReport/7a9e6940-63b3-4669-b115-33839788d07c"}}]}