{"resourceType":"Bundle","id":"tests-b621464f-6e8d-4a28-b5a9-ec0178cf33ae-bundle","type":"transaction","entry":[{"fullUrl":"https://madie.cms.gov/Patient/b621464f-6e8d-4a28-b5a9-ec0178cf33ae","resource":{"resourceType":"Patient","id":"b621464f-6e8d-4a28-b5a9-ec0178cf33ae","meta":{"profile":["http://hl7.org/fhir/us/qicore/StructureDefinition/qicore-patient"]},"text":{"status":"generated","div":"<div xmlns=\"http://www.w3.org/1999/xhtml\"><div class=\"hapiHeaderText\">DA_GCS_OnAnesEndTime_EncStartTime <b>NUMERPASS </b></div><table class=\"hapiPropertyTable\"><tbody><tr><td>Identifier</td><td>1f0dc9e293f324a804fb829ef6a3a35d</td></tr><tr><td>Date of birth</td><td><span>02 January 1974</span></td></tr></tbody></table></div>"},"extension":[{"url":"http://hl7.org/fhir/us/core/StructureDefinition/us-core-race","extension":[{"url":"ombCategory","valueCoding":{"system":"urn:oid:2.16.840.1.113883.6.238","code":"1002-5","display":"American Indian or Alaska Native","userSelected":true}},{"url":"text","valueString":"American Indian or Alaska Native"}]},{"url":"http://hl7.org/fhir/us/core/StructureDefinition/us-core-ethnicity","extension":[{"url":"ombCategory","valueCoding":{"system":"urn:oid:2.16.840.1.113883.6.238","code":"2135-2","display":"Hispanic or Latino","userSelected":true}},{"url":"text","valueString":"Hispanic or Latino"}]}],"identifier":[{"type":{"coding":[{"system":"http://terminology.hl7.org/CodeSystem/v2-0203","code":"MR"}]},"system":"https://bonnie-fhir.healthit.gov/","value":"612e6ad302c62a011f2eb5b5"}],"active":true,"name":[{"use":"usual","family":"NUMERPass","given":["DA_GCS_OnAnesEndTime_EncStartTime"]}],"gender":"male","birthDate":"1975-01-02"},"request":{"method":"PUT","url":"Patient/b621464f-6e8d-4a28-b5a9-ec0178cf33ae"}},{"fullUrl":"https://madie.cms.gov/Encounter/6d46bd67-187f-449a-9323-39e59cb1be20","resource":{"resourceType":"Encounter","id":"6d46bd67-187f-449a-9323-39e59cb1be20","meta":{"profile":["http://hl7.org/fhir/us/qicore/StructureDefinition/qicore-encounter"]},"status":"finished","class":{"system":"http://terminology.hl7.org/CodeSystem/v3-ActCode","code":"IMP","display":"inpatient encounter"},"type":[{"coding":[{"system":"http://snomed.info/sct","code":"8715000"}]}],"subject":{"reference":"Patient/b621464f-6e8d-4a28-b5a9-ec0178cf33ae"},"period":{"start":"2026-11-01T09:15:00+00:00","end":"2026-11-26T08:15:00+00:00"},"length":{"value":25.0,"unit":"days"}},"request":{"method":"PUT","url":"Encounter/6d46bd67-187f-449a-9323-39e59cb1be20"}},{"fullUrl":"https://madie.cms.gov/Coverage/53cc93f6-4f43-442c-a97b-ca9469597fcc","resource":{"resourceType":"Coverage","id":"53cc93f6-4f43-442c-a97b-ca9469597fcc","status":"active","beneficiary":{"reference":"Patient/b621464f-6e8d-4a28-b5a9-ec0178cf33ae"},"period":{"start":"1975-01-02T08:00:00+00:00"},"payor":[{"reference":"Organization/3e899f33-84eb-4634-a770-a5a0bd7a80e7"}]},"request":{"method":"PUT","url":"Coverage/53cc93f6-4f43-442c-a97b-ca9469597fcc"}},{"fullUrl":"https://madie.cms.gov/Procedure/b90334b1-7d92-4fa6-ae88-ef5de17b4eb2","resource":{"resourceType":"Procedure","id":"b90334b1-7d92-4fa6-ae88-ef5de17b4eb2","meta":{"profile":["http://hl7.org/fhir/us/qicore/StructureDefinition/qicore-procedure"]},"extension":[{"url":"http://hl7.org/fhir/us/qicore/StructureDefinition/qicore-recorded","valueDateTime":"2013-11-01T09:35:00-04:00"}],"status":"completed","code":{"coding":[{"system":"http://snomed.info/sct","code":"18946005"}]},"subject":{"reference":"Patient/b621464f-6e8d-4a28-b5a9-ec0178cf33ae"},"performedPeriod":{"start":"2026-11-01T09:00:00+00:00","end":"2026-11-01T09:15:00+00:00"}},"request":{"method":"PUT","url":"Procedure/b90334b1-7d92-4fa6-ae88-ef5de17b4eb2"}},{"fullUrl":"https://madie.cms.gov/Procedure/f5089a10-aee0-40ce-a043-72bffd3ea7e6","resource":{"resourceType":"Procedure","id":"f5089a10-aee0-40ce-a043-72bffd3ea7e6","meta":{"profile":["http://hl7.org/fhir/us/qicore/StructureDefinition/qicore-procedure"]},"extension":[{"url":"http://hl7.org/fhir/us/qicore/StructureDefinition/qicore-recorded","valueDateTime":"2013-11-01T09:35:00-04:00"}],"status":"completed","code":{"coding":[{"system":"http://snomed.info/sct","code":"229511001","display":"Application of graduated compression garment (procedure)","userSelected":true}]},"subject":{"reference":"Patient/b621464f-6e8d-4a28-b5a9-ec0178cf33ae"},"performedDateTime":"2026-11-01T09:15:00.000+00:00"},"request":{"method":"PUT","url":"Procedure/f5089a10-aee0-40ce-a043-72bffd3ea7e6"}},{"fullUrl":"https://madie.cms.gov/Organization/2cad0260-7501-43de-bf34-55db31ed677b","resource":{"resourceType":"Organization","id":"3e899f33-84eb-4634-a770-a5a0bd7a80e7","meta":{"profile":["http://hl7.org/fhir/us/qicore/StructureDefinition/qicore-organization"]},"identifier":[{"use":"temp","system":"urn:oid:2.16.840.1.113883.4.4","value":"21-3259825"}],"active":true,"type":[{"coding":[{"system":"http://terminology.hl7.org/CodeSystem/organization-type","code":"pay","display":"Payer"}]}],"name":"Blue Cross Blue Shield of Texas","telecom":[{"system":"phone","value":"(+1) 972-766-6900"}],"address":[{"use":"billing","type":"postal","line":["P.O. Box 660044"],"city":"Dallas","state":"TX","postalCode":"75266-0044","country":"USA"}]},"request":{"method":"PUT","url":"Organization/3e899f33-84eb-4634-a770-a5a0bd7a80e7"}},{"fullUrl":"https://madie.cms.gov/Practitioner/86d72955-0ad7-44b6-876c-f7305c854c97","resource":{"resourceType":"Practitioner","id":"86d72955-0ad7-44b6-876c-f7305c854c97","identifier":[{"system":"http://hl7.org/fhir/sid/us-npi","value":"123456"}],"name":[{"family":"Evil","prefix":["Dr"]}]},"request":{"method":"PUT","url":"Practitioner/86d72955-0ad7-44b6-876c-f7305c854c97"}},{"fullUrl":"https://madie.cms.gov/MeasureReport/a7f2957b-0f24-4920-8b11-dfb40f7417ae","resource":{"resourceType":"MeasureReport","id":"a7f2957b-0f24-4920-8b11-dfb40f7417ae","meta":{"profile":["http://hl7.org/fhir/us/cqfmeasures/StructureDefinition/test-case-cqfm"]},"contained":[{"resourceType":"Parameters","id":"b43367d4-555f-4b1a-a966-312503229824-parameters","parameter":[{"name":"subject","valueString":"b621464f-6e8d-4a28-b5a9-ec0178cf33ae"}]}],"extension":[{"url":"http://hl7.org/fhir/us/cqfmeasures/StructureDefinition/cqfm-inputParameters","valueReference":{"reference":"#b43367d4-555f-4b1a-a966-312503229824-parameters"}},{"url":"http://hl7.org/fhir/us/cqfmeasures/StructureDefinition/cqfm-testCaseDescription","valueMarkdown":"GCS applied concurrent with end of anesthesia, with end of anesthesia concurrent with start of IP Encounter\n"}],"modifierExtension":[{"url":"http://hl7.org/fhir/us/cqfmeasures/StructureDefinition/cqfm-isTestCase","valueBoolean":true}],"status":"complete","type":"individual","measure":"https://madie.cms.gov/Measure/CMS108VTEProphylaxisFHIR","period":{"start":"2026-01-01","end":"2026-12-31"},"group":[{"population":[{"code":{"coding":[{"system":"http://terminology.hl7.org/CodeSystem/measure-population","code":"initial-population","display":"Initial Population"}]},"count":1},{"code":{"coding":[{"system":"http://terminology.hl7.org/CodeSystem/measure-population","code":"denominator","display":"Denominator"}]},"count":1},{"code":{"coding":[{"system":"http://terminology.hl7.org/CodeSystem/measure-population","code":"denominator-exclusion","display":"Denominator Exclusion"}]},"count":0},{"code":{"coding":[{"system":"http://terminology.hl7.org/CodeSystem/measure-population","code":"numerator","display":"Numerator"}]},"count":1}]}]},"request":{"method":"PUT","url":"MeasureReport/a7f2957b-0f24-4920-8b11-dfb40f7417ae"}}]}