{"resourceType":"Bundle","id":"tests-0dae06f1-1e15-4905-ae46-86ea310c2f1f-bundle","type":"transaction","entry":[{"fullUrl":"https://madie.cms.gov/Patient/0dae06f1-1e15-4905-ae46-86ea310c2f1f","resource":{"resourceType":"Patient","id":"0dae06f1-1e15-4905-ae46-86ea310c2f1f","meta":{"profile":["http://hl7.org/fhir/us/qicore/StructureDefinition/qicore-patient"]},"text":{"status":"generated","div":"<div xmlns=\"http://www.w3.org/1999/xhtml\"><div class=\"hapiHeaderText\">EncEndsOnLastMinOfMP <b>IPPPASS </b></div><table class=\"hapiPropertyTable\"><tbody><tr><td>Identifier</td><td>2d02a76d3c6414633bcaff3b3573dd91</td></tr><tr><td>Date of birth</td><td><span>01 January 2003</span></td></tr></tbody></table></div>"},"extension":[{"url":"http://hl7.org/fhir/us/core/StructureDefinition/us-core-race","extension":[{"url":"ombCategory","valueCoding":{"system":"urn:oid:2.16.840.1.113883.6.238","code":"1002-5","display":"American Indian or Alaska Native","userSelected":true}},{"url":"text","valueString":"American Indian or Alaska Native"}]},{"url":"http://hl7.org/fhir/us/core/StructureDefinition/us-core-ethnicity","extension":[{"url":"ombCategory","valueCoding":{"system":"urn:oid:2.16.840.1.113883.6.238","code":"2135-2","display":"Hispanic or Latino","userSelected":true}},{"url":"text","valueString":"Hispanic or Latino"}]}],"identifier":[{"type":{"coding":[{"system":"http://terminology.hl7.org/CodeSystem/v2-0203","code":"MR"}]},"system":"https://bonnie-fhir.healthit.gov/","value":"612e6b6a02c62a011f2eda61"}],"active":true,"name":[{"use":"usual","family":"IPPPass","given":["EncEndsOnLastMinOfMP"]}],"gender":"male","birthDate":"2004-01-01"},"request":{"method":"PUT","url":"Patient/0dae06f1-1e15-4905-ae46-86ea310c2f1f"}},{"fullUrl":"https://madie.cms.gov/Encounter/d5809c8c-fce8-42b0-ba09-2495190ce356","resource":{"resourceType":"Encounter","id":"d5809c8c-fce8-42b0-ba09-2495190ce356","meta":{"profile":["http://hl7.org/fhir/us/qicore/StructureDefinition/qicore-encounter"]},"status":"finished","class":{"system":"http://terminology.hl7.org/CodeSystem/v3-ActCode","code":"IMP","display":"inpatient encounter"},"type":[{"coding":[{"system":"http://snomed.info/sct","code":"8715000"}]}],"subject":{"reference":"Patient/0dae06f1-1e15-4905-ae46-86ea310c2f1f"},"period":{"start":"2026-12-01T00:00:00+00:00","end":"2026-12-31T23:59:00+00:00"},"length":{"value":30.0,"unit":"days"}},"request":{"method":"PUT","url":"Encounter/d5809c8c-fce8-42b0-ba09-2495190ce356"}},{"fullUrl":"https://madie.cms.gov/Coverage/4dedcea7-e3e8-477f-a8cf-daedf5b09265","resource":{"resourceType":"Coverage","id":"4dedcea7-e3e8-477f-a8cf-daedf5b09265","status":"active","beneficiary":{"reference":"Patient/0dae06f1-1e15-4905-ae46-86ea310c2f1f"},"period":{"start":"2004-01-01T08:00:00+00:00"},"payor":[{"reference":"Organization/18ca435c-cae6-4c34-8033-af717477f9fc"}]},"request":{"method":"PUT","url":"Coverage/4dedcea7-e3e8-477f-a8cf-daedf5b09265"}},{"fullUrl":"https://madie.cms.gov/Organization/dc46206a-aa58-4542-8ac7-003da3d20639","resource":{"resourceType":"Organization","id":"18ca435c-cae6-4c34-8033-af717477f9fc","meta":{"profile":["http://hl7.org/fhir/us/qicore/StructureDefinition/qicore-organization"]},"identifier":[{"use":"temp","system":"urn:oid:2.16.840.1.113883.4.4","value":"21-3259825"}],"active":true,"type":[{"coding":[{"system":"http://terminology.hl7.org/CodeSystem/organization-type","code":"pay","display":"Payer"}]}],"name":"Blue Cross Blue Shield of Texas","telecom":[{"system":"phone","value":"(+1) 972-766-6900"}],"address":[{"use":"billing","type":"postal","line":["P.O. Box 660044"],"city":"Dallas","state":"TX","postalCode":"75266-0044","country":"USA"}]},"request":{"method":"PUT","url":"Organization/18ca435c-cae6-4c34-8033-af717477f9fc"}},{"fullUrl":"https://madie.cms.gov/Practitioner/daa13fcb-ba82-4cd9-baa4-c4205187a013","resource":{"resourceType":"Practitioner","id":"daa13fcb-ba82-4cd9-baa4-c4205187a013","identifier":[{"system":"http://hl7.org/fhir/sid/us-npi","value":"123456"}],"name":[{"family":"Evil","prefix":["Dr"]}]},"request":{"method":"PUT","url":"Practitioner/daa13fcb-ba82-4cd9-baa4-c4205187a013"}},{"fullUrl":"https://madie.cms.gov/MeasureReport/b47bcc7e-cc6e-4054-9807-6b5622d0c4ad","resource":{"resourceType":"MeasureReport","id":"b47bcc7e-cc6e-4054-9807-6b5622d0c4ad","meta":{"profile":["http://hl7.org/fhir/us/cqfmeasures/StructureDefinition/test-case-cqfm"]},"contained":[{"resourceType":"Parameters","id":"15023b0f-5f30-4d96-8b46-d1861c269ac2-parameters","parameter":[{"name":"subject","valueString":"0dae06f1-1e15-4905-ae46-86ea310c2f1f"}]}],"extension":[{"url":"http://hl7.org/fhir/us/cqfmeasures/StructureDefinition/cqfm-inputParameters","valueReference":{"reference":"#15023b0f-5f30-4d96-8b46-d1861c269ac2-parameters"}},{"url":"http://hl7.org/fhir/us/cqfmeasures/StructureDefinition/cqfm-testCaseDescription","valueMarkdown":"Patient is 18 years old with LOS < 120 days ending during MP\n"}],"modifierExtension":[{"url":"http://hl7.org/fhir/us/cqfmeasures/StructureDefinition/cqfm-isTestCase","valueBoolean":true}],"status":"complete","type":"individual","measure":"https://madie.cms.gov/Measure/CMS108VTEProphylaxisFHIR","period":{"start":"2026-01-01","end":"2026-12-31"},"group":[{"population":[{"code":{"coding":[{"system":"http://terminology.hl7.org/CodeSystem/measure-population","code":"initial-population","display":"Initial Population"}]},"count":1},{"code":{"coding":[{"system":"http://terminology.hl7.org/CodeSystem/measure-population","code":"denominator","display":"Denominator"}]},"count":1},{"code":{"coding":[{"system":"http://terminology.hl7.org/CodeSystem/measure-population","code":"denominator-exclusion","display":"Denominator Exclusion"}]},"count":0},{"code":{"coding":[{"system":"http://terminology.hl7.org/CodeSystem/measure-population","code":"numerator","display":"Numerator"}]},"count":0}]}]},"request":{"method":"PUT","url":"MeasureReport/b47bcc7e-cc6e-4054-9807-6b5622d0c4ad"}}]}