{"resourceType":"Bundle","id":"tests-04048fd6-1b9a-4061-a8a9-9a4879c42b04-bundle","type":"transaction","entry":[{"fullUrl":"https://madie.cms.gov/Patient/04048fd6-1b9a-4061-a8a9-9a4879c42b04","resource":{"resourceType":"Patient","id":"04048fd6-1b9a-4061-a8a9-9a4879c42b04","meta":{"profile":["http://hl7.org/fhir/us/qicore/StructureDefinition/qicore-patient"]},"text":{"status":"generated","div":"<div xmlns=\"http://www.w3.org/1999/xhtml\"><div class=\"hapiHeaderText\">INR=3_0 <b>NUMERFAIL </b></div><table class=\"hapiPropertyTable\"><tbody><tr><td>Identifier</td><td>d09a5f6238a0a6a7a798f82976fcd198</td></tr><tr><td>Date of birth</td><td><span>02 January 1974</span></td></tr></tbody></table></div>"},"extension":[{"url":"http://hl7.org/fhir/us/core/StructureDefinition/us-core-race","extension":[{"url":"ombCategory","valueCoding":{"system":"urn:oid:2.16.840.1.113883.6.238","code":"1002-5","display":"American Indian or Alaska Native","userSelected":true}},{"url":"text","valueString":"American Indian or Alaska Native"}]},{"url":"http://hl7.org/fhir/us/core/StructureDefinition/us-core-ethnicity","extension":[{"url":"ombCategory","valueCoding":{"system":"urn:oid:2.16.840.1.113883.6.238","code":"2135-2","display":"Hispanic or Latino","userSelected":true}},{"url":"text","valueString":"Hispanic or Latino"}]}],"identifier":[{"type":{"coding":[{"system":"http://terminology.hl7.org/CodeSystem/v2-0203","code":"MR"}]},"system":"https://bonnie-fhir.healthit.gov/","value":"612e6b4602c62a011f2ed217"}],"active":true,"name":[{"use":"usual","family":"NUMERFail","given":["INR3_0"]}],"gender":"male","birthDate":"1975-01-02"},"request":{"method":"PUT","url":"Patient/04048fd6-1b9a-4061-a8a9-9a4879c42b04"}},{"fullUrl":"https://madie.cms.gov/Encounter/be68a3f2-54db-4b16-93aa-4468aaa9a4e8","resource":{"resourceType":"Encounter","id":"be68a3f2-54db-4b16-93aa-4468aaa9a4e8","meta":{"profile":["http://hl7.org/fhir/us/qicore/StructureDefinition/qicore-encounter"]},"status":"finished","class":{"system":"http://terminology.hl7.org/CodeSystem/v3-ActCode","code":"IMP","display":"inpatient encounter"},"type":[{"coding":[{"system":"http://snomed.info/sct","code":"8715000"}]}],"subject":{"reference":"Patient/04048fd6-1b9a-4061-a8a9-9a4879c42b04"},"period":{"start":"2026-11-01T08:00:00+00:00","end":"2026-11-26T08:15:00+00:00"},"length":{"value":25.0,"unit":"days"}},"request":{"method":"PUT","url":"Encounter/be68a3f2-54db-4b16-93aa-4468aaa9a4e8"}},{"fullUrl":"https://madie.cms.gov/Coverage/3900d639-f751-42f0-a977-617ba732690f","resource":{"resourceType":"Coverage","id":"3900d639-f751-42f0-a977-617ba732690f","status":"active","beneficiary":{"reference":"Patient/04048fd6-1b9a-4061-a8a9-9a4879c42b04"},"period":{"start":"1975-01-02T08:00:00+00:00"},"payor":[{"reference":"Organization/5ad6ea38-07e9-4482-9e1b-c09eee595be9"}]},"request":{"method":"PUT","url":"Coverage/3900d639-f751-42f0-a977-617ba732690f"}},{"fullUrl":"https://madie.cms.gov/Observation/dc213ebf-2982-47f5-9669-dd339171ec39","resource":{"resourceType":"Observation","id":"dc213ebf-2982-47f5-9669-dd339171ec39","meta":{"profile":["http://hl7.org/fhir/us/core/StructureDefinition/us-core-observation-lab"]},"status":"final","category":[{"coding":[{"system":"http://terminology.hl7.org/CodeSystem/observation-category","code":"laboratory","display":"Laboratory"}]}],"code":{"coding":[{"system":"http://loinc.org","code":"34714-6"}]},"subject":{"reference":"Patient/04048fd6-1b9a-4061-a8a9-9a4879c42b04"},"issued":"2026-11-01T09:00:00.000+00:00","valueQuantity":{"value":3.0,"unit":"{INR}"}},"request":{"method":"PUT","url":"Observation/dc213ebf-2982-47f5-9669-dd339171ec39"}},{"fullUrl":"https://madie.cms.gov/Organization/4f0b694c-dd3e-43a7-bec4-71cf0fcf0708","resource":{"resourceType":"Organization","id":"5ad6ea38-07e9-4482-9e1b-c09eee595be9","meta":{"profile":["http://hl7.org/fhir/us/qicore/StructureDefinition/qicore-organization"]},"identifier":[{"use":"temp","system":"urn:oid:2.16.840.1.113883.4.4","value":"21-3259825"}],"active":true,"type":[{"coding":[{"system":"http://terminology.hl7.org/CodeSystem/organization-type","code":"pay","display":"Payer"}]}],"name":"Blue Cross Blue Shield of Texas","telecom":[{"system":"phone","value":"(+1) 972-766-6900"}],"address":[{"use":"billing","type":"postal","line":["P.O. Box 660044"],"city":"Dallas","state":"TX","postalCode":"75266-0044","country":"USA"}]},"request":{"method":"PUT","url":"Organization/5ad6ea38-07e9-4482-9e1b-c09eee595be9"}},{"fullUrl":"https://madie.cms.gov/Practitioner/371f1d17-7586-48ae-a572-a24884e77e25","resource":{"resourceType":"Practitioner","id":"371f1d17-7586-48ae-a572-a24884e77e25","identifier":[{"system":"http://hl7.org/fhir/sid/us-npi","value":"123456"}],"name":[{"family":"Evil","prefix":["Dr"]}]},"request":{"method":"PUT","url":"Practitioner/371f1d17-7586-48ae-a572-a24884e77e25"}},{"fullUrl":"https://madie.cms.gov/MeasureReport/f01fc216-ec59-49bd-a76c-58ed2d7dfe2a","resource":{"resourceType":"MeasureReport","id":"f01fc216-ec59-49bd-a76c-58ed2d7dfe2a","meta":{"profile":["http://hl7.org/fhir/us/cqfmeasures/StructureDefinition/test-case-cqfm"]},"contained":[{"resourceType":"Parameters","id":"3918d53f-6b45-4b71-b823-f995a5743e45-parameters","parameter":[{"name":"subject","valueString":"04048fd6-1b9a-4061-a8a9-9a4879c42b04"}]}],"extension":[{"url":"http://hl7.org/fhir/us/cqfmeasures/StructureDefinition/cqfm-inputParameters","valueReference":{"reference":"#3918d53f-6b45-4b71-b823-f995a5743e45-parameters"}},{"url":"http://hl7.org/fhir/us/cqfmeasures/StructureDefinition/cqfm-testCaseDescription","valueMarkdown":">18, LOS<120 day.Lab INR=3.0\n"}],"modifierExtension":[{"url":"http://hl7.org/fhir/us/cqfmeasures/StructureDefinition/cqfm-isTestCase","valueBoolean":true}],"status":"complete","type":"individual","measure":"https://madie.cms.gov/Measure/CMS108VTEProphylaxisFHIR","period":{"start":"2026-01-01","end":"2026-12-31"},"group":[{"population":[{"code":{"coding":[{"system":"http://terminology.hl7.org/CodeSystem/measure-population","code":"initial-population","display":"Initial Population"}]},"count":1},{"code":{"coding":[{"system":"http://terminology.hl7.org/CodeSystem/measure-population","code":"denominator","display":"Denominator"}]},"count":1},{"code":{"coding":[{"system":"http://terminology.hl7.org/CodeSystem/measure-population","code":"denominator-exclusion","display":"Denominator Exclusion"}]},"count":0},{"code":{"coding":[{"system":"http://terminology.hl7.org/CodeSystem/measure-population","code":"numerator","display":"Numerator"}]},"count":0}]}]},"request":{"method":"PUT","url":"MeasureReport/f01fc216-ec59-49bd-a76c-58ed2d7dfe2a"}}]}