{"resourceType":"Bundle","id":"tests-6b1471ba-f1b5-4c2f-ae25-779c5694dfb8-bundle","type":"transaction","entry":[{"fullUrl":"https://madie.cms.gov/Patient/6b1471ba-f1b5-4c2f-ae25-779c5694dfb8","resource":{"resourceType":"Patient","id":"6b1471ba-f1b5-4c2f-ae25-779c5694dfb8","meta":{"profile":["http://hl7.org/fhir/us/qicore/StructureDefinition/qicore-patient"]},"text":{"status":"generated","div":"<div xmlns=\"http://www.w3.org/1999/xhtml\"><div class=\"hapiHeaderText\">EncDx_IschemicStrokeRank2 <b>DENEXFAIL </b></div><table class=\"hapiPropertyTable\"><tbody><tr><td>Identifier</td><td>29c9716eb5f48b54d7b337bf497e0e5e</td></tr><tr><td>Date of birth</td><td><span>01 December 2003</span></td></tr></tbody></table></div>"},"extension":[{"url":"http://hl7.org/fhir/us/core/StructureDefinition/us-core-race","extension":[{"url":"ombCategory","valueCoding":{"system":"urn:oid:2.16.840.1.113883.6.238","code":"1002-5","display":"American Indian or Alaska Native","userSelected":true}},{"url":"text","valueString":"American Indian or Alaska Native"}]},{"url":"http://hl7.org/fhir/us/core/StructureDefinition/us-core-ethnicity","extension":[{"url":"ombCategory","valueCoding":{"system":"urn:oid:2.16.840.1.113883.6.238","code":"2135-2","display":"Hispanic or Latino","userSelected":true}},{"url":"text","valueString":"Hispanic or Latino"}]}],"identifier":[{"type":{"coding":[{"system":"http://terminology.hl7.org/CodeSystem/v2-0203","code":"MR"}]},"system":"https://bonnie-fhir.healthit.gov/","value":"612e6aff02c62a011f2ec0bb"}],"active":true,"name":[{"use":"usual","family":"DENEXFail","given":["EncDx_IschemicStrokeRank2"]}],"gender":"female","birthDate":"2004-11-30"},"request":{"method":"PUT","url":"Patient/6b1471ba-f1b5-4c2f-ae25-779c5694dfb8"}},{"fullUrl":"https://madie.cms.gov/Encounter/1e39990c-01f0-45d8-9a7c-3dd7177fed7f","resource":{"resourceType":"Encounter","id":"1e39990c-01f0-45d8-9a7c-3dd7177fed7f","meta":{"profile":["http://hl7.org/fhir/us/qicore/StructureDefinition/qicore-encounter"]},"status":"finished","class":{"system":"http://terminology.hl7.org/CodeSystem/v3-ActCode","code":"IMP","display":"inpatient encounter"},"type":[{"coding":[{"system":"http://snomed.info/sct","code":"183452005"}]}],"subject":{"reference":"Patient/6b1471ba-f1b5-4c2f-ae25-779c5694dfb8"},"period":{"start":"2026-12-01T01:00:00.000+00:00","end":"2026-12-31T23:59:00.000+00:00"},"length":{"value":30,"unit":"days"},"diagnosis":[{"condition":{"reference":"Condition/fadc3a87-c72f-480a-bacc-ff79bf025bdd"},"use":{"coding":[{"system":"http://terminology.hl7.org/CodeSystem/diagnosis-role","code":"billing"}]}}]},"request":{"method":"PUT","url":"Encounter/1e39990c-01f0-45d8-9a7c-3dd7177fed7f"}},{"fullUrl":"https://madie.cms.gov/Coverage/b15b3b90-0d94-4cab-a996-0f92ce1ffb68","resource":{"resourceType":"Coverage","id":"b15b3b90-0d94-4cab-a996-0f92ce1ffb68","status":"active","beneficiary":{"reference":"Patient/6b1471ba-f1b5-4c2f-ae25-779c5694dfb8"},"period":{"start":"2004-12-01T01:00:00+00:00"},"payor":[{"reference":"Organization/18ca435c-cae6-4c34-8033-af717477f9fc"}]},"request":{"method":"PUT","url":"Coverage/b15b3b90-0d94-4cab-a996-0f92ce1ffb68"}},{"fullUrl":"https://madie.cms.gov/Condition/fadc3a87-c72f-480a-bacc-ff79bf025bdd","resource":{"resourceType":"Condition","id":"fadc3a87-c72f-480a-bacc-ff79bf025bdd","meta":{"profile":["http://hl7.org/fhir/us/qicore/StructureDefinition/qicore-condition"]},"category":[{"coding":[{"system":"http://terminology.hl7.org/CodeSystem/condition-category","code":"encounter-diagnosis","display":"Encounter Diagnosis"}]}],"code":{"coding":[{"system":"http://snomed.info/sct","code":"195185009","display":"Cerebral infarct due to thrombosis of precerebral arteries (disorder)","userSelected":true}]},"subject":{"reference":"Patient/6b1471ba-f1b5-4c2f-ae25-779c5694dfb8"},"recordedDate":"2026-12-12T08:00:00.000+00:00"},"request":{"method":"PUT","url":"Condition/fadc3a87-c72f-480a-bacc-ff79bf025bdd"}},{"fullUrl":"https://madie.cms.gov/Organization/9c7ff9f4-0ffb-4b90-bf9e-09503efe4f7c","resource":{"resourceType":"Organization","id":"18ca435c-cae6-4c34-8033-af717477f9fc","meta":{"profile":["http://hl7.org/fhir/us/qicore/StructureDefinition/qicore-organization"]},"identifier":[{"use":"temp","system":"urn:oid:2.16.840.1.113883.4.4","value":"21-3259825"}],"active":true,"type":[{"coding":[{"system":"http://terminology.hl7.org/CodeSystem/organization-type","code":"pay","display":"Payer"}]}],"name":"Blue Cross Blue Shield of Texas","telecom":[{"system":"phone","value":"(+1) 972-766-6900"}],"address":[{"use":"billing","type":"postal","line":["P.O. Box 660044"],"city":"Dallas","state":"TX","postalCode":"75266-0044","country":"USA"}]},"request":{"method":"PUT","url":"Organization/18ca435c-cae6-4c34-8033-af717477f9fc"}},{"fullUrl":"https://madie.cms.gov/Practitioner/60626b74-e2e4-40ba-858d-59bf0edc2d80","resource":{"resourceType":"Practitioner","id":"60626b74-e2e4-40ba-858d-59bf0edc2d80","identifier":[{"system":"http://hl7.org/fhir/sid/us-npi","value":"123456"}],"name":[{"family":"Evil","prefix":["Dr"]}]},"request":{"method":"PUT","url":"Practitioner/60626b74-e2e4-40ba-858d-59bf0edc2d80"}},{"fullUrl":"https://madie.cms.gov/MeasureReport/9512325e-97cc-4d3f-8555-332c862dadd1","resource":{"resourceType":"MeasureReport","id":"9512325e-97cc-4d3f-8555-332c862dadd1","meta":{"profile":["http://hl7.org/fhir/us/cqfmeasures/StructureDefinition/test-case-cqfm"]},"contained":[{"resourceType":"Parameters","id":"063a804c-910f-45fc-ad22-b504d1a4f7fc-parameters","parameter":[{"name":"subject","valueString":"6b1471ba-f1b5-4c2f-ae25-779c5694dfb8"}]}],"extension":[{"url":"http://hl7.org/fhir/us/cqfmeasures/StructureDefinition/cqfm-inputParameters","valueReference":{"reference":"#063a804c-910f-45fc-ad22-b504d1a4f7fc-parameters"}},{"url":"http://hl7.org/fhir/us/cqfmeasures/StructureDefinition/cqfm-testCaseDescription","valueMarkdown":"Encounter Dx of Ischemic Stroke without Rank.\n"}],"modifierExtension":[{"url":"http://hl7.org/fhir/us/cqfmeasures/StructureDefinition/cqfm-isTestCase","valueBoolean":true}],"status":"complete","type":"individual","measure":"https://madie.cms.gov/Measure/CMS108VTEProphylaxisFHIR","period":{"start":"2026-01-01","end":"2026-12-31"},"group":[{"population":[{"code":{"coding":[{"system":"http://terminology.hl7.org/CodeSystem/measure-population","code":"initial-population","display":"Initial Population"}]},"count":1},{"code":{"coding":[{"system":"http://terminology.hl7.org/CodeSystem/measure-population","code":"denominator","display":"Denominator"}]},"count":1},{"code":{"coding":[{"system":"http://terminology.hl7.org/CodeSystem/measure-population","code":"denominator-exclusion","display":"Denominator Exclusion"}]},"count":0},{"code":{"coding":[{"system":"http://terminology.hl7.org/CodeSystem/measure-population","code":"numerator","display":"Numerator"}]},"count":0}]}]},"request":{"method":"PUT","url":"MeasureReport/9512325e-97cc-4d3f-8555-332c862dadd1"}}]}