{"resourceType":"Bundle","id":"tests-76f42831-b31b-48f0-9053-60754a77451c-bundle","type":"transaction","entry":[{"fullUrl":"https://madie.cms.gov/Patient/76f42831-b31b-48f0-9053-60754a77451c","resource":{"resourceType":"Patient","id":"76f42831-b31b-48f0-9053-60754a77451c","meta":{"profile":["http://hl7.org/fhir/us/qicore/StructureDefinition/qicore-patient"]},"text":{"status":"generated","div":"<div xmlns=\"http://www.w3.org/1999/xhtml\"><div class=\"hapiHeaderText\">HipSurgRank1 <b>DENEXPASS </b></div><table class=\"hapiPropertyTable\"><tbody><tr><td>Identifier</td><td>66c70c125db369967b4b164e75338304</td></tr><tr><td>Date of birth</td><td><span>01 September 2000</span></td></tr></tbody></table></div>"},"extension":[{"url":"http://hl7.org/fhir/us/core/StructureDefinition/us-core-race","extension":[{"url":"ombCategory","valueCoding":{"system":"urn:oid:2.16.840.1.113883.6.238","code":"1002-5","display":"American Indian or Alaska Native","userSelected":true}},{"url":"text","valueString":"American Indian or Alaska Native"}]},{"url":"http://hl7.org/fhir/us/core/StructureDefinition/us-core-ethnicity","extension":[{"url":"ombCategory","valueCoding":{"system":"urn:oid:2.16.840.1.113883.6.238","code":"2135-2","display":"Hispanic or Latino","userSelected":true}},{"url":"text","valueString":"Hispanic or Latino"}]}],"identifier":[{"type":{"coding":[{"system":"http://terminology.hl7.org/CodeSystem/v2-0203","code":"MR"}]},"system":"https://bonnie-fhir.healthit.gov/","value":"612e6b0202c62a011f2ec156"}],"active":true,"name":[{"use":"usual","family":"DENEXPass ","given":["HipSurgRank1"]}],"gender":"male","birthDate":"2001-09-01"},"request":{"method":"PUT","url":"Patient/76f42831-b31b-48f0-9053-60754a77451c"}},{"fullUrl":"https://madie.cms.gov/Encounter/3a53cb89-5eb5-4a5c-9cc5-bf2964ab9f69","resource":{"resourceType":"Encounter","id":"3a53cb89-5eb5-4a5c-9cc5-bf2964ab9f69","meta":{"profile":["http://hl7.org/fhir/us/qicore/StructureDefinition/qicore-encounter"]},"extension":[{"url":"http://hl7.org/fhir/us/qicore/StructureDefinition/qicore-encounter-procedure","extension":[{"url":"type","valueCodeableConcept":{"coding":[{"system":"http://www.cms.gov/Medicare/Coding/ICD10","code":"0SU90BZ"}]}},{"url":"rank","valuePositiveInt":1},{"url":"procedure","valueReference":{"reference":"Procedure/96877206-abd2-4e79-a00a-b93b7b4c8621"}}]}],"status":"finished","class":{"system":"http://terminology.hl7.org/CodeSystem/v3-ActCode","code":"IMP","display":"inpatient encounter"},"type":[{"coding":[{"system":"http://snomed.info/sct","code":"183452005"}]}],"subject":{"reference":"Patient/76f42831-b31b-48f0-9053-60754a77451c"},"period":{"start":"2026-09-02T06:00:00+00:00","end":"2026-12-31T12:59:00+00:00"},"length":{"value":120.0,"unit":"days"}},"request":{"method":"PUT","url":"Encounter/3a53cb89-5eb5-4a5c-9cc5-bf2964ab9f69"}},{"fullUrl":"https://madie.cms.gov/Coverage/dc1ff039-26cf-4b3f-a075-6ced68282967","resource":{"resourceType":"Coverage","id":"dc1ff039-26cf-4b3f-a075-6ced68282967","status":"active","beneficiary":{"reference":"Patient/76f42831-b31b-48f0-9053-60754a77451c"},"period":{"start":"2001-09-01T08:00:00+00:00"},"payor":[{"reference":"Organization/607fdef9-3983-4cef-ab1a-95434d29b463"}]},"request":{"method":"PUT","url":"Coverage/dc1ff039-26cf-4b3f-a075-6ced68282967"}},{"fullUrl":"https://madie.cms.gov/Procedure/96877206-abd2-4e79-a00a-b93b7b4c8621","resource":{"resourceType":"Procedure","id":"96877206-abd2-4e79-a00a-b93b7b4c8621","meta":{"profile":["http://hl7.org/fhir/us/qicore/StructureDefinition/qicore-procedure"]},"extension":[{"url":"http://hl7.org/fhir/us/qicore/StructureDefinition/qicore-recorded","valueDateTime":"2013-09-02T09:35:00-04:00"}],"status":"completed","code":{"coding":[{"system":"http://www.cms.gov/Medicare/Coding/ICD10","code":"0SU90BZ"}]},"subject":{"reference":"Patient/76f42831-b31b-48f0-9053-60754a77451c"},"performedPeriod":{"start":"2026-09-02T09:00:00+00:00","end":"2026-09-02T12:59:00+00:00"}},"request":{"method":"PUT","url":"Procedure/96877206-abd2-4e79-a00a-b93b7b4c8621"}},{"fullUrl":"https://madie.cms.gov/Organization/34b9b9a6-8829-4b34-a10b-d1f2d4e4e3f5","resource":{"resourceType":"Organization","id":"607fdef9-3983-4cef-ab1a-95434d29b463","meta":{"profile":["http://hl7.org/fhir/us/qicore/StructureDefinition/qicore-organization"]},"identifier":[{"use":"temp","system":"urn:oid:2.16.840.1.113883.4.4","value":"21-3259825"}],"active":true,"type":[{"coding":[{"system":"http://terminology.hl7.org/CodeSystem/organization-type","code":"pay","display":"Payer"}]}],"name":"Blue Cross Blue Shield of Texas","telecom":[{"system":"phone","value":"(+1) 972-766-6900"}],"address":[{"use":"billing","type":"postal","line":["P.O. Box 660044"],"city":"Dallas","state":"TX","postalCode":"75266-0044","country":"USA"}]},"request":{"method":"PUT","url":"Organization/607fdef9-3983-4cef-ab1a-95434d29b463"}},{"fullUrl":"https://madie.cms.gov/Practitioner/af87be26-4621-4c96-ae24-420371e418ef","resource":{"resourceType":"Practitioner","id":"af87be26-4621-4c96-ae24-420371e418ef","identifier":[{"system":"http://hl7.org/fhir/sid/us-npi","value":"123456"}],"name":[{"family":"Evil","prefix":["Dr"]}]},"request":{"method":"PUT","url":"Practitioner/af87be26-4621-4c96-ae24-420371e418ef"}},{"fullUrl":"https://madie.cms.gov/MeasureReport/02a11034-8d6e-4cca-9542-6f6df97abbdf","resource":{"resourceType":"MeasureReport","id":"02a11034-8d6e-4cca-9542-6f6df97abbdf","meta":{"profile":["http://hl7.org/fhir/us/cqfmeasures/StructureDefinition/test-case-cqfm"]},"contained":[{"resourceType":"Parameters","id":"c7e0bc55-433b-469f-a2fc-a75a673b9f03-parameters","parameter":[{"name":"subject","valueString":"76f42831-b31b-48f0-9053-60754a77451c"}]}],"extension":[{"url":"http://hl7.org/fhir/us/cqfmeasures/StructureDefinition/cqfm-inputParameters","valueReference":{"reference":"#c7e0bc55-433b-469f-a2fc-a75a673b9f03-parameters"}},{"url":"http://hl7.org/fhir/us/cqfmeasures/StructureDefinition/cqfm-testCaseDescription","valueMarkdown":"Patient had SCIP -Hip Replacemnet during Encounter and Rank =1\n"}],"modifierExtension":[{"url":"http://hl7.org/fhir/us/cqfmeasures/StructureDefinition/cqfm-isTestCase","valueBoolean":true}],"status":"complete","type":"individual","measure":"https://madie.cms.gov/Measure/CMS108VTEProphylaxisFHIR","period":{"start":"2026-01-01","end":"2026-12-31"},"group":[{"population":[{"code":{"coding":[{"system":"http://terminology.hl7.org/CodeSystem/measure-population","code":"initial-population","display":"Initial Population"}]},"count":1},{"code":{"coding":[{"system":"http://terminology.hl7.org/CodeSystem/measure-population","code":"denominator","display":"Denominator"}]},"count":1},{"code":{"coding":[{"system":"http://terminology.hl7.org/CodeSystem/measure-population","code":"denominator-exclusion","display":"Denominator Exclusion"}]},"count":1},{"code":{"coding":[{"system":"http://terminology.hl7.org/CodeSystem/measure-population","code":"numerator","display":"Numerator"}]},"count":0}]}]},"request":{"method":"PUT","url":"MeasureReport/02a11034-8d6e-4cca-9542-6f6df97abbdf"}}]}