{"resourceType":"Bundle","id":"tests-fa49d072-3d0c-4140-b2f8-d29c55346aa8-bundle","type":"transaction","entry":[{"fullUrl":"https://madie.cms.gov/Patient/fa49d072-3d0c-4140-b2f8-d29c55346aa8","resource":{"resourceType":"Patient","id":"fa49d072-3d0c-4140-b2f8-d29c55346aa8","meta":{"profile":["http://hl7.org/fhir/us/qicore/StructureDefinition/qicore-patient"]},"text":{"status":"generated","div":"<div xmlns=\"http://www.w3.org/1999/xhtml\"><div class=\"hapiHeaderText\">MA_UHep_EDendTimeOnIPEncStrtTm <b>NUMERPASS </b></div><table class=\"hapiPropertyTable\"><tbody><tr><td>Identifier</td><td>613a0a42598b5d681406521f174c78ac</td></tr><tr><td>Date of birth</td><td><span>02 January 1974</span></td></tr></tbody></table></div>"},"extension":[{"url":"http://hl7.org/fhir/us/core/StructureDefinition/us-core-race","extension":[{"url":"ombCategory","valueCoding":{"system":"urn:oid:2.16.840.1.113883.6.238","code":"1002-5","display":"American Indian or Alaska Native","userSelected":true}},{"url":"text","valueString":"American Indian or Alaska Native"}]},{"url":"http://hl7.org/fhir/us/core/StructureDefinition/us-core-ethnicity","extension":[{"url":"ombCategory","valueCoding":{"system":"urn:oid:2.16.840.1.113883.6.238","code":"2135-2","display":"Hispanic or Latino","userSelected":true}},{"url":"text","valueString":"Hispanic or Latino"}]}],"identifier":[{"type":{"coding":[{"system":"http://terminology.hl7.org/CodeSystem/v2-0203","code":"MR"}]},"system":"https://bonnie-fhir.healthit.gov/","value":"612e6b5d02c62a011f2ed7ba"}],"active":true,"name":[{"use":"usual","family":"NUMERPass","given":["MA_UHep_EDendTimeOnIPEncStrtTm"]}],"gender":"male","birthDate":"1975-01-02"},"request":{"method":"PUT","url":"Patient/fa49d072-3d0c-4140-b2f8-d29c55346aa8"}},{"fullUrl":"https://madie.cms.gov/Encounter/bbd52f46-2210-4634-b3f9-3a87326be485","resource":{"resourceType":"Encounter","id":"bbd52f46-2210-4634-b3f9-3a87326be485","meta":{"profile":["http://hl7.org/fhir/us/qicore/StructureDefinition/qicore-encounter"]},"status":"finished","class":{"system":"http://terminology.hl7.org/CodeSystem/v3-ActCode","code":"EMER","display":"emergency"},"type":[{"coding":[{"system":"http://snomed.info/sct","code":"4525004"}]}],"subject":{"reference":"Patient/fa49d072-3d0c-4140-b2f8-d29c55346aa8"},"period":{"start":"2026-10-30T06:00:00+00:00","end":"2026-11-01T08:00:00+00:00"},"length":{"value":2.0,"unit":"days"}},"request":{"method":"PUT","url":"Encounter/bbd52f46-2210-4634-b3f9-3a87326be485"}},{"fullUrl":"https://madie.cms.gov/Encounter/055eb0aa-553e-493e-bf9c-2801a9d2b31c","resource":{"resourceType":"Encounter","id":"055eb0aa-553e-493e-bf9c-2801a9d2b31c","meta":{"profile":["http://hl7.org/fhir/us/qicore/StructureDefinition/qicore-encounter"]},"status":"finished","class":{"system":"http://terminology.hl7.org/CodeSystem/v3-ActCode","code":"IMP","display":"inpatient encounter"},"type":[{"coding":[{"system":"http://snomed.info/sct","code":"8715000"}]}],"subject":{"reference":"Patient/fa49d072-3d0c-4140-b2f8-d29c55346aa8"},"period":{"start":"2026-11-01T08:00:00+00:00","end":"2026-11-26T08:15:00+00:00"},"length":{"value":25.0,"unit":"days"}},"request":{"method":"PUT","url":"Encounter/055eb0aa-553e-493e-bf9c-2801a9d2b31c"}},{"fullUrl":"https://madie.cms.gov/Coverage/f6a70e5c-be22-4212-91b8-4f2c1e69f1eb","resource":{"resourceType":"Coverage","id":"f6a70e5c-be22-4212-91b8-4f2c1e69f1eb","status":"active","beneficiary":{"reference":"Patient/fa49d072-3d0c-4140-b2f8-d29c55346aa8"},"period":{"start":"1975-01-02T08:00:00+00:00"},"payor":[{"reference":"Organization/607fdef9-3983-4cef-ab1a-95434d29b463"}]},"request":{"method":"PUT","url":"Coverage/f6a70e5c-be22-4212-91b8-4f2c1e69f1eb"}},{"fullUrl":"https://madie.cms.gov/MedicationAdministration/b3c7100e-f245-4732-be64-50518956185f","resource":{"resourceType":"MedicationAdministration","id":"b3c7100e-f245-4732-be64-50518956185f","meta":{"profile":["http://hl7.org/fhir/us/qicore/StructureDefinition/qicore-medicationadministration"]},"status":"completed","medicationCodeableConcept":{"coding":[{"system":"http://www.nlm.nih.gov/research/umls/rxnorm","code":"1361607"}]},"subject":{"reference":"Patient/fa49d072-3d0c-4140-b2f8-d29c55346aa8"},"effectivePeriod":{"start":"2026-11-01T06:00:00+00:00","end":"2026-11-01T07:00:00+00:00"},"dosage":{"route":{"coding":[{"system":"http://snomed.info/sct","code":"418114005","display":"Intravenous route"}]},"dose":{"value":500,"unit":"ml","system":"http://unitsofmeasure.org","code":"ml"}}},"request":{"method":"PUT","url":"MedicationAdministration/b3c7100e-f245-4732-be64-50518956185f"}},{"fullUrl":"https://madie.cms.gov/Organization/56e95e97-8357-4354-bf3c-babdce3e25a6","resource":{"resourceType":"Organization","id":"607fdef9-3983-4cef-ab1a-95434d29b463","meta":{"profile":["http://hl7.org/fhir/us/qicore/StructureDefinition/qicore-organization"]},"identifier":[{"use":"temp","system":"urn:oid:2.16.840.1.113883.4.4","value":"21-3259825"}],"active":true,"type":[{"coding":[{"system":"http://terminology.hl7.org/CodeSystem/organization-type","code":"pay","display":"Payer"}]}],"name":"Blue Cross Blue Shield of Texas","telecom":[{"system":"phone","value":"(+1) 972-766-6900"}],"address":[{"use":"billing","type":"postal","line":["P.O. Box 660044"],"city":"Dallas","state":"TX","postalCode":"75266-0044","country":"USA"}]},"request":{"method":"PUT","url":"Organization/607fdef9-3983-4cef-ab1a-95434d29b463"}},{"fullUrl":"https://madie.cms.gov/Practitioner/cc6ce311-616e-4249-8d9f-c0df06df7086","resource":{"resourceType":"Practitioner","id":"cc6ce311-616e-4249-8d9f-c0df06df7086","identifier":[{"system":"http://hl7.org/fhir/sid/us-npi","value":"123456"}],"name":[{"family":"Evil","prefix":["Dr"]}]},"request":{"method":"PUT","url":"Practitioner/cc6ce311-616e-4249-8d9f-c0df06df7086"}},{"fullUrl":"https://madie.cms.gov/MeasureReport/b2649e17-62ec-4168-b6cc-a89f936fccb2","resource":{"resourceType":"MeasureReport","id":"b2649e17-62ec-4168-b6cc-a89f936fccb2","meta":{"profile":["http://hl7.org/fhir/us/cqfmeasures/StructureDefinition/test-case-cqfm"]},"contained":[{"resourceType":"Parameters","id":"8e0cb505-1f9c-4c1e-b33c-65a0bc2a266f-parameters","parameter":[{"name":"subject","valueString":"fa49d072-3d0c-4140-b2f8-d29c55346aa8"}]}],"extension":[{"url":"http://hl7.org/fhir/us/cqfmeasures/StructureDefinition/cqfm-inputParameters","valueReference":{"reference":"#8e0cb505-1f9c-4c1e-b33c-65a0bc2a266f-parameters"}},{"url":"http://hl7.org/fhir/us/cqfmeasures/StructureDefinition/cqfm-testCaseDescription","valueMarkdown":">18, LOS<120 day, Unfractionated Heparin during ED, EDendTime concurrent EncInp StartTime\n"}],"modifierExtension":[{"url":"http://hl7.org/fhir/us/cqfmeasures/StructureDefinition/cqfm-isTestCase","valueBoolean":true}],"status":"complete","type":"individual","measure":"https://madie.cms.gov/Measure/CMS108VTEProphylaxisFHIR","period":{"start":"2026-01-01","end":"2026-12-31"},"group":[{"population":[{"code":{"coding":[{"system":"http://terminology.hl7.org/CodeSystem/measure-population","code":"initial-population","display":"Initial Population"}]},"count":1},{"code":{"coding":[{"system":"http://terminology.hl7.org/CodeSystem/measure-population","code":"denominator","display":"Denominator"}]},"count":1},{"code":{"coding":[{"system":"http://terminology.hl7.org/CodeSystem/measure-population","code":"denominator-exclusion","display":"Denominator Exclusion"}]},"count":0},{"code":{"coding":[{"system":"http://terminology.hl7.org/CodeSystem/measure-population","code":"numerator","display":"Numerator"}]},"count":1}]}]},"request":{"method":"PUT","url":"MeasureReport/b2649e17-62ec-4168-b6cc-a89f936fccb2"}}]}