{"resourceType":"Bundle","id":"tests-104887a9-056e-4fd3-b47a-176eefbd090b-bundle","type":"transaction","entry":[{"fullUrl":"https://madie.cms.gov/Patient/104887a9-056e-4fd3-b47a-176eefbd090b","resource":{"resourceType":"Patient","id":"104887a9-056e-4fd3-b47a-176eefbd090b","meta":{"profile":["http://hl7.org/fhir/us/qicore/StructureDefinition/qicore-patient"]},"text":{"status":"generated","div":"<div xmlns=\"http://www.w3.org/1999/xhtml\"><div class=\"hapiHeaderText\">CMODrgED2HrsBFAdmSameDateAdmDateDoNotPerformFalse <b>DENEXPASS </b></div><table class=\"hapiPropertyTable\"><tbody><tr><td>Identifier</td><td>059b8a3b4412b01787dc1d643429cbf6</td></tr><tr><td>Date of birth</td><td><span>02 January 1974</span></td></tr></tbody></table></div>"},"extension":[{"url":"http://hl7.org/fhir/us/core/StructureDefinition/us-core-race","extension":[{"url":"ombCategory","valueCoding":{"system":"urn:oid:2.16.840.1.113883.6.238","code":"1002-5","display":"American Indian or Alaska Native","userSelected":true}},{"url":"text","valueString":"American Indian or Alaska Native"}]},{"url":"http://hl7.org/fhir/us/core/StructureDefinition/us-core-ethnicity","extension":[{"url":"ombCategory","valueCoding":{"system":"urn:oid:2.16.840.1.113883.6.238","code":"2135-2","display":"Hispanic or Latino","userSelected":true}},{"url":"text","valueString":"Hispanic or Latino"}]}],"identifier":[{"type":{"coding":[{"system":"http://terminology.hl7.org/CodeSystem/v2-0203","code":"MR"}]},"system":"https://bonnie-fhir.healthit.gov/","value":"612e6b4302c62a011f2ed188"}],"active":true,"name":[{"use":"usual","family":"DENEXPass","given":["CMODrgED2HrsBFAdmSameDateAdmDateDoNotPerformFalse"]}],"gender":"male","birthDate":"1975-01-02"},"request":{"method":"PUT","url":"Patient/104887a9-056e-4fd3-b47a-176eefbd090b"}},{"fullUrl":"https://madie.cms.gov/Encounter/23bd4137-1507-43e8-a3a2-f25963b8b6ca","resource":{"resourceType":"Encounter","id":"23bd4137-1507-43e8-a3a2-f25963b8b6ca","meta":{"profile":["http://hl7.org/fhir/us/qicore/StructureDefinition/qicore-encounter"]},"status":"finished","class":{"system":"http://terminology.hl7.org/CodeSystem/v3-ActCode","code":"EMER","display":"emergency"},"type":[{"coding":[{"system":"http://snomed.info/sct","code":"4525004"}]}],"subject":{"reference":"Patient/104887a9-056e-4fd3-b47a-176eefbd090b"},"period":{"start":"2026-11-01T03:00:00+00:00","end":"2026-11-01T05:15:00+00:00"},"length":{"value":0,"unit":"days"}},"request":{"method":"PUT","url":"Encounter/23bd4137-1507-43e8-a3a2-f25963b8b6ca"}},{"fullUrl":"https://madie.cms.gov/Encounter/2536e428-84ab-4bf0-8217-e73e03997354","resource":{"resourceType":"Encounter","id":"2536e428-84ab-4bf0-8217-e73e03997354","meta":{"profile":["http://hl7.org/fhir/us/qicore/StructureDefinition/qicore-encounter"]},"status":"finished","class":{"system":"http://terminology.hl7.org/CodeSystem/v3-ActCode","code":"IMP","display":"inpatient encounter"},"type":[{"coding":[{"system":"http://snomed.info/sct","code":"8715000"}]}],"subject":{"reference":"Patient/104887a9-056e-4fd3-b47a-176eefbd090b"},"period":{"start":"2026-11-01T08:00:00+00:00","end":"2026-11-26T08:15:00+00:00"},"length":{"value":25,"unit":"days"}},"request":{"method":"PUT","url":"Encounter/2536e428-84ab-4bf0-8217-e73e03997354"}},{"fullUrl":"https://madie.cms.gov/ServiceRequest/b0197b04-b086-44e9-9462-bb6f87d76fd1","resource":{"resourceType":"ServiceRequest","id":"b0197b04-b086-44e9-9462-bb6f87d76fd1","meta":{"profile":["http://hl7.org/fhir/us/qicore/StructureDefinition/qicore-servicerequest"]},"status":"completed","intent":"order","doNotPerform":false,"code":{"coding":[{"system":"http://snomed.info/sct","code":"133918004"}]},"subject":{"reference":"Patient/104887a9-056e-4fd3-b47a-176eefbd090b"},"authoredOn":"2026-11-01T05:00:00+00:00"},"request":{"method":"PUT","url":"ServiceRequest/b0197b04-b086-44e9-9462-bb6f87d76fd1"}},{"fullUrl":"https://madie.cms.gov/Coverage/f7be67bd-3d59-4dfb-9726-9895b85b81b5","resource":{"resourceType":"Coverage","id":"f7be67bd-3d59-4dfb-9726-9895b85b81b5","status":"active","beneficiary":{"reference":"Patient/104887a9-056e-4fd3-b47a-176eefbd090b"},"period":{"start":"1975-01-02T08:00:00+00:00"},"payor":[{"reference":"Organization/db141f66-a1cc-407b-9e95-adac27adee14"}]},"request":{"method":"PUT","url":"Coverage/f7be67bd-3d59-4dfb-9726-9895b85b81b5"}},{"fullUrl":"https://madie.cms.gov/Organization/f2077e61-3823-422f-ad42-94a1016a508d","resource":{"resourceType":"Organization","id":"db141f66-a1cc-407b-9e95-adac27adee14","meta":{"profile":["http://hl7.org/fhir/us/qicore/StructureDefinition/qicore-organization"]},"identifier":[{"use":"temp","system":"urn:oid:2.16.840.1.113883.4.4","value":"21-3259825"}],"active":true,"type":[{"coding":[{"system":"http://terminology.hl7.org/CodeSystem/organization-type","code":"pay","display":"Payer"}]}],"name":"Blue Cross Blue Shield of Texas","telecom":[{"system":"phone","value":"(+1) 972-766-6900"}],"address":[{"use":"billing","type":"postal","line":["P.O. Box 660044"],"city":"Dallas","state":"TX","postalCode":"75266-0044","country":"USA"}]},"request":{"method":"PUT","url":"Organization/db141f66-a1cc-407b-9e95-adac27adee14"}},{"fullUrl":"https://madie.cms.gov/Practitioner/08ce308f-3d2a-4a07-a08e-2b8aafc2f15b","resource":{"resourceType":"Practitioner","id":"08ce308f-3d2a-4a07-a08e-2b8aafc2f15b","identifier":[{"system":"http://hl7.org/fhir/sid/us-npi","value":"123456"}],"name":[{"family":"Evil","prefix":["Dr"]}]},"request":{"method":"PUT","url":"Practitioner/08ce308f-3d2a-4a07-a08e-2b8aafc2f15b"}},{"fullUrl":"https://madie.cms.gov/MeasureReport/9a9ac325-3b48-49d6-9ad2-f9887a95ddf4","resource":{"resourceType":"MeasureReport","id":"9a9ac325-3b48-49d6-9ad2-f9887a95ddf4","meta":{"profile":["http://hl7.org/fhir/us/cqfmeasures/StructureDefinition/test-case-cqfm"]},"contained":[{"resourceType":"Parameters","id":"791f89ad-8df0-4355-a823-e9443c27d95e-parameters","parameter":[{"name":"subject","valueString":"104887a9-056e-4fd3-b47a-176eefbd090b"}]}],"extension":[{"url":"http://hl7.org/fhir/us/cqfmeasures/StructureDefinition/cqfm-inputParameters","valueReference":{"reference":"#791f89ad-8df0-4355-a823-e9443c27d95e-parameters"}},{"url":"http://hl7.org/fhir/us/cqfmeasures/StructureDefinition/cqfm-testCaseDescription","valueMarkdown":"CMO occurs in ED that ED ends > 1 hour before Adm. But this case pass because it is on the same day as adm date\n"}],"modifierExtension":[{"url":"http://hl7.org/fhir/us/cqfmeasures/StructureDefinition/cqfm-isTestCase","valueBoolean":true}],"status":"complete","type":"individual","measure":"https://madie.cms.gov/Measure/CMS108VTEProphylaxisFHIR","period":{"start":"2026-01-01","end":"2026-12-31"},"group":[{"population":[{"code":{"coding":[{"system":"http://terminology.hl7.org/CodeSystem/measure-population","code":"initial-population","display":"Initial Population"}]},"count":1},{"code":{"coding":[{"system":"http://terminology.hl7.org/CodeSystem/measure-population","code":"denominator","display":"Denominator"}]},"count":1},{"code":{"coding":[{"system":"http://terminology.hl7.org/CodeSystem/measure-population","code":"denominator-exclusion","display":"Denominator Exclusion"}]},"count":1},{"code":{"coding":[{"system":"http://terminology.hl7.org/CodeSystem/measure-population","code":"numerator","display":"Numerator"}]},"count":0}]}]},"request":{"method":"PUT","url":"MeasureReport/9a9ac325-3b48-49d6-9ad2-f9887a95ddf4"}}]}