{"resourceType":"Bundle","id":"tests-610c90c9-f387-40f8-9bd7-710d20dfd6f0-bundle","type":"transaction","entry":[{"fullUrl":"https://madie.cms.gov/Patient/610c90c9-f387-40f8-9bd7-710d20dfd6f0","resource":{"resourceType":"Patient","id":"610c90c9-f387-40f8-9bd7-710d20dfd6f0","meta":{"profile":["http://hl7.org/fhir/us/qicore/StructureDefinition/qicore-patient"]},"text":{"status":"generated","div":"<div xmlns=\"http://www.w3.org/1999/xhtml\"><div class=\"hapiHeaderText\">MA_LMWH_DayOfAnes <b>NUMERPASS </b></div><table class=\"hapiPropertyTable\"><tbody><tr><td>Identifier</td><td>b927d5087a427d5964453696d616a163</td></tr><tr><td>Date of birth</td><td><span>02 January 1974</span></td></tr></tbody></table></div>"},"extension":[{"url":"http://hl7.org/fhir/us/core/StructureDefinition/us-core-race","extension":[{"url":"ombCategory","valueCoding":{"system":"urn:oid:2.16.840.1.113883.6.238","code":"1002-5","display":"American Indian or Alaska Native","userSelected":true}},{"url":"text","valueString":"American Indian or Alaska Native"}]},{"url":"http://hl7.org/fhir/us/core/StructureDefinition/us-core-ethnicity","extension":[{"url":"ombCategory","valueCoding":{"system":"urn:oid:2.16.840.1.113883.6.238","code":"2135-2","display":"Hispanic or Latino","userSelected":true}},{"url":"text","valueString":"Hispanic or Latino"}]}],"identifier":[{"type":{"coding":[{"system":"http://terminology.hl7.org/CodeSystem/v2-0203","code":"MR"}]},"system":"https://bonnie-fhir.healthit.gov/","value":"612e6a8f02c62a011f2ea597"}],"active":true,"name":[{"use":"usual","family":"NUMERPass","given":["MA_LMWH_DayOfAnes"]}],"gender":"male","birthDate":"1975-01-02"},"request":{"method":"PUT","url":"Patient/610c90c9-f387-40f8-9bd7-710d20dfd6f0"}},{"fullUrl":"https://madie.cms.gov/Encounter/a5309d05-e5d1-4b30-b39c-a12d67f6e242","resource":{"resourceType":"Encounter","id":"a5309d05-e5d1-4b30-b39c-a12d67f6e242","meta":{"profile":["http://hl7.org/fhir/us/qicore/StructureDefinition/qicore-encounter"]},"status":"finished","class":{"system":"http://terminology.hl7.org/CodeSystem/v3-ActCode","code":"IMP","display":"inpatient encounter"},"type":[{"coding":[{"system":"http://snomed.info/sct","code":"8715000"}]}],"subject":{"reference":"Patient/610c90c9-f387-40f8-9bd7-710d20dfd6f0"},"period":{"start":"2026-11-01T08:00:00+00:00","end":"2026-11-26T08:15:00+00:00"},"length":{"value":25.0,"unit":"days"}},"request":{"method":"PUT","url":"Encounter/a5309d05-e5d1-4b30-b39c-a12d67f6e242"}},{"fullUrl":"https://madie.cms.gov/Coverage/dd4749ab-ffd9-44e2-9180-d8a0c59b95cf","resource":{"resourceType":"Coverage","id":"dd4749ab-ffd9-44e2-9180-d8a0c59b95cf","status":"active","beneficiary":{"reference":"Patient/610c90c9-f387-40f8-9bd7-710d20dfd6f0"},"period":{"start":"1975-01-02T08:00:00+00:00"},"payor":[{"reference":"Organization/18ca435c-cae6-4c34-8033-af717477f9fc"}]},"request":{"method":"PUT","url":"Coverage/dd4749ab-ffd9-44e2-9180-d8a0c59b95cf"}},{"fullUrl":"https://madie.cms.gov/MedicationAdministration/f4f8fe09-0de3-495b-917f-7d937e7ef920","resource":{"resourceType":"MedicationAdministration","id":"f4f8fe09-0de3-495b-917f-7d937e7ef920","meta":{"profile":["http://hl7.org/fhir/us/qicore/StructureDefinition/qicore-medicationadministration"]},"status":"completed","medicationCodeableConcept":{"coding":[{"system":"http://www.nlm.nih.gov/research/umls/rxnorm","code":"854228"}]},"subject":{"reference":"Patient/610c90c9-f387-40f8-9bd7-710d20dfd6f0"},"effectivePeriod":{"start":"2026-11-01T10:00:00+00:00"}},"request":{"method":"PUT","url":"MedicationAdministration/f4f8fe09-0de3-495b-917f-7d937e7ef920"}},{"fullUrl":"https://madie.cms.gov/Procedure/c3f70619-2790-43bf-be06-5d9d352da75c","resource":{"resourceType":"Procedure","id":"c3f70619-2790-43bf-be06-5d9d352da75c","meta":{"profile":["http://hl7.org/fhir/us/qicore/StructureDefinition/qicore-procedure"]},"extension":[{"url":"http://hl7.org/fhir/us/qicore/StructureDefinition/qicore-recorded","valueDateTime":"2013-11-01T09:35:00-04:00"}],"status":"completed","code":{"coding":[{"system":"http://www.icd10data.com/icd10pcs","code":"3E030FZ"},{"system":"http://snomed.info/sct","code":"18946005"}]},"subject":{"reference":"Patient/610c90c9-f387-40f8-9bd7-710d20dfd6f0"},"performedPeriod":{"start":"2026-11-01T09:00:00+00:00","end":"2026-11-01T09:15:00+00:00"}},"request":{"method":"PUT","url":"Procedure/c3f70619-2790-43bf-be06-5d9d352da75c"}},{"fullUrl":"https://madie.cms.gov/Organization/7f13f210-6122-44b6-83fa-1ce7c6f98d92","resource":{"resourceType":"Organization","id":"18ca435c-cae6-4c34-8033-af717477f9fc","meta":{"profile":["http://hl7.org/fhir/us/qicore/StructureDefinition/qicore-organization"]},"identifier":[{"use":"temp","system":"urn:oid:2.16.840.1.113883.4.4","value":"21-3259825"}],"active":true,"type":[{"coding":[{"system":"http://terminology.hl7.org/CodeSystem/organization-type","code":"pay","display":"Payer"}]}],"name":"Blue Cross Blue Shield of Texas","telecom":[{"system":"phone","value":"(+1) 972-766-6900"}],"address":[{"use":"billing","type":"postal","line":["P.O. Box 660044"],"city":"Dallas","state":"TX","postalCode":"75266-0044","country":"USA"}]},"request":{"method":"PUT","url":"Organization/18ca435c-cae6-4c34-8033-af717477f9fc"}},{"fullUrl":"https://madie.cms.gov/Practitioner/9cb2240e-56f1-41e3-ad6f-6c8dfc05741c","resource":{"resourceType":"Practitioner","id":"9cb2240e-56f1-41e3-ad6f-6c8dfc05741c","identifier":[{"system":"http://hl7.org/fhir/sid/us-npi","value":"123456"}],"name":[{"family":"Evil","prefix":["Dr"]}]},"request":{"method":"PUT","url":"Practitioner/9cb2240e-56f1-41e3-ad6f-6c8dfc05741c"}},{"fullUrl":"https://madie.cms.gov/MeasureReport/39468575-ab4c-4444-b55c-4246e18c9386","resource":{"resourceType":"MeasureReport","id":"39468575-ab4c-4444-b55c-4246e18c9386","meta":{"profile":["http://hl7.org/fhir/us/cqfmeasures/StructureDefinition/test-case-cqfm"]},"contained":[{"resourceType":"Parameters","id":"bebb1b30-801a-495f-8ad1-0a84a64f8fd1-parameters","parameter":[{"name":"subject","valueString":"610c90c9-f387-40f8-9bd7-710d20dfd6f0"}]}],"extension":[{"url":"http://hl7.org/fhir/us/cqfmeasures/StructureDefinition/cqfm-inputParameters","valueReference":{"reference":"#bebb1b30-801a-495f-8ad1-0a84a64f8fd1-parameters"}},{"url":"http://hl7.org/fhir/us/cqfmeasures/StructureDefinition/cqfm-testCaseDescription","valueMarkdown":"lmwh administered =0  day after end of anesthesia\n"}],"modifierExtension":[{"url":"http://hl7.org/fhir/us/cqfmeasures/StructureDefinition/cqfm-isTestCase","valueBoolean":true}],"status":"complete","type":"individual","measure":"https://madie.cms.gov/Measure/CMS108VTEProphylaxisFHIR","period":{"start":"2026-01-01","end":"2026-12-31"},"group":[{"population":[{"code":{"coding":[{"system":"http://terminology.hl7.org/CodeSystem/measure-population","code":"initial-population","display":"Initial Population"}]},"count":1},{"code":{"coding":[{"system":"http://terminology.hl7.org/CodeSystem/measure-population","code":"denominator","display":"Denominator"}]},"count":1},{"code":{"coding":[{"system":"http://terminology.hl7.org/CodeSystem/measure-population","code":"denominator-exclusion","display":"Denominator Exclusion"}]},"count":0},{"code":{"coding":[{"system":"http://terminology.hl7.org/CodeSystem/measure-population","code":"numerator","display":"Numerator"}]},"count":1}]}]},"request":{"method":"PUT","url":"MeasureReport/39468575-ab4c-4444-b55c-4246e18c9386"}}]}