{"resourceType":"Bundle","id":"tests-8eb00db0-32af-43c6-9c00-79eb2a4462ad-bundle","type":"transaction","entry":[{"fullUrl":"https://madie.cms.gov/Patient/8eb00db0-32af-43c6-9c00-79eb2a4462ad","resource":{"resourceType":"Patient","id":"8eb00db0-32af-43c6-9c00-79eb2a4462ad","meta":{"profile":["http://hl7.org/fhir/us/qicore/StructureDefinition/qicore-patient"]},"text":{"status":"generated","div":"<div xmlns=\"http://www.w3.org/1999/xhtml\"><div class=\"hapiHeaderText\">MA_LDUHep_2DaysAfterAnesth <b>NUMERFAIL </b></div><table class=\"hapiPropertyTable\"><tbody><tr><td>Identifier</td><td>5f49439a0368777e213ee1936c981e56</td></tr><tr><td>Date of birth</td><td><span>02 January 1974</span></td></tr></tbody></table></div>"},"extension":[{"url":"http://hl7.org/fhir/us/core/StructureDefinition/us-core-race","extension":[{"url":"ombCategory","valueCoding":{"system":"urn:oid:2.16.840.1.113883.6.238","code":"1002-5","display":"American Indian or Alaska Native","userSelected":true}},{"url":"text","valueString":"American Indian or Alaska Native"}]},{"url":"http://hl7.org/fhir/us/core/StructureDefinition/us-core-ethnicity","extension":[{"url":"ombCategory","valueCoding":{"system":"urn:oid:2.16.840.1.113883.6.238","code":"2135-2","display":"Hispanic or Latino","userSelected":true}},{"url":"text","valueString":"Hispanic or Latino"}]}],"identifier":[{"type":{"coding":[{"system":"http://terminology.hl7.org/CodeSystem/v2-0203","code":"MR"}]},"system":"https://bonnie-fhir.healthit.gov/","value":"612e6a5102c62a011f2e99b8"}],"active":true,"name":[{"use":"usual","family":"NUMERFail","given":["MA_LDUHep_2DaysAfterAnesth"]}],"gender":"male","birthDate":"1975-01-02"},"request":{"method":"PUT","url":"Patient/8eb00db0-32af-43c6-9c00-79eb2a4462ad"}},{"fullUrl":"https://madie.cms.gov/Encounter/5cd1c897-e70c-47d4-a534-e28560618f1e","resource":{"resourceType":"Encounter","id":"5cd1c897-e70c-47d4-a534-e28560618f1e","meta":{"profile":["http://hl7.org/fhir/us/qicore/StructureDefinition/qicore-encounter"]},"status":"finished","class":{"system":"http://terminology.hl7.org/CodeSystem/v3-ActCode","code":"IMP","display":"inpatient encounter"},"type":[{"coding":[{"system":"http://snomed.info/sct","code":"8715000"}]}],"subject":{"reference":"Patient/8eb00db0-32af-43c6-9c00-79eb2a4462ad"},"period":{"start":"2026-11-01T08:00:00+00:00","end":"2026-11-26T08:15:00+00:00"},"length":{"value":25,"unit":"days"}},"request":{"method":"PUT","url":"Encounter/5cd1c897-e70c-47d4-a534-e28560618f1e"}},{"fullUrl":"https://madie.cms.gov/Coverage/7c80a6f8-5099-4437-b5cb-5bbd13746b04","resource":{"resourceType":"Coverage","id":"7c80a6f8-5099-4437-b5cb-5bbd13746b04","status":"active","beneficiary":{"reference":"Patient/8eb00db0-32af-43c6-9c00-79eb2a4462ad"},"period":{"start":"1975-01-02T08:00:00+00:00"},"payor":[{"reference":"Organization/3e899f33-84eb-4634-a770-a5a0bd7a80e7"}]},"request":{"method":"PUT","url":"Coverage/7c80a6f8-5099-4437-b5cb-5bbd13746b04"}},{"fullUrl":"https://madie.cms.gov/MedicationAdministration/c29f40ee-14f0-4c2c-9154-e1699cfa1320","resource":{"resourceType":"MedicationAdministration","id":"c29f40ee-14f0-4c2c-9154-e1699cfa1320","meta":{"profile":["http://hl7.org/fhir/us/qicore/StructureDefinition/qicore-medicationadministration"]},"status":"completed","medicationCodeableConcept":{"coding":[{"system":"http://www.nlm.nih.gov/research/umls/rxnorm","code":"1361574"}]},"subject":{"reference":"Patient/8eb00db0-32af-43c6-9c00-79eb2a4462ad"},"effectivePeriod":{"start":"2026-11-03T09:00:00+00:00","end":"2026-11-03T09:15:00+00:00"},"dosage":{"route":{"coding":[{"system":"http://snomed.info/sct","code":"34206005","display":"Subcutaneous route"}]},"dose":{"value":20000,"unit":"UNT/ML","system":"http://unitsofmeasure.org","code":"ML"}}},"request":{"method":"PUT","url":"MedicationAdministration/c29f40ee-14f0-4c2c-9154-e1699cfa1320"}},{"fullUrl":"https://madie.cms.gov/Procedure/2062fc29-b7c0-4699-8593-9cbd770a83cb","resource":{"resourceType":"Procedure","id":"2062fc29-b7c0-4699-8593-9cbd770a83cb","meta":{"profile":["http://hl7.org/fhir/us/qicore/StructureDefinition/qicore-procedure"]},"extension":[{"url":"http://hl7.org/fhir/us/qicore/StructureDefinition/qicore-recorded","valueDateTime":"2013-12-04T09:35:00-04:00"}],"status":"completed","code":{"coding":[{"system":"http://www.icd10data.com/icd10pcs","code":"3E030FZ"},{"system":"http://snomed.info/sct","code":"18946005"}]},"subject":{"reference":"Patient/8eb00db0-32af-43c6-9c00-79eb2a4462ad"},"performedPeriod":{"start":"2026-11-01T09:00:00+00:00","end":"2026-11-01T09:15:00+00:00"}},"request":{"method":"PUT","url":"Procedure/2062fc29-b7c0-4699-8593-9cbd770a83cb"}},{"fullUrl":"https://madie.cms.gov/Organization/04bd889d-4bbd-456d-bb22-54aaa47dc40a","resource":{"resourceType":"Organization","id":"3e899f33-84eb-4634-a770-a5a0bd7a80e7","meta":{"profile":["http://hl7.org/fhir/us/qicore/StructureDefinition/qicore-organization"]},"identifier":[{"use":"temp","system":"urn:oid:2.16.840.1.113883.4.4","value":"21-3259825"}],"active":true,"type":[{"coding":[{"system":"http://terminology.hl7.org/CodeSystem/organization-type","code":"pay","display":"Payer"}]}],"name":"Blue Cross Blue Shield of Texas","telecom":[{"system":"phone","value":"(+1) 972-766-6900"}],"address":[{"use":"billing","type":"postal","line":["P.O. Box 660044"],"city":"Dallas","state":"TX","postalCode":"75266-0044","country":"USA"}]},"request":{"method":"PUT","url":"Organization/3e899f33-84eb-4634-a770-a5a0bd7a80e7"}},{"fullUrl":"https://madie.cms.gov/Practitioner/7e18a5ad-d709-4982-aed3-4b3c1d4e6e7e","resource":{"resourceType":"Practitioner","id":"7e18a5ad-d709-4982-aed3-4b3c1d4e6e7e","identifier":[{"system":"http://hl7.org/fhir/sid/us-npi","value":"123456"}],"name":[{"family":"Evil","prefix":["Dr"]}]},"request":{"method":"PUT","url":"Practitioner/7e18a5ad-d709-4982-aed3-4b3c1d4e6e7e"}},{"fullUrl":"https://madie.cms.gov/MeasureReport/187a993b-9467-4f02-b9d7-5f8d1a599dd0","resource":{"resourceType":"MeasureReport","id":"187a993b-9467-4f02-b9d7-5f8d1a599dd0","meta":{"profile":["http://hl7.org/fhir/us/cqfmeasures/StructureDefinition/test-case-cqfm"]},"contained":[{"resourceType":"Parameters","id":"de96e769-0a0a-4dbd-8d49-1ad5ef1849ca-parameters","parameter":[{"name":"subject","valueString":"8eb00db0-32af-43c6-9c00-79eb2a4462ad"}]}],"extension":[{"url":"http://hl7.org/fhir/us/cqfmeasures/StructureDefinition/cqfm-inputParameters","valueReference":{"reference":"#de96e769-0a0a-4dbd-8d49-1ad5ef1849ca-parameters"}},{"url":"http://hl7.org/fhir/us/cqfmeasures/StructureDefinition/cqfm-testCaseDescription","valueMarkdown":"Low Dose Unfractionated Heparin for VTE Prophylaxis administered > 1 day after anesthesia\n"}],"modifierExtension":[{"url":"http://hl7.org/fhir/us/cqfmeasures/StructureDefinition/cqfm-isTestCase","valueBoolean":true}],"status":"complete","type":"individual","measure":"https://madie.cms.gov/Measure/CMS108VTEProphylaxisFHIR","period":{"start":"2026-01-01","end":"2026-12-31"},"group":[{"population":[{"code":{"coding":[{"system":"http://terminology.hl7.org/CodeSystem/measure-population","code":"initial-population","display":"Initial Population"}]},"count":1},{"code":{"coding":[{"system":"http://terminology.hl7.org/CodeSystem/measure-population","code":"denominator","display":"Denominator"}]},"count":1},{"code":{"coding":[{"system":"http://terminology.hl7.org/CodeSystem/measure-population","code":"denominator-exclusion","display":"Denominator Exclusion"}]},"count":0},{"code":{"coding":[{"system":"http://terminology.hl7.org/CodeSystem/measure-population","code":"numerator","display":"Numerator"}]},"count":0}]}]},"request":{"method":"PUT","url":"MeasureReport/187a993b-9467-4f02-b9d7-5f8d1a599dd0"}}]}