{"resourceType":"Bundle","id":"tests-ccd7f9d7-35e8-4623-9f2e-f229cf7d829c-bundle","type":"transaction","entry":[{"fullUrl":"https://madie.cms.gov/Patient/ccd7f9d7-35e8-4623-9f2e-f229cf7d829c","resource":{"resourceType":"Patient","id":"ccd7f9d7-35e8-4623-9f2e-f229cf7d829c","meta":{"profile":["http://hl7.org/fhir/us/qicore/StructureDefinition/qicore-patient"]},"text":{"status":"generated","div":"<div xmlns=\"http://www.w3.org/1999/xhtml\"><div class=\"hapiHeaderText\">PtRef_DA_IPC_DuringOBS <b>NUMERPASS </b></div><table class=\"hapiPropertyTable\"><tbody><tr><td>Identifier</td><td>5f7ad5e9fc357bf072546722e2c19e60</td></tr><tr><td>Date of birth</td><td><span>02 January 1974</span></td></tr></tbody></table></div>"},"extension":[{"url":"http://hl7.org/fhir/us/core/StructureDefinition/us-core-race","extension":[{"url":"ombCategory","valueCoding":{"system":"urn:oid:2.16.840.1.113883.6.238","code":"1002-5","display":"American Indian or Alaska Native","userSelected":true}},{"url":"text","valueString":"American Indian or Alaska Native"}]},{"url":"http://hl7.org/fhir/us/core/StructureDefinition/us-core-ethnicity","extension":[{"url":"ombCategory","valueCoding":{"system":"urn:oid:2.16.840.1.113883.6.238","code":"2135-2","display":"Hispanic or Latino","userSelected":true}},{"url":"text","valueString":"Hispanic or Latino"}]}],"identifier":[{"type":{"coding":[{"system":"http://terminology.hl7.org/CodeSystem/v2-0203","code":"MR"}]},"system":"https://bonnie-fhir.healthit.gov/","value":"612e6ab302c62a011f2eafaf"}],"active":true,"name":[{"use":"usual","family":"NUMERPass","given":["PtRef_DA_IPC_DuringOBS"]}],"gender":"male","birthDate":"1975-01-02"},"request":{"method":"PUT","url":"Patient/ccd7f9d7-35e8-4623-9f2e-f229cf7d829c"}},{"fullUrl":"https://madie.cms.gov/Encounter/15cae2ee-9179-4945-a45b-020a3d7adc23","resource":{"resourceType":"Encounter","id":"15cae2ee-9179-4945-a45b-020a3d7adc23","meta":{"profile":["http://hl7.org/fhir/us/qicore/StructureDefinition/qicore-encounter"]},"status":"finished","class":{"system":"http://terminology.hl7.org/CodeSystem/v3-ActCode","code":"OBSENC","display":"observation encounter"},"type":[{"coding":[{"system":"http://snomed.info/sct","code":"448951000124107"}]}],"subject":{"reference":"Patient/ccd7f9d7-35e8-4623-9f2e-f229cf7d829c"},"period":{"start":"2026-10-31T05:00:00+00:00","end":"2026-11-01T07:15:00+00:00"},"length":{"value":1,"unit":"days"}},"request":{"method":"PUT","url":"Encounter/15cae2ee-9179-4945-a45b-020a3d7adc23"}},{"fullUrl":"https://madie.cms.gov/Encounter/b3503c62-8210-43d8-b7b8-78e3ba20bed3","resource":{"resourceType":"Encounter","id":"b3503c62-8210-43d8-b7b8-78e3ba20bed3","meta":{"profile":["http://hl7.org/fhir/us/qicore/StructureDefinition/qicore-encounter"]},"status":"finished","class":{"system":"http://terminology.hl7.org/CodeSystem/v3-ActCode","code":"IMP","display":"inpatient encounter"},"type":[{"coding":[{"system":"http://snomed.info/sct","code":"8715000"}]}],"subject":{"reference":"Patient/ccd7f9d7-35e8-4623-9f2e-f229cf7d829c"},"period":{"start":"2026-11-01T08:00:00+00:00","end":"2026-11-26T08:15:00+00:00"},"length":{"value":25,"unit":"days"}},"request":{"method":"PUT","url":"Encounter/b3503c62-8210-43d8-b7b8-78e3ba20bed3"}},{"fullUrl":"https://madie.cms.gov/Coverage/0e369090-bfa1-4c58-bbc9-3325b9a75b02","resource":{"resourceType":"Coverage","id":"0e369090-bfa1-4c58-bbc9-3325b9a75b02","status":"active","beneficiary":{"reference":"Patient/ccd7f9d7-35e8-4623-9f2e-f229cf7d829c"},"period":{"start":"1975-01-02T08:00:00+00:00"},"payor":[{"reference":"Organization/5ad6ea38-07e9-4482-9e1b-c09eee595be9"}]},"request":{"method":"PUT","url":"Coverage/0e369090-bfa1-4c58-bbc9-3325b9a75b02"}},{"fullUrl":"https://madie.cms.gov/Procedure/8ac7a0d2-0086-42fe-90e1-98ff7e4e3768","resource":{"resourceType":"Procedure","id":"8ac7a0d2-0086-42fe-90e1-98ff7e4e3768","meta":{"profile":["http://hl7.org/fhir/us/qicore/StructureDefinition/qicore-procedurenotdone"]},"extension":[{"url":"http://hl7.org/fhir/us/qicore/StructureDefinition/qicore-recorded","valueDateTime":"2026-10-31T17:35:00-04:00"}],"status":"not-done","statusReason":{"coding":[{"system":"http://snomed.info/sct","code":"443390004","display":"Refused (qualifier value)","userSelected":true}]},"code":{"coding":[{"system":"http://snomed.info/sct","version":"2025-03","code":"443448006","display":"Application of intermittent pneumatic compression device (procedure)","userSelected":true}]},"subject":{"reference":"Patient/ccd7f9d7-35e8-4623-9f2e-f229cf7d829c"},"_performedDateTime":{"extension":[{"url":"http://hl7.org/fhir/StructureDefinition/data-absent-reason","valueCode":"not-performed"}]}},"request":{"method":"PUT","url":"Procedure/8ac7a0d2-0086-42fe-90e1-98ff7e4e3768"}},{"fullUrl":"https://madie.cms.gov/Organization/b60340a0-8b17-4ccd-a5ea-3fd139dbf01f","resource":{"resourceType":"Organization","id":"5ad6ea38-07e9-4482-9e1b-c09eee595be9","meta":{"profile":["http://hl7.org/fhir/us/qicore/StructureDefinition/qicore-organization"]},"identifier":[{"use":"temp","system":"urn:oid:2.16.840.1.113883.4.4","value":"21-3259825"}],"active":true,"type":[{"coding":[{"system":"http://terminology.hl7.org/CodeSystem/organization-type","code":"pay","display":"Payer"}]}],"name":"Blue Cross Blue Shield of Texas","telecom":[{"system":"phone","value":"(+1) 972-766-6900"}],"address":[{"use":"billing","type":"postal","line":["P.O. Box 660044"],"city":"Dallas","state":"TX","postalCode":"75266-0044","country":"USA"}]},"request":{"method":"PUT","url":"Organization/5ad6ea38-07e9-4482-9e1b-c09eee595be9"}},{"fullUrl":"https://madie.cms.gov/Practitioner/1060d0bd-bf45-4ca8-85c8-20fb33f41f6c","resource":{"resourceType":"Practitioner","id":"1060d0bd-bf45-4ca8-85c8-20fb33f41f6c","identifier":[{"system":"http://hl7.org/fhir/sid/us-npi","value":"123456"}],"name":[{"family":"Evil","prefix":["Dr"]}]},"request":{"method":"PUT","url":"Practitioner/1060d0bd-bf45-4ca8-85c8-20fb33f41f6c"}},{"fullUrl":"https://madie.cms.gov/MeasureReport/e5bbb975-f8a4-459c-8d60-dab3814bfd67","resource":{"resourceType":"MeasureReport","id":"e5bbb975-f8a4-459c-8d60-dab3814bfd67","meta":{"profile":["http://hl7.org/fhir/us/cqfmeasures/StructureDefinition/test-case-cqfm"]},"contained":[{"resourceType":"Parameters","id":"f728c536-f8b3-4ab7-b6d7-20df64ed69e2-parameters","parameter":[{"name":"subject","valueString":"ccd7f9d7-35e8-4623-9f2e-f229cf7d829c"}]}],"extension":[{"url":"http://hl7.org/fhir/us/cqfmeasures/StructureDefinition/cqfm-inputParameters","valueReference":{"reference":"#f728c536-f8b3-4ab7-b6d7-20df64ed69e2-parameters"}},{"url":"http://hl7.org/fhir/us/cqfmeasures/StructureDefinition/cqfm-testCaseDescription","valueMarkdown":"patient refused IPC in Observation service \n"}],"modifierExtension":[{"url":"http://hl7.org/fhir/us/cqfmeasures/StructureDefinition/cqfm-isTestCase","valueBoolean":true}],"status":"complete","type":"individual","measure":"https://madie.cms.gov/Measure/CMS108VTEProphylaxisFHIR","period":{"start":"2026-01-01","end":"2026-12-31"},"group":[{"population":[{"code":{"coding":[{"system":"http://terminology.hl7.org/CodeSystem/measure-population","code":"initial-population","display":"Initial Population"}]},"count":1},{"code":{"coding":[{"system":"http://terminology.hl7.org/CodeSystem/measure-population","code":"denominator","display":"Denominator"}]},"count":1},{"code":{"coding":[{"system":"http://terminology.hl7.org/CodeSystem/measure-population","code":"denominator-exclusion","display":"Denominator Exclusion"}]},"count":0},{"code":{"coding":[{"system":"http://terminology.hl7.org/CodeSystem/measure-population","code":"numerator","display":"Numerator"}]},"count":1}]}]},"request":{"method":"PUT","url":"MeasureReport/e5bbb975-f8a4-459c-8d60-dab3814bfd67"}}]}