{"resourceType":"Bundle","id":"tests-e6416748-51e0-4103-b9dd-680aa0b0ccdb-bundle","type":"transaction","entry":[{"fullUrl":"https://madie.cms.gov/Patient/e6416748-51e0-4103-b9dd-680aa0b0ccdb","resource":{"resourceType":"Patient","id":"e6416748-51e0-4103-b9dd-680aa0b0ccdb","meta":{"profile":["http://hl7.org/fhir/us/qicore/StructureDefinition/qicore-patient"]},"text":{"status":"generated","div":"<div xmlns=\"http://www.w3.org/1999/xhtml\"><div class=\"hapiHeaderText\">HipSurgRank1 <b>DENEXPASS </b></div><table class=\"hapiPropertyTable\"><tbody><tr><td>Identifier</td><td>66c70c125db369967b4b164e75338304</td></tr><tr><td>Date of birth</td><td><span>01 September 2000</span></td></tr></tbody></table></div>"},"extension":[{"url":"http://hl7.org/fhir/us/core/StructureDefinition/us-core-race","extension":[{"url":"ombCategory","valueCoding":{"system":"urn:oid:2.16.840.1.113883.6.238","code":"1002-5","display":"American Indian or Alaska Native","userSelected":true}},{"url":"text","valueString":"American Indian or Alaska Native"}]},{"url":"http://hl7.org/fhir/us/core/StructureDefinition/us-core-ethnicity","extension":[{"url":"ombCategory","valueCoding":{"system":"urn:oid:2.16.840.1.113883.6.238","code":"2135-2","display":"Hispanic or Latino","userSelected":true}},{"url":"text","valueString":"Hispanic or Latino"}]}],"identifier":[{"type":{"coding":[{"system":"http://terminology.hl7.org/CodeSystem/v2-0203","code":"MR"}]},"system":"https://bonnie-fhir.healthit.gov/","value":"612e6b0202c62a011f2ec156"}],"active":true,"name":[{"use":"usual","family":"DENEXPass ","given":["HipSurgRank1"]}],"gender":"male","birthDate":"2001-09-01"},"request":{"method":"PUT","url":"Patient/e6416748-51e0-4103-b9dd-680aa0b0ccdb"}},{"fullUrl":"https://madie.cms.gov/Encounter/e6f79edd-f4ea-4dac-abf4-160abcd6580c","resource":{"resourceType":"Encounter","id":"e6f79edd-f4ea-4dac-abf4-160abcd6580c","meta":{"profile":["http://hl7.org/fhir/us/qicore/StructureDefinition/qicore-encounter"]},"extension":[{"url":"http://hl7.org/fhir/us/qicore/StructureDefinition/qicore-encounter-procedure","extension":[{"url":"type","valueCodeableConcept":{"coding":[{"system":"http://www.cms.gov/Medicare/Coding/ICD10","code":"0SWW0JZ"}]}},{"url":"rank","valuePositiveInt":1},{"url":"procedure","valueReference":{"reference":"Procedure/cd7439df-3199-4630-8def-154e6be2d877"}}]}],"status":"finished","class":{"system":"http://terminology.hl7.org/CodeSystem/v3-ActCode","code":"IMP","display":"inpatient encounter"},"type":[{"coding":[{"system":"http://snomed.info/sct","code":"183452005"}]}],"subject":{"reference":"Patient/e6416748-51e0-4103-b9dd-680aa0b0ccdb"},"period":{"start":"2026-09-02T06:00:00+00:00","end":"2026-12-31T12:59:00+00:00"},"length":{"value":120.0,"unit":"days"}},"request":{"method":"PUT","url":"Encounter/e6f79edd-f4ea-4dac-abf4-160abcd6580c"}},{"fullUrl":"https://madie.cms.gov/Coverage/1b49dc55-89f4-4252-a510-779b56e4a810","resource":{"resourceType":"Coverage","id":"1b49dc55-89f4-4252-a510-779b56e4a810","status":"active","beneficiary":{"reference":"Patient/e6416748-51e0-4103-b9dd-680aa0b0ccdb"},"period":{"start":"2001-09-01T08:00:00+00:00"},"payor":[{"reference":"Organization/db141f66-a1cc-407b-9e95-adac27adee14"}]},"request":{"method":"PUT","url":"Coverage/1b49dc55-89f4-4252-a510-779b56e4a810"}},{"fullUrl":"https://madie.cms.gov/Procedure/cd7439df-3199-4630-8def-154e6be2d877","resource":{"resourceType":"Procedure","id":"cd7439df-3199-4630-8def-154e6be2d877","meta":{"profile":["http://hl7.org/fhir/us/qicore/StructureDefinition/qicore-procedure"]},"extension":[{"url":"http://hl7.org/fhir/us/qicore/StructureDefinition/qicore-recorded","valueDateTime":"2013-09-02T09:35:00-04:00"}],"status":"completed","code":{"coding":[{"system":"http://www.cms.gov/Medicare/Coding/ICD10","code":"0SWW0JZ"}]},"subject":{"reference":"Patient/e6416748-51e0-4103-b9dd-680aa0b0ccdb"},"performedPeriod":{"start":"2026-09-02T09:00:00+00:00","end":"2026-09-02T12:59:00+00:00"}},"request":{"method":"PUT","url":"Procedure/cd7439df-3199-4630-8def-154e6be2d877"}},{"fullUrl":"https://madie.cms.gov/Organization/f38d538d-63d1-4ddb-b0b7-a381bf51a319","resource":{"resourceType":"Organization","id":"db141f66-a1cc-407b-9e95-adac27adee14","meta":{"profile":["http://hl7.org/fhir/us/qicore/StructureDefinition/qicore-organization"]},"identifier":[{"use":"temp","system":"urn:oid:2.16.840.1.113883.4.4","value":"21-3259825"}],"active":true,"type":[{"coding":[{"system":"http://terminology.hl7.org/CodeSystem/organization-type","code":"pay","display":"Payer"}]}],"name":"Blue Cross Blue Shield of Texas","telecom":[{"system":"phone","value":"(+1) 972-766-6900"}],"address":[{"use":"billing","type":"postal","line":["P.O. Box 660044"],"city":"Dallas","state":"TX","postalCode":"75266-0044","country":"USA"}]},"request":{"method":"PUT","url":"Organization/db141f66-a1cc-407b-9e95-adac27adee14"}},{"fullUrl":"https://madie.cms.gov/Practitioner/90b30bde-e133-42ec-bd09-258f8ad0bf6f","resource":{"resourceType":"Practitioner","id":"90b30bde-e133-42ec-bd09-258f8ad0bf6f","identifier":[{"system":"http://hl7.org/fhir/sid/us-npi","value":"123456"}],"name":[{"family":"Evil","prefix":["Dr"]}]},"request":{"method":"PUT","url":"Practitioner/90b30bde-e133-42ec-bd09-258f8ad0bf6f"}},{"fullUrl":"https://madie.cms.gov/MeasureReport/17857bec-9dfc-4819-b301-4c93f20b7f7e","resource":{"resourceType":"MeasureReport","id":"17857bec-9dfc-4819-b301-4c93f20b7f7e","meta":{"profile":["http://hl7.org/fhir/us/cqfmeasures/StructureDefinition/test-case-cqfm"]},"contained":[{"resourceType":"Parameters","id":"983f4bc5-4000-4541-8a1f-3847f30ab0f0-parameters","parameter":[{"name":"subject","valueString":"e6416748-51e0-4103-b9dd-680aa0b0ccdb"}]}],"extension":[{"url":"http://hl7.org/fhir/us/cqfmeasures/StructureDefinition/cqfm-inputParameters","valueReference":{"reference":"#983f4bc5-4000-4541-8a1f-3847f30ab0f0-parameters"}},{"url":"http://hl7.org/fhir/us/cqfmeasures/StructureDefinition/cqfm-testCaseDescription","valueMarkdown":"Patient had SCIP -KneeSurg during Encounter and Rank =1\n"}],"modifierExtension":[{"url":"http://hl7.org/fhir/us/cqfmeasures/StructureDefinition/cqfm-isTestCase","valueBoolean":true}],"status":"complete","type":"individual","measure":"https://madie.cms.gov/Measure/CMS108VTEProphylaxisFHIR","period":{"start":"2026-01-01","end":"2026-12-31"},"group":[{"population":[{"code":{"coding":[{"system":"http://terminology.hl7.org/CodeSystem/measure-population","code":"initial-population","display":"Initial Population"}]},"count":1},{"code":{"coding":[{"system":"http://terminology.hl7.org/CodeSystem/measure-population","code":"denominator","display":"Denominator"}]},"count":1},{"code":{"coding":[{"system":"http://terminology.hl7.org/CodeSystem/measure-population","code":"denominator-exclusion","display":"Denominator Exclusion"}]},"count":1},{"code":{"coding":[{"system":"http://terminology.hl7.org/CodeSystem/measure-population","code":"numerator","display":"Numerator"}]},"count":0}]}]},"request":{"method":"PUT","url":"MeasureReport/17857bec-9dfc-4819-b301-4c93f20b7f7e"}}]}