{"resourceType":"Bundle","id":"tests-96744bfd-c149-412a-8578-fb3f8c91e874-bundle","type":"transaction","entry":[{"fullUrl":"https://madie.cms.gov/Patient/96744bfd-c149-412a-8578-fb3f8c91e874","resource":{"resourceType":"Patient","id":"96744bfd-c149-412a-8578-fb3f8c91e874","meta":{"profile":["http://hl7.org/fhir/us/qicore/StructureDefinition/qicore-patient"]},"text":{"status":"generated","div":"<div xmlns=\"http://www.w3.org/1999/xhtml\"><div class=\"hapiHeaderText\">INR3_DayAFAnes2DayAFAdm <b>NUMERFAIL </b></div><table class=\"hapiPropertyTable\"><tbody><tr><td>Identifier</td><td>8bd671bd3428c0f81ecc641fa9a09fe5</td></tr><tr><td>Date of birth</td><td><span>02 January 1974</span></td></tr></tbody></table></div>"},"extension":[{"url":"http://hl7.org/fhir/us/core/StructureDefinition/us-core-race","extension":[{"url":"ombCategory","valueCoding":{"system":"urn:oid:2.16.840.1.113883.6.238","code":"1002-5","display":"American Indian or Alaska Native","userSelected":true}},{"url":"text","valueString":"American Indian or Alaska Native"}]},{"url":"http://hl7.org/fhir/us/core/StructureDefinition/us-core-ethnicity","extension":[{"url":"ombCategory","valueCoding":{"system":"urn:oid:2.16.840.1.113883.6.238","code":"2135-2","display":"Hispanic or Latino","userSelected":true}},{"url":"text","valueString":"Hispanic or Latino"}]}],"identifier":[{"type":{"coding":[{"system":"http://terminology.hl7.org/CodeSystem/v2-0203","code":"MR"}]},"system":"https://bonnie-fhir.healthit.gov/","value":"612e6b4d02c62a011f2ed391"}],"active":true,"name":[{"use":"usual","family":"NUMERFail","given":["INR3_DayAFAnes2DayAFAdm"]}],"gender":"male","birthDate":"1975-01-02"},"request":{"method":"PUT","url":"Patient/96744bfd-c149-412a-8578-fb3f8c91e874"}},{"fullUrl":"https://madie.cms.gov/Encounter/1b0996e2-510f-4191-b5fa-4de8cd6cdeba","resource":{"resourceType":"Encounter","id":"1b0996e2-510f-4191-b5fa-4de8cd6cdeba","meta":{"profile":["http://hl7.org/fhir/us/qicore/StructureDefinition/qicore-encounter"]},"status":"finished","class":{"system":"http://terminology.hl7.org/CodeSystem/v3-ActCode","code":"IMP","display":"inpatient encounter"},"type":[{"coding":[{"system":"http://snomed.info/sct","code":"8715000"}]}],"subject":{"reference":"Patient/96744bfd-c149-412a-8578-fb3f8c91e874"},"period":{"start":"2026-11-01T08:00:00+00:00","end":"2026-11-26T08:15:00+00:00"},"length":{"value":25.0,"unit":"days"}},"request":{"method":"PUT","url":"Encounter/1b0996e2-510f-4191-b5fa-4de8cd6cdeba"}},{"fullUrl":"https://madie.cms.gov/Coverage/22755818-ce9c-4c72-acd9-ae80028fcb7d","resource":{"resourceType":"Coverage","id":"22755818-ce9c-4c72-acd9-ae80028fcb7d","status":"active","beneficiary":{"reference":"Patient/96744bfd-c149-412a-8578-fb3f8c91e874"},"period":{"start":"1975-01-02T08:00:00+00:00"},"payor":[{"reference":"Organization/3e899f33-84eb-4634-a770-a5a0bd7a80e7"}]},"request":{"method":"PUT","url":"Coverage/22755818-ce9c-4c72-acd9-ae80028fcb7d"}},{"fullUrl":"https://madie.cms.gov/Observation/4a90916f-f381-4c63-b087-79ddf90f441d","resource":{"resourceType":"Observation","id":"4a90916f-f381-4c63-b087-79ddf90f441d","meta":{"profile":["http://hl7.org/fhir/us/core/StructureDefinition/us-core-observation-lab"]},"status":"final","category":[{"coding":[{"system":"http://terminology.hl7.org/CodeSystem/observation-category","code":"laboratory","display":"Laboratory"}]}],"code":{"coding":[{"system":"http://loinc.org","code":"34714-6"}]},"subject":{"reference":"Patient/96744bfd-c149-412a-8578-fb3f8c91e874"},"issued":"2026-11-03T11:00:00.000+00:00","valueQuantity":{"value":3.0,"unit":"{INR}"}},"request":{"method":"PUT","url":"Observation/4a90916f-f381-4c63-b087-79ddf90f441d"}},{"fullUrl":"https://madie.cms.gov/Procedure/dbfd94b6-36c9-447c-aa50-54c0da4c91b1","resource":{"resourceType":"Procedure","id":"dbfd94b6-36c9-447c-aa50-54c0da4c91b1","meta":{"profile":["http://hl7.org/fhir/us/qicore/StructureDefinition/qicore-procedure"]},"extension":[{"url":"http://hl7.org/fhir/us/qicore/StructureDefinition/qicore-recorded","valueDateTime":"2013-12-04T09:35:00-04:00"}],"status":"completed","code":{"coding":[{"system":"http://www.icd10data.com/icd10pcs","code":"3E030FZ"},{"system":"http://snomed.info/sct","code":"18946005"}]},"subject":{"reference":"Patient/96744bfd-c149-412a-8578-fb3f8c91e874"},"performedPeriod":{"start":"2026-11-02T09:00:00+00:00","end":"2026-11-02T09:15:00+00:00"}},"request":{"method":"PUT","url":"Procedure/dbfd94b6-36c9-447c-aa50-54c0da4c91b1"}},{"fullUrl":"https://madie.cms.gov/Organization/4f2bc9bb-e685-4790-adda-ef536293efa2","resource":{"resourceType":"Organization","id":"3e899f33-84eb-4634-a770-a5a0bd7a80e7","meta":{"profile":["http://hl7.org/fhir/us/qicore/StructureDefinition/qicore-organization"]},"identifier":[{"use":"temp","system":"urn:oid:2.16.840.1.113883.4.4","value":"21-3259825"}],"active":true,"type":[{"coding":[{"system":"http://terminology.hl7.org/CodeSystem/organization-type","code":"pay","display":"Payer"}]}],"name":"Blue Cross Blue Shield of Texas","telecom":[{"system":"phone","value":"(+1) 972-766-6900"}],"address":[{"use":"billing","type":"postal","line":["P.O. Box 660044"],"city":"Dallas","state":"TX","postalCode":"75266-0044","country":"USA"}]},"request":{"method":"PUT","url":"Organization/3e899f33-84eb-4634-a770-a5a0bd7a80e7"}},{"fullUrl":"https://madie.cms.gov/Practitioner/2128ab78-66f0-44f3-9403-18fae5d9fe69","resource":{"resourceType":"Practitioner","id":"2128ab78-66f0-44f3-9403-18fae5d9fe69","identifier":[{"system":"http://hl7.org/fhir/sid/us-npi","value":"123456"}],"name":[{"family":"Evil","prefix":["Dr"]}]},"request":{"method":"PUT","url":"Practitioner/2128ab78-66f0-44f3-9403-18fae5d9fe69"}},{"fullUrl":"https://madie.cms.gov/MeasureReport/b9bb85ab-ceb2-40a6-814b-d2f57df485b0","resource":{"resourceType":"MeasureReport","id":"b9bb85ab-ceb2-40a6-814b-d2f57df485b0","meta":{"profile":["http://hl7.org/fhir/us/cqfmeasures/StructureDefinition/test-case-cqfm"]},"contained":[{"resourceType":"Parameters","id":"195b648b-3cf4-4c13-b75d-4231c176dba6-parameters","parameter":[{"name":"subject","valueString":"96744bfd-c149-412a-8578-fb3f8c91e874"}]}],"extension":[{"url":"http://hl7.org/fhir/us/cqfmeasures/StructureDefinition/cqfm-inputParameters","valueReference":{"reference":"#195b648b-3cf4-4c13-b75d-4231c176dba6-parameters"}},{"url":"http://hl7.org/fhir/us/cqfmeasures/StructureDefinition/cqfm-testCaseDescription","valueMarkdown":">18, dx VTE, LOS<120 day,   LabResult INR=3 no decimal,  day After surgery, 2 day after Adm\n"}],"modifierExtension":[{"url":"http://hl7.org/fhir/us/cqfmeasures/StructureDefinition/cqfm-isTestCase","valueBoolean":true}],"status":"complete","type":"individual","measure":"https://madie.cms.gov/Measure/CMS108VTEProphylaxisFHIR","period":{"start":"2026-01-01","end":"2026-12-31"},"group":[{"population":[{"code":{"coding":[{"system":"http://terminology.hl7.org/CodeSystem/measure-population","code":"initial-population","display":"Initial Population"}]},"count":1},{"code":{"coding":[{"system":"http://terminology.hl7.org/CodeSystem/measure-population","code":"denominator","display":"Denominator"}]},"count":1},{"code":{"coding":[{"system":"http://terminology.hl7.org/CodeSystem/measure-population","code":"denominator-exclusion","display":"Denominator Exclusion"}]},"count":0},{"code":{"coding":[{"system":"http://terminology.hl7.org/CodeSystem/measure-population","code":"numerator","display":"Numerator"}]},"count":0}]}]},"request":{"method":"PUT","url":"MeasureReport/b9bb85ab-ceb2-40a6-814b-d2f57df485b0"}}]}