{"resourceType":"Bundle","id":"tests-810ee9c4-bb4d-43b6-a552-d7326e9e7a7b-bundle","type":"transaction","entry":[{"fullUrl":"https://madie.cms.gov/Patient/810ee9c4-bb4d-43b6-a552-d7326e9e7a7b","resource":{"resourceType":"Patient","id":"810ee9c4-bb4d-43b6-a552-d7326e9e7a7b","meta":{"profile":["http://hl7.org/fhir/us/qicore/StructureDefinition/qicore-patient"]},"text":{"status":"generated","div":"<div xmlns=\"http://www.w3.org/1999/xhtml\"><div class=\"hapiHeaderText\">VTE_RiskAssess_IPEnc <b>NUMERPASS </b></div><table class=\"hapiPropertyTable\"><tbody><tr><td>Identifier</td><td>a62a5b0e4cff99540c5cc7035df016ac</td></tr><tr><td>Date of birth</td><td><span>02 January 1974</span></td></tr></tbody></table></div>"},"extension":[{"url":"http://hl7.org/fhir/us/core/StructureDefinition/us-core-race","extension":[{"url":"ombCategory","valueCoding":{"system":"urn:oid:2.16.840.1.113883.6.238","code":"1002-5","display":"American Indian or Alaska Native","userSelected":true}},{"url":"text","valueString":"American Indian or Alaska Native"}]},{"url":"http://hl7.org/fhir/us/core/StructureDefinition/us-core-ethnicity","extension":[{"url":"ombCategory","valueCoding":{"system":"urn:oid:2.16.840.1.113883.6.238","code":"2135-2","display":"Hispanic or Latino","userSelected":true}},{"url":"text","valueString":"Hispanic or Latino"}]}],"identifier":[{"type":{"coding":[{"system":"http://terminology.hl7.org/CodeSystem/v2-0203","code":"MR"}]},"system":"https://bonnie-fhir.healthit.gov/","value":"612e6a6702c62a011f2e9fb5"}],"active":true,"name":[{"use":"usual","family":"NUMERPass","given":["VTE_RiskAssess_IPEnc"]}],"gender":"male","birthDate":"1975-01-02"},"request":{"method":"PUT","url":"Patient/810ee9c4-bb4d-43b6-a552-d7326e9e7a7b"}},{"fullUrl":"https://madie.cms.gov/Encounter/00575315-6fbf-43af-bfe3-4815baf41af3","resource":{"resourceType":"Encounter","id":"00575315-6fbf-43af-bfe3-4815baf41af3","meta":{"profile":["http://hl7.org/fhir/us/qicore/StructureDefinition/qicore-encounter"]},"status":"finished","class":{"system":"http://terminology.hl7.org/CodeSystem/v3-ActCode","code":"IMP","display":"inpatient encounter"},"type":[{"coding":[{"system":"http://snomed.info/sct","code":"8715000"}]}],"subject":{"reference":"Patient/810ee9c4-bb4d-43b6-a552-d7326e9e7a7b"},"period":{"start":"2026-11-01T08:00:00+00:00","end":"2026-11-26T08:15:00+00:00"},"length":{"value":25.0,"unit":"days"}},"request":{"method":"PUT","url":"Encounter/00575315-6fbf-43af-bfe3-4815baf41af3"}},{"fullUrl":"https://madie.cms.gov/Observation/38651bdd-e93e-472f-837d-6d3edcae6720","resource":{"resourceType":"Observation","id":"38651bdd-e93e-472f-837d-6d3edcae6720","meta":{"profile":["http://hl7.org/fhir/us/qicore/StructureDefinition/qicore-observation"]},"status":"final","category":[{"coding":[{"system":"http://terminology.hl7.org/CodeSystem/observation-category","code":"exam","display":"exam"}]}],"code":{"coding":[{"system":"http://loinc.org","code":"72136-5"}]},"subject":{"reference":"Patient/810ee9c4-bb4d-43b6-a552-d7326e9e7a7b"},"effectiveDateTime":"2026-11-01T09:00:00+00:00","valueCodeableConcept":{"coding":[{"system":"http://snomed.info/sct","code":"260362008","display":"Low Risk"}]}},"request":{"method":"PUT","url":"Observation/38651bdd-e93e-472f-837d-6d3edcae6720"}},{"fullUrl":"https://madie.cms.gov/Coverage/fe33b242-4710-4472-9445-394b4ffba483","resource":{"resourceType":"Coverage","id":"fe33b242-4710-4472-9445-394b4ffba483","status":"active","beneficiary":{"reference":"Patient/810ee9c4-bb4d-43b6-a552-d7326e9e7a7b"},"period":{"start":"1975-01-02T08:00:00+00:00"},"payor":[{"reference":"Organization/e75793c9-fdf6-463a-8c1d-4ee44320dc25"}]},"request":{"method":"PUT","url":"Coverage/fe33b242-4710-4472-9445-394b4ffba483"}},{"fullUrl":"https://madie.cms.gov/Organization/5495d4d7-73d8-40b6-adaf-5a865f5f17ec","resource":{"resourceType":"Organization","id":"e75793c9-fdf6-463a-8c1d-4ee44320dc25","meta":{"profile":["http://hl7.org/fhir/us/qicore/StructureDefinition/qicore-organization"]},"identifier":[{"use":"temp","system":"urn:oid:2.16.840.1.113883.4.4","value":"21-3259825"}],"active":true,"type":[{"coding":[{"system":"http://terminology.hl7.org/CodeSystem/organization-type","code":"pay","display":"Payer"}]}],"name":"Blue Cross Blue Shield of Texas","telecom":[{"system":"phone","value":"(+1) 972-766-6900"}],"address":[{"use":"billing","type":"postal","line":["P.O. Box 660044"],"city":"Dallas","state":"TX","postalCode":"75266-0044","country":"USA"}]},"request":{"method":"PUT","url":"Organization/e75793c9-fdf6-463a-8c1d-4ee44320dc25"}},{"fullUrl":"https://madie.cms.gov/Practitioner/e561d44f-138b-4fc1-95cb-7917b51d7709","resource":{"resourceType":"Practitioner","id":"e561d44f-138b-4fc1-95cb-7917b51d7709","identifier":[{"system":"http://hl7.org/fhir/sid/us-npi","value":"123456"}],"name":[{"family":"Evil","prefix":["Dr"]}]},"request":{"method":"PUT","url":"Practitioner/e561d44f-138b-4fc1-95cb-7917b51d7709"}},{"fullUrl":"https://madie.cms.gov/MeasureReport/021f0a8f-393d-4d35-8ce8-46fe1d5b3107","resource":{"resourceType":"MeasureReport","id":"021f0a8f-393d-4d35-8ce8-46fe1d5b3107","meta":{"profile":["http://hl7.org/fhir/us/cqfmeasures/StructureDefinition/test-case-cqfm"]},"contained":[{"resourceType":"Parameters","id":"12c3713e-af12-4d53-8d4e-9c9fe77f8126-parameters","parameter":[{"name":"subject","valueString":"810ee9c4-bb4d-43b6-a552-d7326e9e7a7b"}]}],"extension":[{"url":"http://hl7.org/fhir/us/cqfmeasures/StructureDefinition/cqfm-inputParameters","valueReference":{"reference":"#12c3713e-af12-4d53-8d4e-9c9fe77f8126-parameters"}},{"url":"http://hl7.org/fhir/us/cqfmeasures/StructureDefinition/cqfm-testCaseDescription","valueMarkdown":"vte risk assessment low risk < = 1 day after start of IP encounter\n"}],"modifierExtension":[{"url":"http://hl7.org/fhir/us/cqfmeasures/StructureDefinition/cqfm-isTestCase","valueBoolean":true}],"status":"complete","type":"individual","measure":"https://madie.cms.gov/Measure/CMS108VTEProphylaxisFHIR","period":{"start":"2026-01-01","end":"2026-12-31"},"group":[{"population":[{"code":{"coding":[{"system":"http://terminology.hl7.org/CodeSystem/measure-population","code":"initial-population","display":"Initial Population"}]},"count":1},{"code":{"coding":[{"system":"http://terminology.hl7.org/CodeSystem/measure-population","code":"denominator","display":"Denominator"}]},"count":1},{"code":{"coding":[{"system":"http://terminology.hl7.org/CodeSystem/measure-population","code":"denominator-exclusion","display":"Denominator Exclusion"}]},"count":0},{"code":{"coding":[{"system":"http://terminology.hl7.org/CodeSystem/measure-population","code":"numerator","display":"Numerator"}]},"count":1}]}]},"request":{"method":"PUT","url":"MeasureReport/021f0a8f-393d-4d35-8ce8-46fe1d5b3107"}}]}