{"resourceType":"Bundle","id":"tests-068814f1-4270-4e10-b470-9a5433bceb3e-bundle","type":"transaction","entry":[{"fullUrl":"https://madie.cms.gov/Patient/068814f1-4270-4e10-b470-9a5433bceb3e","resource":{"resourceType":"Patient","id":"068814f1-4270-4e10-b470-9a5433bceb3e","meta":{"profile":["http://hl7.org/fhir/us/qicore/StructureDefinition/qicore-patient"]},"text":{"status":"generated","div":"<div xmlns=\"http://www.w3.org/1999/xhtml\"><div class=\"hapiHeaderText\">MedReason_MA_LDUHep_DA_GCS_DuringED <b>NUMERPASS </b></div><table class=\"hapiPropertyTable\"><tbody><tr><td>Identifier</td><td>020df11163b665120eb01e83e644f1da</td></tr><tr><td>Date of birth</td><td><span>02 January 1974</span></td></tr></tbody></table></div>"},"extension":[{"url":"http://hl7.org/fhir/us/core/StructureDefinition/us-core-race","extension":[{"url":"ombCategory","valueCoding":{"system":"urn:oid:2.16.840.1.113883.6.238","code":"1002-5","display":"American Indian or Alaska Native","userSelected":true}},{"url":"text","valueString":"American Indian or Alaska Native"}]},{"url":"http://hl7.org/fhir/us/core/StructureDefinition/us-core-ethnicity","extension":[{"url":"ombCategory","valueCoding":{"system":"urn:oid:2.16.840.1.113883.6.238","code":"2135-2","display":"Hispanic or Latino","userSelected":true}},{"url":"text","valueString":"Hispanic or Latino"}]}],"identifier":[{"type":{"coding":[{"system":"http://terminology.hl7.org/CodeSystem/v2-0203","code":"MR"}]},"system":"https://bonnie-fhir.healthit.gov/","value":"612e6aab02c62a011f2ead9b"}],"active":true,"name":[{"use":"usual","family":"NUMERPass","given":["MedReason_MA_LDUHep_DA_GCS_DuringED"]}],"gender":"male","birthDate":"1975-01-02"},"request":{"method":"PUT","url":"Patient/068814f1-4270-4e10-b470-9a5433bceb3e"}},{"fullUrl":"https://madie.cms.gov/Encounter/7c87227d-35af-4f8a-a980-1ea31adc67db","resource":{"resourceType":"Encounter","id":"7c87227d-35af-4f8a-a980-1ea31adc67db","meta":{"profile":["http://hl7.org/fhir/us/qicore/StructureDefinition/qicore-encounter"]},"status":"finished","class":{"system":"http://terminology.hl7.org/CodeSystem/v3-ActCode","code":"EMER","display":"emergency"},"type":[{"coding":[{"system":"http://snomed.info/sct","code":"4525004"}]}],"subject":{"reference":"Patient/068814f1-4270-4e10-b470-9a5433bceb3e"},"period":{"start":"2026-10-31T05:00:00+00:00","end":"2026-11-01T07:15:00+00:00"},"length":{"value":1.0,"unit":"days"}},"request":{"method":"PUT","url":"Encounter/7c87227d-35af-4f8a-a980-1ea31adc67db"}},{"fullUrl":"https://madie.cms.gov/Encounter/8cb3c2e2-7fe3-4a40-b1a5-4fbf6e386976","resource":{"resourceType":"Encounter","id":"8cb3c2e2-7fe3-4a40-b1a5-4fbf6e386976","meta":{"profile":["http://hl7.org/fhir/us/qicore/StructureDefinition/qicore-encounter"]},"status":"finished","class":{"system":"http://terminology.hl7.org/CodeSystem/v3-ActCode","code":"IMP","display":"inpatient encounter"},"type":[{"coding":[{"system":"http://snomed.info/sct","code":"8715000"}]}],"subject":{"reference":"Patient/068814f1-4270-4e10-b470-9a5433bceb3e"},"period":{"start":"2026-11-01T08:00:00+00:00","end":"2026-11-26T08:15:00+00:00"},"length":{"value":25.0,"unit":"days"}},"request":{"method":"PUT","url":"Encounter/8cb3c2e2-7fe3-4a40-b1a5-4fbf6e386976"}},{"fullUrl":"https://madie.cms.gov/Coverage/59c9ffa6-ff7c-4ac0-a325-f51e4f5226a6","resource":{"resourceType":"Coverage","id":"59c9ffa6-ff7c-4ac0-a325-f51e4f5226a6","status":"active","beneficiary":{"reference":"Patient/068814f1-4270-4e10-b470-9a5433bceb3e"},"period":{"start":"1975-01-02T08:00:00+00:00"},"payor":[{"reference":"Organization/e75793c9-fdf6-463a-8c1d-4ee44320dc25"}]},"request":{"method":"PUT","url":"Coverage/59c9ffa6-ff7c-4ac0-a325-f51e4f5226a6"}},{"fullUrl":"https://madie.cms.gov/MedicationAdministration/775d2efc-0821-4529-931f-eec1aa14189d","resource":{"resourceType":"MedicationAdministration","id":"775d2efc-0821-4529-931f-eec1aa14189d","meta":{"profile":["http://hl7.org/fhir/us/qicore/StructureDefinition/qicore-mednotadministered"]},"extension":[{"url":"http://hl7.org/fhir/us/qicore/StructureDefinition/qicore-recorded","valueDateTime":"2026-11-01T07:00:00+00:00"}],"status":"not-done","statusReason":[{"coding":[{"system":"http://snomed.info/sct","code":"183932001","display":"Procedure contraindicated (situation)"}]}],"medicationCodeableConcept":{"coding":[{"system":"http://www.nlm.nih.gov/research/umls/rxnorm","code":"1361574"}]},"subject":{"reference":"Patient/068814f1-4270-4e10-b470-9a5433bceb3e"},"effectivePeriod":{"start":"2026-11-01T07:00:00+00:00"}},"request":{"method":"PUT","url":"MedicationAdministration/775d2efc-0821-4529-931f-eec1aa14189d"}},{"fullUrl":"https://madie.cms.gov/Procedure/d4d0428e-743d-426e-8ee0-edb3e1ffc21d","resource":{"resourceType":"Procedure","id":"d4d0428e-743d-426e-8ee0-edb3e1ffc21d","meta":{"profile":["http://hl7.org/fhir/us/qicore/StructureDefinition/qicore-procedurenotdone"]},"extension":[{"url":"http://hl7.org/fhir/us/qicore/StructureDefinition/qicore-recorded","valueDateTime":"2026-11-01T07:00:00+00:00"}],"status":"not-done","statusReason":{"coding":[{"system":"http://snomed.info/sct","code":"183932001","display":"Procedure contraindicated (situation)","userSelected":true}]},"code":{"coding":[{"system":"http://snomed.info/sct","code":"229511001","display":"Application of graduated compression garment (procedure)","userSelected":true}]},"subject":{"reference":"Patient/068814f1-4270-4e10-b470-9a5433bceb3e"},"_performedDateTime":{"extension":[{"url":"http://hl7.org/fhir/StructureDefinition/data-absent-reason","valueCode":"not-performed"}]}},"request":{"method":"PUT","url":"Procedure/d4d0428e-743d-426e-8ee0-edb3e1ffc21d"}},{"fullUrl":"https://madie.cms.gov/Organization/5feb057e-a119-4bc6-8cb6-319b5e2c6df6","resource":{"resourceType":"Organization","id":"e75793c9-fdf6-463a-8c1d-4ee44320dc25","meta":{"profile":["http://hl7.org/fhir/us/qicore/StructureDefinition/qicore-organization"]},"identifier":[{"use":"temp","system":"urn:oid:2.16.840.1.113883.4.4","value":"21-3259825"}],"active":true,"type":[{"coding":[{"system":"http://terminology.hl7.org/CodeSystem/organization-type","code":"pay","display":"Payer"}]}],"name":"Blue Cross Blue Shield of Texas","telecom":[{"system":"phone","value":"(+1) 972-766-6900"}],"address":[{"use":"billing","type":"postal","line":["P.O. Box 660044"],"city":"Dallas","state":"TX","postalCode":"75266-0044","country":"USA"}]},"request":{"method":"PUT","url":"Organization/e75793c9-fdf6-463a-8c1d-4ee44320dc25"}},{"fullUrl":"https://madie.cms.gov/Practitioner/1f6f9de7-b969-455e-b216-b7626512cb4a","resource":{"resourceType":"Practitioner","id":"1f6f9de7-b969-455e-b216-b7626512cb4a","identifier":[{"system":"http://hl7.org/fhir/sid/us-npi","value":"123456"}],"name":[{"family":"Evil","prefix":["Dr"]}]},"request":{"method":"PUT","url":"Practitioner/1f6f9de7-b969-455e-b216-b7626512cb4a"}},{"fullUrl":"https://madie.cms.gov/MeasureReport/e50f164e-8b97-46b0-bb1a-6e609dadd034","resource":{"resourceType":"MeasureReport","id":"e50f164e-8b97-46b0-bb1a-6e609dadd034","meta":{"profile":["http://hl7.org/fhir/us/cqfmeasures/StructureDefinition/test-case-cqfm"]},"contained":[{"resourceType":"Parameters","id":"7ddbe8ed-8324-4b38-8ee9-0346bf86ddd2-parameters","parameter":[{"name":"subject","valueString":"068814f1-4270-4e10-b470-9a5433bceb3e"}]}],"extension":[{"url":"http://hl7.org/fhir/us/cqfmeasures/StructureDefinition/cqfm-inputParameters","valueReference":{"reference":"#7ddbe8ed-8324-4b38-8ee9-0346bf86ddd2-parameters"}},{"url":"http://hl7.org/fhir/us/cqfmeasures/StructureDefinition/cqfm-testCaseDescription","valueMarkdown":"medical reasons to not receive no GCS and no low dose heparin during ED\n"}],"modifierExtension":[{"url":"http://hl7.org/fhir/us/cqfmeasures/StructureDefinition/cqfm-isTestCase","valueBoolean":true}],"status":"complete","type":"individual","measure":"https://madie.cms.gov/Measure/CMS108VTEProphylaxisFHIR","period":{"start":"2026-01-01","end":"2026-12-31"},"group":[{"population":[{"code":{"coding":[{"system":"http://terminology.hl7.org/CodeSystem/measure-population","code":"initial-population","display":"Initial Population"}]},"count":1},{"code":{"coding":[{"system":"http://terminology.hl7.org/CodeSystem/measure-population","code":"denominator","display":"Denominator"}]},"count":1},{"code":{"coding":[{"system":"http://terminology.hl7.org/CodeSystem/measure-population","code":"denominator-exclusion","display":"Denominator Exclusion"}]},"count":0},{"code":{"coding":[{"system":"http://terminology.hl7.org/CodeSystem/measure-population","code":"numerator","display":"Numerator"}]},"count":1}]}]},"request":{"method":"PUT","url":"MeasureReport/e50f164e-8b97-46b0-bb1a-6e609dadd034"}}]}