{"resourceType":"Bundle","id":"tests-87532ec3-3437-4936-a22f-c33c134a9779-bundle","type":"transaction","entry":[{"fullUrl":"https://madie.cms.gov/Patient/87532ec3-3437-4936-a22f-c33c134a9779","resource":{"resourceType":"Patient","id":"87532ec3-3437-4936-a22f-c33c134a9779","meta":{"profile":["http://hl7.org/fhir/us/qicore/StructureDefinition/qicore-patient"]},"text":{"status":"generated","div":"<div xmlns=\"http://www.w3.org/1999/xhtml\"><div class=\"hapiHeaderText\">EncDxObstetricsVTE <b>IPPFAIL </b></div><table class=\"hapiPropertyTable\"><tbody><tr><td>Identifier</td><td>b7a7425ccd6ae25cbc6ebf054c4ec0a9</td></tr><tr><td>Date of birth</td><td><span>02 September 2003</span></td></tr></tbody></table></div>"},"extension":[{"url":"http://hl7.org/fhir/us/core/StructureDefinition/us-core-race","extension":[{"url":"ombCategory","valueCoding":{"system":"urn:oid:2.16.840.1.113883.6.238","code":"1002-5","display":"American Indian or Alaska Native","userSelected":true}},{"url":"text","valueString":"American Indian or Alaska Native"}]},{"url":"http://hl7.org/fhir/us/core/StructureDefinition/us-core-ethnicity","extension":[{"url":"ombCategory","valueCoding":{"system":"urn:oid:2.16.840.1.113883.6.238","code":"2135-2","display":"Hispanic or Latino","userSelected":true}},{"url":"text","valueString":"Hispanic or Latino"}]}],"identifier":[{"type":{"coding":[{"system":"http://terminology.hl7.org/CodeSystem/v2-0203","code":"MR"}]},"system":"https://bonnie-fhir.healthit.gov/","value":"612e6b6402c62a011f2ed965"}],"active":true,"name":[{"use":"usual","family":"IPPFail","given":["EncDxObstetricsVTE"]}],"gender":"male","birthDate":"2004-09-02"},"request":{"method":"PUT","url":"Patient/87532ec3-3437-4936-a22f-c33c134a9779"}},{"fullUrl":"https://madie.cms.gov/Encounter/5bba0550-3485-4695-8693-cf741fad77c0","resource":{"resourceType":"Encounter","id":"5bba0550-3485-4695-8693-cf741fad77c0","meta":{"profile":["http://hl7.org/fhir/us/qicore/StructureDefinition/qicore-encounter"]},"status":"finished","class":{"system":"http://terminology.hl7.org/CodeSystem/v3-ActCode","code":"IMP","display":"inpatient encounter"},"type":[{"coding":[{"system":"http://snomed.info/sct","code":"183452005"}]}],"subject":{"reference":"Patient/87532ec3-3437-4936-a22f-c33c134a9779"},"period":{"start":"2026-09-02T12:59:00+00:00","end":"2026-09-02T13:14:00+00:00"},"length":{"value":0.0,"unit":"days"},"diagnosis":[{"condition":{"reference":"Condition/6dc30c27-28c7-4c39-897a-95f4fa56a419"}}]},"request":{"method":"PUT","url":"Encounter/5bba0550-3485-4695-8693-cf741fad77c0"}},{"fullUrl":"https://madie.cms.gov/Coverage/e47dc217-fd61-4bfa-9bb1-70436a977cf7","resource":{"resourceType":"Coverage","id":"e47dc217-fd61-4bfa-9bb1-70436a977cf7","status":"active","beneficiary":{"reference":"Patient/87532ec3-3437-4936-a22f-c33c134a9779"},"period":{"start":"2004-09-02T08:00:00+00:00"},"payor":[{"reference":"Organization/607fdef9-3983-4cef-ab1a-95434d29b463"}]},"request":{"method":"PUT","url":"Coverage/e47dc217-fd61-4bfa-9bb1-70436a977cf7"}},{"fullUrl":"https://madie.cms.gov/Condition/6dc30c27-28c7-4c39-897a-95f4fa56a419","resource":{"resourceType":"Condition","id":"6dc30c27-28c7-4c39-897a-95f4fa56a419","meta":{"profile":["http://hl7.org/fhir/us/qicore/StructureDefinition/qicore-condition"]},"category":[{"coding":[{"system":"http://terminology.hl7.org/CodeSystem/condition-category","code":"encounter-diagnosis","display":"Encounter Diagnosis"}]}],"code":{"coding":[{"system":"http://snomed.info/sct","version":"2025-03","code":"13943000","display":"Failed attempted abortion complicated by embolism (disorder)","userSelected":true}]},"subject":{"reference":"Patient/87532ec3-3437-4936-a22f-c33c134a9779"},"recordedDate":"2026-07-07T08:00:00.000+00:00"},"request":{"method":"PUT","url":"Condition/6dc30c27-28c7-4c39-897a-95f4fa56a419"}},{"fullUrl":"https://madie.cms.gov/Organization/dd2b6834-e46d-4f04-be1b-20a85710bc84","resource":{"resourceType":"Organization","id":"607fdef9-3983-4cef-ab1a-95434d29b463","meta":{"profile":["http://hl7.org/fhir/us/qicore/StructureDefinition/qicore-organization"]},"identifier":[{"use":"temp","system":"urn:oid:2.16.840.1.113883.4.4","value":"21-3259825"}],"active":true,"type":[{"coding":[{"system":"http://terminology.hl7.org/CodeSystem/organization-type","code":"pay","display":"Payer"}]}],"name":"Blue Cross Blue Shield of Texas","telecom":[{"system":"phone","value":"(+1) 972-766-6900"}],"address":[{"use":"billing","type":"postal","line":["P.O. Box 660044"],"city":"Dallas","state":"TX","postalCode":"75266-0044","country":"USA"}]},"request":{"method":"PUT","url":"Organization/607fdef9-3983-4cef-ab1a-95434d29b463"}},{"fullUrl":"https://madie.cms.gov/Practitioner/5c1e3f58-a910-4b82-9a6a-e526db35596a","resource":{"resourceType":"Practitioner","id":"5c1e3f58-a910-4b82-9a6a-e526db35596a","identifier":[{"system":"http://hl7.org/fhir/sid/us-npi","value":"123456"}],"name":[{"family":"Evil","prefix":["Dr"]}]},"request":{"method":"PUT","url":"Practitioner/5c1e3f58-a910-4b82-9a6a-e526db35596a"}},{"fullUrl":"https://madie.cms.gov/MeasureReport/22a65ce4-34cb-4008-a272-c536f865471f","resource":{"resourceType":"MeasureReport","id":"22a65ce4-34cb-4008-a272-c536f865471f","meta":{"profile":["http://hl7.org/fhir/us/cqfmeasures/StructureDefinition/test-case-cqfm"]},"contained":[{"resourceType":"Parameters","id":"e71ada20-a296-4752-8509-233da3d4b3ae-parameters","parameter":[{"name":"subject","valueString":"87532ec3-3437-4936-a22f-c33c134a9779"}]}],"extension":[{"url":"http://hl7.org/fhir/us/cqfmeasures/StructureDefinition/cqfm-inputParameters","valueReference":{"reference":"#e71ada20-a296-4752-8509-233da3d4b3ae-parameters"}},{"url":"http://hl7.org/fhir/us/cqfmeasures/StructureDefinition/cqfm-testCaseDescription","valueMarkdown":"Patient is 18 years old with LOS < 120 days during MP with obstetrics VTE diagnosis\n"}],"modifierExtension":[{"url":"http://hl7.org/fhir/us/cqfmeasures/StructureDefinition/cqfm-isTestCase","valueBoolean":true}],"status":"complete","type":"individual","measure":"https://madie.cms.gov/Measure/CMS108VTEProphylaxisFHIR","period":{"start":"2026-01-01","end":"2026-12-31"},"group":[{"population":[{"code":{"coding":[{"system":"http://terminology.hl7.org/CodeSystem/measure-population","code":"initial-population","display":"Initial Population"}]},"count":0},{"code":{"coding":[{"system":"http://terminology.hl7.org/CodeSystem/measure-population","code":"denominator","display":"Denominator"}]},"count":0},{"code":{"coding":[{"system":"http://terminology.hl7.org/CodeSystem/measure-population","code":"denominator-exclusion","display":"Denominator Exclusion"}]},"count":0},{"code":{"coding":[{"system":"http://terminology.hl7.org/CodeSystem/measure-population","code":"numerator","display":"Numerator"}]},"count":0}]}]},"request":{"method":"PUT","url":"MeasureReport/22a65ce4-34cb-4008-a272-c536f865471f"}}]}