{"resourceType":"Bundle","id":"tests-c2dfc5ca-96db-4ae2-bbe1-7bfed219cb72-bundle","type":"transaction","entry":[{"fullUrl":"https://madie.cms.gov/Patient/c2dfc5ca-96db-4ae2-bbe1-7bfed219cb72","resource":{"resourceType":"Patient","id":"c2dfc5ca-96db-4ae2-bbe1-7bfed219cb72","meta":{"profile":["http://hl7.org/fhir/us/qicore/StructureDefinition/qicore-patient"]},"text":{"status":"generated","div":"<div xmlns=\"http://www.w3.org/1999/xhtml\"><div class=\"hapiHeaderText\">ProphylaxisDuringFirstED1DayBFAdm <b>NUMERFAIL </b></div><table class=\"hapiPropertyTable\"><tbody><tr><td>Identifier</td><td>4a3cf6afd879a8f9468f9b4b43b7b032</td></tr><tr><td>Date of birth</td><td><span>02 September 2003</span></td></tr></tbody></table></div>"},"extension":[{"url":"http://hl7.org/fhir/us/core/StructureDefinition/us-core-race","extension":[{"url":"ombCategory","valueCoding":{"system":"urn:oid:2.16.840.1.113883.6.238","code":"1002-5","display":"American Indian or Alaska Native","userSelected":true}},{"url":"text","valueString":"American Indian or Alaska Native"}]},{"url":"http://hl7.org/fhir/us/core/StructureDefinition/us-core-ethnicity","extension":[{"url":"ombCategory","valueCoding":{"system":"urn:oid:2.16.840.1.113883.6.238","code":"2135-2","display":"Hispanic or Latino","userSelected":true}},{"url":"text","valueString":"Hispanic or Latino"}]}],"identifier":[{"type":{"coding":[{"system":"http://terminology.hl7.org/CodeSystem/v2-0203","code":"MR"}]},"system":"https://bonnie-fhir.healthit.gov/","value":"612e6b1a02c62a011f2ec76c"}],"active":true,"name":[{"use":"usual","family":"NUMERFail","given":["ProphylaxisDuringFirstED1DayBFAdm"]}],"gender":"male","birthDate":"2004-09-02"},"request":{"method":"PUT","url":"Patient/c2dfc5ca-96db-4ae2-bbe1-7bfed219cb72"}},{"fullUrl":"https://madie.cms.gov/Encounter/ee6eb181-abbe-488e-ba36-8f01594492ff","resource":{"resourceType":"Encounter","id":"ee6eb181-abbe-488e-ba36-8f01594492ff","meta":{"profile":["http://hl7.org/fhir/us/qicore/StructureDefinition/qicore-encounter"]},"status":"finished","class":{"system":"http://terminology.hl7.org/CodeSystem/v3-ActCode","code":"IMP","display":"inpatient encounter"},"type":[{"coding":[{"system":"http://snomed.info/sct","code":"183452005"}]}],"subject":{"reference":"Patient/c2dfc5ca-96db-4ae2-bbe1-7bfed219cb72"},"period":{"start":"2026-09-03T09:40:00+00:00","end":"2026-10-01T12:59:00+00:00"}},"request":{"method":"PUT","url":"Encounter/ee6eb181-abbe-488e-ba36-8f01594492ff"}},{"fullUrl":"https://madie.cms.gov/Encounter/2cd3f4b4-cad7-41b2-8d6f-63427b850f43","resource":{"resourceType":"Encounter","id":"2cd3f4b4-cad7-41b2-8d6f-63427b850f43","meta":{"profile":["http://hl7.org/fhir/us/qicore/StructureDefinition/qicore-encounter"]},"status":"finished","class":{"system":"http://terminology.hl7.org/CodeSystem/v3-ActCode","code":"EMER","display":"emergency"},"type":[{"coding":[{"system":"http://snomed.info/sct","code":"4525004"}]}],"subject":{"reference":"Patient/c2dfc5ca-96db-4ae2-bbe1-7bfed219cb72"},"period":{"start":"2026-09-01T08:00:00+00:00","end":"2026-09-01T09:00:00+00:00"}},"request":{"method":"PUT","url":"Encounter/2cd3f4b4-cad7-41b2-8d6f-63427b850f43"}},{"fullUrl":"https://madie.cms.gov/Encounter/78c86326-acca-425a-bae0-fa3634539f38","resource":{"resourceType":"Encounter","id":"78c86326-acca-425a-bae0-fa3634539f38","meta":{"profile":["http://hl7.org/fhir/us/qicore/StructureDefinition/qicore-encounter"]},"status":"finished","class":{"system":"http://terminology.hl7.org/CodeSystem/v3-ActCode","code":"OBSENC","display":"observation encounter"},"type":[{"coding":[{"system":"http://snomed.info/sct","code":"448851000124103"}]}],"subject":{"reference":"Patient/c2dfc5ca-96db-4ae2-bbe1-7bfed219cb72"},"period":{"start":"2026-09-01T09:45:00+00:00","end":"2026-09-02T09:00:00+00:00"}},"request":{"method":"PUT","url":"Encounter/78c86326-acca-425a-bae0-fa3634539f38"}},{"fullUrl":"https://madie.cms.gov/Encounter/76dced74-9f88-4e38-8813-13dd44271f1b","resource":{"resourceType":"Encounter","id":"76dced74-9f88-4e38-8813-13dd44271f1b","meta":{"profile":["http://hl7.org/fhir/us/qicore/StructureDefinition/qicore-encounter"]},"status":"finished","class":{"system":"http://terminology.hl7.org/CodeSystem/v3-ActCode","code":"EMER","display":"emergency"},"type":[{"coding":[{"system":"http://snomed.info/sct","code":"4525004"}]}],"subject":{"reference":"Patient/c2dfc5ca-96db-4ae2-bbe1-7bfed219cb72"},"period":{"start":"2026-09-02T09:15:00+00:00","end":"2026-09-02T09:45:00+00:00"}},"request":{"method":"PUT","url":"Encounter/76dced74-9f88-4e38-8813-13dd44271f1b"}},{"fullUrl":"https://madie.cms.gov/Coverage/5106b888-f72b-47f9-8123-e18026047452","resource":{"resourceType":"Coverage","id":"5106b888-f72b-47f9-8123-e18026047452","status":"active","beneficiary":{"reference":"Patient/c2dfc5ca-96db-4ae2-bbe1-7bfed219cb72"},"period":{"start":"2004-09-02T09:00:00+00:00"},"payor":[{"reference":"Organization/607fdef9-3983-4cef-ab1a-95434d29b463"}]},"request":{"method":"PUT","url":"Coverage/5106b888-f72b-47f9-8123-e18026047452"}},{"fullUrl":"https://madie.cms.gov/MedicationAdministration/7f6fb29a-bb18-4568-8149-f0d007c9785e","resource":{"resourceType":"MedicationAdministration","id":"7f6fb29a-bb18-4568-8149-f0d007c9785e","meta":{"profile":["http://hl7.org/fhir/us/qicore/StructureDefinition/qicore-medicationadministration"]},"status":"completed","medicationCodeableConcept":{"coding":[{"system":"http://www.nlm.nih.gov/research/umls/rxnorm","code":"861356"}]},"subject":{"reference":"Patient/c2dfc5ca-96db-4ae2-bbe1-7bfed219cb72"},"effectivePeriod":{"start":"2026-09-02T08:15:00+00:00","end":"2026-09-02T08:30:00+00:00"}},"request":{"method":"PUT","url":"MedicationAdministration/7f6fb29a-bb18-4568-8149-f0d007c9785e"}},{"fullUrl":"https://madie.cms.gov/Organization/59f13ef5-bb33-4ed9-9a0a-3ac0223bb4fc","resource":{"resourceType":"Organization","id":"607fdef9-3983-4cef-ab1a-95434d29b463","meta":{"profile":["http://hl7.org/fhir/us/qicore/StructureDefinition/qicore-organization"]},"identifier":[{"use":"temp","system":"urn:oid:2.16.840.1.113883.4.4","value":"21-3259825"}],"active":true,"type":[{"coding":[{"system":"http://terminology.hl7.org/CodeSystem/organization-type","code":"pay","display":"Payer"}]}],"name":"Blue Cross Blue Shield of Texas","telecom":[{"system":"phone","value":"(+1) 972-766-6900"}],"address":[{"use":"billing","type":"postal","line":["P.O. Box 660044"],"city":"Dallas","state":"TX","postalCode":"75266-0044","country":"USA"}]},"request":{"method":"PUT","url":"Organization/607fdef9-3983-4cef-ab1a-95434d29b463"}},{"fullUrl":"https://madie.cms.gov/Practitioner/8f7fde83-6731-48d0-9a30-5db8d58f8782","resource":{"resourceType":"Practitioner","id":"8f7fde83-6731-48d0-9a30-5db8d58f8782","identifier":[{"system":"http://hl7.org/fhir/sid/us-npi","value":"123456"}],"name":[{"family":"Evil","prefix":["Dr"]}]},"request":{"method":"PUT","url":"Practitioner/8f7fde83-6731-48d0-9a30-5db8d58f8782"}},{"fullUrl":"https://madie.cms.gov/MeasureReport/9b29bc96-525e-4c4c-aca6-571a24fb6ee2","resource":{"resourceType":"MeasureReport","id":"9b29bc96-525e-4c4c-aca6-571a24fb6ee2","meta":{"profile":["http://hl7.org/fhir/us/cqfmeasures/StructureDefinition/test-case-cqfm"]},"contained":[{"resourceType":"Parameters","id":"e6d74c14-f703-4b87-b4e8-160ff1d906c0-parameters","parameter":[{"name":"subject","valueString":"c2dfc5ca-96db-4ae2-bbe1-7bfed219cb72"}]}],"extension":[{"url":"http://hl7.org/fhir/us/cqfmeasures/StructureDefinition/cqfm-inputParameters","valueReference":{"reference":"#e6d74c14-f703-4b87-b4e8-160ff1d906c0-parameters"}},{"url":"http://hl7.org/fhir/us/cqfmeasures/StructureDefinition/cqfm-testCaseDescription","valueMarkdown":"ED/outpatient @ 9/1 @8:00 - 9:00 am; feeling sick returned to ED @ 9:15 -9:45 am; admit for observ 9/3  @9:45 -  9/3 @ 9:00 am; then admitted to inpatient on 9/3 @ 9:40. prophylaxis given during the FIRST ED on 1 day bF  2nd ED. SO Fail\n"}],"modifierExtension":[{"url":"http://hl7.org/fhir/us/cqfmeasures/StructureDefinition/cqfm-isTestCase","valueBoolean":true}],"status":"complete","type":"individual","measure":"https://madie.cms.gov/Measure/CMS108VTEProphylaxisFHIR","period":{"start":"2026-01-01","end":"2026-12-31"},"group":[{"population":[{"code":{"coding":[{"system":"http://terminology.hl7.org/CodeSystem/measure-population","code":"initial-population","display":"Initial Population"}]},"count":1},{"code":{"coding":[{"system":"http://terminology.hl7.org/CodeSystem/measure-population","code":"denominator","display":"Denominator"}]},"count":1},{"code":{"coding":[{"system":"http://terminology.hl7.org/CodeSystem/measure-population","code":"denominator-exclusion","display":"Denominator Exclusion"}]},"count":0},{"code":{"coding":[{"system":"http://terminology.hl7.org/CodeSystem/measure-population","code":"numerator","display":"Numerator"}]},"count":0}]}]},"request":{"method":"PUT","url":"MeasureReport/9b29bc96-525e-4c4c-aca6-571a24fb6ee2"}}]}