{"resourceType":"Bundle","id":"tests-e193ed34-00f9-4da1-b347-20d720b30517-bundle","type":"transaction","entry":[{"fullUrl":"https://madie.cms.gov/Patient/e193ed34-00f9-4da1-b347-20d720b30517","resource":{"resourceType":"Patient","id":"e193ed34-00f9-4da1-b347-20d720b30517","meta":{"profile":["http://hl7.org/fhir/us/qicore/StructureDefinition/qicore-patient"]},"text":{"status":"generated","div":"<div xmlns=\"http://www.w3.org/1999/xhtml\"><div class=\"hapiHeaderText\">ICUDayAfterAdmit <b>DENEXPASS </b></div><table class=\"hapiPropertyTable\"><tbody><tr><td>Identifier</td><td>11bb5362fa7c7b63061d0c716b7b8ddb</td></tr><tr><td>Date of birth</td><td><span>02 January 1974</span></td></tr></tbody></table></div>"},"extension":[{"url":"http://hl7.org/fhir/us/core/StructureDefinition/us-core-race","extension":[{"url":"ombCategory","valueCoding":{"system":"urn:oid:2.16.840.1.113883.6.238","code":"1002-5","display":"American Indian or Alaska Native","userSelected":true}},{"url":"text","valueString":"American Indian or Alaska Native"}]},{"url":"http://hl7.org/fhir/us/core/StructureDefinition/us-core-ethnicity","extension":[{"url":"ombCategory","valueCoding":{"system":"urn:oid:2.16.840.1.113883.6.238","code":"2135-2","display":"Hispanic or Latino","userSelected":true}},{"url":"text","valueString":"Hispanic or Latino"}]}],"identifier":[{"type":{"coding":[{"system":"http://terminology.hl7.org/CodeSystem/v2-0203","code":"MR"}]},"system":"https://bonnie-fhir.healthit.gov/","value":"612e6b3a02c62a011f2ecf6d"}],"active":true,"name":[{"use":"usual","family":"DENEXPass","given":["ICUDayAfterAdmit"]}],"gender":"male","birthDate":"1975-01-02"},"request":{"method":"PUT","url":"Patient/e193ed34-00f9-4da1-b347-20d720b30517"}},{"fullUrl":"https://madie.cms.gov/Encounter/f5009737-b2d9-411d-b6c3-1ee7dd501510","resource":{"resourceType":"Encounter","id":"f5009737-b2d9-411d-b6c3-1ee7dd501510","meta":{"profile":["http://hl7.org/fhir/us/qicore/StructureDefinition/qicore-encounter"]},"status":"finished","class":{"system":"http://terminology.hl7.org/CodeSystem/v3-ActCode","code":"IMP","display":"inpatient encounter"},"type":[{"coding":[{"system":"http://snomed.info/sct","code":"8715000"}]}],"subject":{"reference":"Patient/e193ed34-00f9-4da1-b347-20d720b30517"},"period":{"start":"2026-11-01T08:00:00+00:00","end":"2026-11-26T08:15:00+00:00"},"length":{"value":25.0,"unit":"days"},"location":[{"location":{"reference":"Location/54c43f29-dcc2-4ebe-9f9d-329023cf0a8e"},"period":{"start":"2026-11-02T08:30:00.000+00:00","end":"2026-11-03T18:15:00.000+00:00"}}]},"request":{"method":"PUT","url":"Encounter/f5009737-b2d9-411d-b6c3-1ee7dd501510"}},{"fullUrl":"https://madie.cms.gov/Coverage/6b097ab1-e39b-4230-aafd-3ff6b2dd6657","resource":{"resourceType":"Coverage","id":"6b097ab1-e39b-4230-aafd-3ff6b2dd6657","status":"active","beneficiary":{"reference":"Patient/e193ed34-00f9-4da1-b347-20d720b30517"},"period":{"start":"1975-01-02T08:00:00+00:00"},"payor":[{"reference":"Organization/e75793c9-fdf6-463a-8c1d-4ee44320dc25"}]},"request":{"method":"PUT","url":"Coverage/6b097ab1-e39b-4230-aafd-3ff6b2dd6657"}},{"fullUrl":"https://madie.cms.gov/Location/54c43f29-dcc2-4ebe-9f9d-329023cf0a8e","resource":{"resourceType":"Location","id":"54c43f29-dcc2-4ebe-9f9d-329023cf0a8e","meta":{"profile":["http://hl7.org/fhir/us/qicore/StructureDefinition/qicore-location"]},"identifier":[{"use":"usual","system":"http://exampleoflocation.com","value":"B1-S.F2"}],"name":"Medical Surgical East, first floor","type":[{"coding":[{"system":"https://www.cdc.gov/nhsn/cdaportal/terminology/codesystem/hsloc.html","version":"2020","code":"1025-6","display":"Trauma Critical Care","userSelected":true}]}]},"request":{"method":"PUT","url":"Location/54c43f29-dcc2-4ebe-9f9d-329023cf0a8e"}},{"fullUrl":"https://madie.cms.gov/Organization/174d7fdd-9abe-4638-aa3f-77e0f7f3449b","resource":{"resourceType":"Organization","id":"e75793c9-fdf6-463a-8c1d-4ee44320dc25","meta":{"profile":["http://hl7.org/fhir/us/qicore/StructureDefinition/qicore-organization"]},"identifier":[{"use":"temp","system":"urn:oid:2.16.840.1.113883.4.4","value":"21-3259825"}],"active":true,"type":[{"coding":[{"system":"http://terminology.hl7.org/CodeSystem/organization-type","code":"pay","display":"Payer"}]}],"name":"Blue Cross Blue Shield of Texas","telecom":[{"system":"phone","value":"(+1) 972-766-6900"}],"address":[{"use":"billing","type":"postal","line":["P.O. Box 660044"],"city":"Dallas","state":"TX","postalCode":"75266-0044","country":"USA"}]},"request":{"method":"PUT","url":"Organization/e75793c9-fdf6-463a-8c1d-4ee44320dc25"}},{"fullUrl":"https://madie.cms.gov/Practitioner/173ed7be-404b-4170-8b8b-0fcca58d7f76","resource":{"resourceType":"Practitioner","id":"173ed7be-404b-4170-8b8b-0fcca58d7f76","identifier":[{"system":"http://hl7.org/fhir/sid/us-npi","value":"123456"}],"name":[{"family":"Evil","prefix":["Dr"]}]},"request":{"method":"PUT","url":"Practitioner/173ed7be-404b-4170-8b8b-0fcca58d7f76"}},{"fullUrl":"https://madie.cms.gov/MeasureReport/e3a3e140-517d-4a13-89f9-1a705cfd9100","resource":{"resourceType":"MeasureReport","id":"e3a3e140-517d-4a13-89f9-1a705cfd9100","meta":{"profile":["http://hl7.org/fhir/us/cqfmeasures/StructureDefinition/test-case-cqfm"]},"contained":[{"resourceType":"Parameters","id":"5376447b-4a2e-45a6-81cf-6cd43a4b46e0-parameters","parameter":[{"name":"subject","valueString":"e193ed34-00f9-4da1-b347-20d720b30517"}]}],"extension":[{"url":"http://hl7.org/fhir/us/cqfmeasures/StructureDefinition/cqfm-inputParameters","valueReference":{"reference":"#5376447b-4a2e-45a6-81cf-6cd43a4b46e0-parameters"}},{"url":"http://hl7.org/fhir/us/cqfmeasures/StructureDefinition/cqfm-testCaseDescription","valueMarkdown":"ICU admission with LOS >= 1 day; = 1 day starts after or concurrent with start of IP encounter\n"}],"modifierExtension":[{"url":"http://hl7.org/fhir/us/cqfmeasures/StructureDefinition/cqfm-isTestCase","valueBoolean":true}],"status":"complete","type":"individual","measure":"https://madie.cms.gov/Measure/CMS108VTEProphylaxisFHIR","period":{"start":"2026-01-01","end":"2026-12-31"},"group":[{"population":[{"code":{"coding":[{"system":"http://terminology.hl7.org/CodeSystem/measure-population","code":"initial-population","display":"Initial Population"}]},"count":1},{"code":{"coding":[{"system":"http://terminology.hl7.org/CodeSystem/measure-population","code":"denominator","display":"Denominator"}]},"count":1},{"code":{"coding":[{"system":"http://terminology.hl7.org/CodeSystem/measure-population","code":"denominator-exclusion","display":"Denominator Exclusion"}]},"count":1},{"code":{"coding":[{"system":"http://terminology.hl7.org/CodeSystem/measure-population","code":"numerator","display":"Numerator"}]},"count":0}]}]},"request":{"method":"PUT","url":"MeasureReport/e3a3e140-517d-4a13-89f9-1a705cfd9100"}}]}