{"resourceType":"Bundle","id":"tests-4c649ec3-846e-46e2-bee4-6ace6da48f68-bundle","type":"transaction","entry":[{"fullUrl":"https://madie.cms.gov/Patient/4c649ec3-846e-46e2-bee4-6ace6da48f68","resource":{"resourceType":"Patient","id":"4c649ec3-846e-46e2-bee4-6ace6da48f68","meta":{"profile":["http://hl7.org/fhir/us/qicore/StructureDefinition/qicore-patient"]},"text":{"status":"generated","div":"<div xmlns=\"http://www.w3.org/1999/xhtml\"><div class=\"hapiHeaderText\">INR3_WOdecimal <b>NUMERFAIL </b></div><table class=\"hapiPropertyTable\"><tbody><tr><td>Identifier</td><td>362034975be33d3d89eb2fe4e76abe5d</td></tr><tr><td>Date of birth</td><td><span>02 January 1974</span></td></tr></tbody></table></div>"},"extension":[{"url":"http://hl7.org/fhir/us/core/StructureDefinition/us-core-race","extension":[{"url":"ombCategory","valueCoding":{"system":"urn:oid:2.16.840.1.113883.6.238","code":"1002-5","display":"American Indian or Alaska Native","userSelected":true}},{"url":"text","valueString":"American Indian or Alaska Native"}]},{"url":"http://hl7.org/fhir/us/core/StructureDefinition/us-core-ethnicity","extension":[{"url":"ombCategory","valueCoding":{"system":"urn:oid:2.16.840.1.113883.6.238","code":"2135-2","display":"Hispanic or Latino","userSelected":true}},{"url":"text","valueString":"Hispanic or Latino"}]}],"identifier":[{"type":{"coding":[{"system":"http://terminology.hl7.org/CodeSystem/v2-0203","code":"MR"}]},"system":"https://bonnie-fhir.healthit.gov/","value":"612e6b4b02c62a011f2ed336"}],"active":true,"name":[{"use":"usual","family":"NUMERFail","given":["INR3WOdecimal"]}],"gender":"male","birthDate":"1975-01-02"},"request":{"method":"PUT","url":"Patient/4c649ec3-846e-46e2-bee4-6ace6da48f68"}},{"fullUrl":"https://madie.cms.gov/Encounter/bc55ae1d-9892-48aa-ac3d-5c9ed942f7b4","resource":{"resourceType":"Encounter","id":"bc55ae1d-9892-48aa-ac3d-5c9ed942f7b4","meta":{"profile":["http://hl7.org/fhir/us/qicore/StructureDefinition/qicore-encounter"]},"status":"finished","class":{"system":"http://terminology.hl7.org/CodeSystem/v3-ActCode","code":"IMP","display":"inpatient encounter"},"type":[{"coding":[{"system":"http://snomed.info/sct","code":"8715000"}]}],"subject":{"reference":"Patient/4c649ec3-846e-46e2-bee4-6ace6da48f68"},"period":{"start":"2026-11-01T08:00:00+00:00","end":"2026-11-26T08:15:00+00:00"},"length":{"value":25.0,"unit":"days"}},"request":{"method":"PUT","url":"Encounter/bc55ae1d-9892-48aa-ac3d-5c9ed942f7b4"}},{"fullUrl":"https://madie.cms.gov/Coverage/f2bd561f-cb05-463c-a6e8-e41cf43e09ae","resource":{"resourceType":"Coverage","id":"f2bd561f-cb05-463c-a6e8-e41cf43e09ae","status":"active","beneficiary":{"reference":"Patient/4c649ec3-846e-46e2-bee4-6ace6da48f68"},"period":{"start":"1975-01-02T08:00:00+00:00"},"payor":[{"reference":"Organization/607fdef9-3983-4cef-ab1a-95434d29b463"}]},"request":{"method":"PUT","url":"Coverage/f2bd561f-cb05-463c-a6e8-e41cf43e09ae"}},{"fullUrl":"https://madie.cms.gov/Observation/560c718f-b6bb-4388-80df-bf9048f2141d","resource":{"resourceType":"Observation","id":"560c718f-b6bb-4388-80df-bf9048f2141d","meta":{"profile":["http://hl7.org/fhir/us/core/StructureDefinition/us-core-observation-lab"]},"status":"final","category":[{"coding":[{"system":"http://terminology.hl7.org/CodeSystem/observation-category","code":"laboratory","display":"Laboratory"}]}],"code":{"coding":[{"system":"http://loinc.org","code":"34714-6"}]},"subject":{"reference":"Patient/4c649ec3-846e-46e2-bee4-6ace6da48f68"},"issued":"2026-11-01T09:00:00.000+00:00","valueQuantity":{"value":3.0,"unit":"{INR}"}},"request":{"method":"PUT","url":"Observation/560c718f-b6bb-4388-80df-bf9048f2141d"}},{"fullUrl":"https://madie.cms.gov/Organization/00b1be3b-664b-438d-b8a5-eac39385ddd8","resource":{"resourceType":"Organization","id":"607fdef9-3983-4cef-ab1a-95434d29b463","meta":{"profile":["http://hl7.org/fhir/us/qicore/StructureDefinition/qicore-organization"]},"identifier":[{"use":"temp","system":"urn:oid:2.16.840.1.113883.4.4","value":"21-3259825"}],"active":true,"type":[{"coding":[{"system":"http://terminology.hl7.org/CodeSystem/organization-type","code":"pay","display":"Payer"}]}],"name":"Blue Cross Blue Shield of Texas","telecom":[{"system":"phone","value":"(+1) 972-766-6900"}],"address":[{"use":"billing","type":"postal","line":["P.O. Box 660044"],"city":"Dallas","state":"TX","postalCode":"75266-0044","country":"USA"}]},"request":{"method":"PUT","url":"Organization/607fdef9-3983-4cef-ab1a-95434d29b463"}},{"fullUrl":"https://madie.cms.gov/Practitioner/bd42803b-7559-44d9-8161-317a195a80f8","resource":{"resourceType":"Practitioner","id":"bd42803b-7559-44d9-8161-317a195a80f8","identifier":[{"system":"http://hl7.org/fhir/sid/us-npi","value":"123456"}],"name":[{"family":"Evil","prefix":["Dr"]}]},"request":{"method":"PUT","url":"Practitioner/bd42803b-7559-44d9-8161-317a195a80f8"}},{"fullUrl":"https://madie.cms.gov/MeasureReport/df493d82-837c-435f-9bef-4e33a94ddb04","resource":{"resourceType":"MeasureReport","id":"df493d82-837c-435f-9bef-4e33a94ddb04","meta":{"profile":["http://hl7.org/fhir/us/cqfmeasures/StructureDefinition/test-case-cqfm"]},"contained":[{"resourceType":"Parameters","id":"33aab76d-432c-4e39-9f72-3fbd4c1ccf53-parameters","parameter":[{"name":"subject","valueString":"4c649ec3-846e-46e2-bee4-6ace6da48f68"}]}],"extension":[{"url":"http://hl7.org/fhir/us/cqfmeasures/StructureDefinition/cqfm-inputParameters","valueReference":{"reference":"#33aab76d-432c-4e39-9f72-3fbd4c1ccf53-parameters"}},{"url":"http://hl7.org/fhir/us/cqfmeasures/StructureDefinition/cqfm-testCaseDescription","valueMarkdown":">18, LOS<120 day.Lab INR=3\n"}],"modifierExtension":[{"url":"http://hl7.org/fhir/us/cqfmeasures/StructureDefinition/cqfm-isTestCase","valueBoolean":true}],"status":"complete","type":"individual","measure":"https://madie.cms.gov/Measure/CMS108VTEProphylaxisFHIR","period":{"start":"2026-01-01","end":"2026-12-31"},"group":[{"population":[{"code":{"coding":[{"system":"http://terminology.hl7.org/CodeSystem/measure-population","code":"initial-population","display":"Initial Population"}]},"count":1},{"code":{"coding":[{"system":"http://terminology.hl7.org/CodeSystem/measure-population","code":"denominator","display":"Denominator"}]},"count":1},{"code":{"coding":[{"system":"http://terminology.hl7.org/CodeSystem/measure-population","code":"denominator-exclusion","display":"Denominator Exclusion"}]},"count":0},{"code":{"coding":[{"system":"http://terminology.hl7.org/CodeSystem/measure-population","code":"numerator","display":"Numerator"}]},"count":0}]}]},"request":{"method":"PUT","url":"MeasureReport/df493d82-837c-435f-9bef-4e33a94ddb04"}}]}