{"resourceType":"Bundle","id":"tests-a97b19dd-82f7-4b7b-960b-3c8b1101caeb-bundle","type":"transaction","entry":[{"fullUrl":"https://madie.cms.gov/Patient/a97b19dd-82f7-4b7b-960b-3c8b1101caeb","resource":{"resourceType":"Patient","id":"a97b19dd-82f7-4b7b-960b-3c8b1101caeb","meta":{"profile":["http://hl7.org/fhir/us/qicore/StructureDefinition/qicore-patient"]},"text":{"status":"generated","div":"<div xmlns=\"http://www.w3.org/1999/xhtml\"><div class=\"hapiHeaderText\">VTE_RiskAssess_DayOfAnes <b>NUMERPASS </b></div><table class=\"hapiPropertyTable\"><tbody><tr><td>Identifier</td><td>c54dbc364ce913dfe300bd0f00b65409</td></tr><tr><td>Date of birth</td><td><span>02 January 1974</span></td></tr></tbody></table></div>"},"extension":[{"url":"http://hl7.org/fhir/us/core/StructureDefinition/us-core-race","extension":[{"url":"ombCategory","valueCoding":{"system":"urn:oid:2.16.840.1.113883.6.238","code":"1002-5","display":"American Indian or Alaska Native","userSelected":true}},{"url":"text","valueString":"American Indian or Alaska Native"}]},{"url":"http://hl7.org/fhir/us/core/StructureDefinition/us-core-ethnicity","extension":[{"url":"ombCategory","valueCoding":{"system":"urn:oid:2.16.840.1.113883.6.238","code":"2135-2","display":"Hispanic or Latino","userSelected":true}},{"url":"text","valueString":"Hispanic or Latino"}]}],"identifier":[{"type":{"coding":[{"system":"http://terminology.hl7.org/CodeSystem/v2-0203","code":"MR"}]},"system":"https://bonnie-fhir.healthit.gov/","value":"612e6a5f02c62a011f2e9d9d"}],"active":true,"name":[{"use":"usual","family":"NUMERPass","given":["VTE_RiskAssess_DayOfAnes"]}],"gender":"male","birthDate":"1975-01-02"},"request":{"method":"PUT","url":"Patient/a97b19dd-82f7-4b7b-960b-3c8b1101caeb"}},{"fullUrl":"https://madie.cms.gov/Encounter/731b9c58-48cf-45b9-9abf-8e76d0d6774c","resource":{"resourceType":"Encounter","id":"731b9c58-48cf-45b9-9abf-8e76d0d6774c","meta":{"profile":["http://hl7.org/fhir/us/qicore/StructureDefinition/qicore-encounter"]},"status":"finished","class":{"system":"http://terminology.hl7.org/CodeSystem/v3-ActCode","code":"IMP","display":"inpatient encounter"},"type":[{"coding":[{"system":"http://snomed.info/sct","code":"8715000"}]}],"subject":{"reference":"Patient/a97b19dd-82f7-4b7b-960b-3c8b1101caeb"},"period":{"start":"2026-11-01T08:00:00+00:00","end":"2026-11-26T08:15:00+00:00"},"length":{"value":25.0,"unit":"days"}},"request":{"method":"PUT","url":"Encounter/731b9c58-48cf-45b9-9abf-8e76d0d6774c"}},{"fullUrl":"https://madie.cms.gov/Observation/14154d3a-f191-4ee8-86f9-14e3d6714604","resource":{"resourceType":"Observation","id":"14154d3a-f191-4ee8-86f9-14e3d6714604","meta":{"profile":["http://hl7.org/fhir/us/qicore/StructureDefinition/qicore-observation"]},"status":"final","category":[{"coding":[{"system":"http://terminology.hl7.org/CodeSystem/observation-category","code":"exam","display":"exam"}]}],"code":{"coding":[{"system":"http://loinc.org","code":"72136-5"}]},"subject":{"reference":"Patient/a97b19dd-82f7-4b7b-960b-3c8b1101caeb"},"effectivePeriod":{"start":"2026-11-02T11:00:00+00:00","end":"2026-11-02T11:05:00+00:00"},"valueCodeableConcept":{"coding":[{"system":"http://snomed.info/sct","code":"260362008","display":"Low Risk"}]}},"request":{"method":"PUT","url":"Observation/14154d3a-f191-4ee8-86f9-14e3d6714604"}},{"fullUrl":"https://madie.cms.gov/Coverage/d5036729-4ac5-473a-8ab8-ce328ecca246","resource":{"resourceType":"Coverage","id":"d5036729-4ac5-473a-8ab8-ce328ecca246","status":"active","beneficiary":{"reference":"Patient/a97b19dd-82f7-4b7b-960b-3c8b1101caeb"},"period":{"start":"1975-01-02T08:00:00+00:00"},"payor":[{"reference":"Organization/607fdef9-3983-4cef-ab1a-95434d29b463"}]},"request":{"method":"PUT","url":"Coverage/d5036729-4ac5-473a-8ab8-ce328ecca246"}},{"fullUrl":"https://madie.cms.gov/Procedure/24cb124e-6937-47cd-a681-57cc1d774a67","resource":{"resourceType":"Procedure","id":"24cb124e-6937-47cd-a681-57cc1d774a67","meta":{"profile":["http://hl7.org/fhir/us/qicore/StructureDefinition/qicore-procedure"]},"extension":[{"url":"http://hl7.org/fhir/us/qicore/StructureDefinition/qicore-recorded","valueDateTime":"2026-11-02T09:35:00-04:00"}],"status":"completed","code":{"coding":[{"system":"http://www.icd10data.com/icd10pcs","code":"3E030FZ"},{"system":"http://snomed.info/sct","code":"18946005"}]},"subject":{"reference":"Patient/a97b19dd-82f7-4b7b-960b-3c8b1101caeb"},"performedPeriod":{"start":"2026-11-02T09:00:00+00:00","end":"2026-11-02T09:15:00+00:00"}},"request":{"method":"PUT","url":"Procedure/24cb124e-6937-47cd-a681-57cc1d774a67"}},{"fullUrl":"https://madie.cms.gov/Organization/db21ec21-39d0-4419-852b-91764248241e","resource":{"resourceType":"Organization","id":"607fdef9-3983-4cef-ab1a-95434d29b463","meta":{"profile":["http://hl7.org/fhir/us/qicore/StructureDefinition/qicore-organization"]},"identifier":[{"use":"temp","system":"urn:oid:2.16.840.1.113883.4.4","value":"21-3259825"}],"active":true,"type":[{"coding":[{"system":"http://terminology.hl7.org/CodeSystem/organization-type","code":"pay","display":"Payer"}]}],"name":"Blue Cross Blue Shield of Texas","telecom":[{"system":"phone","value":"(+1) 972-766-6900"}],"address":[{"use":"billing","type":"postal","line":["P.O. Box 660044"],"city":"Dallas","state":"TX","postalCode":"75266-0044","country":"USA"}]},"request":{"method":"PUT","url":"Organization/607fdef9-3983-4cef-ab1a-95434d29b463"}},{"fullUrl":"https://madie.cms.gov/Practitioner/869ce249-ad74-4ff4-b70a-a004820e117f","resource":{"resourceType":"Practitioner","id":"869ce249-ad74-4ff4-b70a-a004820e117f","identifier":[{"system":"http://hl7.org/fhir/sid/us-npi","value":"123456"}],"name":[{"family":"Evil","prefix":["Dr"]}]},"request":{"method":"PUT","url":"Practitioner/869ce249-ad74-4ff4-b70a-a004820e117f"}},{"fullUrl":"https://madie.cms.gov/MeasureReport/c9e65e17-c7ef-48f9-8712-91b61efef282","resource":{"resourceType":"MeasureReport","id":"c9e65e17-c7ef-48f9-8712-91b61efef282","meta":{"profile":["http://hl7.org/fhir/us/cqfmeasures/StructureDefinition/test-case-cqfm"]},"contained":[{"resourceType":"Parameters","id":"bdd39ad9-5f08-49b6-b1fa-1b3859154601-parameters","parameter":[{"name":"subject","valueString":"a97b19dd-82f7-4b7b-960b-3c8b1101caeb"}]}],"extension":[{"url":"http://hl7.org/fhir/us/cqfmeasures/StructureDefinition/cqfm-inputParameters","valueReference":{"reference":"#bdd39ad9-5f08-49b6-b1fa-1b3859154601-parameters"}},{"url":"http://hl7.org/fhir/us/cqfmeasures/StructureDefinition/cqfm-testCaseDescription","valueMarkdown":"risk assessment done on the day of end of anesthesia, result is low risk. Risk Assessment uses effectivePeriod\n"}],"modifierExtension":[{"url":"http://hl7.org/fhir/us/cqfmeasures/StructureDefinition/cqfm-isTestCase","valueBoolean":true}],"status":"complete","type":"individual","measure":"https://madie.cms.gov/Measure/CMS108VTEProphylaxisFHIR","period":{"start":"2026-01-01","end":"2026-12-31"},"group":[{"population":[{"code":{"coding":[{"system":"http://terminology.hl7.org/CodeSystem/measure-population","code":"initial-population","display":"Initial Population"}]},"count":1},{"code":{"coding":[{"system":"http://terminology.hl7.org/CodeSystem/measure-population","code":"denominator","display":"Denominator"}]},"count":1},{"code":{"coding":[{"system":"http://terminology.hl7.org/CodeSystem/measure-population","code":"denominator-exclusion","display":"Denominator Exclusion"}]},"count":0},{"code":{"coding":[{"system":"http://terminology.hl7.org/CodeSystem/measure-population","code":"numerator","display":"Numerator"}]},"count":1}]}]},"request":{"method":"PUT","url":"MeasureReport/c9e65e17-c7ef-48f9-8712-91b61efef282"}}]}