{"resourceType":"Bundle","id":"tests-848277a1-a657-4474-a474-733a962f44a5-bundle","type":"transaction","entry":[{"fullUrl":"https://madie.cms.gov/Patient/848277a1-a657-4474-a474-733a962f44a5","resource":{"resourceType":"Patient","id":"848277a1-a657-4474-a474-733a962f44a5","meta":{"profile":["http://hl7.org/fhir/us/qicore/StructureDefinition/qicore-patient"]},"text":{"status":"generated","div":"<div xmlns=\"http://www.w3.org/1999/xhtml\"><div class=\"hapiHeaderText\">EncDxAfib_MA_OralXa_MedAdmRvltDT <b>NUMERPASS </b></div><table class=\"hapiPropertyTable\"><tbody><tr><td>Identifier</td><td>dc257e8594370e421c6581222a79e666</td></tr><tr><td>Date of birth</td><td><span>02 January 1974</span></td></tr></tbody></table></div>"},"extension":[{"url":"http://hl7.org/fhir/us/core/StructureDefinition/us-core-race","extension":[{"url":"ombCategory","valueCoding":{"system":"urn:oid:2.16.840.1.113883.6.238","code":"1002-5","display":"American Indian or Alaska Native","userSelected":true}},{"url":"text","valueString":"American Indian or Alaska Native"}]},{"url":"http://hl7.org/fhir/us/core/StructureDefinition/us-core-ethnicity","extension":[{"url":"ombCategory","valueCoding":{"system":"urn:oid:2.16.840.1.113883.6.238","code":"2135-2","display":"Hispanic or Latino","userSelected":true}},{"url":"text","valueString":"Hispanic or Latino"}]}],"identifier":[{"type":{"coding":[{"system":"http://terminology.hl7.org/CodeSystem/v2-0203","code":"MR"}]},"system":"https://bonnie-fhir.healthit.gov/","value":"612e6b3102c62a011f2ecd58"}],"active":true,"name":[{"use":"usual","family":"NUMERPass","given":["EncDxAfib_MA_OralXa_MedAdmRvltDT"]}],"gender":"male","birthDate":"1975-01-02"},"request":{"method":"PUT","url":"Patient/848277a1-a657-4474-a474-733a962f44a5"}},{"fullUrl":"https://madie.cms.gov/Encounter/fba93af7-7c05-4ae8-b336-13b5b795ede1","resource":{"resourceType":"Encounter","id":"fba93af7-7c05-4ae8-b336-13b5b795ede1","meta":{"profile":["http://hl7.org/fhir/us/qicore/StructureDefinition/qicore-encounter"]},"status":"finished","class":{"system":"http://terminology.hl7.org/CodeSystem/v3-ActCode","code":"IMP","display":"inpatient encounter"},"type":[{"coding":[{"system":"http://snomed.info/sct","code":"8715000"}]}],"subject":{"reference":"Patient/848277a1-a657-4474-a474-733a962f44a5"},"period":{"start":"2026-11-01T08:00:00+00:00","end":"2026-11-26T08:15:00+00:00"},"length":{"value":25.0,"unit":"days"},"diagnosis":[{"condition":{"reference":"Condition/1788d3ea-1fca-4161-8e74-53aa1620317b"}}]},"request":{"method":"PUT","url":"Encounter/fba93af7-7c05-4ae8-b336-13b5b795ede1"}},{"fullUrl":"https://madie.cms.gov/Coverage/7dee16d0-d891-40ac-a090-7288d1a0892a","resource":{"resourceType":"Coverage","id":"7dee16d0-d891-40ac-a090-7288d1a0892a","status":"active","beneficiary":{"reference":"Patient/848277a1-a657-4474-a474-733a962f44a5"},"period":{"start":"1975-01-02T08:00:00+00:00"},"payor":[{"reference":"Organization/e75793c9-fdf6-463a-8c1d-4ee44320dc25"}]},"request":{"method":"PUT","url":"Coverage/7dee16d0-d891-40ac-a090-7288d1a0892a"}},{"fullUrl":"https://madie.cms.gov/MedicationAdministration/01496c04-17f2-4936-8aa0-0ff45c80203c","resource":{"resourceType":"MedicationAdministration","id":"01496c04-17f2-4936-8aa0-0ff45c80203c","meta":{"profile":["http://hl7.org/fhir/us/qicore/StructureDefinition/qicore-medicationadministration"]},"status":"completed","medicationCodeableConcept":{"coding":[{"system":"http://www.nlm.nih.gov/research/umls/rxnorm","code":"1599555"}]},"subject":{"reference":"Patient/848277a1-a657-4474-a474-733a962f44a5"},"effectivePeriod":{"start":"2026-11-01T08:00:00.000+00:00","end":"2026-11-01T08:15:00.000+00:00"}},"request":{"method":"PUT","url":"MedicationAdministration/01496c04-17f2-4936-8aa0-0ff45c80203c"}},{"fullUrl":"https://madie.cms.gov/Condition/1788d3ea-1fca-4161-8e74-53aa1620317b","resource":{"resourceType":"Condition","id":"1788d3ea-1fca-4161-8e74-53aa1620317b","meta":{"profile":["http://hl7.org/fhir/us/qicore/StructureDefinition/qicore-condition"]},"category":[{"coding":[{"system":"http://terminology.hl7.org/CodeSystem/condition-category","code":"encounter-diagnosis","display":"Encounter Diagnosis"}]}],"code":{"coding":[{"system":"http://snomed.info/sct","version":"2025-03","code":"120041000119109","display":"Atrial fibrillation with rapid ventricular response (disorder)","userSelected":true}]},"subject":{"reference":"Patient/848277a1-a657-4474-a474-733a962f44a5"},"recordedDate":"2026-07-14T08:00:00.000+00:00"},"request":{"method":"PUT","url":"Condition/1788d3ea-1fca-4161-8e74-53aa1620317b"}},{"fullUrl":"https://madie.cms.gov/Organization/29487696-3847-4720-aedc-6e9473bdfe1d","resource":{"resourceType":"Organization","id":"e75793c9-fdf6-463a-8c1d-4ee44320dc25","meta":{"profile":["http://hl7.org/fhir/us/qicore/StructureDefinition/qicore-organization"]},"identifier":[{"use":"temp","system":"urn:oid:2.16.840.1.113883.4.4","value":"21-3259825"}],"active":true,"type":[{"coding":[{"system":"http://terminology.hl7.org/CodeSystem/organization-type","code":"pay","display":"Payer"}]}],"name":"Blue Cross Blue Shield of Texas","telecom":[{"system":"phone","value":"(+1) 972-766-6900"}],"address":[{"use":"billing","type":"postal","line":["P.O. Box 660044"],"city":"Dallas","state":"TX","postalCode":"75266-0044","country":"USA"}]},"request":{"method":"PUT","url":"Organization/e75793c9-fdf6-463a-8c1d-4ee44320dc25"}},{"fullUrl":"https://madie.cms.gov/Practitioner/6240ca0e-5901-4afa-a48e-1d55746779aa","resource":{"resourceType":"Practitioner","id":"6240ca0e-5901-4afa-a48e-1d55746779aa","identifier":[{"system":"http://hl7.org/fhir/sid/us-npi","value":"123456"}],"name":[{"family":"Evil","prefix":["Dr"]}]},"request":{"method":"PUT","url":"Practitioner/6240ca0e-5901-4afa-a48e-1d55746779aa"}},{"fullUrl":"https://madie.cms.gov/MeasureReport/2f9dcf48-4f99-41d6-ae5b-72c6df0a5822","resource":{"resourceType":"MeasureReport","id":"2f9dcf48-4f99-41d6-ae5b-72c6df0a5822","meta":{"profile":["http://hl7.org/fhir/us/cqfmeasures/StructureDefinition/test-case-cqfm"]},"contained":[{"resourceType":"Parameters","id":"60a63c8b-2578-4bac-8135-10c0b9f042ef-parameters","parameter":[{"name":"subject","valueString":"848277a1-a657-4474-a474-733a962f44a5"}]}],"extension":[{"url":"http://hl7.org/fhir/us/cqfmeasures/StructureDefinition/cqfm-inputParameters","valueReference":{"reference":"#60a63c8b-2578-4bac-8135-10c0b9f042ef-parameters"}},{"url":"http://hl7.org/fhir/us/cqfmeasures/StructureDefinition/cqfm-testCaseDescription","valueMarkdown":"patient receives oral factor Xa as relevant datetime <= 1 day after start of IP encounter and has afib diagnosis as attribute of encounter\n"}],"modifierExtension":[{"url":"http://hl7.org/fhir/us/cqfmeasures/StructureDefinition/cqfm-isTestCase","valueBoolean":true}],"status":"complete","type":"individual","measure":"https://madie.cms.gov/Measure/CMS108VTEProphylaxisFHIR","period":{"start":"2026-01-01","end":"2026-12-31"},"group":[{"population":[{"code":{"coding":[{"system":"http://terminology.hl7.org/CodeSystem/measure-population","code":"initial-population","display":"Initial Population"}]},"count":1},{"code":{"coding":[{"system":"http://terminology.hl7.org/CodeSystem/measure-population","code":"denominator","display":"Denominator"}]},"count":1},{"code":{"coding":[{"system":"http://terminology.hl7.org/CodeSystem/measure-population","code":"denominator-exclusion","display":"Denominator Exclusion"}]},"count":0},{"code":{"coding":[{"system":"http://terminology.hl7.org/CodeSystem/measure-population","code":"numerator","display":"Numerator"}]},"count":1}]}]},"request":{"method":"PUT","url":"MeasureReport/2f9dcf48-4f99-41d6-ae5b-72c6df0a5822"}}]}