{"resourceType":"Bundle","id":"tests-fb5c51ec-7a7f-4085-9782-97cf438f7247-bundle","type":"transaction","entry":[{"fullUrl":"https://madie.cms.gov/Patient/fb5c51ec-7a7f-4085-9782-97cf438f7247","resource":{"resourceType":"Patient","id":"fb5c51ec-7a7f-4085-9782-97cf438f7247","meta":{"profile":["http://hl7.org/fhir/us/qicore/StructureDefinition/qicore-patient"]},"text":{"status":"generated","div":"<div xmlns=\"http://www.w3.org/1999/xhtml\"><div class=\"hapiHeaderText\">CMO_EDvisit_EDendsOnEncStart <b>DENEXPASS </b></div><table class=\"hapiPropertyTable\"><tbody><tr><td>Identifier</td><td>560c2962ef197875484c3db716725045</td></tr><tr><td>Date of birth</td><td><span>02 January 1974</span></td></tr></tbody></table></div>"},"extension":[{"url":"http://hl7.org/fhir/us/core/StructureDefinition/us-core-race","extension":[{"url":"ombCategory","valueCoding":{"system":"urn:oid:2.16.840.1.113883.6.238","code":"1002-5","display":"American Indian or Alaska Native","userSelected":true}},{"url":"text","valueString":"American Indian or Alaska Native"}]},{"url":"http://hl7.org/fhir/us/core/StructureDefinition/us-core-ethnicity","extension":[{"url":"ombCategory","valueCoding":{"system":"urn:oid:2.16.840.1.113883.6.238","code":"2135-2","display":"Hispanic or Latino","userSelected":true}},{"url":"text","valueString":"Hispanic or Latino"}]}],"identifier":[{"type":{"coding":[{"system":"http://terminology.hl7.org/CodeSystem/v2-0203","code":"MR"}]},"system":"https://bonnie-fhir.healthit.gov/","value":"612e6abd02c62a011f2eb1c3"}],"active":true,"name":[{"use":"usual","family":"DENEXPass","given":["CMO_EDvisit_EDendsOnEncStart"]}],"gender":"male","birthDate":"1975-01-02"},"request":{"method":"PUT","url":"Patient/fb5c51ec-7a7f-4085-9782-97cf438f7247"}},{"fullUrl":"https://madie.cms.gov/Encounter/859f3ac0-75ab-40cf-91c8-28a10176045f","resource":{"resourceType":"Encounter","id":"859f3ac0-75ab-40cf-91c8-28a10176045f","meta":{"profile":["http://hl7.org/fhir/us/qicore/StructureDefinition/qicore-encounter"]},"status":"finished","class":{"system":"http://terminology.hl7.org/CodeSystem/v3-ActCode","code":"EMER","display":"emergency"},"type":[{"coding":[{"system":"http://snomed.info/sct","code":"4525004"}]}],"subject":{"reference":"Patient/fb5c51ec-7a7f-4085-9782-97cf438f7247"},"period":{"start":"2026-10-31T05:00:00+00:00","end":"2026-11-01T08:00:00+00:00"},"length":{"value":1.0,"unit":"days"}},"request":{"method":"PUT","url":"Encounter/859f3ac0-75ab-40cf-91c8-28a10176045f"}},{"fullUrl":"https://madie.cms.gov/Encounter/a1eb6f25-b912-43af-bf1b-0bf09af3e3a3","resource":{"resourceType":"Encounter","id":"a1eb6f25-b912-43af-bf1b-0bf09af3e3a3","meta":{"profile":["http://hl7.org/fhir/us/qicore/StructureDefinition/qicore-encounter"]},"status":"finished","class":{"system":"http://terminology.hl7.org/CodeSystem/v3-ActCode","code":"IMP","display":"inpatient encounter"},"type":[{"coding":[{"system":"http://snomed.info/sct","code":"8715000"}]}],"subject":{"reference":"Patient/fb5c51ec-7a7f-4085-9782-97cf438f7247"},"period":{"start":"2026-11-01T08:00:00+00:00","end":"2026-11-26T08:15:00+00:00"},"length":{"value":25.0,"unit":"days"}},"request":{"method":"PUT","url":"Encounter/a1eb6f25-b912-43af-bf1b-0bf09af3e3a3"}},{"fullUrl":"https://madie.cms.gov/ServiceRequest/db1ad434-6f43-4288-9ddc-e9b1f06da239","resource":{"resourceType":"ServiceRequest","id":"db1ad434-6f43-4288-9ddc-e9b1f06da239","meta":{"profile":["http://hl7.org/fhir/us/qicore/StructureDefinition/qicore-servicerequest"]},"status":"completed","intent":"order","code":{"coding":[{"system":"http://snomed.info/sct","code":"133918004"}]},"subject":{"reference":"Patient/fb5c51ec-7a7f-4085-9782-97cf438f7247"},"authoredOn":"2026-10-31T07:00:00+00:00"},"request":{"method":"PUT","url":"ServiceRequest/db1ad434-6f43-4288-9ddc-e9b1f06da239"}},{"fullUrl":"https://madie.cms.gov/Coverage/abfd8157-3d83-4e61-9404-0dc8be2977c5","resource":{"resourceType":"Coverage","id":"abfd8157-3d83-4e61-9404-0dc8be2977c5","status":"active","beneficiary":{"reference":"Patient/fb5c51ec-7a7f-4085-9782-97cf438f7247"},"period":{"start":"1975-01-02T08:00:00+00:00"},"payor":[{"reference":"Organization/607fdef9-3983-4cef-ab1a-95434d29b463"}]},"request":{"method":"PUT","url":"Coverage/abfd8157-3d83-4e61-9404-0dc8be2977c5"}},{"fullUrl":"https://madie.cms.gov/Organization/5d97849b-adfc-4ba6-9e23-58521f70dbf0","resource":{"resourceType":"Organization","id":"607fdef9-3983-4cef-ab1a-95434d29b463","meta":{"profile":["http://hl7.org/fhir/us/qicore/StructureDefinition/qicore-organization"]},"identifier":[{"use":"temp","system":"urn:oid:2.16.840.1.113883.4.4","value":"21-3259825"}],"active":true,"type":[{"coding":[{"system":"http://terminology.hl7.org/CodeSystem/organization-type","code":"pay","display":"Payer"}]}],"name":"Blue Cross Blue Shield of Texas","telecom":[{"system":"phone","value":"(+1) 972-766-6900"}],"address":[{"use":"billing","type":"postal","line":["P.O. Box 660044"],"city":"Dallas","state":"TX","postalCode":"75266-0044","country":"USA"}]},"request":{"method":"PUT","url":"Organization/607fdef9-3983-4cef-ab1a-95434d29b463"}},{"fullUrl":"https://madie.cms.gov/Practitioner/6f6b591d-46fa-4171-a782-4e28b5028574","resource":{"resourceType":"Practitioner","id":"6f6b591d-46fa-4171-a782-4e28b5028574","identifier":[{"system":"http://hl7.org/fhir/sid/us-npi","value":"123456"}],"name":[{"family":"Evil","prefix":["Dr"]}]},"request":{"method":"PUT","url":"Practitioner/6f6b591d-46fa-4171-a782-4e28b5028574"}},{"fullUrl":"https://madie.cms.gov/MeasureReport/503ba251-2809-40f1-98f3-3ef4aeb76e51","resource":{"resourceType":"MeasureReport","id":"503ba251-2809-40f1-98f3-3ef4aeb76e51","meta":{"profile":["http://hl7.org/fhir/us/cqfmeasures/StructureDefinition/test-case-cqfm"]},"contained":[{"resourceType":"Parameters","id":"b957a298-50ac-46e4-b516-e2370bce35af-parameters","parameter":[{"name":"subject","valueString":"fb5c51ec-7a7f-4085-9782-97cf438f7247"}]}],"extension":[{"url":"http://hl7.org/fhir/us/cqfmeasures/StructureDefinition/cqfm-inputParameters","valueReference":{"reference":"#b957a298-50ac-46e4-b516-e2370bce35af-parameters"}},{"url":"http://hl7.org/fhir/us/cqfmeasures/StructureDefinition/cqfm-testCaseDescription","valueMarkdown":"Comfort Measures Intervention Order - during ED and ED end time is concurrent with EncInp start time.\n"}],"modifierExtension":[{"url":"http://hl7.org/fhir/us/cqfmeasures/StructureDefinition/cqfm-isTestCase","valueBoolean":true}],"status":"complete","type":"individual","measure":"https://madie.cms.gov/Measure/CMS108VTEProphylaxisFHIR","period":{"start":"2026-01-01","end":"2026-12-31"},"group":[{"population":[{"code":{"coding":[{"system":"http://terminology.hl7.org/CodeSystem/measure-population","code":"initial-population","display":"Initial Population"}]},"count":1},{"code":{"coding":[{"system":"http://terminology.hl7.org/CodeSystem/measure-population","code":"denominator","display":"Denominator"}]},"count":1},{"code":{"coding":[{"system":"http://terminology.hl7.org/CodeSystem/measure-population","code":"denominator-exclusion","display":"Denominator Exclusion"}]},"count":1},{"code":{"coding":[{"system":"http://terminology.hl7.org/CodeSystem/measure-population","code":"numerator","display":"Numerator"}]},"count":0}]}]},"request":{"method":"PUT","url":"MeasureReport/503ba251-2809-40f1-98f3-3ef4aeb76e51"}}]}