{"resourceType":"Bundle","id":"tests-fa6ecbf0-8dd9-4c03-a8ed-2bd82cb8206f-bundle","type":"transaction","entry":[{"fullUrl":"https://madie.cms.gov/Patient/fa6ecbf0-8dd9-4c03-a8ed-2bd82cb8206f","resource":{"resourceType":"Patient","id":"fa6ecbf0-8dd9-4c03-a8ed-2bd82cb8206f","meta":{"profile":["http://hl7.org/fhir/us/qicore/StructureDefinition/qicore-patient"]},"text":{"status":"generated","div":"<div xmlns=\"http://www.w3.org/1999/xhtml\"><div class=\"hapiHeaderText\">ProphylaxisDuringSameDayOf2ndObs <b>NUMERPASS </b></div><table class=\"hapiPropertyTable\"><tbody><tr><td>Identifier</td><td>4a3cf6afd879a8f9468f9b4b43b7b032</td></tr><tr><td>Date of birth</td><td><span>02 September 2003</span></td></tr></tbody></table></div>"},"extension":[{"url":"http://hl7.org/fhir/us/core/StructureDefinition/us-core-race","extension":[{"url":"ombCategory","valueCoding":{"system":"urn:oid:2.16.840.1.113883.6.238","code":"1002-5","display":"American Indian or Alaska Native","userSelected":true}},{"url":"text","valueString":"American Indian or Alaska Native"}]},{"url":"http://hl7.org/fhir/us/core/StructureDefinition/us-core-ethnicity","extension":[{"url":"ombCategory","valueCoding":{"system":"urn:oid:2.16.840.1.113883.6.238","code":"2135-2","display":"Hispanic or Latino","userSelected":true}},{"url":"text","valueString":"Hispanic or Latino"}]}],"identifier":[{"type":{"coding":[{"system":"http://terminology.hl7.org/CodeSystem/v2-0203","code":"MR"}]},"system":"https://bonnie-fhir.healthit.gov/","value":"612e6b1b02c62a011f2ec7e4"}],"active":true,"name":[{"use":"usual","family":"NUMERPass","given":["ProphylaxisDuringSameDayOf2ndObs"]}],"gender":"male","birthDate":"2004-09-02"},"request":{"method":"PUT","url":"Patient/fa6ecbf0-8dd9-4c03-a8ed-2bd82cb8206f"}},{"fullUrl":"https://madie.cms.gov/Encounter/31ff0593-c1dc-49d2-b122-e61a199eea1d","resource":{"resourceType":"Encounter","id":"31ff0593-c1dc-49d2-b122-e61a199eea1d","meta":{"profile":["http://hl7.org/fhir/us/qicore/StructureDefinition/qicore-encounter"]},"status":"finished","class":{"system":"http://terminology.hl7.org/CodeSystem/v3-ActCode","code":"IMP","display":"inpatient encounter"},"type":[{"coding":[{"system":"http://snomed.info/sct","code":"183452005"}]}],"subject":{"reference":"Patient/fa6ecbf0-8dd9-4c03-a8ed-2bd82cb8206f"},"period":{"start":"2026-09-03T15:15:00+00:00","end":"2026-10-01T12:59:00+00:00"}},"request":{"method":"PUT","url":"Encounter/31ff0593-c1dc-49d2-b122-e61a199eea1d"}},{"fullUrl":"https://madie.cms.gov/Encounter/19fdd3d5-61ac-46f2-83d9-2ccd1ed762e6","resource":{"resourceType":"Encounter","id":"19fdd3d5-61ac-46f2-83d9-2ccd1ed762e6","meta":{"profile":["http://hl7.org/fhir/us/qicore/StructureDefinition/qicore-encounter"]},"status":"finished","class":{"system":"http://terminology.hl7.org/CodeSystem/v3-ActCode","code":"EMER","display":"emergency"},"type":[{"coding":[{"system":"http://snomed.info/sct","code":"4525004"}]}],"subject":{"reference":"Patient/fa6ecbf0-8dd9-4c03-a8ed-2bd82cb8206f"},"period":{"start":"2026-09-02T14:30:00+00:00","end":"2026-09-02T15:00:00+00:00"}},"request":{"method":"PUT","url":"Encounter/19fdd3d5-61ac-46f2-83d9-2ccd1ed762e6"}},{"fullUrl":"https://madie.cms.gov/Encounter/7b5d7fe0-e7e5-4c40-8262-3eea61504f85","resource":{"resourceType":"Encounter","id":"7b5d7fe0-e7e5-4c40-8262-3eea61504f85","meta":{"profile":["http://hl7.org/fhir/us/qicore/StructureDefinition/qicore-encounter"]},"status":"finished","class":{"system":"http://terminology.hl7.org/CodeSystem/v3-ActCode","code":"EMER","display":"emergency"},"type":[{"coding":[{"system":"http://snomed.info/sct","code":"4525004"}]}],"subject":{"reference":"Patient/fa6ecbf0-8dd9-4c03-a8ed-2bd82cb8206f"},"period":{"start":"2026-09-02T08:00:00+00:00","end":"2026-09-02T13:00:00+00:00"}},"request":{"method":"PUT","url":"Encounter/7b5d7fe0-e7e5-4c40-8262-3eea61504f85"}},{"fullUrl":"https://madie.cms.gov/Encounter/0f3b6963-0627-4518-8d9c-639632a5d9b7","resource":{"resourceType":"Encounter","id":"0f3b6963-0627-4518-8d9c-639632a5d9b7","meta":{"profile":["http://hl7.org/fhir/us/qicore/StructureDefinition/qicore-encounter"]},"status":"finished","class":{"system":"http://terminology.hl7.org/CodeSystem/v3-ActCode","code":"OBSENC","display":"observation encounter"},"type":[{"coding":[{"system":"http://snomed.info/sct","code":"448951000124107"}]}],"subject":{"reference":"Patient/fa6ecbf0-8dd9-4c03-a8ed-2bd82cb8206f"},"period":{"start":"2026-09-02T15:30:00+00:00","end":"2026-09-03T15:00:00+00:00"}},"request":{"method":"PUT","url":"Encounter/0f3b6963-0627-4518-8d9c-639632a5d9b7"}},{"fullUrl":"https://madie.cms.gov/Encounter/ff1a2de3-2c90-4434-89df-82b23791e21f","resource":{"resourceType":"Encounter","id":"ff1a2de3-2c90-4434-89df-82b23791e21f","meta":{"profile":["http://hl7.org/fhir/us/qicore/StructureDefinition/qicore-encounter"]},"status":"finished","class":{"system":"http://terminology.hl7.org/CodeSystem/v3-ActCode","code":"OBSENC","display":"observation encounter"},"type":[{"coding":[{"system":"http://snomed.info/sct","code":"448951000124107"}]}],"subject":{"reference":"Patient/fa6ecbf0-8dd9-4c03-a8ed-2bd82cb8206f"},"period":{"start":"2026-09-02T13:30:00+00:00","end":"2026-09-02T14:00:00+00:00"}},"request":{"method":"PUT","url":"Encounter/ff1a2de3-2c90-4434-89df-82b23791e21f"}},{"fullUrl":"https://madie.cms.gov/Coverage/bcbcc1d0-5767-4fac-9b93-770378f49edc","resource":{"resourceType":"Coverage","id":"bcbcc1d0-5767-4fac-9b93-770378f49edc","status":"active","beneficiary":{"reference":"Patient/fa6ecbf0-8dd9-4c03-a8ed-2bd82cb8206f"},"period":{"start":"2004-09-02T09:00:00+00:00"},"payor":[{"reference":"Organization/5ad6ea38-07e9-4482-9e1b-c09eee595be9"}]},"request":{"method":"PUT","url":"Coverage/bcbcc1d0-5767-4fac-9b93-770378f49edc"}},{"fullUrl":"https://madie.cms.gov/MedicationAdministration/4d95b18f-7b51-4e12-8dab-f8cf597b90c7","resource":{"resourceType":"MedicationAdministration","id":"4d95b18f-7b51-4e12-8dab-f8cf597b90c7","meta":{"profile":["http://hl7.org/fhir/us/qicore/StructureDefinition/qicore-medicationadministration"]},"status":"completed","medicationCodeableConcept":{"coding":[{"system":"http://www.nlm.nih.gov/research/umls/rxnorm","code":"861356"}]},"subject":{"reference":"Patient/fa6ecbf0-8dd9-4c03-a8ed-2bd82cb8206f"},"effectivePeriod":{"start":"2026-09-02T13:40:00+00:00","end":"2026-09-02T13:50:00+00:00"}},"request":{"method":"PUT","url":"MedicationAdministration/4d95b18f-7b51-4e12-8dab-f8cf597b90c7"}},{"fullUrl":"https://madie.cms.gov/Organization/9b85ed9e-dec6-445b-abf2-d2b34790e357","resource":{"resourceType":"Organization","id":"5ad6ea38-07e9-4482-9e1b-c09eee595be9","meta":{"profile":["http://hl7.org/fhir/us/qicore/StructureDefinition/qicore-organization"]},"identifier":[{"use":"temp","system":"urn:oid:2.16.840.1.113883.4.4","value":"21-3259825"}],"active":true,"type":[{"coding":[{"system":"http://terminology.hl7.org/CodeSystem/organization-type","code":"pay","display":"Payer"}]}],"name":"Blue Cross Blue Shield of Texas","telecom":[{"system":"phone","value":"(+1) 972-766-6900"}],"address":[{"use":"billing","type":"postal","line":["P.O. Box 660044"],"city":"Dallas","state":"TX","postalCode":"75266-0044","country":"USA"}]},"request":{"method":"PUT","url":"Organization/5ad6ea38-07e9-4482-9e1b-c09eee595be9"}},{"fullUrl":"https://madie.cms.gov/Practitioner/7336e722-1132-4dc7-a89d-b70004b850e3","resource":{"resourceType":"Practitioner","id":"7336e722-1132-4dc7-a89d-b70004b850e3","identifier":[{"system":"http://hl7.org/fhir/sid/us-npi","value":"123456"}],"name":[{"family":"Evil","prefix":["Dr"]}]},"request":{"method":"PUT","url":"Practitioner/7336e722-1132-4dc7-a89d-b70004b850e3"}},{"fullUrl":"https://madie.cms.gov/MeasureReport/6374721b-daaf-4332-affc-cfb8a891f6cc","resource":{"resourceType":"MeasureReport","id":"6374721b-daaf-4332-affc-cfb8a891f6cc","meta":{"profile":["http://hl7.org/fhir/us/cqfmeasures/StructureDefinition/test-case-cqfm"]},"contained":[{"resourceType":"Parameters","id":"88d4a63b-166d-4fb2-9d0d-0da9becd9248-parameters","parameter":[{"name":"subject","valueString":"fa6ecbf0-8dd9-4c03-a8ed-2bd82cb8206f"}]}],"extension":[{"url":"http://hl7.org/fhir/us/cqfmeasures/StructureDefinition/cqfm-inputParameters","valueReference":{"reference":"#88d4a63b-166d-4fb2-9d0d-0da9becd9248-parameters"}},{"url":"http://hl7.org/fhir/us/cqfmeasures/StructureDefinition/cqfm-testCaseDescription","valueMarkdown":"ED then admit to Observation, did not want to stay AWOL; symptoms worsened, back to ED and then observation, then inpt admit; VTE Prophylaxis during first observation cause test to pass. \n"}],"modifierExtension":[{"url":"http://hl7.org/fhir/us/cqfmeasures/StructureDefinition/cqfm-isTestCase","valueBoolean":true}],"status":"complete","type":"individual","measure":"https://madie.cms.gov/Measure/CMS108VTEProphylaxisFHIR","period":{"start":"2026-01-01","end":"2026-12-31"},"group":[{"population":[{"code":{"coding":[{"system":"http://terminology.hl7.org/CodeSystem/measure-population","code":"initial-population","display":"Initial Population"}]},"count":1},{"code":{"coding":[{"system":"http://terminology.hl7.org/CodeSystem/measure-population","code":"denominator","display":"Denominator"}]},"count":1},{"code":{"coding":[{"system":"http://terminology.hl7.org/CodeSystem/measure-population","code":"denominator-exclusion","display":"Denominator Exclusion"}]},"count":0},{"code":{"coding":[{"system":"http://terminology.hl7.org/CodeSystem/measure-population","code":"numerator","display":"Numerator"}]},"count":1}]}]},"request":{"method":"PUT","url":"MeasureReport/6374721b-daaf-4332-affc-cfb8a891f6cc"}}]}