{"resourceType":"Bundle","id":"tests-41f2785f-4c4f-4497-a46b-e17fd8b5ee3f-bundle","type":"transaction","entry":[{"fullUrl":"https://madie.cms.gov/Patient/41f2785f-4c4f-4497-a46b-e17fd8b5ee3f","resource":{"resourceType":"Patient","id":"41f2785f-4c4f-4497-a46b-e17fd8b5ee3f","meta":{"profile":["http://hl7.org/fhir/us/qicore/StructureDefinition/qicore-patient"]},"text":{"status":"generated","div":"<div xmlns=\"http://www.w3.org/1999/xhtml\"><div class=\"hapiHeaderText\">CMODrgEDHrsBFAdmDoNotPerformTrue <b>DENEXFail </b></div><table class=\"hapiPropertyTable\"><tbody><tr><td>Identifier</td><td>059b8a3b4412b01787dc1d643429cbf6</td></tr><tr><td>Date of birth</td><td><span>02 January 1974</span></td></tr></tbody></table></div>"},"extension":[{"url":"http://hl7.org/fhir/us/core/StructureDefinition/us-core-race","extension":[{"url":"ombCategory","valueCoding":{"system":"urn:oid:2.16.840.1.113883.6.238","code":"1002-5","display":"American Indian or Alaska Native","userSelected":true}},{"url":"text","valueString":"American Indian or Alaska Native"}]},{"url":"http://hl7.org/fhir/us/core/StructureDefinition/us-core-ethnicity","extension":[{"url":"ombCategory","valueCoding":{"system":"urn:oid:2.16.840.1.113883.6.238","code":"2135-2","display":"Hispanic or Latino","userSelected":true}},{"url":"text","valueString":"Hispanic or Latino"}]}],"identifier":[{"type":{"coding":[{"system":"http://terminology.hl7.org/CodeSystem/v2-0203","code":"MR"}]},"system":"https://bonnie-fhir.healthit.gov/","value":"612e6b4302c62a011f2ed189"}],"active":true,"name":[{"use":"usual","family":"DENEXFail","given":["CMODrgEDHrsBFAdmDoNotPerformTrue"]}],"gender":"male","birthDate":"1975-01-02"},"request":{"method":"PUT","url":"Patient/41f2785f-4c4f-4497-a46b-e17fd8b5ee3f"}},{"fullUrl":"https://madie.cms.gov/Encounter/c09dcf47-a312-4d39-aae7-0a2e61bea984","resource":{"resourceType":"Encounter","id":"c09dcf47-a312-4d39-aae7-0a2e61bea984","meta":{"profile":["http://hl7.org/fhir/us/qicore/StructureDefinition/qicore-encounter"]},"status":"finished","class":{"system":"http://terminology.hl7.org/CodeSystem/v3-ActCode","code":"EMER","display":"emergency"},"type":[{"coding":[{"system":"http://snomed.info/sct","code":"4525004"}]}],"subject":{"reference":"Patient/41f2785f-4c4f-4497-a46b-e17fd8b5ee3f"},"period":{"start":"2026-11-01T03:00:00+00:00","end":"2026-11-01T05:15:00+00:00"},"length":{"value":0,"unit":"days"}},"request":{"method":"PUT","url":"Encounter/c09dcf47-a312-4d39-aae7-0a2e61bea984"}},{"fullUrl":"https://madie.cms.gov/Encounter/0bbb9772-f406-47ef-9d1a-07ef3fd5e9c7","resource":{"resourceType":"Encounter","id":"0bbb9772-f406-47ef-9d1a-07ef3fd5e9c7","meta":{"profile":["http://hl7.org/fhir/us/qicore/StructureDefinition/qicore-encounter"]},"status":"finished","class":{"system":"http://terminology.hl7.org/CodeSystem/v3-ActCode","code":"IMP","display":"inpatient encounter"},"type":[{"coding":[{"system":"http://snomed.info/sct","code":"8715000"}]}],"subject":{"reference":"Patient/41f2785f-4c4f-4497-a46b-e17fd8b5ee3f"},"period":{"start":"2026-11-01T08:00:00+00:00","end":"2026-11-26T08:15:00+00:00"},"length":{"value":25,"unit":"days"}},"request":{"method":"PUT","url":"Encounter/0bbb9772-f406-47ef-9d1a-07ef3fd5e9c7"}},{"fullUrl":"https://madie.cms.gov/ServiceRequest/c70919e9-1b95-4e1e-adf0-8a849c2ba642","resource":{"resourceType":"ServiceRequest","id":"c70919e9-1b95-4e1e-adf0-8a849c2ba642","meta":{"profile":["http://hl7.org/fhir/us/qicore/StructureDefinition/qicore-servicerequest"]},"status":"completed","intent":"order","doNotPerform":true,"code":{"coding":[{"system":"http://snomed.info/sct","code":"133918004"}]},"subject":{"reference":"Patient/41f2785f-4c4f-4497-a46b-e17fd8b5ee3f"},"authoredOn":"2026-11-01T05:00:00+00:00"},"request":{"method":"PUT","url":"ServiceRequest/c70919e9-1b95-4e1e-adf0-8a849c2ba642"}},{"fullUrl":"https://madie.cms.gov/Coverage/6f73b59c-bb94-4c39-9326-d43f3d04c7d4","resource":{"resourceType":"Coverage","id":"6f73b59c-bb94-4c39-9326-d43f3d04c7d4","status":"active","beneficiary":{"reference":"Patient/41f2785f-4c4f-4497-a46b-e17fd8b5ee3f"},"period":{"start":"1975-01-02T08:00:00+00:00"},"payor":[{"reference":"Organization/e75793c9-fdf6-463a-8c1d-4ee44320dc25"}]},"request":{"method":"PUT","url":"Coverage/6f73b59c-bb94-4c39-9326-d43f3d04c7d4"}},{"fullUrl":"https://madie.cms.gov/Organization/16924150-8c19-4e00-898d-91f829002ed9","resource":{"resourceType":"Organization","id":"e75793c9-fdf6-463a-8c1d-4ee44320dc25","meta":{"profile":["http://hl7.org/fhir/us/qicore/StructureDefinition/qicore-organization"]},"identifier":[{"use":"temp","system":"urn:oid:2.16.840.1.113883.4.4","value":"21-3259825"}],"active":true,"type":[{"coding":[{"system":"http://terminology.hl7.org/CodeSystem/organization-type","code":"pay","display":"Payer"}]}],"name":"Blue Cross Blue Shield of Texas","telecom":[{"system":"phone","value":"(+1) 972-766-6900"}],"address":[{"use":"billing","type":"postal","line":["P.O. Box 660044"],"city":"Dallas","state":"TX","postalCode":"75266-0044","country":"USA"}]},"request":{"method":"PUT","url":"Organization/e75793c9-fdf6-463a-8c1d-4ee44320dc25"}},{"fullUrl":"https://madie.cms.gov/Practitioner/5a1f81fc-1689-4ca7-a5f5-308b8dfa99b7","resource":{"resourceType":"Practitioner","id":"5a1f81fc-1689-4ca7-a5f5-308b8dfa99b7","identifier":[{"system":"http://hl7.org/fhir/sid/us-npi","value":"123456"}],"name":[{"family":"Evil","prefix":["Dr"]}]},"request":{"method":"PUT","url":"Practitioner/5a1f81fc-1689-4ca7-a5f5-308b8dfa99b7"}},{"fullUrl":"https://madie.cms.gov/MeasureReport/82042706-eced-4f34-ba23-38e7790cac74","resource":{"resourceType":"MeasureReport","id":"82042706-eced-4f34-ba23-38e7790cac74","meta":{"profile":["http://hl7.org/fhir/us/cqfmeasures/StructureDefinition/test-case-cqfm"]},"contained":[{"resourceType":"Parameters","id":"cf6f6504-2fc2-4a26-a601-6816f07f5cad-parameters","parameter":[{"name":"subject","valueString":"41f2785f-4c4f-4497-a46b-e17fd8b5ee3f"}]}],"extension":[{"url":"http://hl7.org/fhir/us/cqfmeasures/StructureDefinition/cqfm-inputParameters","valueReference":{"reference":"#cf6f6504-2fc2-4a26-a601-6816f07f5cad-parameters"}},{"url":"http://hl7.org/fhir/us/cqfmeasures/StructureDefinition/cqfm-testCaseDescription","valueMarkdown":"Test and cover ServiceRequest.doNOtPerform is true. CMO occurs in ED that ED ends > 1 hour before Adm. But this case pass because it is on the same day as adm date"}],"modifierExtension":[{"url":"http://hl7.org/fhir/us/cqfmeasures/StructureDefinition/cqfm-isTestCase","valueBoolean":true}],"status":"complete","type":"individual","measure":"https://madie.cms.gov/Measure/CMS108VTEProphylaxisFHIR","period":{"start":"2026-01-01","end":"2026-12-31"},"group":[{"population":[{"code":{"coding":[{"system":"http://terminology.hl7.org/CodeSystem/measure-population","code":"initial-population","display":"Initial Population"}]},"count":1},{"code":{"coding":[{"system":"http://terminology.hl7.org/CodeSystem/measure-population","code":"denominator","display":"Denominator"}]},"count":1},{"code":{"coding":[{"system":"http://terminology.hl7.org/CodeSystem/measure-population","code":"denominator-exclusion","display":"Denominator Exclusion"}]},"count":0},{"code":{"coding":[{"system":"http://terminology.hl7.org/CodeSystem/measure-population","code":"numerator","display":"Numerator"}]},"count":0}]}]},"request":{"method":"PUT","url":"MeasureReport/82042706-eced-4f34-ba23-38e7790cac74"}}]}