{"resourceType":"Bundle","id":"tests-861fe7f8-9bab-4e23-9b85-419e1aa0b1d8-bundle","type":"transaction","entry":[{"fullUrl":"https://madie.cms.gov/Patient/861fe7f8-9bab-4e23-9b85-419e1aa0b1d8","resource":{"resourceType":"Patient","id":"861fe7f8-9bab-4e23-9b85-419e1aa0b1d8","meta":{"profile":["http://hl7.org/fhir/us/qicore/StructureDefinition/qicore-patient"]},"text":{"status":"generated","div":"<div xmlns=\"http://www.w3.org/1999/xhtml\"><div class=\"hapiHeaderText\">PrincDxMH <b>DENEXPASS </b></div><table class=\"hapiPropertyTable\"><tbody><tr><td>Identifier</td><td>29c9716eb5f48b54d7b337bf497e0e5e</td></tr><tr><td>Date of birth</td><td><span>01 December 2003</span></td></tr></tbody></table></div>"},"extension":[{"url":"http://hl7.org/fhir/us/core/StructureDefinition/us-core-race","extension":[{"url":"ombCategory","valueCoding":{"system":"urn:oid:2.16.840.1.113883.6.238","code":"1002-5","display":"American Indian or Alaska Native","userSelected":true}},{"url":"text","valueString":"American Indian or Alaska Native"}]},{"url":"http://hl7.org/fhir/us/core/StructureDefinition/us-core-ethnicity","extension":[{"url":"ombCategory","valueCoding":{"system":"urn:oid:2.16.840.1.113883.6.238","code":"2135-2","display":"Hispanic or Latino","userSelected":true}},{"url":"text","valueString":"Hispanic or Latino"}]}],"identifier":[{"type":{"coding":[{"system":"http://terminology.hl7.org/CodeSystem/v2-0203","code":"MR"}]},"system":"https://bonnie-fhir.healthit.gov/","value":"612e6b6b02c62a011f2edaae"}],"active":true,"name":[{"use":"usual","family":"DENEXPass","given":["PrincDxMH"]}],"gender":"male","birthDate":"2004-12-01"},"request":{"method":"PUT","url":"Patient/861fe7f8-9bab-4e23-9b85-419e1aa0b1d8"}},{"fullUrl":"https://madie.cms.gov/Encounter/e5817753-44b4-45ef-a9e9-89894df1d38c","resource":{"resourceType":"Encounter","id":"e5817753-44b4-45ef-a9e9-89894df1d38c","meta":{"profile":["http://hl7.org/fhir/us/qicore/StructureDefinition/qicore-encounter"]},"status":"finished","class":{"system":"http://terminology.hl7.org/CodeSystem/v3-ActCode","code":"IMP","display":"inpatient encounter"},"type":[{"coding":[{"system":"http://snomed.info/sct","code":"183452005"}]}],"subject":{"reference":"Patient/861fe7f8-9bab-4e23-9b85-419e1aa0b1d8"},"period":{"start":"2026-12-01T08:00:00.000+00:00","end":"2026-12-31T23:59:00.000+00:00"},"length":{"value":30,"unit":"days"},"diagnosis":[{"condition":{"reference":"Condition/97647b2f-1137-4ed5-9bf6-3eb9ff3e7b5a"},"use":{"coding":[{"system":"http://terminology.hl7.org/CodeSystem/diagnosis-role","code":"billing"}]},"rank":1}]},"request":{"method":"PUT","url":"Encounter/e5817753-44b4-45ef-a9e9-89894df1d38c"}},{"fullUrl":"https://madie.cms.gov/Coverage/721d2058-7917-45dd-9f81-132f96b69067","resource":{"resourceType":"Coverage","id":"721d2058-7917-45dd-9f81-132f96b69067","status":"active","beneficiary":{"reference":"Patient/861fe7f8-9bab-4e23-9b85-419e1aa0b1d8"},"period":{"start":"2004-12-01T00:00:00+00:00"},"payor":[{"reference":"Organization/3e899f33-84eb-4634-a770-a5a0bd7a80e7"}]},"request":{"method":"PUT","url":"Coverage/721d2058-7917-45dd-9f81-132f96b69067"}},{"fullUrl":"https://madie.cms.gov/Condition/97647b2f-1137-4ed5-9bf6-3eb9ff3e7b5a","resource":{"resourceType":"Condition","id":"97647b2f-1137-4ed5-9bf6-3eb9ff3e7b5a","meta":{"profile":["http://hl7.org/fhir/us/qicore/StructureDefinition/qicore-condition"]},"category":[{"coding":[{"system":"http://terminology.hl7.org/CodeSystem/condition-category","code":"encounter-diagnosis","display":"Encounter Diagnosis"}]}],"code":{"coding":[{"system":"http://snomed.info/sct","version":"2025-03","code":"101421000119107","display":"Dementia due to Parkinson's disease (disorder)","userSelected":true}]},"subject":{"reference":"Patient/861fe7f8-9bab-4e23-9b85-419e1aa0b1d8"},"recordedDate":"2026-07-13T08:00:00.000+00:00"},"request":{"method":"PUT","url":"Condition/97647b2f-1137-4ed5-9bf6-3eb9ff3e7b5a"}},{"fullUrl":"https://madie.cms.gov/Organization/a2b7a6d1-ad8b-4a1e-a4b1-d67860f1a48e","resource":{"resourceType":"Organization","id":"3e899f33-84eb-4634-a770-a5a0bd7a80e7","meta":{"profile":["http://hl7.org/fhir/us/qicore/StructureDefinition/qicore-organization"]},"identifier":[{"use":"temp","system":"urn:oid:2.16.840.1.113883.4.4","value":"21-3259825"}],"active":true,"type":[{"coding":[{"system":"http://terminology.hl7.org/CodeSystem/organization-type","code":"pay","display":"Payer"}]}],"name":"Blue Cross Blue Shield of Texas","telecom":[{"system":"phone","value":"(+1) 972-766-6900"}],"address":[{"use":"billing","type":"postal","line":["P.O. Box 660044"],"city":"Dallas","state":"TX","postalCode":"75266-0044","country":"USA"}]},"request":{"method":"PUT","url":"Organization/3e899f33-84eb-4634-a770-a5a0bd7a80e7"}},{"fullUrl":"https://madie.cms.gov/Practitioner/fd91f887-0885-42d5-b2b4-2975062bebfb","resource":{"resourceType":"Practitioner","id":"fd91f887-0885-42d5-b2b4-2975062bebfb","identifier":[{"system":"http://hl7.org/fhir/sid/us-npi","value":"123456"}],"name":[{"family":"Evil","prefix":["Dr"]}]},"request":{"method":"PUT","url":"Practitioner/fd91f887-0885-42d5-b2b4-2975062bebfb"}},{"fullUrl":"https://madie.cms.gov/MeasureReport/b5a66d67-645e-40cb-b830-e2aaaf20f442","resource":{"resourceType":"MeasureReport","id":"b5a66d67-645e-40cb-b830-e2aaaf20f442","meta":{"profile":["http://hl7.org/fhir/us/cqfmeasures/StructureDefinition/test-case-cqfm"]},"contained":[{"resourceType":"Parameters","id":"fe0d0a16-12b1-4cc1-ae6d-0a3f078fde8f-parameters","parameter":[{"name":"subject","valueString":"861fe7f8-9bab-4e23-9b85-419e1aa0b1d8"}]}],"extension":[{"url":"http://hl7.org/fhir/us/cqfmeasures/StructureDefinition/cqfm-inputParameters","valueReference":{"reference":"#fe0d0a16-12b1-4cc1-ae6d-0a3f078fde8f-parameters"}},{"url":"http://hl7.org/fhir/us/cqfmeasures/StructureDefinition/cqfm-testCaseDescription","valueMarkdown":"Principal Dx of mental health.\n"}],"modifierExtension":[{"url":"http://hl7.org/fhir/us/cqfmeasures/StructureDefinition/cqfm-isTestCase","valueBoolean":true}],"status":"complete","type":"individual","measure":"https://madie.cms.gov/Measure/CMS108VTEProphylaxisFHIR","period":{"start":"2026-01-01","end":"2026-12-31"},"group":[{"population":[{"code":{"coding":[{"system":"http://terminology.hl7.org/CodeSystem/measure-population","code":"initial-population","display":"Initial Population"}]},"count":1},{"code":{"coding":[{"system":"http://terminology.hl7.org/CodeSystem/measure-population","code":"denominator","display":"Denominator"}]},"count":1},{"code":{"coding":[{"system":"http://terminology.hl7.org/CodeSystem/measure-population","code":"denominator-exclusion","display":"Denominator Exclusion"}]},"count":1},{"code":{"coding":[{"system":"http://terminology.hl7.org/CodeSystem/measure-population","code":"numerator","display":"Numerator"}]},"count":0}]}]},"request":{"method":"PUT","url":"MeasureReport/b5a66d67-645e-40cb-b830-e2aaaf20f442"}}]}