{"resourceType":"Bundle","id":"tests-92b4eee9-78aa-4f58-9ccf-750556dfa62c-bundle","type":"transaction","entry":[{"fullUrl":"https://madie.cms.gov/Patient/92b4eee9-78aa-4f58-9ccf-750556dfa62c","resource":{"resourceType":"Patient","id":"92b4eee9-78aa-4f58-9ccf-750556dfa62c","meta":{"profile":["http://hl7.org/fhir/us/qicore/StructureDefinition/qicore-patient"]},"text":{"status":"generated","div":"<div xmlns=\"http://www.w3.org/1999/xhtml\"><div class=\"hapiHeaderText\">EncDx=Obstetrics <b>IPPFAIL </b></div><table class=\"hapiPropertyTable\"><tbody><tr><td>Identifier</td><td>a822ec1a5dddc09a0f677a30161a3b30</td></tr><tr><td>Date of birth</td><td><span>02 January 1974</span></td></tr></tbody></table></div>"},"extension":[{"url":"http://hl7.org/fhir/us/core/StructureDefinition/us-core-race","extension":[{"url":"ombCategory","valueCoding":{"system":"urn:oid:2.16.840.1.113883.6.238","code":"1002-5","display":"American Indian or Alaska Native","userSelected":true}},{"url":"text","valueString":"American Indian or Alaska Native"}]},{"url":"http://hl7.org/fhir/us/core/StructureDefinition/us-core-ethnicity","extension":[{"url":"ombCategory","valueCoding":{"system":"urn:oid:2.16.840.1.113883.6.238","code":"2135-2","display":"Hispanic or Latino","userSelected":true}},{"url":"text","valueString":"Hispanic or Latino"}]}],"identifier":[{"type":{"coding":[{"system":"http://terminology.hl7.org/CodeSystem/v2-0203","code":"MR"}]},"system":"https://bonnie-fhir.healthit.gov/","value":"612e6a5202c62a011f2e9a04"}],"active":true,"name":[{"use":"usual","family":"IPPFail","given":["EncDxObstetrics"]}],"gender":"male","birthDate":"1975-01-02"},"request":{"method":"PUT","url":"Patient/92b4eee9-78aa-4f58-9ccf-750556dfa62c"}},{"fullUrl":"https://madie.cms.gov/Encounter/2a535146-dc22-4d68-9ae4-02c6723609bc","resource":{"resourceType":"Encounter","id":"2a535146-dc22-4d68-9ae4-02c6723609bc","meta":{"profile":["http://hl7.org/fhir/us/qicore/StructureDefinition/qicore-encounter"]},"status":"finished","class":{"system":"http://terminology.hl7.org/CodeSystem/v3-ActCode","code":"IMP","display":"inpatient encounter"},"type":[{"coding":[{"system":"http://snomed.info/sct","code":"8715000"}]}],"subject":{"reference":"Patient/92b4eee9-78aa-4f58-9ccf-750556dfa62c"},"period":{"start":"2026-11-01T08:00:00+00:00","end":"2026-11-26T08:15:00+00:00"},"length":{"value":25.0,"unit":"days"},"diagnosis":[{"condition":{"reference":"Condition/8e3a68e2-e2b3-49e8-a56b-da9c4ebd661e"}}]},"request":{"method":"PUT","url":"Encounter/2a535146-dc22-4d68-9ae4-02c6723609bc"}},{"fullUrl":"https://madie.cms.gov/Coverage/5b549e4d-a137-4775-b61e-ca7f39959d89","resource":{"resourceType":"Coverage","id":"5b549e4d-a137-4775-b61e-ca7f39959d89","status":"active","beneficiary":{"reference":"Patient/92b4eee9-78aa-4f58-9ccf-750556dfa62c"},"period":{"start":"1975-01-02T08:00:00+00:00"},"payor":[{"reference":"Organization/5ad6ea38-07e9-4482-9e1b-c09eee595be9"}]},"request":{"method":"PUT","url":"Coverage/5b549e4d-a137-4775-b61e-ca7f39959d89"}},{"fullUrl":"https://madie.cms.gov/Condition/8e3a68e2-e2b3-49e8-a56b-da9c4ebd661e","resource":{"resourceType":"Condition","id":"8e3a68e2-e2b3-49e8-a56b-da9c4ebd661e","meta":{"profile":["http://hl7.org/fhir/us/qicore/StructureDefinition/qicore-condition"]},"category":[{"coding":[{"system":"http://terminology.hl7.org/CodeSystem/condition-category","code":"encounter-diagnosis","display":"Encounter Diagnosis"}]}],"code":{"coding":[{"system":"http://snomed.info/sct","version":"2025-03","code":"10217006","display":"Third degree perineal laceration (disorder)","userSelected":true}]},"subject":{"reference":"Patient/92b4eee9-78aa-4f58-9ccf-750556dfa62c"},"recordedDate":"2026-11-01T08:00:00.000+00:00"},"request":{"method":"PUT","url":"Condition/8e3a68e2-e2b3-49e8-a56b-da9c4ebd661e"}},{"fullUrl":"https://madie.cms.gov/Organization/76a6c6ea-e42e-4a50-ad60-f5f4175e80e5","resource":{"resourceType":"Organization","id":"5ad6ea38-07e9-4482-9e1b-c09eee595be9","meta":{"profile":["http://hl7.org/fhir/us/qicore/StructureDefinition/qicore-organization"]},"identifier":[{"use":"temp","system":"urn:oid:2.16.840.1.113883.4.4","value":"21-3259825"}],"active":true,"type":[{"coding":[{"system":"http://terminology.hl7.org/CodeSystem/organization-type","code":"pay","display":"Payer"}]}],"name":"Blue Cross Blue Shield of Texas","telecom":[{"system":"phone","value":"(+1) 972-766-6900"}],"address":[{"use":"billing","type":"postal","line":["P.O. Box 660044"],"city":"Dallas","state":"TX","postalCode":"75266-0044","country":"USA"}]},"request":{"method":"PUT","url":"Organization/5ad6ea38-07e9-4482-9e1b-c09eee595be9"}},{"fullUrl":"https://madie.cms.gov/Practitioner/6b4d128f-5f2f-45a3-8e15-afb80bfef78e","resource":{"resourceType":"Practitioner","id":"6b4d128f-5f2f-45a3-8e15-afb80bfef78e","identifier":[{"system":"http://hl7.org/fhir/sid/us-npi","value":"123456"}],"name":[{"family":"Evil","prefix":["Dr"]}]},"request":{"method":"PUT","url":"Practitioner/6b4d128f-5f2f-45a3-8e15-afb80bfef78e"}},{"fullUrl":"https://madie.cms.gov/MeasureReport/6c5137e6-376c-41fd-8ef8-4b742760ad7b","resource":{"resourceType":"MeasureReport","id":"6c5137e6-376c-41fd-8ef8-4b742760ad7b","meta":{"profile":["http://hl7.org/fhir/us/cqfmeasures/StructureDefinition/test-case-cqfm"]},"contained":[{"resourceType":"Parameters","id":"8b3d80c6-c91b-449d-ab4f-e72aac567c80-parameters","parameter":[{"name":"subject","valueString":"92b4eee9-78aa-4f58-9ccf-750556dfa62c"}]}],"extension":[{"url":"http://hl7.org/fhir/us/cqfmeasures/StructureDefinition/cqfm-inputParameters","valueReference":{"reference":"#8b3d80c6-c91b-449d-ab4f-e72aac567c80-parameters"}},{"url":"http://hl7.org/fhir/us/cqfmeasures/StructureDefinition/cqfm-testCaseDescription","valueMarkdown":"Patient is > 18 years old, LOS < 120 days during MP with Obstetrics diagnosis\n"}],"modifierExtension":[{"url":"http://hl7.org/fhir/us/cqfmeasures/StructureDefinition/cqfm-isTestCase","valueBoolean":true}],"status":"complete","type":"individual","measure":"https://madie.cms.gov/Measure/CMS108VTEProphylaxisFHIR","period":{"start":"2026-01-01","end":"2026-12-31"},"group":[{"population":[{"code":{"coding":[{"system":"http://terminology.hl7.org/CodeSystem/measure-population","code":"initial-population","display":"Initial Population"}]},"count":0},{"code":{"coding":[{"system":"http://terminology.hl7.org/CodeSystem/measure-population","code":"denominator","display":"Denominator"}]},"count":0},{"code":{"coding":[{"system":"http://terminology.hl7.org/CodeSystem/measure-population","code":"denominator-exclusion","display":"Denominator Exclusion"}]},"count":0},{"code":{"coding":[{"system":"http://terminology.hl7.org/CodeSystem/measure-population","code":"numerator","display":"Numerator"}]},"count":0}]}]},"request":{"method":"PUT","url":"MeasureReport/6c5137e6-376c-41fd-8ef8-4b742760ad7b"}}]}