{"resourceType":"Bundle","id":"tests-29bd19cc-e5fc-431b-b308-ce5f816533d3-bundle","type":"transaction","entry":[{"fullUrl":"https://madie.cms.gov/Patient/29bd19cc-e5fc-431b-b308-ce5f816533d3","resource":{"resourceType":"Patient","id":"29bd19cc-e5fc-431b-b308-ce5f816533d3","meta":{"profile":["http://hl7.org/fhir/us/qicore/StructureDefinition/qicore-patient"]},"text":{"status":"generated","div":"<div xmlns=\"http://www.w3.org/1999/xhtml\"><div class=\"hapiHeaderText\">RixDuringOBS_OBSGT1hr <b>NUMERFAIL </b></div><table class=\"hapiPropertyTable\"><tbody><tr><td>Identifier</td><td>9ac41bff10ef3353d0742df1f73dc984</td></tr><tr><td>Date of birth</td><td><span>02 January 1974</span></td></tr></tbody></table></div>"},"extension":[{"url":"http://hl7.org/fhir/us/core/StructureDefinition/us-core-race","extension":[{"url":"ombCategory","valueCoding":{"system":"urn:oid:2.16.840.1.113883.6.238","code":"1002-5","display":"American Indian or Alaska Native","userSelected":true}},{"url":"text","valueString":"American Indian or Alaska Native"}]},{"url":"http://hl7.org/fhir/us/core/StructureDefinition/us-core-ethnicity","extension":[{"url":"ombCategory","valueCoding":{"system":"urn:oid:2.16.840.1.113883.6.238","code":"2135-2","display":"Hispanic or Latino","userSelected":true}},{"url":"text","valueString":"Hispanic or Latino"}]}],"identifier":[{"type":{"coding":[{"system":"http://terminology.hl7.org/CodeSystem/v2-0203","code":"MR"}]},"system":"https://bonnie-fhir.healthit.gov/","value":"612e6b1302c62a011f2ec527"}],"active":true,"name":[{"use":"usual","family":"NUMERFail","given":["RixDuringOBS_OBSGT1hr"]}],"gender":"male","birthDate":"1975-01-02"},"request":{"method":"PUT","url":"Patient/29bd19cc-e5fc-431b-b308-ce5f816533d3"}},{"fullUrl":"https://madie.cms.gov/Encounter/39a50985-ba46-4ea9-80bd-5d8e2748df3e","resource":{"resourceType":"Encounter","id":"39a50985-ba46-4ea9-80bd-5d8e2748df3e","meta":{"profile":["http://hl7.org/fhir/us/qicore/StructureDefinition/qicore-encounter"]},"status":"finished","class":{"system":"http://terminology.hl7.org/CodeSystem/v3-ActCode","code":"IMP","display":"inpatient encounter"},"type":[{"coding":[{"system":"http://snomed.info/sct","code":"8715000"}]}],"subject":{"reference":"Patient/29bd19cc-e5fc-431b-b308-ce5f816533d3"},"period":{"start":"2026-11-01T08:00:00+00:00","end":"2026-11-26T08:15:00+00:00"},"length":{"value":25.0,"unit":"days"}},"request":{"method":"PUT","url":"Encounter/39a50985-ba46-4ea9-80bd-5d8e2748df3e"}},{"fullUrl":"https://madie.cms.gov/Encounter/0cd5f389-6414-4017-9cab-16da35349e83","resource":{"resourceType":"Encounter","id":"0cd5f389-6414-4017-9cab-16da35349e83","meta":{"profile":["http://hl7.org/fhir/us/qicore/StructureDefinition/qicore-encounter"]},"status":"finished","class":{"system":"http://terminology.hl7.org/CodeSystem/v3-ActCode","code":"EMER","display":"emergency"},"type":[{"coding":[{"system":"http://snomed.info/sct","code":"4525004"}]}],"subject":{"reference":"Patient/29bd19cc-e5fc-431b-b308-ce5f816533d3"},"period":{"start":"2026-10-31T20:00:00+00:00","end":"2026-10-31T20:00:00+00:00"}},"request":{"method":"PUT","url":"Encounter/0cd5f389-6414-4017-9cab-16da35349e83"}},{"fullUrl":"https://madie.cms.gov/Encounter/7d42b4c0-83b6-4c9b-b411-243c6d5c50c6","resource":{"resourceType":"Encounter","id":"7d42b4c0-83b6-4c9b-b411-243c6d5c50c6","meta":{"profile":["http://hl7.org/fhir/us/qicore/StructureDefinition/qicore-encounter"]},"status":"finished","class":{"system":"http://terminology.hl7.org/CodeSystem/v3-ActCode","code":"OBSENC","display":"observation encounter"},"type":[{"coding":[{"system":"http://snomed.info/sct","code":"448951000124107"}]}],"subject":{"reference":"Patient/29bd19cc-e5fc-431b-b308-ce5f816533d3"},"period":{"start":"2026-10-31T20:00:00+00:00","end":"2026-11-01T05:00:00+00:00"}},"request":{"method":"PUT","url":"Encounter/7d42b4c0-83b6-4c9b-b411-243c6d5c50c6"}},{"fullUrl":"https://madie.cms.gov/Coverage/c4f44eeb-43bf-4573-a1ec-a449534e119a","resource":{"resourceType":"Coverage","id":"c4f44eeb-43bf-4573-a1ec-a449534e119a","status":"active","beneficiary":{"reference":"Patient/29bd19cc-e5fc-431b-b308-ce5f816533d3"},"period":{"start":"1975-01-02T08:00:00+00:00"},"payor":[{"reference":"Organization/18ca435c-cae6-4c34-8033-af717477f9fc"}]},"request":{"method":"PUT","url":"Coverage/c4f44eeb-43bf-4573-a1ec-a449534e119a"}},{"fullUrl":"https://madie.cms.gov/MedicationAdministration/45aa150f-e6ff-43ef-a467-657248ecb443","resource":{"resourceType":"MedicationAdministration","id":"45aa150f-e6ff-43ef-a467-657248ecb443","status":"completed","medicationCodeableConcept":{"coding":[{"system":"http://www.nlm.nih.gov/research/umls/rxnorm","code":"1114198"}]},"subject":{"reference":"Patient/29bd19cc-e5fc-431b-b308-ce5f816533d3"},"effectivePeriod":{"start":"2026-10-31T09:00:00+00:00","end":"2026-10-31T09:15:00+00:00"}},"request":{"method":"PUT","url":"MedicationAdministration/45aa150f-e6ff-43ef-a467-657248ecb443"}},{"fullUrl":"https://madie.cms.gov/Organization/bfece8b1-7b4b-436f-8d3c-ed36c0268f01","resource":{"resourceType":"Organization","id":"18ca435c-cae6-4c34-8033-af717477f9fc","meta":{"profile":["http://hl7.org/fhir/us/qicore/StructureDefinition/qicore-organization"]},"identifier":[{"use":"temp","system":"urn:oid:2.16.840.1.113883.4.4","value":"21-3259825"}],"active":true,"type":[{"coding":[{"system":"http://terminology.hl7.org/CodeSystem/organization-type","code":"pay","display":"Payer"}]}],"name":"Blue Cross Blue Shield of Texas","telecom":[{"system":"phone","value":"(+1) 972-766-6900"}],"address":[{"use":"billing","type":"postal","line":["P.O. Box 660044"],"city":"Dallas","state":"TX","postalCode":"75266-0044","country":"USA"}]},"request":{"method":"PUT","url":"Organization/18ca435c-cae6-4c34-8033-af717477f9fc"}},{"fullUrl":"https://madie.cms.gov/Practitioner/f28e841b-c6da-40a5-80da-c042fd4060c5","resource":{"resourceType":"Practitioner","id":"f28e841b-c6da-40a5-80da-c042fd4060c5","identifier":[{"system":"http://hl7.org/fhir/sid/us-npi","value":"123456"}],"name":[{"family":"Evil","prefix":["Dr"]}]},"request":{"method":"PUT","url":"Practitioner/f28e841b-c6da-40a5-80da-c042fd4060c5"}},{"fullUrl":"https://madie.cms.gov/MeasureReport/b1f5fa61-e2af-4bca-a7b4-f42961fe0651","resource":{"resourceType":"MeasureReport","id":"b1f5fa61-e2af-4bca-a7b4-f42961fe0651","meta":{"profile":["http://hl7.org/fhir/us/cqfmeasures/StructureDefinition/test-case-cqfm"]},"contained":[{"resourceType":"Parameters","id":"68d8600e-510f-432c-a143-7b41bfab19f3-parameters","parameter":[{"name":"subject","valueString":"29bd19cc-e5fc-431b-b308-ce5f816533d3"}]}],"extension":[{"url":"http://hl7.org/fhir/us/cqfmeasures/StructureDefinition/cqfm-inputParameters","valueReference":{"reference":"#68d8600e-510f-432c-a143-7b41bfab19f3-parameters"}},{"url":"http://hl7.org/fhir/us/cqfmeasures/StructureDefinition/cqfm-testCaseDescription","valueMarkdown":"Rivaroxaban for VTE Prophylaxis Med Administered during OBS which ends >1 hr before adm and ED = 1 hr ends OBS\n"}],"modifierExtension":[{"url":"http://hl7.org/fhir/us/cqfmeasures/StructureDefinition/cqfm-isTestCase","valueBoolean":true}],"status":"complete","type":"individual","measure":"https://madie.cms.gov/Measure/CMS108VTEProphylaxisFHIR","period":{"start":"2026-01-01","end":"2026-12-31"},"group":[{"population":[{"code":{"coding":[{"system":"http://terminology.hl7.org/CodeSystem/measure-population","code":"initial-population","display":"Initial Population"}]},"count":1},{"code":{"coding":[{"system":"http://terminology.hl7.org/CodeSystem/measure-population","code":"denominator","display":"Denominator"}]},"count":1},{"code":{"coding":[{"system":"http://terminology.hl7.org/CodeSystem/measure-population","code":"denominator-exclusion","display":"Denominator Exclusion"}]},"count":0},{"code":{"coding":[{"system":"http://terminology.hl7.org/CodeSystem/measure-population","code":"numerator","display":"Numerator"}]},"count":0}]}]},"request":{"method":"PUT","url":"MeasureReport/b1f5fa61-e2af-4bca-a7b4-f42961fe0651"}}]}