{"resourceType":"Bundle","id":"tests-ef0bebdc-61bf-4233-abd3-1f3c99a2cd8d-bundle","type":"transaction","entry":[{"fullUrl":"https://madie.cms.gov/Patient/ef0bebdc-61bf-4233-abd3-1f3c99a2cd8d","resource":{"resourceType":"Patient","id":"ef0bebdc-61bf-4233-abd3-1f3c99a2cd8d","meta":{"profile":["http://hl7.org/fhir/us/qicore/StructureDefinition/qicore-patient"]},"text":{"status":"generated","div":"<div xmlns=\"http://www.w3.org/1999/xhtml\"><div class=\"hapiHeaderText\">MAOralXaDayAFEncStartHipSurgDrgEnc <b>NUMERPASS </b></div><table class=\"hapiPropertyTable\"><tbody><tr><td>Date of birth</td><td><span>02 January 1974</span></td></tr></tbody></table></div>"},"extension":[{"url":"http://hl7.org/fhir/us/core/StructureDefinition/us-core-race","extension":[{"url":"ombCategory","valueCoding":{"system":"urn:oid:2.16.840.1.113883.6.238","code":"1002-5","display":"American Indian or Alaska Native","userSelected":true}},{"url":"text","valueString":"American Indian or Alaska Native"}]},{"url":"http://hl7.org/fhir/us/core/StructureDefinition/us-core-ethnicity","extension":[{"url":"ombCategory","valueCoding":{"system":"urn:oid:2.16.840.1.113883.6.238","code":"2135-2","display":"Hispanic or Latino","userSelected":true}},{"url":"text","valueString":"Hispanic or Latino"}]}],"identifier":[{"type":{"coding":[{"system":"http://terminology.hl7.org/CodeSystem/v2-0203","code":"MR"}]},"system":"https://bonnie-fhir.healthit.gov/","value":"612e6af202c62a011f2ebdd1"}],"active":true,"name":[{"use":"usual","family":"NUMERPass","given":["MAOralXaDayAFEncStartHipSurgDrgEnc"]}],"gender":"female","birthDate":"1975-01-02"},"request":{"method":"PUT","url":"Patient/ef0bebdc-61bf-4233-abd3-1f3c99a2cd8d"}},{"fullUrl":"https://madie.cms.gov/Encounter/3d567abe-7872-483e-87fa-c9faa42eb6a9","resource":{"resourceType":"Encounter","id":"3d567abe-7872-483e-87fa-c9faa42eb6a9","meta":{"profile":["http://hl7.org/fhir/us/qicore/StructureDefinition/qicore-encounter"]},"status":"finished","class":{"system":"http://terminology.hl7.org/CodeSystem/v3-ActCode","code":"IMP","display":"inpatient encounter"},"type":[{"coding":[{"system":"http://snomed.info/sct","code":"183452005"}]}],"subject":{"reference":"Patient/ef0bebdc-61bf-4233-abd3-1f3c99a2cd8d"},"period":{"start":"2026-11-01T08:00:00+00:00","end":"2026-11-26T08:15:00+00:00"},"length":{"value":25.0,"unit":"day"}},"request":{"method":"PUT","url":"Encounter/3d567abe-7872-483e-87fa-c9faa42eb6a9"}},{"fullUrl":"https://madie.cms.gov/Coverage/8ecfc273-23ed-4259-8fbe-2339acefb6d0","resource":{"resourceType":"Coverage","id":"8ecfc273-23ed-4259-8fbe-2339acefb6d0","status":"active","beneficiary":{"reference":"Patient/ef0bebdc-61bf-4233-abd3-1f3c99a2cd8d"},"period":{"start":"1975-01-02T08:00:00+00:00"},"payor":[{"reference":"Organization/e75793c9-fdf6-463a-8c1d-4ee44320dc25"}]},"request":{"method":"PUT","url":"Coverage/8ecfc273-23ed-4259-8fbe-2339acefb6d0"}},{"fullUrl":"https://madie.cms.gov/MedicationAdministration/16fd598e-20d9-44cc-98f1-7694b012bc4d","resource":{"resourceType":"MedicationAdministration","id":"16fd598e-20d9-44cc-98f1-7694b012bc4d","meta":{"profile":["http://hl7.org/fhir/us/qicore/StructureDefinition/qicore-medicationadministration"]},"status":"completed","medicationCodeableConcept":{"coding":[{"system":"http://www.nlm.nih.gov/research/umls/rxnorm","code":"1992427"}]},"subject":{"reference":"Patient/ef0bebdc-61bf-4233-abd3-1f3c99a2cd8d"},"effectivePeriod":{"start":"2026-11-02T23:59:00+00:00","end":"2026-11-02T23:59:00+00:00"}},"request":{"method":"PUT","url":"MedicationAdministration/16fd598e-20d9-44cc-98f1-7694b012bc4d"}},{"fullUrl":"https://madie.cms.gov/Procedure/d5c11478-df1f-42fa-a1c9-671d91b14e55","resource":{"resourceType":"Procedure","id":"d5c11478-df1f-42fa-a1c9-671d91b14e55","meta":{"profile":["http://hl7.org/fhir/us/qicore/StructureDefinition/qicore-procedure"]},"extension":[{"url":"http://hl7.org/fhir/us/qicore/StructureDefinition/qicore-recorded","valueDateTime":"2013-11-19T09:35:00-04:00"}],"status":"completed","code":{"coding":[{"system":"http://snomed.info/sct","code":"386649003"}]},"subject":{"reference":"Patient/ef0bebdc-61bf-4233-abd3-1f3c99a2cd8d"},"performedPeriod":{"start":"2026-11-01T09:00:00+00:00"}},"request":{"method":"PUT","url":"Procedure/d5c11478-df1f-42fa-a1c9-671d91b14e55"}},{"fullUrl":"https://madie.cms.gov/Organization/a82bf5d7-2357-4258-88f2-aaf24d4e45c6","resource":{"resourceType":"Organization","id":"e75793c9-fdf6-463a-8c1d-4ee44320dc25","meta":{"profile":["http://hl7.org/fhir/us/qicore/StructureDefinition/qicore-organization"]},"identifier":[{"use":"temp","system":"urn:oid:2.16.840.1.113883.4.4","value":"21-3259825"}],"active":true,"type":[{"coding":[{"system":"http://terminology.hl7.org/CodeSystem/organization-type","code":"pay","display":"Payer"}]}],"name":"Blue Cross Blue Shield of Texas","telecom":[{"system":"phone","value":"(+1) 972-766-6900"}],"address":[{"use":"billing","type":"postal","line":["P.O. Box 660044"],"city":"Dallas","state":"TX","postalCode":"75266-0044","country":"USA"}]},"request":{"method":"PUT","url":"Organization/e75793c9-fdf6-463a-8c1d-4ee44320dc25"}},{"fullUrl":"https://madie.cms.gov/Practitioner/47f66439-f67d-4d08-b8ea-549883817134","resource":{"resourceType":"Practitioner","id":"47f66439-f67d-4d08-b8ea-549883817134","identifier":[{"system":"http://hl7.org/fhir/sid/us-npi","value":"123456"}],"name":[{"family":"Evil","prefix":["Dr"]}]},"request":{"method":"PUT","url":"Practitioner/47f66439-f67d-4d08-b8ea-549883817134"}},{"fullUrl":"https://madie.cms.gov/MeasureReport/ea277dbd-50bb-4e7a-ba69-2697c6a8a40c","resource":{"resourceType":"MeasureReport","id":"ea277dbd-50bb-4e7a-ba69-2697c6a8a40c","meta":{"profile":["http://hl7.org/fhir/us/cqfmeasures/StructureDefinition/test-case-cqfm"]},"contained":[{"resourceType":"Parameters","id":"7732e4bc-1954-4043-8d72-791da81e9365-parameters","parameter":[{"name":"subject","valueString":"ef0bebdc-61bf-4233-abd3-1f3c99a2cd8d"}]}],"extension":[{"url":"http://hl7.org/fhir/us/cqfmeasures/StructureDefinition/cqfm-inputParameters","valueReference":{"reference":"#7732e4bc-1954-4043-8d72-791da81e9365-parameters"}},{"url":"http://hl7.org/fhir/us/cqfmeasures/StructureDefinition/cqfm-testCaseDescription","valueMarkdown":"\"Oral Xa 11:59PM day after Inp.start\nHip replacement history\"\n"}],"modifierExtension":[{"url":"http://hl7.org/fhir/us/cqfmeasures/StructureDefinition/cqfm-isTestCase","valueBoolean":true}],"status":"complete","type":"individual","measure":"https://madie.cms.gov/Measure/CMS108VTEProphylaxisFHIR","period":{"start":"2026-01-01","end":"2026-12-31"},"group":[{"population":[{"code":{"coding":[{"system":"http://terminology.hl7.org/CodeSystem/measure-population","code":"initial-population","display":"Initial Population"}]},"count":1},{"code":{"coding":[{"system":"http://terminology.hl7.org/CodeSystem/measure-population","code":"denominator","display":"Denominator"}]},"count":1},{"code":{"coding":[{"system":"http://terminology.hl7.org/CodeSystem/measure-population","code":"denominator-exclusion","display":"Denominator Exclusion"}]},"count":0},{"code":{"coding":[{"system":"http://terminology.hl7.org/CodeSystem/measure-population","code":"numerator","display":"Numerator"}]},"count":1}]}]},"request":{"method":"PUT","url":"MeasureReport/ea277dbd-50bb-4e7a-ba69-2697c6a8a40c"}}]}