{"resourceType":"Bundle","id":"tests-0ddb05b5-03af-4d2a-9d9c-0be8034d1ff4-bundle","type":"transaction","entry":[{"fullUrl":"https://madie.cms.gov/Patient/0ddb05b5-03af-4d2a-9d9c-0be8034d1ff4","resource":{"resourceType":"Patient","id":"0ddb05b5-03af-4d2a-9d9c-0be8034d1ff4","meta":{"profile":["http://hl7.org/fhir/us/qicore/StructureDefinition/qicore-patient"]},"text":{"status":"generated","div":"<div xmlns=\"http://www.w3.org/1999/xhtml\"><div class=\"hapiHeaderText\">CMPerf_DuringObs_ObsLT1HrBFAdm <b>DENEXPASS </b></div><table class=\"hapiPropertyTable\"><tbody><tr><td>Identifier</td><td>32a3c1b5766063c719384b1023bfc3dfc1d8c92f7b9304cae9d3eaf406b0a696</td></tr><tr><td>Date of birth</td><td><span>02 January 1974</span></td></tr></tbody></table></div>"},"extension":[{"url":"http://hl7.org/fhir/us/core/StructureDefinition/us-core-race","extension":[{"url":"ombCategory","valueCoding":{"system":"urn:oid:2.16.840.1.113883.6.238","code":"1002-5","display":"American Indian or Alaska Native","userSelected":true}},{"url":"text","valueString":"American Indian or Alaska Native"}]},{"url":"http://hl7.org/fhir/us/core/StructureDefinition/us-core-ethnicity","extension":[{"url":"ombCategory","valueCoding":{"system":"urn:oid:2.16.840.1.113883.6.238","code":"2135-2","display":"Hispanic or Latino","userSelected":true}},{"url":"text","valueString":"Hispanic or Latino"}]}],"identifier":[{"type":{"coding":[{"system":"http://terminology.hl7.org/CodeSystem/v2-0203","code":"MR"}]},"system":"https://bonnie-fhir.healthit.gov/","value":"612e6ae502c62a011f2eba79"}],"active":true,"name":[{"use":"usual","family":"DENEXPass","given":["CMPerf_DuringObs_ObsLT1HrBFAdm"]}],"gender":"male","birthDate":"1975-01-02"},"request":{"method":"PUT","url":"Patient/0ddb05b5-03af-4d2a-9d9c-0be8034d1ff4"}},{"fullUrl":"https://madie.cms.gov/Encounter/0d34f51d-f7be-4bb1-8ef5-6dd9c0bc774d","resource":{"resourceType":"Encounter","id":"0d34f51d-f7be-4bb1-8ef5-6dd9c0bc774d","meta":{"profile":["http://hl7.org/fhir/us/qicore/StructureDefinition/qicore-encounter"]},"status":"finished","class":{"system":"http://terminology.hl7.org/CodeSystem/v3-ActCode","code":"EMER","display":"emergency"},"type":[{"coding":[{"system":"http://snomed.info/sct","code":"4525004"}]}],"subject":{"reference":"Patient/0ddb05b5-03af-4d2a-9d9c-0be8034d1ff4"},"period":{"start":"2026-10-31T04:00:00+00:00","end":"2026-11-01T05:15:00+00:00"},"length":{"value":1.0,"unit":"days"}},"request":{"method":"PUT","url":"Encounter/0d34f51d-f7be-4bb1-8ef5-6dd9c0bc774d"}},{"fullUrl":"https://madie.cms.gov/Encounter/f275c33e-bfa3-44e6-b9c3-6ce4de4f81d7","resource":{"resourceType":"Encounter","id":"f275c33e-bfa3-44e6-b9c3-6ce4de4f81d7","meta":{"profile":["http://hl7.org/fhir/us/qicore/StructureDefinition/qicore-encounter"]},"status":"finished","class":{"system":"http://terminology.hl7.org/CodeSystem/v3-ActCode","code":"IMP","display":"inpatient encounter"},"type":[{"coding":[{"system":"http://snomed.info/sct","code":"8715000"}]}],"subject":{"reference":"Patient/0ddb05b5-03af-4d2a-9d9c-0be8034d1ff4"},"period":{"start":"2026-11-01T08:00:00+00:00","end":"2026-11-26T08:15:00+00:00"},"length":{"value":25.0,"unit":"days"}},"request":{"method":"PUT","url":"Encounter/f275c33e-bfa3-44e6-b9c3-6ce4de4f81d7"}},{"fullUrl":"https://madie.cms.gov/Encounter/0375ffd9-d04b-44f7-af59-21329cf832c6","resource":{"resourceType":"Encounter","id":"0375ffd9-d04b-44f7-af59-21329cf832c6","meta":{"profile":["http://hl7.org/fhir/us/qicore/StructureDefinition/qicore-encounter"]},"status":"finished","class":{"system":"http://terminology.hl7.org/CodeSystem/v3-ActCode","code":"OBSENC","display":"observation encounter"},"type":[{"coding":[{"system":"http://snomed.info/sct","code":"448951000124107"}]}],"subject":{"reference":"Patient/0ddb05b5-03af-4d2a-9d9c-0be8034d1ff4"},"period":{"start":"2026-11-01T05:20:00+00:00","end":"2026-11-01T07:30:00+00:00"}},"request":{"method":"PUT","url":"Encounter/0375ffd9-d04b-44f7-af59-21329cf832c6"}},{"fullUrl":"https://madie.cms.gov/Procedure/62e01e6e-e7df-42f8-9fa2-2ef29d40e79a","resource":{"resourceType":"Procedure","id":"62e01e6e-e7df-42f8-9fa2-2ef29d40e79a","meta":{"profile":["http://hl7.org/fhir/us/qicore/StructureDefinition/qicore-procedure"]},"extension":[{"url":"http://hl7.org/fhir/us/qicore/StructureDefinition/qicore-recorded","valueDateTime":"2013-11-01T09:35:00-04:00"}],"status":"completed","code":{"coding":[{"system":"http://snomed.info/sct","code":"133918004"}]},"subject":{"reference":"Patient/0ddb05b5-03af-4d2a-9d9c-0be8034d1ff4"},"performedPeriod":{"start":"2026-10-31T07:00:00+00:00"}},"request":{"method":"PUT","url":"Procedure/62e01e6e-e7df-42f8-9fa2-2ef29d40e79a"}},{"fullUrl":"https://madie.cms.gov/Coverage/ee928596-03f5-4760-89f2-7e2aeaa3c931","resource":{"resourceType":"Coverage","id":"ee928596-03f5-4760-89f2-7e2aeaa3c931","status":"active","beneficiary":{"reference":"Patient/0ddb05b5-03af-4d2a-9d9c-0be8034d1ff4"},"period":{"start":"1975-01-02T08:00:00+00:00"},"payor":[{"reference":"Organization/3e899f33-84eb-4634-a770-a5a0bd7a80e7"}]},"request":{"method":"PUT","url":"Coverage/ee928596-03f5-4760-89f2-7e2aeaa3c931"}},{"fullUrl":"https://madie.cms.gov/Organization/ecca1fa8-8d39-4d5e-862d-dda1a6ef3121","resource":{"resourceType":"Organization","id":"3e899f33-84eb-4634-a770-a5a0bd7a80e7","meta":{"profile":["http://hl7.org/fhir/us/qicore/StructureDefinition/qicore-organization"]},"identifier":[{"use":"temp","system":"urn:oid:2.16.840.1.113883.4.4","value":"21-3259825"}],"active":true,"type":[{"coding":[{"system":"http://terminology.hl7.org/CodeSystem/organization-type","code":"pay","display":"Payer"}]}],"name":"Blue Cross Blue Shield of Texas","telecom":[{"system":"phone","value":"(+1) 972-766-6900"}],"address":[{"use":"billing","type":"postal","line":["P.O. Box 660044"],"city":"Dallas","state":"TX","postalCode":"75266-0044","country":"USA"}]},"request":{"method":"PUT","url":"Organization/3e899f33-84eb-4634-a770-a5a0bd7a80e7"}},{"fullUrl":"https://madie.cms.gov/Practitioner/15a8999a-9bae-4c11-a45d-3cc9173c15b9","resource":{"resourceType":"Practitioner","id":"15a8999a-9bae-4c11-a45d-3cc9173c15b9","identifier":[{"system":"http://hl7.org/fhir/sid/us-npi","value":"123456"}],"name":[{"family":"Evil","prefix":["Dr"]}]},"request":{"method":"PUT","url":"Practitioner/15a8999a-9bae-4c11-a45d-3cc9173c15b9"}},{"fullUrl":"https://madie.cms.gov/MeasureReport/edddf745-b449-4389-9170-c85266ce9dce","resource":{"resourceType":"MeasureReport","id":"edddf745-b449-4389-9170-c85266ce9dce","meta":{"profile":["http://hl7.org/fhir/us/cqfmeasures/StructureDefinition/test-case-cqfm"]},"contained":[{"resourceType":"Parameters","id":"972b09bc-e6ba-43a7-8f48-b959b608fad2-parameters","parameter":[{"name":"subject","valueString":"0ddb05b5-03af-4d2a-9d9c-0be8034d1ff4"}]}],"extension":[{"url":"http://hl7.org/fhir/us/cqfmeasures/StructureDefinition/cqfm-inputParameters","valueReference":{"reference":"#972b09bc-e6ba-43a7-8f48-b959b608fad2-parameters"}},{"url":"http://hl7.org/fhir/us/cqfmeasures/StructureDefinition/cqfm-testCaseDescription","valueMarkdown":"comfort measures performed in Observation, and Obs < 1hr prior to Adm \n"}],"modifierExtension":[{"url":"http://hl7.org/fhir/us/cqfmeasures/StructureDefinition/cqfm-isTestCase","valueBoolean":true}],"status":"complete","type":"individual","measure":"https://madie.cms.gov/Measure/CMS108VTEProphylaxisFHIR","period":{"start":"2026-01-01","end":"2026-12-31"},"group":[{"population":[{"code":{"coding":[{"system":"http://terminology.hl7.org/CodeSystem/measure-population","code":"initial-population","display":"Initial Population"}]},"count":1},{"code":{"coding":[{"system":"http://terminology.hl7.org/CodeSystem/measure-population","code":"denominator","display":"Denominator"}]},"count":1},{"code":{"coding":[{"system":"http://terminology.hl7.org/CodeSystem/measure-population","code":"denominator-exclusion","display":"Denominator Exclusion"}]},"count":1},{"code":{"coding":[{"system":"http://terminology.hl7.org/CodeSystem/measure-population","code":"numerator","display":"Numerator"}]},"count":0}]}]},"request":{"method":"PUT","url":"MeasureReport/edddf745-b449-4389-9170-c85266ce9dce"}}]}