{"resourceType":"Bundle","id":"tests-575f2da0-c890-47a3-b17f-f9e134a1096e-bundle","type":"transaction","entry":[{"fullUrl":"https://madie.cms.gov/Patient/575f2da0-c890-47a3-b17f-f9e134a1096e","resource":{"resourceType":"Patient","id":"575f2da0-c890-47a3-b17f-f9e134a1096e","meta":{"profile":["http://hl7.org/fhir/us/qicore/StructureDefinition/qicore-patient"]},"text":{"status":"generated","div":"<div xmlns=\"http://www.w3.org/1999/xhtml\"><div class=\"hapiHeaderText\">PtRef_DA_GCS_DuringED <b>NUMERPASS </b></div><table class=\"hapiPropertyTable\"><tbody><tr><td>Identifier</td><td>5f7ad5e9fc357bf072546722e2c19e60</td></tr><tr><td>Date of birth</td><td><span>02 January 1974</span></td></tr></tbody></table></div>"},"extension":[{"url":"http://hl7.org/fhir/us/core/StructureDefinition/us-core-race","extension":[{"url":"ombCategory","valueCoding":{"system":"urn:oid:2.16.840.1.113883.6.238","code":"1002-5","display":"American Indian or Alaska Native","userSelected":true}},{"url":"text","valueString":"American Indian or Alaska Native"}]},{"url":"http://hl7.org/fhir/us/core/StructureDefinition/us-core-ethnicity","extension":[{"url":"ombCategory","valueCoding":{"system":"urn:oid:2.16.840.1.113883.6.238","code":"2135-2","display":"Hispanic or Latino","userSelected":true}},{"url":"text","valueString":"Hispanic or Latino"}]}],"identifier":[{"type":{"coding":[{"system":"http://terminology.hl7.org/CodeSystem/v2-0203","code":"MR"}]},"system":"https://bonnie-fhir.healthit.gov/","value":"612e6ab302c62a011f2eafaf"}],"active":true,"name":[{"use":"usual","family":"NUMERPass","given":["PtRef_DA_GCS_DuringED"]}],"gender":"male","birthDate":"1975-01-02"},"request":{"method":"PUT","url":"Patient/575f2da0-c890-47a3-b17f-f9e134a1096e"}},{"fullUrl":"https://madie.cms.gov/Encounter/f45a5a22-890a-4e83-ad39-3d981425e1b2","resource":{"resourceType":"Encounter","id":"f45a5a22-890a-4e83-ad39-3d981425e1b2","meta":{"profile":["http://hl7.org/fhir/us/qicore/StructureDefinition/qicore-encounter"]},"status":"finished","class":{"system":"http://terminology.hl7.org/CodeSystem/v3-ActCode","code":"EMER","display":"emergency"},"type":[{"coding":[{"system":"http://snomed.info/sct","code":"4525004"}]}],"subject":{"reference":"Patient/575f2da0-c890-47a3-b17f-f9e134a1096e"},"period":{"start":"2026-10-31T05:00:00+00:00","end":"2026-11-01T07:15:00+00:00"},"length":{"value":1,"unit":"days"}},"request":{"method":"PUT","url":"Encounter/f45a5a22-890a-4e83-ad39-3d981425e1b2"}},{"fullUrl":"https://madie.cms.gov/Encounter/0a2b35c0-eff9-4ae5-9dde-1e6d40330c2f","resource":{"resourceType":"Encounter","id":"0a2b35c0-eff9-4ae5-9dde-1e6d40330c2f","meta":{"profile":["http://hl7.org/fhir/us/qicore/StructureDefinition/qicore-encounter"]},"status":"finished","class":{"system":"http://terminology.hl7.org/CodeSystem/v3-ActCode","code":"IMP","display":"inpatient encounter"},"type":[{"coding":[{"system":"http://snomed.info/sct","code":"8715000"}]}],"subject":{"reference":"Patient/575f2da0-c890-47a3-b17f-f9e134a1096e"},"period":{"start":"2026-11-01T08:00:00+00:00","end":"2026-11-26T08:15:00+00:00"},"length":{"value":25,"unit":"days"}},"request":{"method":"PUT","url":"Encounter/0a2b35c0-eff9-4ae5-9dde-1e6d40330c2f"}},{"fullUrl":"https://madie.cms.gov/Coverage/87e279bc-10c1-4f69-98e4-7f48f416faaf","resource":{"resourceType":"Coverage","id":"87e279bc-10c1-4f69-98e4-7f48f416faaf","status":"active","beneficiary":{"reference":"Patient/575f2da0-c890-47a3-b17f-f9e134a1096e"},"period":{"start":"1975-01-02T08:00:00+00:00"},"payor":[{"reference":"Organization/607fdef9-3983-4cef-ab1a-95434d29b463"}]},"request":{"method":"PUT","url":"Coverage/87e279bc-10c1-4f69-98e4-7f48f416faaf"}},{"fullUrl":"https://madie.cms.gov/Procedure/61347eab-0ff2-441e-b834-e602b0eecac1","resource":{"resourceType":"Procedure","id":"61347eab-0ff2-441e-b834-e602b0eecac1","meta":{"profile":["http://hl7.org/fhir/us/qicore/StructureDefinition/qicore-procedurenotdone"]},"extension":[{"url":"http://hl7.org/fhir/us/qicore/StructureDefinition/qicore-recorded","valueDateTime":"2026-10-31T17:35:00-04:00"}],"status":"not-done","statusReason":{"coding":[{"system":"http://snomed.info/sct","code":"443390004","display":"Refusal of treatment by patient (situation)","userSelected":true}]},"code":{"coding":[{"system":"http://snomed.info/sct","version":"2025-03","code":"229511001","display":"Application of graduated compression garment (procedure)","userSelected":true}]},"subject":{"reference":"Patient/575f2da0-c890-47a3-b17f-f9e134a1096e"},"_performedDateTime":{"extension":[{"url":"http://hl7.org/fhir/StructureDefinition/data-absent-reason","valueCode":"not-performed"}]}},"request":{"method":"PUT","url":"Procedure/61347eab-0ff2-441e-b834-e602b0eecac1"}},{"fullUrl":"https://madie.cms.gov/Organization/780cd044-7b93-405b-847f-5791595a0457","resource":{"resourceType":"Organization","id":"607fdef9-3983-4cef-ab1a-95434d29b463","meta":{"profile":["http://hl7.org/fhir/us/qicore/StructureDefinition/qicore-organization"]},"identifier":[{"use":"temp","system":"urn:oid:2.16.840.1.113883.4.4","value":"21-3259825"}],"active":true,"type":[{"coding":[{"system":"http://terminology.hl7.org/CodeSystem/organization-type","code":"pay","display":"Payer"}]}],"name":"Blue Cross Blue Shield of Texas","telecom":[{"system":"phone","value":"(+1) 972-766-6900"}],"address":[{"use":"billing","type":"postal","line":["P.O. Box 660044"],"city":"Dallas","state":"TX","postalCode":"75266-0044","country":"USA"}]},"request":{"method":"PUT","url":"Organization/607fdef9-3983-4cef-ab1a-95434d29b463"}},{"fullUrl":"https://madie.cms.gov/Practitioner/9c189ef2-2b7d-40a4-823d-d6144e177dd8","resource":{"resourceType":"Practitioner","id":"9c189ef2-2b7d-40a4-823d-d6144e177dd8","identifier":[{"system":"http://hl7.org/fhir/sid/us-npi","value":"123456"}],"name":[{"family":"Evil","prefix":["Dr"]}]},"request":{"method":"PUT","url":"Practitioner/9c189ef2-2b7d-40a4-823d-d6144e177dd8"}},{"fullUrl":"https://madie.cms.gov/MeasureReport/50879a2c-c5b3-4391-a4f1-7d63caf1ac32","resource":{"resourceType":"MeasureReport","id":"50879a2c-c5b3-4391-a4f1-7d63caf1ac32","meta":{"profile":["http://hl7.org/fhir/us/cqfmeasures/StructureDefinition/test-case-cqfm"]},"contained":[{"resourceType":"Parameters","id":"87090b32-5b5b-4fd0-b496-754b27a92681-parameters","parameter":[{"name":"subject","valueString":"575f2da0-c890-47a3-b17f-f9e134a1096e"}]}],"extension":[{"url":"http://hl7.org/fhir/us/cqfmeasures/StructureDefinition/cqfm-inputParameters","valueReference":{"reference":"#87090b32-5b5b-4fd0-b496-754b27a92681-parameters"}},{"url":"http://hl7.org/fhir/us/cqfmeasures/StructureDefinition/cqfm-testCaseDescription","valueMarkdown":"GCS refused in ED \n"}],"modifierExtension":[{"url":"http://hl7.org/fhir/us/cqfmeasures/StructureDefinition/cqfm-isTestCase","valueBoolean":true}],"status":"complete","type":"individual","measure":"https://madie.cms.gov/Measure/CMS108VTEProphylaxisFHIR","period":{"start":"2026-01-01","end":"2026-12-31"},"group":[{"population":[{"code":{"coding":[{"system":"http://terminology.hl7.org/CodeSystem/measure-population","code":"initial-population","display":"Initial Population"}]},"count":1},{"code":{"coding":[{"system":"http://terminology.hl7.org/CodeSystem/measure-population","code":"denominator","display":"Denominator"}]},"count":1},{"code":{"coding":[{"system":"http://terminology.hl7.org/CodeSystem/measure-population","code":"denominator-exclusion","display":"Denominator Exclusion"}]},"count":0},{"code":{"coding":[{"system":"http://terminology.hl7.org/CodeSystem/measure-population","code":"numerator","display":"Numerator"}]},"count":1}]}]},"request":{"method":"PUT","url":"MeasureReport/50879a2c-c5b3-4391-a4f1-7d63caf1ac32"}}]}