{"resourceType":"Bundle","id":"tests-4c2e4fec-cf58-4a6e-be40-af9b9e4232c9-bundle","type":"transaction","entry":[{"fullUrl":"https://madie.cms.gov/Patient/4c2e4fec-cf58-4a6e-be40-af9b9e4232c9","resource":{"resourceType":"Patient","id":"4c2e4fec-cf58-4a6e-be40-af9b9e4232c9","meta":{"profile":["http://hl7.org/fhir/us/qicore/StructureDefinition/qicore-patient"]},"text":{"status":"generated","div":"<div xmlns=\"http://www.w3.org/1999/xhtml\"><div class=\"hapiHeaderText\">DA_GSC1DayAFAnes <b>NUMERPASS </b></div><table class=\"hapiPropertyTable\"><tbody><tr><td>Identifier</td><td>081503312e821de786b971069bc2afb0</td></tr><tr><td>Date of birth</td><td><span>02 January 1974</span></td></tr></tbody></table></div>"},"extension":[{"url":"http://hl7.org/fhir/us/core/StructureDefinition/us-core-race","extension":[{"url":"ombCategory","valueCoding":{"system":"urn:oid:2.16.840.1.113883.6.238","code":"1002-5","display":"American Indian or Alaska Native","userSelected":true}},{"url":"text","valueString":"American Indian or Alaska Native"}]},{"url":"http://hl7.org/fhir/us/core/StructureDefinition/us-core-ethnicity","extension":[{"url":"ombCategory","valueCoding":{"system":"urn:oid:2.16.840.1.113883.6.238","code":"2135-2","display":"Hispanic or Latino","userSelected":true}},{"url":"text","valueString":"Hispanic or Latino"}]}],"identifier":[{"type":{"coding":[{"system":"http://terminology.hl7.org/CodeSystem/v2-0203","code":"MR"}]},"system":"https://bonnie-fhir.healthit.gov/","value":"612e6a8202c62a011f2ea365"}],"active":true,"name":[{"use":"usual","family":"NUMERPass","given":["DA_GSC1DayAFAnes"]}],"gender":"male","birthDate":"1975-01-02"},"request":{"method":"PUT","url":"Patient/4c2e4fec-cf58-4a6e-be40-af9b9e4232c9"}},{"fullUrl":"https://madie.cms.gov/Encounter/ba290ea8-28a8-48d6-b5c7-39c56ff6f1ff","resource":{"resourceType":"Encounter","id":"ba290ea8-28a8-48d6-b5c7-39c56ff6f1ff","meta":{"profile":["http://hl7.org/fhir/us/qicore/StructureDefinition/qicore-encounter"]},"status":"finished","class":{"system":"http://terminology.hl7.org/CodeSystem/v3-ActCode","code":"IMP","display":"inpatient encounter"},"type":[{"coding":[{"system":"http://snomed.info/sct","code":"8715000"}]}],"subject":{"reference":"Patient/4c2e4fec-cf58-4a6e-be40-af9b9e4232c9"},"period":{"start":"2026-11-01T08:00:00+00:00","end":"2026-11-26T08:15:00+00:00"},"length":{"value":25.0,"unit":"days"}},"request":{"method":"PUT","url":"Encounter/ba290ea8-28a8-48d6-b5c7-39c56ff6f1ff"}},{"fullUrl":"https://madie.cms.gov/Coverage/eec7b226-93e6-4184-bd3e-033cf44ae84a","resource":{"resourceType":"Coverage","id":"eec7b226-93e6-4184-bd3e-033cf44ae84a","status":"active","beneficiary":{"reference":"Patient/4c2e4fec-cf58-4a6e-be40-af9b9e4232c9"},"period":{"start":"1975-01-02T08:00:00+00:00"},"payor":[{"reference":"Organization/db141f66-a1cc-407b-9e95-adac27adee14"}]},"request":{"method":"PUT","url":"Coverage/eec7b226-93e6-4184-bd3e-033cf44ae84a"}},{"fullUrl":"https://madie.cms.gov/Procedure/a4a47def-af1c-40cb-970f-7b711732243f","resource":{"resourceType":"Procedure","id":"a4a47def-af1c-40cb-970f-7b711732243f","meta":{"profile":["http://hl7.org/fhir/us/qicore/StructureDefinition/qicore-procedure"]},"extension":[{"url":"http://hl7.org/fhir/us/qicore/StructureDefinition/qicore-recorded","valueDateTime":"2013-11-01T09:35:00-04:00"}],"status":"completed","code":{"coding":[{"system":"http://snomed.info/sct","code":"229511001"}]},"subject":{"reference":"Patient/4c2e4fec-cf58-4a6e-be40-af9b9e4232c9"},"performedPeriod":{"start":"2026-11-02T14:00:00+00:00","end":"2026-11-02T14:15:00+00:00"}},"request":{"method":"PUT","url":"Procedure/a4a47def-af1c-40cb-970f-7b711732243f"}},{"fullUrl":"https://madie.cms.gov/Procedure/c45d5264-4d8d-41e7-9e65-24c3f58a2490","resource":{"resourceType":"Procedure","id":"c45d5264-4d8d-41e7-9e65-24c3f58a2490","meta":{"profile":["http://hl7.org/fhir/us/qicore/StructureDefinition/qicore-procedure"]},"extension":[{"url":"http://hl7.org/fhir/us/qicore/StructureDefinition/qicore-recorded","valueDateTime":"2013-11-01T09:35:00-04:00"}],"status":"completed","code":{"coding":[{"system":"http://snomed.info/sct","code":"18946005"}]},"subject":{"reference":"Patient/4c2e4fec-cf58-4a6e-be40-af9b9e4232c9"},"performedPeriod":{"start":"2026-11-01T09:00:00+00:00","end":"2026-11-01T11:15:00+00:00"}},"request":{"method":"PUT","url":"Procedure/c45d5264-4d8d-41e7-9e65-24c3f58a2490"}},{"fullUrl":"https://madie.cms.gov/Organization/f564f45e-ff11-4ad1-b014-98ba0c18da8c","resource":{"resourceType":"Organization","id":"db141f66-a1cc-407b-9e95-adac27adee14","meta":{"profile":["http://hl7.org/fhir/us/qicore/StructureDefinition/qicore-organization"]},"identifier":[{"use":"temp","system":"urn:oid:2.16.840.1.113883.4.4","value":"21-3259825"}],"active":true,"type":[{"coding":[{"system":"http://terminology.hl7.org/CodeSystem/organization-type","code":"pay","display":"Payer"}]}],"name":"Blue Cross Blue Shield of Texas","telecom":[{"system":"phone","value":"(+1) 972-766-6900"}],"address":[{"use":"billing","type":"postal","line":["P.O. Box 660044"],"city":"Dallas","state":"TX","postalCode":"75266-0044","country":"USA"}]},"request":{"method":"PUT","url":"Organization/db141f66-a1cc-407b-9e95-adac27adee14"}},{"fullUrl":"https://madie.cms.gov/Practitioner/b2485c53-653a-46f8-9cbf-84993906ae4b","resource":{"resourceType":"Practitioner","id":"b2485c53-653a-46f8-9cbf-84993906ae4b","identifier":[{"system":"http://hl7.org/fhir/sid/us-npi","value":"123456"}],"name":[{"family":"Evil","prefix":["Dr"]}]},"request":{"method":"PUT","url":"Practitioner/b2485c53-653a-46f8-9cbf-84993906ae4b"}},{"fullUrl":"https://madie.cms.gov/MeasureReport/c25a03dc-c48d-48ae-ae31-6e66be74d549","resource":{"resourceType":"MeasureReport","id":"c25a03dc-c48d-48ae-ae31-6e66be74d549","meta":{"profile":["http://hl7.org/fhir/us/cqfmeasures/StructureDefinition/test-case-cqfm"]},"contained":[{"resourceType":"Parameters","id":"b99e544a-4d20-44e7-acc1-c34e7f69508e-parameters","parameter":[{"name":"subject","valueString":"4c2e4fec-cf58-4a6e-be40-af9b9e4232c9"}]}],"extension":[{"url":"http://hl7.org/fhir/us/cqfmeasures/StructureDefinition/cqfm-inputParameters","valueReference":{"reference":"#b99e544a-4d20-44e7-acc1-c34e7f69508e-parameters"}},{"url":"http://hl7.org/fhir/us/cqfmeasures/StructureDefinition/cqfm-testCaseDescription","valueMarkdown":"Patient has GCS applied 1 day after anesthesia\n"}],"modifierExtension":[{"url":"http://hl7.org/fhir/us/cqfmeasures/StructureDefinition/cqfm-isTestCase","valueBoolean":true}],"status":"complete","type":"individual","measure":"https://madie.cms.gov/Measure/CMS108VTEProphylaxisFHIR","period":{"start":"2026-01-01","end":"2026-12-31"},"group":[{"population":[{"code":{"coding":[{"system":"http://terminology.hl7.org/CodeSystem/measure-population","code":"initial-population","display":"Initial Population"}]},"count":1},{"code":{"coding":[{"system":"http://terminology.hl7.org/CodeSystem/measure-population","code":"denominator","display":"Denominator"}]},"count":1},{"code":{"coding":[{"system":"http://terminology.hl7.org/CodeSystem/measure-population","code":"denominator-exclusion","display":"Denominator Exclusion"}]},"count":0},{"code":{"coding":[{"system":"http://terminology.hl7.org/CodeSystem/measure-population","code":"numerator","display":"Numerator"}]},"count":1}]}]},"request":{"method":"PUT","url":"MeasureReport/c25a03dc-c48d-48ae-ae31-6e66be74d549"}}]}