{"resourceType":"Bundle","id":"tests-1cc5371c-a4d4-4912-a9be-76d2b31e1edd-bundle","type":"transaction","entry":[{"fullUrl":"https://madie.cms.gov/Patient/1cc5371c-a4d4-4912-a9be-76d2b31e1edd","resource":{"resourceType":"Patient","id":"1cc5371c-a4d4-4912-a9be-76d2b31e1edd","meta":{"profile":["http://hl7.org/fhir/us/qicore/StructureDefinition/qicore-patient"]},"text":{"status":"generated","div":"<div xmlns=\"http://www.w3.org/1999/xhtml\"><div class=\"hapiHeaderText\">VTE_RiskAssess_ED <b>NUMERPASS </b></div><table class=\"hapiPropertyTable\"><tbody><tr><td>Identifier</td><td>a29965ceec8340c6fb3a5567ca0595ba</td></tr><tr><td>Date of birth</td><td><span>02 January 1974</span></td></tr></tbody></table></div>"},"extension":[{"url":"http://hl7.org/fhir/us/core/StructureDefinition/us-core-race","extension":[{"url":"ombCategory","valueCoding":{"system":"urn:oid:2.16.840.1.113883.6.238","code":"1002-5","display":"American Indian or Alaska Native","userSelected":true}},{"url":"text","valueString":"American Indian or Alaska Native"}]},{"url":"http://hl7.org/fhir/us/core/StructureDefinition/us-core-ethnicity","extension":[{"url":"ombCategory","valueCoding":{"system":"urn:oid:2.16.840.1.113883.6.238","code":"2135-2","display":"Hispanic or Latino","userSelected":true}},{"url":"text","valueString":"Hispanic or Latino"}]}],"identifier":[{"type":{"coding":[{"system":"http://terminology.hl7.org/CodeSystem/v2-0203","code":"MR"}]},"system":"https://bonnie-fhir.healthit.gov/","value":"612e6b5a02c62a011f2ed71d"}],"active":true,"name":[{"use":"usual","family":"NUMERPass","given":["VTE_RiskAssess_ED"]}],"gender":"male","birthDate":"1975-01-02"},"request":{"method":"PUT","url":"Patient/1cc5371c-a4d4-4912-a9be-76d2b31e1edd"}},{"fullUrl":"https://madie.cms.gov/Encounter/991a2657-855a-4248-8d7a-f0a19596a4c8","resource":{"resourceType":"Encounter","id":"991a2657-855a-4248-8d7a-f0a19596a4c8","meta":{"profile":["http://hl7.org/fhir/us/qicore/StructureDefinition/qicore-encounter"]},"status":"finished","class":{"system":"http://terminology.hl7.org/CodeSystem/v3-ActCode","code":"EMER","display":"emergency"},"type":[{"coding":[{"system":"http://snomed.info/sct","code":"4525004"}]}],"subject":{"reference":"Patient/1cc5371c-a4d4-4912-a9be-76d2b31e1edd"},"period":{"start":"2026-10-31T23:00:00+00:00","end":"2026-11-01T07:15:00+00:00"},"length":{"value":1.0,"unit":"days"}},"request":{"method":"PUT","url":"Encounter/991a2657-855a-4248-8d7a-f0a19596a4c8"}},{"fullUrl":"https://madie.cms.gov/Encounter/f5ab3b6b-c7ca-479a-b747-3af4863b2ee1","resource":{"resourceType":"Encounter","id":"f5ab3b6b-c7ca-479a-b747-3af4863b2ee1","meta":{"profile":["http://hl7.org/fhir/us/qicore/StructureDefinition/qicore-encounter"]},"status":"finished","class":{"system":"http://terminology.hl7.org/CodeSystem/v3-ActCode","code":"IMP","display":"inpatient encounter"},"type":[{"coding":[{"system":"http://snomed.info/sct","code":"8715000"}]}],"subject":{"reference":"Patient/1cc5371c-a4d4-4912-a9be-76d2b31e1edd"},"period":{"start":"2026-11-01T08:00:00+00:00","end":"2026-11-26T08:15:00+00:00"},"length":{"value":25.0,"unit":"days"}},"request":{"method":"PUT","url":"Encounter/f5ab3b6b-c7ca-479a-b747-3af4863b2ee1"}},{"fullUrl":"https://madie.cms.gov/Observation/bf54d678-227c-46d1-912a-545ebf8488ca","resource":{"resourceType":"Observation","id":"bf54d678-227c-46d1-912a-545ebf8488ca","meta":{"profile":["http://hl7.org/fhir/us/qicore/StructureDefinition/qicore-observation"]},"status":"corrected","category":[{"coding":[{"system":"http://terminology.hl7.org/CodeSystem/observation-category","code":"exam","display":"exam"}]}],"code":{"coding":[{"system":"http://loinc.org","code":"72136-5"}]},"subject":{"reference":"Patient/1cc5371c-a4d4-4912-a9be-76d2b31e1edd"},"effectiveDateTime":"2026-11-01T06:00:00+00:00","valueCodeableConcept":{"coding":[{"system":"http://snomed.info/sct","code":"260362008","display":"Low Risk"}]}},"request":{"method":"PUT","url":"Observation/bf54d678-227c-46d1-912a-545ebf8488ca"}},{"fullUrl":"https://madie.cms.gov/Coverage/cfc882de-4b71-49c5-a1dd-19d463b4b1f7","resource":{"resourceType":"Coverage","id":"cfc882de-4b71-49c5-a1dd-19d463b4b1f7","status":"active","beneficiary":{"reference":"Patient/1cc5371c-a4d4-4912-a9be-76d2b31e1edd"},"period":{"start":"1975-01-02T08:00:00+00:00"},"payor":[{"reference":"Organization/e75793c9-fdf6-463a-8c1d-4ee44320dc25"}]},"request":{"method":"PUT","url":"Coverage/cfc882de-4b71-49c5-a1dd-19d463b4b1f7"}},{"fullUrl":"https://madie.cms.gov/Organization/9863500e-9da8-426e-8d33-2910507f2dae","resource":{"resourceType":"Organization","id":"e75793c9-fdf6-463a-8c1d-4ee44320dc25","meta":{"profile":["http://hl7.org/fhir/us/qicore/StructureDefinition/qicore-organization"]},"identifier":[{"use":"temp","system":"urn:oid:2.16.840.1.113883.4.4","value":"21-3259825"}],"active":true,"type":[{"coding":[{"system":"http://terminology.hl7.org/CodeSystem/organization-type","code":"pay","display":"Payer"}]}],"name":"Blue Cross Blue Shield of Texas","telecom":[{"system":"phone","value":"(+1) 972-766-6900"}],"address":[{"use":"billing","type":"postal","line":["P.O. Box 660044"],"city":"Dallas","state":"TX","postalCode":"75266-0044","country":"USA"}]},"request":{"method":"PUT","url":"Organization/e75793c9-fdf6-463a-8c1d-4ee44320dc25"}},{"fullUrl":"https://madie.cms.gov/Practitioner/bec3d16d-6378-42d2-8bea-2f9610d88fff","resource":{"resourceType":"Practitioner","id":"bec3d16d-6378-42d2-8bea-2f9610d88fff","identifier":[{"system":"http://hl7.org/fhir/sid/us-npi","value":"123456"}],"name":[{"family":"Evil","prefix":["Dr"]}]},"request":{"method":"PUT","url":"Practitioner/bec3d16d-6378-42d2-8bea-2f9610d88fff"}},{"fullUrl":"https://madie.cms.gov/MeasureReport/473f971a-cbb6-4399-9779-c8d1ebb0c7eb","resource":{"resourceType":"MeasureReport","id":"473f971a-cbb6-4399-9779-c8d1ebb0c7eb","meta":{"profile":["http://hl7.org/fhir/us/cqfmeasures/StructureDefinition/test-case-cqfm"]},"contained":[{"resourceType":"Parameters","id":"6125c31c-8667-4d67-8cff-206e50160bd0-parameters","parameter":[{"name":"subject","valueString":"1cc5371c-a4d4-4912-a9be-76d2b31e1edd"}]}],"extension":[{"url":"http://hl7.org/fhir/us/cqfmeasures/StructureDefinition/cqfm-inputParameters","valueReference":{"reference":"#6125c31c-8667-4d67-8cff-206e50160bd0-parameters"}},{"url":"http://hl7.org/fhir/us/cqfmeasures/StructureDefinition/cqfm-testCaseDescription","valueMarkdown":">18, LOS<120 day, VTE Risk Assess during ED\n"}],"modifierExtension":[{"url":"http://hl7.org/fhir/us/cqfmeasures/StructureDefinition/cqfm-isTestCase","valueBoolean":true}],"status":"complete","type":"individual","measure":"https://madie.cms.gov/Measure/CMS108VTEProphylaxisFHIR","period":{"start":"2026-01-01","end":"2026-12-31"},"group":[{"population":[{"code":{"coding":[{"system":"http://terminology.hl7.org/CodeSystem/measure-population","code":"initial-population","display":"Initial Population"}]},"count":1},{"code":{"coding":[{"system":"http://terminology.hl7.org/CodeSystem/measure-population","code":"denominator","display":"Denominator"}]},"count":1},{"code":{"coding":[{"system":"http://terminology.hl7.org/CodeSystem/measure-population","code":"denominator-exclusion","display":"Denominator Exclusion"}]},"count":0},{"code":{"coding":[{"system":"http://terminology.hl7.org/CodeSystem/measure-population","code":"numerator","display":"Numerator"}]},"count":1}]}]},"request":{"method":"PUT","url":"MeasureReport/473f971a-cbb6-4399-9779-c8d1ebb0c7eb"}}]}