{"resourceType":"Bundle","id":"tests-f546eaac-8f7c-4325-ae6a-af049231ef5f-bundle","type":"transaction","entry":[{"fullUrl":"https://madie.cms.gov/Patient/f546eaac-8f7c-4325-ae6a-af049231ef5f","resource":{"resourceType":"Patient","id":"f546eaac-8f7c-4325-ae6a-af049231ef5f","meta":{"profile":["http://hl7.org/fhir/us/qicore/StructureDefinition/qicore-patient"]},"text":{"status":"generated","div":"<div xmlns=\"http://www.w3.org/1999/xhtml\"><div class=\"hapiHeaderText\">MA_LDUHep1DayAfAnes_MedAdmRvltDT <b>NUMERPASS </b></div><table class=\"hapiPropertyTable\"><tbody><tr><td>Identifier</td><td>8a33d2769a6bdab7ccc20de0552fc909</td></tr><tr><td>Date of birth</td><td><span>02 January 1974</span></td></tr></tbody></table></div>"},"extension":[{"url":"http://hl7.org/fhir/us/core/StructureDefinition/us-core-race","extension":[{"url":"ombCategory","valueCoding":{"system":"urn:oid:2.16.840.1.113883.6.238","code":"1002-5","display":"American Indian or Alaska Native","userSelected":true}},{"url":"text","valueString":"American Indian or Alaska Native"}]},{"url":"http://hl7.org/fhir/us/core/StructureDefinition/us-core-ethnicity","extension":[{"url":"ombCategory","valueCoding":{"system":"urn:oid:2.16.840.1.113883.6.238","code":"2135-2","display":"Hispanic or Latino","userSelected":true}},{"url":"text","valueString":"Hispanic or Latino"}]}],"identifier":[{"type":{"coding":[{"system":"http://terminology.hl7.org/CodeSystem/v2-0203","code":"MR"}]},"system":"https://bonnie-fhir.healthit.gov/","value":"612e6a8b02c62a011f2ea4e5"}],"active":true,"name":[{"use":"usual","family":"NUMERPass","given":["MA_LDUHep1DayAfAnes_MedAdmRvltDT"]}],"gender":"male","birthDate":"1975-01-02"},"request":{"method":"PUT","url":"Patient/f546eaac-8f7c-4325-ae6a-af049231ef5f"}},{"fullUrl":"https://madie.cms.gov/Encounter/04922446-d449-43d8-8464-6f25b593c210","resource":{"resourceType":"Encounter","id":"04922446-d449-43d8-8464-6f25b593c210","meta":{"profile":["http://hl7.org/fhir/us/qicore/StructureDefinition/qicore-encounter"]},"status":"finished","class":{"system":"http://terminology.hl7.org/CodeSystem/v3-ActCode","code":"IMP","display":"inpatient encounter"},"type":[{"coding":[{"system":"http://snomed.info/sct","code":"8715000"}]}],"subject":{"reference":"Patient/f546eaac-8f7c-4325-ae6a-af049231ef5f"},"period":{"start":"2026-11-01T08:00:00+00:00","end":"2026-11-26T08:15:00+00:00"},"length":{"value":25,"unit":"days"}},"request":{"method":"PUT","url":"Encounter/04922446-d449-43d8-8464-6f25b593c210"}},{"fullUrl":"https://madie.cms.gov/Coverage/4cd51596-8c1c-4248-9a62-7cf830ae8d8c","resource":{"resourceType":"Coverage","id":"4cd51596-8c1c-4248-9a62-7cf830ae8d8c","status":"active","beneficiary":{"reference":"Patient/f546eaac-8f7c-4325-ae6a-af049231ef5f"},"period":{"start":"1975-01-02T08:00:00+00:00"},"payor":[{"reference":"Organization/db141f66-a1cc-407b-9e95-adac27adee14"}]},"request":{"method":"PUT","url":"Coverage/4cd51596-8c1c-4248-9a62-7cf830ae8d8c"}},{"fullUrl":"https://madie.cms.gov/MedicationAdministration/f093d028-ee59-4082-9bec-f316a0dc4160","resource":{"resourceType":"MedicationAdministration","id":"f093d028-ee59-4082-9bec-f316a0dc4160","meta":{"profile":["http://hl7.org/fhir/us/qicore/StructureDefinition/qicore-medicationadministration"]},"status":"completed","medicationCodeableConcept":{"coding":[{"system":"http://www.nlm.nih.gov/research/umls/rxnorm","code":"1361574"}]},"subject":{"reference":"Patient/f546eaac-8f7c-4325-ae6a-af049231ef5f"},"effectiveDateTime":"2026-11-03T10:00:00+00:00","dosage":{"route":{"coding":[{"system":"http://snomed.info/sct","code":"34206005","display":"Subcutaneous route"}]},"dose":{"value":20000,"unit":"UNT/ML","system":"http://unitsofmeasure.org","code":"ML"}}},"request":{"method":"PUT","url":"MedicationAdministration/f093d028-ee59-4082-9bec-f316a0dc4160"}},{"fullUrl":"https://madie.cms.gov/Procedure/d0428599-af14-44a3-be31-ae065957fbab","resource":{"resourceType":"Procedure","id":"d0428599-af14-44a3-be31-ae065957fbab","meta":{"profile":["http://hl7.org/fhir/us/qicore/StructureDefinition/qicore-procedure"]},"extension":[{"url":"http://hl7.org/fhir/us/qicore/StructureDefinition/qicore-recorded","valueDateTime":"2013-11-02T09:35:00-04:00"}],"status":"completed","code":{"coding":[{"system":"http://www.icd10data.com/icd10pcs","code":"3E030FZ"},{"system":"http://snomed.info/sct","code":"18946005"}]},"subject":{"reference":"Patient/f546eaac-8f7c-4325-ae6a-af049231ef5f"},"performedPeriod":{"start":"2026-11-02T09:00:00+00:00","end":"2026-11-02T09:15:00+00:00"}},"request":{"method":"PUT","url":"Procedure/d0428599-af14-44a3-be31-ae065957fbab"}},{"fullUrl":"https://madie.cms.gov/Organization/df025f78-e6ab-4454-a817-96d9b7da0580","resource":{"resourceType":"Organization","id":"db141f66-a1cc-407b-9e95-adac27adee14","meta":{"profile":["http://hl7.org/fhir/us/qicore/StructureDefinition/qicore-organization"]},"identifier":[{"use":"temp","system":"urn:oid:2.16.840.1.113883.4.4","value":"21-3259825"}],"active":true,"type":[{"coding":[{"system":"http://terminology.hl7.org/CodeSystem/organization-type","code":"pay","display":"Payer"}]}],"name":"Blue Cross Blue Shield of Texas","telecom":[{"system":"phone","value":"(+1) 972-766-6900"}],"address":[{"use":"billing","type":"postal","line":["P.O. Box 660044"],"city":"Dallas","state":"TX","postalCode":"75266-0044","country":"USA"}]},"request":{"method":"PUT","url":"Organization/db141f66-a1cc-407b-9e95-adac27adee14"}},{"fullUrl":"https://madie.cms.gov/Practitioner/29963572-a23d-4699-9ce2-c6d3c024e2be","resource":{"resourceType":"Practitioner","id":"29963572-a23d-4699-9ce2-c6d3c024e2be","identifier":[{"system":"http://hl7.org/fhir/sid/us-npi","value":"123456"}],"name":[{"family":"Evil","prefix":["Dr"]}]},"request":{"method":"PUT","url":"Practitioner/29963572-a23d-4699-9ce2-c6d3c024e2be"}},{"fullUrl":"https://madie.cms.gov/MeasureReport/a6406c3a-d340-4457-8257-db052653f737","resource":{"resourceType":"MeasureReport","id":"a6406c3a-d340-4457-8257-db052653f737","meta":{"profile":["http://hl7.org/fhir/us/cqfmeasures/StructureDefinition/test-case-cqfm"]},"contained":[{"resourceType":"Parameters","id":"3207794e-97b0-49c2-b5b3-d3b8d5114512-parameters","parameter":[{"name":"subject","valueString":"f546eaac-8f7c-4325-ae6a-af049231ef5f"}]}],"extension":[{"url":"http://hl7.org/fhir/us/cqfmeasures/StructureDefinition/cqfm-inputParameters","valueReference":{"reference":"#3207794e-97b0-49c2-b5b3-d3b8d5114512-parameters"}},{"url":"http://hl7.org/fhir/us/cqfmeasures/StructureDefinition/cqfm-testCaseDescription","valueMarkdown":"low dose SQ heparin as relevant datetime after 1 day of Aneth\n"}],"modifierExtension":[{"url":"http://hl7.org/fhir/us/cqfmeasures/StructureDefinition/cqfm-isTestCase","valueBoolean":true}],"status":"complete","type":"individual","measure":"https://madie.cms.gov/Measure/CMS108VTEProphylaxisFHIR","period":{"start":"2026-01-01","end":"2026-12-31"},"group":[{"population":[{"code":{"coding":[{"system":"http://terminology.hl7.org/CodeSystem/measure-population","code":"initial-population","display":"Initial Population"}]},"count":1},{"code":{"coding":[{"system":"http://terminology.hl7.org/CodeSystem/measure-population","code":"denominator","display":"Denominator"}]},"count":1},{"code":{"coding":[{"system":"http://terminology.hl7.org/CodeSystem/measure-population","code":"denominator-exclusion","display":"Denominator Exclusion"}]},"count":0},{"code":{"coding":[{"system":"http://terminology.hl7.org/CodeSystem/measure-population","code":"numerator","display":"Numerator"}]},"count":1}]}]},"request":{"method":"PUT","url":"MeasureReport/a6406c3a-d340-4457-8257-db052653f737"}}]}