{"resourceType":"Bundle","id":"tests-9b925e9e-1c3a-4e98-b156-0583323e2d6e-bundle","type":"transaction","entry":[{"fullUrl":"https://madie.cms.gov/Patient/9b925e9e-1c3a-4e98-b156-0583323e2d6e","resource":{"resourceType":"Patient","id":"9b925e9e-1c3a-4e98-b156-0583323e2d6e","meta":{"profile":["http://hl7.org/fhir/us/qicore/StructureDefinition/qicore-patient"]},"text":{"status":"generated","div":"<div xmlns=\"http://www.w3.org/1999/xhtml\"><div class=\"hapiHeaderText\">CMODuringObs_ObsLT1hrBFAdm <b>DENEXPASS </b></div><table class=\"hapiPropertyTable\"><tbody><tr><td>Identifier</td><td>79af097064c6371feea556bf7ba54a281c2e37b325b6be388a0f5af53c958415</td></tr><tr><td>Date of birth</td><td><span>02 January 1974</span></td></tr></tbody></table></div>"},"extension":[{"url":"http://hl7.org/fhir/us/core/StructureDefinition/us-core-race","extension":[{"url":"ombCategory","valueCoding":{"system":"urn:oid:2.16.840.1.113883.6.238","code":"1002-5","display":"American Indian or Alaska Native","userSelected":true}},{"url":"text","valueString":"American Indian or Alaska Native"}]},{"url":"http://hl7.org/fhir/us/core/StructureDefinition/us-core-ethnicity","extension":[{"url":"ombCategory","valueCoding":{"system":"urn:oid:2.16.840.1.113883.6.238","code":"2135-2","display":"Hispanic or Latino","userSelected":true}},{"url":"text","valueString":"Hispanic or Latino"}]}],"identifier":[{"type":{"coding":[{"system":"http://terminology.hl7.org/CodeSystem/v2-0203","code":"MR"}]},"system":"https://bonnie-fhir.healthit.gov/","value":"612e6adf02c62a011f2eb8ab"}],"active":true,"name":[{"use":"usual","family":"DENEXPass","given":["CMODuringObs_ObsLT1hrBFAdm"]}],"gender":"male","birthDate":"1975-01-02"},"request":{"method":"PUT","url":"Patient/9b925e9e-1c3a-4e98-b156-0583323e2d6e"}},{"fullUrl":"https://madie.cms.gov/Encounter/8ecff9ac-072b-4893-b67d-1fa8c9d8f6b3","resource":{"resourceType":"Encounter","id":"8ecff9ac-072b-4893-b67d-1fa8c9d8f6b3","meta":{"profile":["http://hl7.org/fhir/us/qicore/StructureDefinition/qicore-encounter"]},"status":"finished","class":{"system":"http://terminology.hl7.org/CodeSystem/v3-ActCode","code":"EMER","display":"emergency"},"type":[{"coding":[{"system":"http://snomed.info/sct","code":"4525004"}]}],"subject":{"reference":"Patient/9b925e9e-1c3a-4e98-b156-0583323e2d6e"},"period":{"start":"2026-10-30T08:00:00+00:00","end":"2026-11-01T07:15:00+00:00"},"length":{"value":2.0,"unit":"days"}},"request":{"method":"PUT","url":"Encounter/8ecff9ac-072b-4893-b67d-1fa8c9d8f6b3"}},{"fullUrl":"https://madie.cms.gov/Encounter/6d8f5936-9a90-49e1-97a8-cc463e8a871a","resource":{"resourceType":"Encounter","id":"6d8f5936-9a90-49e1-97a8-cc463e8a871a","meta":{"profile":["http://hl7.org/fhir/us/qicore/StructureDefinition/qicore-encounter"]},"status":"finished","class":{"system":"http://terminology.hl7.org/CodeSystem/v3-ActCode","code":"IMP","display":"inpatient encounter"},"type":[{"coding":[{"system":"http://snomed.info/sct","code":"8715000"}]}],"subject":{"reference":"Patient/9b925e9e-1c3a-4e98-b156-0583323e2d6e"},"period":{"start":"2026-11-01T10:00:00+00:00","end":"2026-11-26T08:15:00+00:00"},"length":{"value":25.0,"unit":"days"}},"request":{"method":"PUT","url":"Encounter/6d8f5936-9a90-49e1-97a8-cc463e8a871a"}},{"fullUrl":"https://madie.cms.gov/Encounter/652887b7-af27-48a6-a9ba-d48fdae2d47c","resource":{"resourceType":"Encounter","id":"652887b7-af27-48a6-a9ba-d48fdae2d47c","meta":{"profile":["http://hl7.org/fhir/us/qicore/StructureDefinition/qicore-encounter"]},"status":"finished","class":{"system":"http://terminology.hl7.org/CodeSystem/v3-ActCode","code":"OBSENC","display":"observation encounter"},"type":[{"coding":[{"system":"http://snomed.info/sct","code":"448951000124107"}]}],"subject":{"reference":"Patient/9b925e9e-1c3a-4e98-b156-0583323e2d6e"},"period":{"start":"2026-11-01T07:15:00+00:00","end":"2026-11-01T09:15:00+00:00"}},"request":{"method":"PUT","url":"Encounter/652887b7-af27-48a6-a9ba-d48fdae2d47c"}},{"fullUrl":"https://madie.cms.gov/ServiceRequest/3abe7bb5-7e0a-4d32-819f-20b27ce22500","resource":{"resourceType":"ServiceRequest","id":"3abe7bb5-7e0a-4d32-819f-20b27ce22500","meta":{"profile":["http://hl7.org/fhir/us/qicore/StructureDefinition/qicore-servicerequest"]},"status":"completed","intent":"order","code":{"coding":[{"system":"http://snomed.info/sct","code":"133918004"}]},"subject":{"reference":"Patient/9b925e9e-1c3a-4e98-b156-0583323e2d6e"},"authoredOn":"2026-11-01T08:00:00+00:00"},"request":{"method":"PUT","url":"ServiceRequest/3abe7bb5-7e0a-4d32-819f-20b27ce22500"}},{"fullUrl":"https://madie.cms.gov/Coverage/f8c36ece-d941-42a4-ae20-57ed89d2c2d1","resource":{"resourceType":"Coverage","id":"f8c36ece-d941-42a4-ae20-57ed89d2c2d1","status":"active","beneficiary":{"reference":"Patient/9b925e9e-1c3a-4e98-b156-0583323e2d6e"},"period":{"start":"1975-01-02T08:00:00+00:00"},"payor":[{"reference":"Organization/e75793c9-fdf6-463a-8c1d-4ee44320dc25"}]},"request":{"method":"PUT","url":"Coverage/f8c36ece-d941-42a4-ae20-57ed89d2c2d1"}},{"fullUrl":"https://madie.cms.gov/Organization/9b7d2a97-7550-4399-9ef1-4412a143c67e","resource":{"resourceType":"Organization","id":"e75793c9-fdf6-463a-8c1d-4ee44320dc25","meta":{"profile":["http://hl7.org/fhir/us/qicore/StructureDefinition/qicore-organization"]},"identifier":[{"use":"temp","system":"urn:oid:2.16.840.1.113883.4.4","value":"21-3259825"}],"active":true,"type":[{"coding":[{"system":"http://terminology.hl7.org/CodeSystem/organization-type","code":"pay","display":"Payer"}]}],"name":"Blue Cross Blue Shield of Texas","telecom":[{"system":"phone","value":"(+1) 972-766-6900"}],"address":[{"use":"billing","type":"postal","line":["P.O. Box 660044"],"city":"Dallas","state":"TX","postalCode":"75266-0044","country":"USA"}]},"request":{"method":"PUT","url":"Organization/e75793c9-fdf6-463a-8c1d-4ee44320dc25"}},{"fullUrl":"https://madie.cms.gov/Practitioner/69450824-77af-4f15-8adb-64e6ac52f283","resource":{"resourceType":"Practitioner","id":"69450824-77af-4f15-8adb-64e6ac52f283","identifier":[{"system":"http://hl7.org/fhir/sid/us-npi","value":"123456"}],"name":[{"family":"Evil","prefix":["Dr"]}]},"request":{"method":"PUT","url":"Practitioner/69450824-77af-4f15-8adb-64e6ac52f283"}},{"fullUrl":"https://madie.cms.gov/MeasureReport/6aaa6c73-edd7-4029-bafd-6ae1b70c5fe6","resource":{"resourceType":"MeasureReport","id":"6aaa6c73-edd7-4029-bafd-6ae1b70c5fe6","meta":{"profile":["http://hl7.org/fhir/us/cqfmeasures/StructureDefinition/test-case-cqfm"]},"contained":[{"resourceType":"Parameters","id":"c02e0a26-acee-4c6f-8f3e-c8704afbd77e-parameters","parameter":[{"name":"subject","valueString":"9b925e9e-1c3a-4e98-b156-0583323e2d6e"}]}],"extension":[{"url":"http://hl7.org/fhir/us/cqfmeasures/StructureDefinition/cqfm-inputParameters","valueReference":{"reference":"#c02e0a26-acee-4c6f-8f3e-c8704afbd77e-parameters"}},{"url":"http://hl7.org/fhir/us/cqfmeasures/StructureDefinition/cqfm-testCaseDescription","valueMarkdown":"CMO occurs in Observation that OB ends <1 hour before Adm. But this case pass because it is on the same day as adm date\n"}],"modifierExtension":[{"url":"http://hl7.org/fhir/us/cqfmeasures/StructureDefinition/cqfm-isTestCase","valueBoolean":true}],"status":"complete","type":"individual","measure":"https://madie.cms.gov/Measure/CMS108VTEProphylaxisFHIR","period":{"start":"2026-01-01","end":"2026-12-31"},"group":[{"population":[{"code":{"coding":[{"system":"http://terminology.hl7.org/CodeSystem/measure-population","code":"initial-population","display":"Initial Population"}]},"count":1},{"code":{"coding":[{"system":"http://terminology.hl7.org/CodeSystem/measure-population","code":"denominator","display":"Denominator"}]},"count":1},{"code":{"coding":[{"system":"http://terminology.hl7.org/CodeSystem/measure-population","code":"denominator-exclusion","display":"Denominator Exclusion"}]},"count":1},{"code":{"coding":[{"system":"http://terminology.hl7.org/CodeSystem/measure-population","code":"numerator","display":"Numerator"}]},"count":0}]}]},"request":{"method":"PUT","url":"MeasureReport/6aaa6c73-edd7-4029-bafd-6ae1b70c5fe6"}}]}