{"resourceType":"Bundle","id":"tests-1f59fbfd-286a-4d4e-bd11-17769e86e872-bundle","type":"transaction","entry":[{"fullUrl":"https://madie.cms.gov/Patient/1f59fbfd-286a-4d4e-bd11-17769e86e872","resource":{"resourceType":"Patient","id":"1f59fbfd-286a-4d4e-bd11-17769e86e872","meta":{"profile":["http://hl7.org/fhir/us/qicore/StructureDefinition/qicore-patient"]},"text":{"status":"generated","div":"<div xmlns=\"http://www.w3.org/1999/xhtml\"><div class=\"hapiHeaderText\">CMPerfRvltStartNULLEndDayAfAdm <b>DENEXFAIL </b></div><table class=\"hapiPropertyTable\"><tbody><tr><td>Identifier</td><td>8e120c670e34f79f329b985203cc966e</td></tr><tr><td>Date of birth</td><td><span>02 January 1974</span></td></tr></tbody></table></div>"},"extension":[{"url":"http://hl7.org/fhir/us/core/StructureDefinition/us-core-race","extension":[{"url":"ombCategory","valueCoding":{"system":"urn:oid:2.16.840.1.113883.6.238","code":"1002-5","display":"American Indian or Alaska Native","userSelected":true}},{"url":"text","valueString":"American Indian or Alaska Native"}]},{"url":"http://hl7.org/fhir/us/core/StructureDefinition/us-core-ethnicity","extension":[{"url":"ombCategory","valueCoding":{"system":"urn:oid:2.16.840.1.113883.6.238","code":"2135-2","display":"Hispanic or Latino","userSelected":true}},{"url":"text","valueString":"Hispanic or Latino"}]}],"identifier":[{"type":{"coding":[{"system":"http://terminology.hl7.org/CodeSystem/v2-0203","code":"MR"}]},"system":"https://bonnie-fhir.healthit.gov/","value":"612e6b2002c62a011f2ec907"}],"active":true,"name":[{"use":"usual","family":"DENEXFail","given":["CMPerfRvltStartNULLEndDayAfAdm"]}],"gender":"male","birthDate":"1975-01-02"},"request":{"method":"PUT","url":"Patient/1f59fbfd-286a-4d4e-bd11-17769e86e872"}},{"fullUrl":"https://madie.cms.gov/Encounter/09b646fa-a04c-4975-9312-0611ebbad617","resource":{"resourceType":"Encounter","id":"09b646fa-a04c-4975-9312-0611ebbad617","meta":{"profile":["http://hl7.org/fhir/us/qicore/StructureDefinition/qicore-encounter"]},"status":"finished","class":{"system":"http://terminology.hl7.org/CodeSystem/v3-ActCode","code":"IMP","display":"inpatient encounter"},"type":[{"coding":[{"system":"http://snomed.info/sct","code":"8715000"}]}],"subject":{"reference":"Patient/1f59fbfd-286a-4d4e-bd11-17769e86e872"},"period":{"start":"2026-11-01T08:00:00+00:00","end":"2026-11-26T08:15:00+00:00"},"length":{"value":25.0,"unit":"days"}},"request":{"method":"PUT","url":"Encounter/09b646fa-a04c-4975-9312-0611ebbad617"}},{"fullUrl":"https://madie.cms.gov/Procedure/ad8ebc7f-8ffe-432e-8097-3c8e508a0fbb","resource":{"resourceType":"Procedure","id":"ad8ebc7f-8ffe-432e-8097-3c8e508a0fbb","meta":{"profile":["http://hl7.org/fhir/us/qicore/StructureDefinition/qicore-procedure"]},"extension":[{"url":"http://hl7.org/fhir/us/qicore/StructureDefinition/qicore-recorded","valueDateTime":"2013-12-04T09:35:00-04:00"}],"status":"completed","code":{"coding":[{"system":"http://snomed.info/sct","code":"133918004"}]},"subject":{"reference":"Patient/1f59fbfd-286a-4d4e-bd11-17769e86e872"},"performedPeriod":{"end":"2026-11-02T08:15:00+00:00"}},"request":{"method":"PUT","url":"Procedure/ad8ebc7f-8ffe-432e-8097-3c8e508a0fbb"}},{"fullUrl":"https://madie.cms.gov/Coverage/03e22798-b3f7-4e94-8b7f-00a5fea3ec80","resource":{"resourceType":"Coverage","id":"03e22798-b3f7-4e94-8b7f-00a5fea3ec80","status":"active","beneficiary":{"reference":"Patient/1f59fbfd-286a-4d4e-bd11-17769e86e872"},"period":{"start":"1975-01-02T08:00:00+00:00"},"payor":[{"reference":"Organization/3e899f33-84eb-4634-a770-a5a0bd7a80e7"}]},"request":{"method":"PUT","url":"Coverage/03e22798-b3f7-4e94-8b7f-00a5fea3ec80"}},{"fullUrl":"https://madie.cms.gov/Organization/603ee193-2148-4580-a383-3df78e393302","resource":{"resourceType":"Organization","id":"3e899f33-84eb-4634-a770-a5a0bd7a80e7","meta":{"profile":["http://hl7.org/fhir/us/qicore/StructureDefinition/qicore-organization"]},"identifier":[{"use":"temp","system":"urn:oid:2.16.840.1.113883.4.4","value":"21-3259825"}],"active":true,"type":[{"coding":[{"system":"http://terminology.hl7.org/CodeSystem/organization-type","code":"pay","display":"Payer"}]}],"name":"Blue Cross Blue Shield of Texas","telecom":[{"system":"phone","value":"(+1) 972-766-6900"}],"address":[{"use":"billing","type":"postal","line":["P.O. Box 660044"],"city":"Dallas","state":"TX","postalCode":"75266-0044","country":"USA"}]},"request":{"method":"PUT","url":"Organization/3e899f33-84eb-4634-a770-a5a0bd7a80e7"}},{"fullUrl":"https://madie.cms.gov/Practitioner/f7f6a3cc-23cc-4e50-83e5-1f7ad33ee902","resource":{"resourceType":"Practitioner","id":"f7f6a3cc-23cc-4e50-83e5-1f7ad33ee902","identifier":[{"system":"http://hl7.org/fhir/sid/us-npi","value":"123456"}],"name":[{"family":"Evil","prefix":["Dr"]}]},"request":{"method":"PUT","url":"Practitioner/f7f6a3cc-23cc-4e50-83e5-1f7ad33ee902"}},{"fullUrl":"https://madie.cms.gov/MeasureReport/8e8caa4d-116f-418b-bc4e-07e7f44ecd48","resource":{"resourceType":"MeasureReport","id":"8e8caa4d-116f-418b-bc4e-07e7f44ecd48","meta":{"profile":["http://hl7.org/fhir/us/cqfmeasures/StructureDefinition/test-case-cqfm"]},"contained":[{"resourceType":"Parameters","id":"9e37b773-fa38-4447-a805-fc2a9631b03a-parameters","parameter":[{"name":"subject","valueString":"1f59fbfd-286a-4d4e-bd11-17769e86e872"}]}],"extension":[{"url":"http://hl7.org/fhir/us/cqfmeasures/StructureDefinition/cqfm-inputParameters","valueReference":{"reference":"#9e37b773-fa38-4447-a805-fc2a9631b03a-parameters"}},{"url":"http://hl7.org/fhir/us/cqfmeasures/StructureDefinition/cqfm-testCaseDescription","valueMarkdown":"comfort measures performed relevantPeriod start is null. end with day after IP encounter start\n"}],"modifierExtension":[{"url":"http://hl7.org/fhir/us/cqfmeasures/StructureDefinition/cqfm-isTestCase","valueBoolean":true}],"status":"complete","type":"individual","measure":"https://madie.cms.gov/Measure/CMS108VTEProphylaxisFHIR","period":{"start":"2026-01-01","end":"2026-12-31"},"group":[{"population":[{"code":{"coding":[{"system":"http://terminology.hl7.org/CodeSystem/measure-population","code":"initial-population","display":"Initial Population"}]},"count":1},{"code":{"coding":[{"system":"http://terminology.hl7.org/CodeSystem/measure-population","code":"denominator","display":"Denominator"}]},"count":1},{"code":{"coding":[{"system":"http://terminology.hl7.org/CodeSystem/measure-population","code":"denominator-exclusion","display":"Denominator Exclusion"}]},"count":0},{"code":{"coding":[{"system":"http://terminology.hl7.org/CodeSystem/measure-population","code":"numerator","display":"Numerator"}]},"count":0}]}]},"request":{"method":"PUT","url":"MeasureReport/8e8caa4d-116f-418b-bc4e-07e7f44ecd48"}}]}