{"resourceType":"Bundle","id":"tests-2899457d-5309-43e4-a7f0-a4ff34276b9d-bundle","type":"transaction","entry":[{"fullUrl":"https://madie.cms.gov/Patient/2899457d-5309-43e4-a7f0-a4ff34276b9d","resource":{"resourceType":"Patient","id":"2899457d-5309-43e4-a7f0-a4ff34276b9d","meta":{"profile":["http://hl7.org/fhir/us/qicore/StructureDefinition/qicore-patient"]},"text":{"status":"generated","div":"<div xmlns=\"http://www.w3.org/1999/xhtml\"><div class=\"hapiHeaderText\">DAVFPDayOfICUWICULOSEQ0Day<b>NUMERPASS </b></div><table class=\"hapiPropertyTable\"><tbody><tr><td>Identifier</td><td>f9dd0d7a6a9f775928ab2c47f31bfdd50dfc6c91e6f0b0e678b3985354333a28</td></tr><tr><td>Date of birth</td><td><span>03 March 1974</span></td></tr></tbody></table></div>"},"extension":[{"url":"http://hl7.org/fhir/us/core/StructureDefinition/us-core-race","extension":[{"url":"ombCategory","valueCoding":{"system":"urn:oid:2.16.840.1.113883.6.238","code":"1002-5","display":"American Indian or Alaska Native","userSelected":true}},{"url":"text","valueString":"American Indian or Alaska Native"}]},{"url":"http://hl7.org/fhir/us/core/StructureDefinition/us-core-ethnicity","extension":[{"url":"ombCategory","valueCoding":{"system":"urn:oid:2.16.840.1.113883.6.238","code":"2135-2","display":"Hispanic or Latino","userSelected":true}},{"url":"text","valueString":"Hispanic or Latino"}]}],"identifier":[{"type":{"coding":[{"system":"http://terminology.hl7.org/CodeSystem/v2-0203","code":"MR"}]},"system":"https://bonnie-fhir.healthit.gov/","value":"612e6f6e02c62a011f2f1d45"}],"active":true,"name":[{"use":"usual","family":"NUMERPass","given":["DAVFPDayOfICUWICULOSEQ0Day"]}],"gender":"female","birthDate":"1975-03-03"},"request":{"method":"PUT","url":"Patient/2899457d-5309-43e4-a7f0-a4ff34276b9d"}},{"fullUrl":"https://madie.cms.gov/Encounter/5b733130-2b58-4acd-a192-3c88927a40cb","resource":{"resourceType":"Encounter","id":"5b733130-2b58-4acd-a192-3c88927a40cb","meta":{"profile":["http://hl7.org/fhir/us/qicore/StructureDefinition/qicore-encounter"]},"status":"finished","class":{"system":"http://terminology.hl7.org/CodeSystem/v3-ActCode","code":"IMP","display":"inpatient encounter"},"type":[{"coding":[{"system":"http://snomed.info/sct","code":"183452005"}]}],"subject":{"reference":"Patient/2899457d-5309-43e4-a7f0-a4ff34276b9d"},"period":{"start":"2026-03-22T08:00:00+00:00","end":"2026-03-26T08:15:00+00:00"},"length":{"value":4,"unit":"days"},"location":[{"location":{"reference":"Location/24641f0d-f550-4314-bd59-7c99c23a815c"},"period":{"start":"2026-03-22T08:15:00.000+00:00","end":"2026-03-22T19:00:00.000+00:00"}}]},"request":{"method":"PUT","url":"Encounter/5b733130-2b58-4acd-a192-3c88927a40cb"}},{"fullUrl":"https://madie.cms.gov/Coverage/142b708f-3e98-4103-a8d7-9faa2824dc75","resource":{"resourceType":"Coverage","id":"142b708f-3e98-4103-a8d7-9faa2824dc75","status":"active","beneficiary":{"reference":"Patient/2899457d-5309-43e4-a7f0-a4ff34276b9d"},"period":{"start":"1975-03-03T08:00:00+00:00"},"payor":[{"reference":"Organization/e75793c9-fdf6-463a-8c1d-4ee44320dc25"}]},"request":{"method":"PUT","url":"Coverage/142b708f-3e98-4103-a8d7-9faa2824dc75"}},{"fullUrl":"https://madie.cms.gov/Location/24641f0d-f550-4314-bd59-7c99c23a815c","resource":{"resourceType":"Location","id":"24641f0d-f550-4314-bd59-7c99c23a815c","meta":{"profile":["http://hl7.org/fhir/us/qicore/StructureDefinition/qicore-location"]},"identifier":[{"use":"usual","system":"http://exampleoflocation.com","value":"B1-S.F2"}],"name":"Medical Surgical East, first floor","type":[{"coding":[{"system":"https://www.cdc.gov/nhsn/cdaportal/terminology/codesystem/hsloc.html","code":"1025-6","display":"Trauma Critical Care","userSelected":true}]}]},"request":{"method":"PUT","url":"Location/24641f0d-f550-4314-bd59-7c99c23a815c"}},{"fullUrl":"https://madie.cms.gov/Location/253e0c60-d446-4bc9-a19b-1f1cedafaaa6","resource":{"resourceType":"Location","id":"253e0c60-d446-4bc9-a19b-1f1cedafaaa6","meta":{"profile":["http://hl7.org/fhir/us/qicore/StructureDefinition/qicore-location"]},"identifier":[{"use":"usual","system":"http://exampleoflocation.com","value":"B1-S.F2"}],"name":"Medical Surgical East, first floor","type":[{"coding":[{"system":"https://www.cdc.gov/nhsn/cdaportal/terminology/codesystem/hsloc.html","code":"1025-6","display":"Trauma Critical Care","userSelected":true}]}]},"request":{"method":"PUT","url":"Location/253e0c60-d446-4bc9-a19b-1f1cedafaaa6"}},{"fullUrl":"https://madie.cms.gov/Procedure/77895231-193b-435b-8904-0967b49874b9","resource":{"resourceType":"Procedure","id":"77895231-193b-435b-8904-0967b49874b9","meta":{"profile":["http://hl7.org/fhir/us/qicore/StructureDefinition/qicore-procedure"]},"extension":[{"url":"http://hl7.org/fhir/us/qicore/StructureDefinition/qicore-recorded","valueDateTime":"2026-03-26T09:35:00-04:00"}],"status":"completed","code":{"coding":[{"system":"http://snomed.info/sct","code":"424831005","display":"Application of foot pump (procedure)"}]},"subject":{"reference":"Patient/2899457d-5309-43e4-a7f0-a4ff34276b9d"},"performedPeriod":{"start":"2026-03-22T08:20:00.000+00:00","end":"2026-03-22T08:25:00.000+00:00"}},"request":{"method":"PUT","url":"Procedure/77895231-193b-435b-8904-0967b49874b9"}},{"fullUrl":"https://madie.cms.gov/Organization/5de6cd6e-53dd-4728-a3ac-ad5c260d2e11","resource":{"resourceType":"Organization","id":"e75793c9-fdf6-463a-8c1d-4ee44320dc25","meta":{"profile":["http://hl7.org/fhir/us/qicore/StructureDefinition/qicore-organization"]},"identifier":[{"use":"temp","system":"urn:oid:2.16.840.1.113883.4.4","value":"21-3259825"}],"active":true,"type":[{"coding":[{"system":"http://terminology.hl7.org/CodeSystem/organization-type","code":"pay","display":"Payer"}]}],"name":"Blue Cross Blue Shield of Texas","telecom":[{"system":"phone","value":"(+1) 972-766-6900"}],"address":[{"use":"billing","type":"postal","line":["P.O. Box 660044"],"city":"Dallas","state":"TX","postalCode":"75266-0044","country":"USA"}]},"request":{"method":"PUT","url":"Organization/e75793c9-fdf6-463a-8c1d-4ee44320dc25"}},{"fullUrl":"https://madie.cms.gov/Practitioner/c635393e-8679-4b6e-a30c-8ced4c818cba","resource":{"resourceType":"Practitioner","id":"c635393e-8679-4b6e-a30c-8ced4c818cba","identifier":[{"system":"http://hl7.org/fhir/sid/us-npi","value":"123456"}],"name":[{"family":"Evil","prefix":["Dr"]}]},"request":{"method":"PUT","url":"Practitioner/c635393e-8679-4b6e-a30c-8ced4c818cba"}},{"fullUrl":"https://madie.cms.gov/MeasureReport/d020ea60-f82f-43c1-a63c-f77b03a07ab5","resource":{"resourceType":"MeasureReport","id":"d020ea60-f82f-43c1-a63c-f77b03a07ab5","meta":{"profile":["http://hl7.org/fhir/us/cqfmeasures/StructureDefinition/test-case-cqfm"]},"contained":[{"resourceType":"Parameters","id":"1de17653-3fea-4ef3-8d6c-cfb0132655d2-parameters","parameter":[{"name":"subject","valueString":"2899457d-5309-43e4-a7f0-a4ff34276b9d"}]}],"extension":[{"url":"http://hl7.org/fhir/us/cqfmeasures/StructureDefinition/cqfm-inputParameters","valueReference":{"reference":"#1de17653-3fea-4ef3-8d6c-cfb0132655d2-parameters"}},{"url":"http://hl7.org/fhir/us/cqfmeasures/StructureDefinition/cqfm-testCaseDescription","valueMarkdown":"Venous Foot Pump was applied on the day ICU adm, and ICU Stay is equal to 0 day so it is NOT excluded from Den"}],"modifierExtension":[{"url":"http://hl7.org/fhir/us/cqfmeasures/StructureDefinition/cqfm-isTestCase","valueBoolean":true}],"status":"complete","type":"individual","measure":"https://madie.cms.gov/Measure/CMS108VTEProphylaxisFHIR","period":{"start":"2026-01-01","end":"2026-12-31"},"group":[{"population":[{"code":{"coding":[{"system":"http://terminology.hl7.org/CodeSystem/measure-population","code":"initial-population","display":"Initial Population"}]},"count":1},{"code":{"coding":[{"system":"http://terminology.hl7.org/CodeSystem/measure-population","code":"denominator","display":"Denominator"}]},"count":1},{"code":{"coding":[{"system":"http://terminology.hl7.org/CodeSystem/measure-population","code":"denominator-exclusion","display":"Denominator Exclusion"}]},"count":0},{"code":{"coding":[{"system":"http://terminology.hl7.org/CodeSystem/measure-population","code":"numerator","display":"Numerator"}]},"count":1}]}]},"request":{"method":"PUT","url":"MeasureReport/d020ea60-f82f-43c1-a63c-f77b03a07ab5"}}]}