{"resourceType":"Bundle","id":"tests-0306790e-8c5b-40cb-b164-e5d7f79eef8f-bundle","type":"transaction","entry":[{"fullUrl":"https://madie.cms.gov/Patient/0306790e-8c5b-40cb-b164-e5d7f79eef8f","resource":{"resourceType":"Patient","id":"0306790e-8c5b-40cb-b164-e5d7f79eef8f","meta":{"profile":["http://hl7.org/fhir/us/qicore/StructureDefinition/qicore-patient"]},"text":{"status":"generated","div":"<div xmlns=\"http://www.w3.org/1999/xhtml\"><div class=\"hapiHeaderText\">MA_Warfarin_DayOfAdmit <b>NUMERPASS </b></div><table class=\"hapiPropertyTable\"><tbody><tr><td>Identifier</td><td>f6b3ce4fb2b87a4aa5f00ca8118e0e9a</td></tr><tr><td>Date of birth</td><td><span>02 January 1974</span></td></tr></tbody></table></div>"},"extension":[{"url":"http://hl7.org/fhir/us/core/StructureDefinition/us-core-race","extension":[{"url":"ombCategory","valueCoding":{"system":"urn:oid:2.16.840.1.113883.6.238","code":"1002-5","display":"American Indian or Alaska Native","userSelected":true}},{"url":"text","valueString":"American Indian or Alaska Native"}]},{"url":"http://hl7.org/fhir/us/core/StructureDefinition/us-core-ethnicity","extension":[{"url":"ombCategory","valueCoding":{"system":"urn:oid:2.16.840.1.113883.6.238","code":"2135-2","display":"Hispanic or Latino","userSelected":true}},{"url":"text","valueString":"Hispanic or Latino"}]}],"identifier":[{"type":{"coding":[{"system":"http://terminology.hl7.org/CodeSystem/v2-0203","code":"MR"}]},"system":"https://bonnie-fhir.healthit.gov/","value":"612e6a7d02c62a011f2ea2ee"}],"active":true,"name":[{"use":"usual","family":"NUMERPass","given":["MA_Warfarin_DayOfAdmit"]}],"gender":"male","birthDate":"1975-01-02"},"request":{"method":"PUT","url":"Patient/0306790e-8c5b-40cb-b164-e5d7f79eef8f"}},{"fullUrl":"https://madie.cms.gov/Encounter/f5b38923-6208-41e0-8588-d9fabd2a6b39","resource":{"resourceType":"Encounter","id":"f5b38923-6208-41e0-8588-d9fabd2a6b39","meta":{"profile":["http://hl7.org/fhir/us/qicore/StructureDefinition/qicore-encounter"]},"status":"finished","class":{"system":"http://terminology.hl7.org/CodeSystem/v3-ActCode","code":"IMP","display":"inpatient encounter"},"type":[{"coding":[{"system":"http://snomed.info/sct","code":"8715000"}]}],"subject":{"reference":"Patient/0306790e-8c5b-40cb-b164-e5d7f79eef8f"},"period":{"start":"2026-11-01T08:00:00+00:00","end":"2026-11-26T08:15:00+00:00"},"length":{"value":25.0,"unit":"days"}},"request":{"method":"PUT","url":"Encounter/f5b38923-6208-41e0-8588-d9fabd2a6b39"}},{"fullUrl":"https://madie.cms.gov/Coverage/87d79cde-69e2-49e6-9f35-18142db08844","resource":{"resourceType":"Coverage","id":"87d79cde-69e2-49e6-9f35-18142db08844","status":"active","beneficiary":{"reference":"Patient/0306790e-8c5b-40cb-b164-e5d7f79eef8f"},"period":{"start":"1975-01-02T08:00:00+00:00"},"payor":[{"reference":"Organization/e75793c9-fdf6-463a-8c1d-4ee44320dc25"}]},"request":{"method":"PUT","url":"Coverage/87d79cde-69e2-49e6-9f35-18142db08844"}},{"fullUrl":"https://madie.cms.gov/MedicationAdministration/3d783d03-e20c-45a2-9cb3-cb8a2c285cc0","resource":{"resourceType":"MedicationAdministration","id":"3d783d03-e20c-45a2-9cb3-cb8a2c285cc0","meta":{"profile":["http://hl7.org/fhir/us/qicore/StructureDefinition/qicore-medicationadministration"]},"status":"completed","medicationCodeableConcept":{"coding":[{"system":"http://www.nlm.nih.gov/research/umls/rxnorm","code":"855288"}]},"subject":{"reference":"Patient/0306790e-8c5b-40cb-b164-e5d7f79eef8f"},"effectivePeriod":{"start":"2026-11-01T09:00:00+00:00","end":"2026-11-01T09:15:00+00:00"}},"request":{"method":"PUT","url":"MedicationAdministration/3d783d03-e20c-45a2-9cb3-cb8a2c285cc0"}},{"fullUrl":"https://madie.cms.gov/Organization/09263c5c-d907-408d-bbb9-dfdcec18a07a","resource":{"resourceType":"Organization","id":"e75793c9-fdf6-463a-8c1d-4ee44320dc25","meta":{"profile":["http://hl7.org/fhir/us/qicore/StructureDefinition/qicore-organization"]},"identifier":[{"use":"temp","system":"urn:oid:2.16.840.1.113883.4.4","value":"21-3259825"}],"active":true,"type":[{"coding":[{"system":"http://terminology.hl7.org/CodeSystem/organization-type","code":"pay","display":"Payer"}]}],"name":"Blue Cross Blue Shield of Texas","telecom":[{"system":"phone","value":"(+1) 972-766-6900"}],"address":[{"use":"billing","type":"postal","line":["P.O. Box 660044"],"city":"Dallas","state":"TX","postalCode":"75266-0044","country":"USA"}]},"request":{"method":"PUT","url":"Organization/e75793c9-fdf6-463a-8c1d-4ee44320dc25"}},{"fullUrl":"https://madie.cms.gov/Practitioner/b180ac48-b61e-45f3-a985-8d1ff2fdeb59","resource":{"resourceType":"Practitioner","id":"b180ac48-b61e-45f3-a985-8d1ff2fdeb59","identifier":[{"system":"http://hl7.org/fhir/sid/us-npi","value":"123456"}],"name":[{"family":"Evil","prefix":["Dr"]}]},"request":{"method":"PUT","url":"Practitioner/b180ac48-b61e-45f3-a985-8d1ff2fdeb59"}},{"fullUrl":"https://madie.cms.gov/MeasureReport/dcd35af6-5539-4d06-a3e3-991733eed85b","resource":{"resourceType":"MeasureReport","id":"dcd35af6-5539-4d06-a3e3-991733eed85b","meta":{"profile":["http://hl7.org/fhir/us/cqfmeasures/StructureDefinition/test-case-cqfm"]},"contained":[{"resourceType":"Parameters","id":"82635f38-032b-4c76-ac43-a7e056225e1c-parameters","parameter":[{"name":"subject","valueString":"0306790e-8c5b-40cb-b164-e5d7f79eef8f"}]}],"extension":[{"url":"http://hl7.org/fhir/us/cqfmeasures/StructureDefinition/cqfm-inputParameters","valueReference":{"reference":"#82635f38-032b-4c76-ac43-a7e056225e1c-parameters"}},{"url":"http://hl7.org/fhir/us/cqfmeasures/StructureDefinition/cqfm-testCaseDescription","valueMarkdown":"warfarin administered during IP encounter\n"}],"modifierExtension":[{"url":"http://hl7.org/fhir/us/cqfmeasures/StructureDefinition/cqfm-isTestCase","valueBoolean":true}],"status":"complete","type":"individual","measure":"https://madie.cms.gov/Measure/CMS108VTEProphylaxisFHIR","period":{"start":"2026-01-01","end":"2026-12-31"},"group":[{"population":[{"code":{"coding":[{"system":"http://terminology.hl7.org/CodeSystem/measure-population","code":"initial-population","display":"Initial Population"}]},"count":1},{"code":{"coding":[{"system":"http://terminology.hl7.org/CodeSystem/measure-population","code":"denominator","display":"Denominator"}]},"count":1},{"code":{"coding":[{"system":"http://terminology.hl7.org/CodeSystem/measure-population","code":"denominator-exclusion","display":"Denominator Exclusion"}]},"count":0},{"code":{"coding":[{"system":"http://terminology.hl7.org/CodeSystem/measure-population","code":"numerator","display":"Numerator"}]},"count":1}]}]},"request":{"method":"PUT","url":"MeasureReport/dcd35af6-5539-4d06-a3e3-991733eed85b"}}]}