{"resourceType":"Bundle","id":"tests-0190ef4b-c22d-4177-b293-874f1a9030a6-bundle","type":"transaction","entry":[{"fullUrl":"https://madie.cms.gov/Patient/0190ef4b-c22d-4177-b293-874f1a9030a6","resource":{"resourceType":"Patient","id":"0190ef4b-c22d-4177-b293-874f1a9030a6","meta":{"profile":["http://hl7.org/fhir/us/qicore/StructureDefinition/qicore-patient"]},"text":{"status":"generated","div":"<div xmlns=\"http://www.w3.org/1999/xhtml\"><div class=\"hapiHeaderText\">Dx=VTEduringEDGT1hrB4Enc <b>IPPPASS </b></div><table class=\"hapiPropertyTable\"><tbody><tr><td>Identifier</td><td>af2986d42642f004962c32566bf64a58</td></tr><tr><td>Date of birth</td><td><span>02 September 2003</span></td></tr></tbody></table></div>"},"extension":[{"url":"http://hl7.org/fhir/us/core/StructureDefinition/us-core-race","extension":[{"url":"ombCategory","valueCoding":{"system":"urn:oid:2.16.840.1.113883.6.238","code":"1002-5","display":"American Indian or Alaska Native","userSelected":true}},{"url":"text","valueString":"American Indian or Alaska Native"}]},{"url":"http://hl7.org/fhir/us/core/StructureDefinition/us-core-ethnicity","extension":[{"url":"ombCategory","valueCoding":{"system":"urn:oid:2.16.840.1.113883.6.238","code":"2135-2","display":"Hispanic or Latino","userSelected":true}},{"url":"text","valueString":"Hispanic or Latino"}]}],"identifier":[{"type":{"coding":[{"system":"http://terminology.hl7.org/CodeSystem/v2-0203","code":"MR"}]},"system":"https://bonnie-fhir.healthit.gov/","value":"612e6b6c02c62a011f2edb06"}],"active":true,"name":[{"use":"usual","family":"IPPPass","given":["DxVTEduringEDGT1hrB4Enc"]}],"gender":"male","birthDate":"2004-09-02"},"request":{"method":"PUT","url":"Patient/0190ef4b-c22d-4177-b293-874f1a9030a6"}},{"fullUrl":"https://madie.cms.gov/Encounter/51db9aa7-a93c-4631-9d4b-7860eef5fb9b","resource":{"resourceType":"Encounter","id":"51db9aa7-a93c-4631-9d4b-7860eef5fb9b","meta":{"profile":["http://hl7.org/fhir/us/qicore/StructureDefinition/qicore-encounter"]},"status":"finished","class":{"system":"http://terminology.hl7.org/CodeSystem/v3-ActCode","code":"EMER","display":"emergency"},"type":[{"coding":[{"system":"http://snomed.info/sct","code":"4525004"}]}],"subject":{"reference":"Patient/0190ef4b-c22d-4177-b293-874f1a9030a6"},"period":{"start":"2026-09-02T09:00:00+00:00","end":"2026-09-02T10:59:00+00:00"},"length":{"value":0,"unit":"days"}},"request":{"method":"PUT","url":"Encounter/51db9aa7-a93c-4631-9d4b-7860eef5fb9b"}},{"fullUrl":"https://madie.cms.gov/Encounter/8d24048f-55e1-4aaa-9c3a-40f4a9db3654","resource":{"resourceType":"Encounter","id":"8d24048f-55e1-4aaa-9c3a-40f4a9db3654","meta":{"profile":["http://hl7.org/fhir/us/qicore/StructureDefinition/qicore-encounter"]},"status":"finished","class":{"system":"http://terminology.hl7.org/CodeSystem/v3-ActCode","code":"IMP","display":"inpatient encounter"},"type":[{"coding":[{"system":"http://snomed.info/sct","code":"183452005"}]}],"subject":{"reference":"Patient/0190ef4b-c22d-4177-b293-874f1a9030a6"},"period":{"start":"2026-09-02T12:01:00+00:00","end":"2026-12-31T23:59:00+00:00"},"length":{"value":120,"unit":"days"}},"request":{"method":"PUT","url":"Encounter/8d24048f-55e1-4aaa-9c3a-40f4a9db3654"}},{"fullUrl":"https://madie.cms.gov/Coverage/9bc22ff0-e9da-4688-97fa-215e262da7e9","resource":{"resourceType":"Coverage","id":"9bc22ff0-e9da-4688-97fa-215e262da7e9","status":"active","beneficiary":{"reference":"Patient/0190ef4b-c22d-4177-b293-874f1a9030a6"},"period":{"start":"2004-09-02T08:00:00+00:00"},"payor":[{"reference":"Organization/e75793c9-fdf6-463a-8c1d-4ee44320dc25"}]},"request":{"method":"PUT","url":"Coverage/9bc22ff0-e9da-4688-97fa-215e262da7e9"}},{"fullUrl":"https://madie.cms.gov/Condition/c2fb5edc-bd5c-420f-bc13-a791d44881bf","resource":{"resourceType":"Condition","id":"c2fb5edc-bd5c-420f-bc13-a791d44881bf","meta":{"profile":["http://hl7.org/fhir/us/qicore/StructureDefinition/qicore-condition"]},"clinicalStatus":{"coding":[{"system":"http://terminology.hl7.org/CodeSystem/condition-clinical","code":"active"}]},"verificationStatus":{"coding":[{"system":"http://terminology.hl7.org/CodeSystem/condition-ver-status","code":"confirmed"}]},"category":[{"coding":[{"system":"http://terminology.hl7.org/CodeSystem/condition-category","code":"problem-list-item","display":"Problem List Item"}]}],"code":{"coding":[{"system":"http://snomed.info/sct","code":"1001000119102"}]},"subject":{"reference":"Patient/0190ef4b-c22d-4177-b293-874f1a9030a6"},"onsetPeriod":{"start":"2026-09-02T09:00:00+00:00","end":"2026-09-02T10:00:00+00:00"}},"request":{"method":"PUT","url":"Condition/c2fb5edc-bd5c-420f-bc13-a791d44881bf"}},{"fullUrl":"https://madie.cms.gov/Organization/bfb5d330-6518-45e2-aaf4-df0f72a917dd","resource":{"resourceType":"Organization","id":"e75793c9-fdf6-463a-8c1d-4ee44320dc25","meta":{"profile":["http://hl7.org/fhir/us/qicore/StructureDefinition/qicore-organization"]},"identifier":[{"use":"temp","system":"urn:oid:2.16.840.1.113883.4.4","value":"21-3259825"}],"active":true,"type":[{"coding":[{"system":"http://terminology.hl7.org/CodeSystem/organization-type","code":"pay","display":"Payer"}]}],"name":"Blue Cross Blue Shield of Texas","telecom":[{"system":"phone","value":"(+1) 972-766-6900"}],"address":[{"use":"billing","type":"postal","line":["P.O. Box 660044"],"city":"Dallas","state":"TX","postalCode":"75266-0044","country":"USA"}]},"request":{"method":"PUT","url":"Organization/e75793c9-fdf6-463a-8c1d-4ee44320dc25"}},{"fullUrl":"https://madie.cms.gov/Practitioner/d6916d0d-288a-467c-bd36-ea9694d759d9","resource":{"resourceType":"Practitioner","id":"d6916d0d-288a-467c-bd36-ea9694d759d9","identifier":[{"system":"http://hl7.org/fhir/sid/us-npi","value":"123456"}],"name":[{"family":"Evil","prefix":["Dr"]}]},"request":{"method":"PUT","url":"Practitioner/d6916d0d-288a-467c-bd36-ea9694d759d9"}},{"fullUrl":"https://madie.cms.gov/MeasureReport/7a7f7afd-0d98-4fb1-a24a-cafdcf422b27","resource":{"resourceType":"MeasureReport","id":"7a7f7afd-0d98-4fb1-a24a-cafdcf422b27","meta":{"profile":["http://hl7.org/fhir/us/cqfmeasures/StructureDefinition/test-case-cqfm"]},"contained":[{"resourceType":"Parameters","id":"e713c412-81b2-49dd-9a1e-4926c13b22d4-parameters","parameter":[{"name":"subject","valueString":"0190ef4b-c22d-4177-b293-874f1a9030a6"}]}],"extension":[{"url":"http://hl7.org/fhir/us/cqfmeasures/StructureDefinition/cqfm-inputParameters","valueReference":{"reference":"#e713c412-81b2-49dd-9a1e-4926c13b22d4-parameters"}},{"url":"http://hl7.org/fhir/us/cqfmeasures/StructureDefinition/cqfm-testCaseDescription","valueMarkdown":"DxVTE in the ED but ED.end > 1:59 min before Inp.start\n"}],"modifierExtension":[{"url":"http://hl7.org/fhir/us/cqfmeasures/StructureDefinition/cqfm-isTestCase","valueBoolean":true}],"status":"complete","type":"individual","measure":"https://madie.cms.gov/Measure/CMS108VTEProphylaxisFHIR","period":{"start":"2026-01-01","end":"2026-12-31"},"group":[{"population":[{"code":{"coding":[{"system":"http://terminology.hl7.org/CodeSystem/measure-population","code":"initial-population","display":"Initial Population"}]},"count":1},{"code":{"coding":[{"system":"http://terminology.hl7.org/CodeSystem/measure-population","code":"denominator","display":"Denominator"}]},"count":1},{"code":{"coding":[{"system":"http://terminology.hl7.org/CodeSystem/measure-population","code":"denominator-exclusion","display":"Denominator Exclusion"}]},"count":0},{"code":{"coding":[{"system":"http://terminology.hl7.org/CodeSystem/measure-population","code":"numerator","display":"Numerator"}]},"count":0}]}]},"request":{"method":"PUT","url":"MeasureReport/7a7f7afd-0d98-4fb1-a24a-cafdcf422b27"}}]}