{"resourceType":"Bundle","id":"tests-cd776813-caeb-4f71-97a9-6c40882c7041-bundle","type":"transaction","entry":[{"fullUrl":"https://madie.cms.gov/Patient/cd776813-caeb-4f71-97a9-6c40882c7041","resource":{"resourceType":"Patient","id":"cd776813-caeb-4f71-97a9-6c40882c7041","meta":{"profile":["http://hl7.org/fhir/us/qicore/StructureDefinition/qicore-patient"]},"text":{"status":"generated","div":"<div xmlns=\"http://www.w3.org/1999/xhtml\"><div class=\"hapiHeaderText\">SCIP_HipFxRank=1 <b>DENEXPASS </b></div><table class=\"hapiPropertyTable\"><tbody><tr><td>Identifier</td><td>66c70c125db369967b4b164e75338304</td></tr><tr><td>Date of birth</td><td><span>01 September 2000</span></td></tr></tbody></table></div>"},"extension":[{"url":"http://hl7.org/fhir/us/core/StructureDefinition/us-core-race","extension":[{"url":"ombCategory","valueCoding":{"system":"urn:oid:2.16.840.1.113883.6.238","code":"1002-5","display":"American Indian or Alaska Native","userSelected":true}},{"url":"text","valueString":"American Indian or Alaska Native"}]},{"url":"http://hl7.org/fhir/us/core/StructureDefinition/us-core-ethnicity","extension":[{"url":"ombCategory","valueCoding":{"system":"urn:oid:2.16.840.1.113883.6.238","code":"2135-2","display":"Hispanic or Latino","userSelected":true}},{"url":"text","valueString":"Hispanic or Latino"}]}],"identifier":[{"type":{"coding":[{"system":"http://terminology.hl7.org/CodeSystem/v2-0203","code":"MR"}]},"system":"https://bonnie-fhir.healthit.gov/","value":"612e6b0202c62a011f2ec156"}],"active":true,"name":[{"use":"usual","family":"DENEXPass ","given":["SCIP_HipFxRank1"]}],"gender":"male","birthDate":"2001-09-01"},"request":{"method":"PUT","url":"Patient/cd776813-caeb-4f71-97a9-6c40882c7041"}},{"fullUrl":"https://madie.cms.gov/Encounter/c7806333-b93d-40ec-82aa-774e6314df87","resource":{"resourceType":"Encounter","id":"c7806333-b93d-40ec-82aa-774e6314df87","meta":{"profile":["http://hl7.org/fhir/us/qicore/StructureDefinition/qicore-encounter"]},"extension":[{"url":"http://hl7.org/fhir/us/qicore/StructureDefinition/qicore-encounter-procedure","extension":[{"url":"type","valueCodeableConcept":{"coding":[{"system":"http://www.cms.gov/Medicare/Coding/ICD10","code":"0SQ90ZZ"}]}},{"url":"rank","valuePositiveInt":1},{"url":"procedure","valueReference":{"reference":"Procedure/248b5081-72de-430c-9841-84c80092f9ed"}}]}],"status":"finished","class":{"system":"http://terminology.hl7.org/CodeSystem/v3-ActCode","code":"IMP","display":"inpatient encounter"},"type":[{"coding":[{"system":"http://snomed.info/sct","code":"183452005"}]}],"subject":{"reference":"Patient/cd776813-caeb-4f71-97a9-6c40882c7041"},"period":{"start":"2026-09-02T06:00:00+00:00","end":"2026-12-31T12:59:00+00:00"},"length":{"value":120.0,"unit":"days"}},"request":{"method":"PUT","url":"Encounter/c7806333-b93d-40ec-82aa-774e6314df87"}},{"fullUrl":"https://madie.cms.gov/Coverage/b571312c-09c1-4788-b7c4-b7469d349e19","resource":{"resourceType":"Coverage","id":"b571312c-09c1-4788-b7c4-b7469d349e19","status":"active","beneficiary":{"reference":"Patient/cd776813-caeb-4f71-97a9-6c40882c7041"},"period":{"start":"2001-09-01T08:00:00+00:00"},"payor":[{"reference":"Organization/db141f66-a1cc-407b-9e95-adac27adee14"}]},"request":{"method":"PUT","url":"Coverage/b571312c-09c1-4788-b7c4-b7469d349e19"}},{"fullUrl":"https://madie.cms.gov/Procedure/248b5081-72de-430c-9841-84c80092f9ed","resource":{"resourceType":"Procedure","id":"248b5081-72de-430c-9841-84c80092f9ed","meta":{"profile":["http://hl7.org/fhir/us/qicore/StructureDefinition/qicore-procedure"]},"extension":[{"url":"http://hl7.org/fhir/us/qicore/StructureDefinition/qicore-recorded","valueDateTime":"2013-09-02T09:35:00-04:00"}],"status":"completed","code":{"coding":[{"system":"http://www.cms.gov/Medicare/Coding/ICD10","code":"0SQ90ZZ"}]},"subject":{"reference":"Patient/cd776813-caeb-4f71-97a9-6c40882c7041"},"performedPeriod":{"start":"2026-09-02T09:00:00+00:00","end":"2026-09-02T12:59:00+00:00"}},"request":{"method":"PUT","url":"Procedure/248b5081-72de-430c-9841-84c80092f9ed"}},{"fullUrl":"https://madie.cms.gov/Organization/d1c5c7c0-4085-42e8-b383-e3ae4edb9e67","resource":{"resourceType":"Organization","id":"db141f66-a1cc-407b-9e95-adac27adee14","meta":{"profile":["http://hl7.org/fhir/us/qicore/StructureDefinition/qicore-organization"]},"identifier":[{"use":"temp","system":"urn:oid:2.16.840.1.113883.4.4","value":"21-3259825"}],"active":true,"type":[{"coding":[{"system":"http://terminology.hl7.org/CodeSystem/organization-type","code":"pay","display":"Payer"}]}],"name":"Blue Cross Blue Shield of Texas","telecom":[{"system":"phone","value":"(+1) 972-766-6900"}],"address":[{"use":"billing","type":"postal","line":["P.O. Box 660044"],"city":"Dallas","state":"TX","postalCode":"75266-0044","country":"USA"}]},"request":{"method":"PUT","url":"Organization/db141f66-a1cc-407b-9e95-adac27adee14"}},{"fullUrl":"https://madie.cms.gov/Practitioner/7b981e33-7925-4887-93b8-b80f649e00cc","resource":{"resourceType":"Practitioner","id":"7b981e33-7925-4887-93b8-b80f649e00cc","identifier":[{"system":"http://hl7.org/fhir/sid/us-npi","value":"123456"}],"name":[{"family":"Evil","prefix":["Dr"]}]},"request":{"method":"PUT","url":"Practitioner/7b981e33-7925-4887-93b8-b80f649e00cc"}},{"fullUrl":"https://madie.cms.gov/MeasureReport/756e46ee-6056-48c9-aebc-625090f30efb","resource":{"resourceType":"MeasureReport","id":"756e46ee-6056-48c9-aebc-625090f30efb","meta":{"profile":["http://hl7.org/fhir/us/cqfmeasures/StructureDefinition/test-case-cqfm"]},"contained":[{"resourceType":"Parameters","id":"8e7bf1d4-79ea-43cf-a97a-a029480cb4c3-parameters","parameter":[{"name":"subject","valueString":"cd776813-caeb-4f71-97a9-6c40882c7041"}]}],"extension":[{"url":"http://hl7.org/fhir/us/cqfmeasures/StructureDefinition/cqfm-inputParameters","valueReference":{"reference":"#8e7bf1d4-79ea-43cf-a97a-a029480cb4c3-parameters"}},{"url":"http://hl7.org/fhir/us/cqfmeasures/StructureDefinition/cqfm-testCaseDescription","valueMarkdown":"Patient had SCIP -HipFx during Encounter and Rank =1\n"}],"modifierExtension":[{"url":"http://hl7.org/fhir/us/cqfmeasures/StructureDefinition/cqfm-isTestCase","valueBoolean":true}],"status":"complete","type":"individual","measure":"https://madie.cms.gov/Measure/CMS108VTEProphylaxisFHIR","period":{"start":"2026-01-01","end":"2026-12-31"},"group":[{"population":[{"code":{"coding":[{"system":"http://terminology.hl7.org/CodeSystem/measure-population","code":"initial-population","display":"Initial Population"}]},"count":1},{"code":{"coding":[{"system":"http://terminology.hl7.org/CodeSystem/measure-population","code":"denominator","display":"Denominator"}]},"count":1},{"code":{"coding":[{"system":"http://terminology.hl7.org/CodeSystem/measure-population","code":"denominator-exclusion","display":"Denominator Exclusion"}]},"count":1},{"code":{"coding":[{"system":"http://terminology.hl7.org/CodeSystem/measure-population","code":"numerator","display":"Numerator"}]},"count":0}]}]},"request":{"method":"PUT","url":"MeasureReport/756e46ee-6056-48c9-aebc-625090f30efb"}}]}