{"resourceType":"Bundle","id":"tests-b0932ba4-4dfc-43ad-aa67-fbaee9638d3b-bundle","type":"transaction","entry":[{"fullUrl":"https://madie.cms.gov/Patient/b0932ba4-4dfc-43ad-aa67-fbaee9638d3b","resource":{"resourceType":"Patient","id":"b0932ba4-4dfc-43ad-aa67-fbaee9638d3b","meta":{"profile":["http://hl7.org/fhir/us/qicore/StructureDefinition/qicore-patient"]},"text":{"status":"generated","div":"<div xmlns=\"http://www.w3.org/1999/xhtml\"><div class=\"hapiHeaderText\">SCIPGenSurgRank1ProRvltDTDrgEnc <b>DENEXPASS </b></div><table class=\"hapiPropertyTable\"><tbody><tr><td>Identifier</td><td>66c70c125db369967b4b164e75338304</td></tr><tr><td>Date of birth</td><td><span>01 September 2000</span></td></tr></tbody></table></div>"},"extension":[{"url":"http://hl7.org/fhir/us/core/StructureDefinition/us-core-race","extension":[{"url":"ombCategory","valueCoding":{"system":"urn:oid:2.16.840.1.113883.6.238","code":"1002-5","display":"American Indian or Alaska Native","userSelected":true}},{"url":"text","valueString":"American Indian or Alaska Native"}]},{"url":"http://hl7.org/fhir/us/core/StructureDefinition/us-core-ethnicity","extension":[{"url":"ombCategory","valueCoding":{"system":"urn:oid:2.16.840.1.113883.6.238","code":"2135-2","display":"Hispanic or Latino","userSelected":true}},{"url":"text","valueString":"Hispanic or Latino"}]}],"identifier":[{"type":{"coding":[{"system":"http://terminology.hl7.org/CodeSystem/v2-0203","code":"MR"}]},"system":"https://bonnie-fhir.healthit.gov/","value":"612e6b2202c62a011f2ec9a3"}],"active":true,"name":[{"use":"usual","family":"DENEXPass ","given":["SCIPGenSurgRank1ProRvltDTDrgEnc"]}],"gender":"male","birthDate":"2001-09-01"},"request":{"method":"PUT","url":"Patient/b0932ba4-4dfc-43ad-aa67-fbaee9638d3b"}},{"fullUrl":"https://madie.cms.gov/Encounter/1196e3fd-e9cf-43c2-8f84-8ddbbcdb1026","resource":{"resourceType":"Encounter","id":"1196e3fd-e9cf-43c2-8f84-8ddbbcdb1026","meta":{"profile":["http://hl7.org/fhir/us/qicore/StructureDefinition/qicore-encounter"]},"extension":[{"url":"http://hl7.org/fhir/us/qicore/StructureDefinition/qicore-encounter-procedure","extension":[{"url":"type","valueCodeableConcept":{"coding":[{"system":"http://www.cms.gov/Medicare/Coding/ICD10","code":"0W910ZZ","display":"Drainage of Cranial Cavity, Open Approach"}]}},{"url":"rank","valuePositiveInt":1},{"url":"procedure","valueReference":{"reference":"Procedure/57a23acf-e77a-40a2-b03b-2313848d99fd"}}]}],"status":"finished","class":{"system":"http://terminology.hl7.org/CodeSystem/v3-ActCode","code":"IMP","display":"inpatient encounter"},"type":[{"coding":[{"system":"http://snomed.info/sct","code":"183452005"}]}],"subject":{"reference":"Patient/b0932ba4-4dfc-43ad-aa67-fbaee9638d3b"},"period":{"start":"2026-09-02T06:00:00+00:00","end":"2026-12-31T12:59:00+00:00"},"length":{"value":120.0,"unit":"days"}},"request":{"method":"PUT","url":"Encounter/1196e3fd-e9cf-43c2-8f84-8ddbbcdb1026"}},{"fullUrl":"https://madie.cms.gov/Coverage/8cc12d42-85a3-4369-a5f6-8372b2347177","resource":{"resourceType":"Coverage","id":"8cc12d42-85a3-4369-a5f6-8372b2347177","status":"active","beneficiary":{"reference":"Patient/b0932ba4-4dfc-43ad-aa67-fbaee9638d3b"},"period":{"start":"2001-09-01T08:00:00+00:00"},"payor":[{"reference":"Organization/18ca435c-cae6-4c34-8033-af717477f9fc"}]},"request":{"method":"PUT","url":"Coverage/8cc12d42-85a3-4369-a5f6-8372b2347177"}},{"fullUrl":"https://madie.cms.gov/Procedure/57a23acf-e77a-40a2-b03b-2313848d99fd","resource":{"resourceType":"Procedure","id":"57a23acf-e77a-40a2-b03b-2313848d99fd","meta":{"profile":["http://hl7.org/fhir/us/qicore/StructureDefinition/qicore-procedure"]},"extension":[{"url":"http://hl7.org/fhir/us/qicore/StructureDefinition/qicore-recorded","valueDateTime":"2026-09-02T09:35:00-04:00"}],"status":"completed","code":{"coding":[{"system":"http://www.cms.gov/Medicare/Coding/ICD10","code":"0F150D3","display":"Bypass Right Hepatic Duct to Duodenum with Intraluminal Device, Open Approach"}]},"subject":{"reference":"Patient/b0932ba4-4dfc-43ad-aa67-fbaee9638d3b"},"performedDateTime":"2026-09-02T09:00:00+00:00"},"request":{"method":"PUT","url":"Procedure/57a23acf-e77a-40a2-b03b-2313848d99fd"}},{"fullUrl":"https://madie.cms.gov/Organization/009f413c-d4be-4fe2-8f38-ac3a39e8560c","resource":{"resourceType":"Organization","id":"18ca435c-cae6-4c34-8033-af717477f9fc","meta":{"profile":["http://hl7.org/fhir/us/qicore/StructureDefinition/qicore-organization"]},"identifier":[{"use":"temp","system":"urn:oid:2.16.840.1.113883.4.4","value":"21-3259825"}],"active":true,"type":[{"coding":[{"system":"http://terminology.hl7.org/CodeSystem/organization-type","code":"pay","display":"Payer"}]}],"name":"Blue Cross Blue Shield of Texas","telecom":[{"system":"phone","value":"(+1) 972-766-6900"}],"address":[{"use":"billing","type":"postal","line":["P.O. Box 660044"],"city":"Dallas","state":"TX","postalCode":"75266-0044","country":"USA"}]},"request":{"method":"PUT","url":"Organization/18ca435c-cae6-4c34-8033-af717477f9fc"}},{"fullUrl":"https://madie.cms.gov/Practitioner/b790aae4-246d-4613-8489-07816e07bf7e","resource":{"resourceType":"Practitioner","id":"b790aae4-246d-4613-8489-07816e07bf7e","identifier":[{"system":"http://hl7.org/fhir/sid/us-npi","value":"123456"}],"name":[{"family":"Evil","prefix":["Dr"]}]},"request":{"method":"PUT","url":"Practitioner/b790aae4-246d-4613-8489-07816e07bf7e"}},{"fullUrl":"https://madie.cms.gov/MeasureReport/68cefb62-51fd-46aa-9c14-c18fab98eb45","resource":{"resourceType":"MeasureReport","id":"68cefb62-51fd-46aa-9c14-c18fab98eb45","meta":{"profile":["http://hl7.org/fhir/us/cqfmeasures/StructureDefinition/test-case-cqfm"]},"contained":[{"resourceType":"Parameters","id":"b1ddba99-2335-425d-90b7-d7187ccb8bd0-parameters","parameter":[{"name":"subject","valueString":"b0932ba4-4dfc-43ad-aa67-fbaee9638d3b"}]}],"extension":[{"url":"http://hl7.org/fhir/us/cqfmeasures/StructureDefinition/cqfm-inputParameters","valueReference":{"reference":"#b1ddba99-2335-425d-90b7-d7187ccb8bd0-parameters"}},{"url":"http://hl7.org/fhir/us/cqfmeasures/StructureDefinition/cqfm-testCaseDescription","valueMarkdown":"SCIP_ principal GenSurg with procedure datetime DuringEnc"}],"modifierExtension":[{"url":"http://hl7.org/fhir/us/cqfmeasures/StructureDefinition/cqfm-isTestCase","valueBoolean":true}],"status":"complete","type":"individual","measure":"https://madie.cms.gov/Measure/CMS108VTEProphylaxisFHIR","period":{"start":"2026-01-01","end":"2026-12-31"},"group":[{"population":[{"code":{"coding":[{"system":"http://terminology.hl7.org/CodeSystem/measure-population","code":"initial-population","display":"Initial Population"}]},"count":1},{"code":{"coding":[{"system":"http://terminology.hl7.org/CodeSystem/measure-population","code":"denominator","display":"Denominator"}]},"count":1},{"code":{"coding":[{"system":"http://terminology.hl7.org/CodeSystem/measure-population","code":"denominator-exclusion","display":"Denominator Exclusion"}]},"count":1},{"code":{"coding":[{"system":"http://terminology.hl7.org/CodeSystem/measure-population","code":"numerator","display":"Numerator"}]},"count":0}]}]},"request":{"method":"PUT","url":"MeasureReport/68cefb62-51fd-46aa-9c14-c18fab98eb45"}}]}