{"resourceType":"Bundle","id":"tests-4fda37ce-d4ce-487f-84dd-6274e7c0114a-bundle","type":"transaction","entry":[{"fullUrl":"https://madie.cms.gov/Patient/4fda37ce-d4ce-487f-84dd-6274e7c0114a","resource":{"resourceType":"Patient","id":"4fda37ce-d4ce-487f-84dd-6274e7c0114a","meta":{"profile":["http://hl7.org/fhir/us/qicore/StructureDefinition/qicore-patient"]},"text":{"status":"generated","div":"<div xmlns=\"http://www.w3.org/1999/xhtml\"><div class=\"hapiHeaderText\">INR3_0_DayOfAnesthesia <b>NUMERFAIL </b></div><table class=\"hapiPropertyTable\"><tbody><tr><td>Identifier</td><td>65ef0b32f324a9b2366603f2ef83d149</td></tr><tr><td>Date of birth</td><td><span>02 January 1974</span></td></tr></tbody></table></div>"},"extension":[{"url":"http://hl7.org/fhir/us/core/StructureDefinition/us-core-race","extension":[{"url":"ombCategory","valueCoding":{"system":"urn:oid:2.16.840.1.113883.6.238","code":"1002-5","display":"American Indian or Alaska Native","userSelected":true}},{"url":"text","valueString":"American Indian or Alaska Native"}]},{"url":"http://hl7.org/fhir/us/core/StructureDefinition/us-core-ethnicity","extension":[{"url":"ombCategory","valueCoding":{"system":"urn:oid:2.16.840.1.113883.6.238","code":"2135-2","display":"Hispanic or Latino","userSelected":true}},{"url":"text","valueString":"Hispanic or Latino"}]}],"identifier":[{"type":{"coding":[{"system":"http://terminology.hl7.org/CodeSystem/v2-0203","code":"MR"}]},"system":"https://bonnie-fhir.healthit.gov/","value":"612e6b4e02c62a011f2ed3d2"}],"active":true,"name":[{"use":"usual","family":"NUMERFail","given":["INR3_0_DayOfAnesthesia"]}],"gender":"male","birthDate":"1975-01-02"},"request":{"method":"PUT","url":"Patient/4fda37ce-d4ce-487f-84dd-6274e7c0114a"}},{"fullUrl":"https://madie.cms.gov/Encounter/47f7514e-8f25-4764-b984-1301f3c9497f","resource":{"resourceType":"Encounter","id":"47f7514e-8f25-4764-b984-1301f3c9497f","meta":{"profile":["http://hl7.org/fhir/us/qicore/StructureDefinition/qicore-encounter"]},"status":"finished","class":{"system":"http://terminology.hl7.org/CodeSystem/v3-ActCode","code":"IMP","display":"inpatient encounter"},"type":[{"coding":[{"system":"http://snomed.info/sct","code":"8715000"}]}],"subject":{"reference":"Patient/4fda37ce-d4ce-487f-84dd-6274e7c0114a"},"period":{"start":"2026-11-01T08:00:00+00:00","end":"2026-11-26T08:15:00+00:00"},"length":{"value":25.0,"unit":"days"}},"request":{"method":"PUT","url":"Encounter/47f7514e-8f25-4764-b984-1301f3c9497f"}},{"fullUrl":"https://madie.cms.gov/Coverage/e3938ea7-e2b8-47f5-8687-5ce16c7a9bd6","resource":{"resourceType":"Coverage","id":"e3938ea7-e2b8-47f5-8687-5ce16c7a9bd6","status":"active","beneficiary":{"reference":"Patient/4fda37ce-d4ce-487f-84dd-6274e7c0114a"},"period":{"start":"1975-01-02T08:00:00+00:00"},"payor":[{"reference":"Organization/e75793c9-fdf6-463a-8c1d-4ee44320dc25"}]},"request":{"method":"PUT","url":"Coverage/e3938ea7-e2b8-47f5-8687-5ce16c7a9bd6"}},{"fullUrl":"https://madie.cms.gov/Observation/ff9f3290-a1ea-472e-8b7b-207ec0493950","resource":{"resourceType":"Observation","id":"ff9f3290-a1ea-472e-8b7b-207ec0493950","meta":{"profile":["http://hl7.org/fhir/us/core/StructureDefinition/us-core-observation-lab"]},"status":"final","category":[{"coding":[{"system":"http://terminology.hl7.org/CodeSystem/observation-category","code":"laboratory","display":"Laboratory"}]}],"code":{"coding":[{"system":"http://loinc.org","code":"34714-6"}]},"subject":{"reference":"Patient/4fda37ce-d4ce-487f-84dd-6274e7c0114a"},"issued":"2026-11-01T11:00:00.000+00:00","valueQuantity":{"value":3.0,"unit":"{INR}"}},"request":{"method":"PUT","url":"Observation/ff9f3290-a1ea-472e-8b7b-207ec0493950"}},{"fullUrl":"https://madie.cms.gov/Procedure/b146e84a-1cdc-4b24-baa3-0afa52d9661b","resource":{"resourceType":"Procedure","id":"b146e84a-1cdc-4b24-baa3-0afa52d9661b","meta":{"profile":["http://hl7.org/fhir/us/qicore/StructureDefinition/qicore-procedure"]},"extension":[{"url":"http://hl7.org/fhir/us/qicore/StructureDefinition/qicore-recorded","valueDateTime":"2013-12-04T09:35:00-04:00"}],"status":"completed","code":{"coding":[{"system":"http://www.icd10data.com/icd10pcs","code":"3E030FZ"},{"system":"http://snomed.info/sct","code":"18946005"}]},"subject":{"reference":"Patient/4fda37ce-d4ce-487f-84dd-6274e7c0114a"},"performedPeriod":{"start":"2026-11-01T09:00:00+00:00","end":"2026-11-01T09:15:00+00:00"}},"request":{"method":"PUT","url":"Procedure/b146e84a-1cdc-4b24-baa3-0afa52d9661b"}},{"fullUrl":"https://madie.cms.gov/Organization/36de348b-75ec-494b-8c78-c0b648992834","resource":{"resourceType":"Organization","id":"e75793c9-fdf6-463a-8c1d-4ee44320dc25","meta":{"profile":["http://hl7.org/fhir/us/qicore/StructureDefinition/qicore-organization"]},"identifier":[{"use":"temp","system":"urn:oid:2.16.840.1.113883.4.4","value":"21-3259825"}],"active":true,"type":[{"coding":[{"system":"http://terminology.hl7.org/CodeSystem/organization-type","code":"pay","display":"Payer"}]}],"name":"Blue Cross Blue Shield of Texas","telecom":[{"system":"phone","value":"(+1) 972-766-6900"}],"address":[{"use":"billing","type":"postal","line":["P.O. Box 660044"],"city":"Dallas","state":"TX","postalCode":"75266-0044","country":"USA"}]},"request":{"method":"PUT","url":"Organization/e75793c9-fdf6-463a-8c1d-4ee44320dc25"}},{"fullUrl":"https://madie.cms.gov/Practitioner/bd24c496-3983-4f29-ac64-beea559711c8","resource":{"resourceType":"Practitioner","id":"bd24c496-3983-4f29-ac64-beea559711c8","identifier":[{"system":"http://hl7.org/fhir/sid/us-npi","value":"123456"}],"name":[{"family":"Evil","prefix":["Dr"]}]},"request":{"method":"PUT","url":"Practitioner/bd24c496-3983-4f29-ac64-beea559711c8"}},{"fullUrl":"https://madie.cms.gov/MeasureReport/3e3d3d83-9d44-4563-927c-937c96f1b403","resource":{"resourceType":"MeasureReport","id":"3e3d3d83-9d44-4563-927c-937c96f1b403","meta":{"profile":["http://hl7.org/fhir/us/cqfmeasures/StructureDefinition/test-case-cqfm"]},"contained":[{"resourceType":"Parameters","id":"a104b349-0c2d-44ca-9c1e-0b6df39b2f0e-parameters","parameter":[{"name":"subject","valueString":"4fda37ce-d4ce-487f-84dd-6274e7c0114a"}]}],"extension":[{"url":"http://hl7.org/fhir/us/cqfmeasures/StructureDefinition/cqfm-inputParameters","valueReference":{"reference":"#a104b349-0c2d-44ca-9c1e-0b6df39b2f0e-parameters"}},{"url":"http://hl7.org/fhir/us/cqfmeasures/StructureDefinition/cqfm-testCaseDescription","valueMarkdown":">18, dx VTE, LOS<120 day,   LabResult INR=3.0,  day of anesthesia\n"}],"modifierExtension":[{"url":"http://hl7.org/fhir/us/cqfmeasures/StructureDefinition/cqfm-isTestCase","valueBoolean":true}],"status":"complete","type":"individual","measure":"https://madie.cms.gov/Measure/CMS108VTEProphylaxisFHIR","period":{"start":"2026-01-01","end":"2026-12-31"},"group":[{"population":[{"code":{"coding":[{"system":"http://terminology.hl7.org/CodeSystem/measure-population","code":"initial-population","display":"Initial Population"}]},"count":1},{"code":{"coding":[{"system":"http://terminology.hl7.org/CodeSystem/measure-population","code":"denominator","display":"Denominator"}]},"count":1},{"code":{"coding":[{"system":"http://terminology.hl7.org/CodeSystem/measure-population","code":"denominator-exclusion","display":"Denominator Exclusion"}]},"count":0},{"code":{"coding":[{"system":"http://terminology.hl7.org/CodeSystem/measure-population","code":"numerator","display":"Numerator"}]},"count":0}]}]},"request":{"method":"PUT","url":"MeasureReport/3e3d3d83-9d44-4563-927c-937c96f1b403"}}]}