{"resourceType":"Bundle","id":"tests-7520f4b4-3bde-465e-b6b0-07c5ac3da4de-bundle","type":"transaction","entry":[{"fullUrl":"https://madie.cms.gov/Patient/7520f4b4-3bde-465e-b6b0-07c5ac3da4de","resource":{"resourceType":"Patient","id":"7520f4b4-3bde-465e-b6b0-07c5ac3da4de","meta":{"profile":["http://hl7.org/fhir/us/qicore/StructureDefinition/qicore-patient"]},"text":{"status":"generated","div":"<div xmlns=\"http://www.w3.org/1999/xhtml\"><div class=\"hapiHeaderText\">MedReason_MA_Warf_DO_IPC_DayOfAnes <b>NUMERPASS </b></div><table class=\"hapiPropertyTable\"><tbody><tr><td>Identifier</td><td>7b1692125190d12df658f3578aa84ca8</td></tr><tr><td>Date of birth</td><td><span>02 January 1974</span></td></tr></tbody></table></div>"},"extension":[{"url":"http://hl7.org/fhir/us/core/StructureDefinition/us-core-race","extension":[{"url":"ombCategory","valueCoding":{"system":"urn:oid:2.16.840.1.113883.6.238","code":"1002-5","display":"American Indian or Alaska Native","userSelected":true}},{"url":"text","valueString":"American Indian or Alaska Native"}]},{"url":"http://hl7.org/fhir/us/core/StructureDefinition/us-core-ethnicity","extension":[{"url":"ombCategory","valueCoding":{"system":"urn:oid:2.16.840.1.113883.6.238","code":"2135-2","display":"Hispanic or Latino","userSelected":true}},{"url":"text","valueString":"Hispanic or Latino"}]}],"identifier":[{"type":{"coding":[{"system":"http://terminology.hl7.org/CodeSystem/v2-0203","code":"MR"}]},"system":"https://bonnie-fhir.healthit.gov/","value":"612e6a9402c62a011f2ea747"}],"active":true,"name":[{"use":"usual","family":"NUMERPass","given":["MedReason_MA_Warf_DO_IPC_DayOfAnes"]}],"gender":"male","birthDate":"1975-01-02"},"request":{"method":"PUT","url":"Patient/7520f4b4-3bde-465e-b6b0-07c5ac3da4de"}},{"fullUrl":"https://madie.cms.gov/Encounter/ff086f98-6022-4880-9456-d3b1050552ca","resource":{"resourceType":"Encounter","id":"ff086f98-6022-4880-9456-d3b1050552ca","meta":{"profile":["http://hl7.org/fhir/us/qicore/StructureDefinition/qicore-encounter"]},"status":"finished","class":{"system":"http://terminology.hl7.org/CodeSystem/v3-ActCode","code":"IMP","display":"inpatient encounter"},"type":[{"coding":[{"system":"http://snomed.info/sct","code":"8715000"}]}],"subject":{"reference":"Patient/7520f4b4-3bde-465e-b6b0-07c5ac3da4de"},"period":{"start":"2026-11-01T08:00:00+00:00","end":"2026-11-26T08:15:00+00:00"},"length":{"value":25.0,"unit":"days"}},"request":{"method":"PUT","url":"Encounter/ff086f98-6022-4880-9456-d3b1050552ca"}},{"fullUrl":"https://madie.cms.gov/Coverage/534f7ac4-a461-4661-bbc4-85a893f76c1b","resource":{"resourceType":"Coverage","id":"534f7ac4-a461-4661-bbc4-85a893f76c1b","status":"active","beneficiary":{"reference":"Patient/7520f4b4-3bde-465e-b6b0-07c5ac3da4de"},"period":{"start":"1975-01-02T08:00:00+00:00"},"payor":[{"reference":"Organization/607fdef9-3983-4cef-ab1a-95434d29b463"}]},"request":{"method":"PUT","url":"Coverage/534f7ac4-a461-4661-bbc4-85a893f76c1b"}},{"fullUrl":"https://madie.cms.gov/MedicationAdministration/f44e403a-d488-4c67-be19-73afaafa8191","resource":{"resourceType":"MedicationAdministration","id":"f44e403a-d488-4c67-be19-73afaafa8191","meta":{"profile":["http://hl7.org/fhir/us/qicore/StructureDefinition/qicore-mednotadministered"]},"extension":[{"url":"http://hl7.org/fhir/us/qicore/StructureDefinition/qicore-recorded","valueDateTime":"2026-11-02T11:00:00+00:00"}],"status":"not-done","statusReason":[{"coding":[{"system":"http://snomed.info/sct","code":"183932001"}]}],"medicationCodeableConcept":{"coding":[{"system":"http://www.nlm.nih.gov/research/umls/rxnorm","code":"855288"}]},"subject":{"reference":"Patient/7520f4b4-3bde-465e-b6b0-07c5ac3da4de"},"effectivePeriod":{"start":"2026-11-02T11:00:00+00:00"}},"request":{"method":"PUT","url":"MedicationAdministration/f44e403a-d488-4c67-be19-73afaafa8191"}},{"fullUrl":"https://madie.cms.gov/Procedure/5a5940fb-0715-4b7e-a10c-5e77c79ddc97","resource":{"resourceType":"Procedure","id":"5a5940fb-0715-4b7e-a10c-5e77c79ddc97","meta":{"profile":["http://hl7.org/fhir/us/qicore/StructureDefinition/qicore-procedure"]},"extension":[{"url":"http://hl7.org/fhir/us/qicore/StructureDefinition/qicore-recorded","valueDateTime":"2013-11-02T09:35:00-04:00"}],"status":"completed","code":{"coding":[{"system":"http://snomed.info/sct","code":"18946005"}]},"subject":{"reference":"Patient/7520f4b4-3bde-465e-b6b0-07c5ac3da4de"},"performedPeriod":{"start":"2026-11-02T09:00:00+00:00","end":"2026-11-02T09:15:00+00:00"}},"request":{"method":"PUT","url":"Procedure/5a5940fb-0715-4b7e-a10c-5e77c79ddc97"}},{"fullUrl":"https://madie.cms.gov/ServiceRequest/9a389c1c-ffe8-4e0f-82c1-1de0f813af5a","resource":{"resourceType":"ServiceRequest","id":"9a389c1c-ffe8-4e0f-82c1-1de0f813af5a","meta":{"profile":["http://hl7.org/fhir/us/qicore/StructureDefinition/qicore-servicenotrequested"]},"extension":[{"url":"http://hl7.org/fhir/us/qicore/StructureDefinition/qicore-doNotPerformReason","valueCodeableConcept":{"coding":[{"system":"http://snomed.info/sct","code":"183932001","display":"Procedure contraindicated (situation)"}]}}],"status":"completed","intent":"order","doNotPerform":true,"code":{"coding":[{"system":"http://snomed.info/sct","version":"2025-03","code":"428411000124104","display":"Intermittent pneumatic compression boot (physical object)","userSelected":true}]},"subject":{"reference":"Patient/7520f4b4-3bde-465e-b6b0-07c5ac3da4de"},"authoredOn":"2026-11-02T10:00:00.000+00:00"},"request":{"method":"PUT","url":"ServiceRequest/9a389c1c-ffe8-4e0f-82c1-1de0f813af5a"}},{"fullUrl":"https://madie.cms.gov/Organization/4767bb23-6818-4b88-85f2-f5f1365f02c2","resource":{"resourceType":"Organization","id":"607fdef9-3983-4cef-ab1a-95434d29b463","meta":{"profile":["http://hl7.org/fhir/us/qicore/StructureDefinition/qicore-organization"]},"identifier":[{"use":"temp","system":"urn:oid:2.16.840.1.113883.4.4","value":"21-3259825"}],"active":true,"type":[{"coding":[{"system":"http://terminology.hl7.org/CodeSystem/organization-type","code":"pay","display":"Payer"}]}],"name":"Blue Cross Blue Shield of Texas","telecom":[{"system":"phone","value":"(+1) 972-766-6900"}],"address":[{"use":"billing","type":"postal","line":["P.O. Box 660044"],"city":"Dallas","state":"TX","postalCode":"75266-0044","country":"USA"}]},"request":{"method":"PUT","url":"Organization/607fdef9-3983-4cef-ab1a-95434d29b463"}},{"fullUrl":"https://madie.cms.gov/Practitioner/c30d5b2e-484a-4d9d-bba7-03a1a45bf2a4","resource":{"resourceType":"Practitioner","id":"c30d5b2e-484a-4d9d-bba7-03a1a45bf2a4","identifier":[{"system":"http://hl7.org/fhir/sid/us-npi","value":"123456"}],"name":[{"family":"Evil","prefix":["Dr"]}]},"request":{"method":"PUT","url":"Practitioner/c30d5b2e-484a-4d9d-bba7-03a1a45bf2a4"}},{"fullUrl":"https://madie.cms.gov/MeasureReport/375b517c-d6bb-44d2-80b5-c39c6a3f88aa","resource":{"resourceType":"MeasureReport","id":"375b517c-d6bb-44d2-80b5-c39c6a3f88aa","meta":{"profile":["http://hl7.org/fhir/us/cqfmeasures/StructureDefinition/test-case-cqfm"]},"contained":[{"resourceType":"Parameters","id":"d91952aa-8fd5-4fbc-9724-180f11d67502-parameters","parameter":[{"name":"subject","valueString":"7520f4b4-3bde-465e-b6b0-07c5ac3da4de"}]}],"extension":[{"url":"http://hl7.org/fhir/us/cqfmeasures/StructureDefinition/cqfm-inputParameters","valueReference":{"reference":"#d91952aa-8fd5-4fbc-9724-180f11d67502-parameters"}},{"url":"http://hl7.org/fhir/us/cqfmeasures/StructureDefinition/cqfm-testCaseDescription","valueMarkdown":"IPC not ordered and warfarin not administered due to medical reason <= 1 day after end of anesthesia\n"}],"modifierExtension":[{"url":"http://hl7.org/fhir/us/cqfmeasures/StructureDefinition/cqfm-isTestCase","valueBoolean":true}],"status":"complete","type":"individual","measure":"https://madie.cms.gov/Measure/CMS108VTEProphylaxisFHIR","period":{"start":"2026-01-01","end":"2026-12-31"},"group":[{"population":[{"code":{"coding":[{"system":"http://terminology.hl7.org/CodeSystem/measure-population","code":"initial-population","display":"Initial Population"}]},"count":1},{"code":{"coding":[{"system":"http://terminology.hl7.org/CodeSystem/measure-population","code":"denominator","display":"Denominator"}]},"count":1},{"code":{"coding":[{"system":"http://terminology.hl7.org/CodeSystem/measure-population","code":"denominator-exclusion","display":"Denominator Exclusion"}]},"count":0},{"code":{"coding":[{"system":"http://terminology.hl7.org/CodeSystem/measure-population","code":"numerator","display":"Numerator"}]},"count":1}]}]},"request":{"method":"PUT","url":"MeasureReport/375b517c-d6bb-44d2-80b5-c39c6a3f88aa"}}]}