{"resourceType":"Bundle","id":"tests-554c649c-cc35-489d-9216-31ccf349a841-bundle","type":"transaction","entry":[{"fullUrl":"https://madie.cms.gov/Patient/554c649c-cc35-489d-9216-31ccf349a841","resource":{"resourceType":"Patient","id":"554c649c-cc35-489d-9216-31ccf349a841","meta":{"profile":["http://hl7.org/fhir/us/qicore/StructureDefinition/qicore-patient"]},"text":{"status":"generated","div":"<div xmlns=\"http://www.w3.org/1999/xhtml\"><div class=\"hapiHeaderText\">VTE_RiskAsseOnAnesEndTime <b>NUMERPASS </b></div><table class=\"hapiPropertyTable\"><tbody><tr><td>Identifier</td><td>f5d2e33da369b2287bfe6d238bf1cc3e</td></tr><tr><td>Date of birth</td><td><span>02 January 1974</span></td></tr></tbody></table></div>"},"extension":[{"url":"http://hl7.org/fhir/us/core/StructureDefinition/us-core-race","extension":[{"url":"ombCategory","valueCoding":{"system":"urn:oid:2.16.840.1.113883.6.238","code":"1002-5","display":"American Indian or Alaska Native","userSelected":true}},{"url":"text","valueString":"American Indian or Alaska Native"}]},{"url":"http://hl7.org/fhir/us/core/StructureDefinition/us-core-ethnicity","extension":[{"url":"ombCategory","valueCoding":{"system":"urn:oid:2.16.840.1.113883.6.238","code":"2135-2","display":"Hispanic or Latino","userSelected":true}},{"url":"text","valueString":"Hispanic or Latino"}]}],"identifier":[{"type":{"coding":[{"system":"http://terminology.hl7.org/CodeSystem/v2-0203","code":"MR"}]},"system":"https://bonnie-fhir.healthit.gov/","value":"612e6b7a02c62a011f2eddf3"}],"active":true,"name":[{"use":"usual","family":"NUMERPass","given":["VTE_RiskAssesOnAnesEndTime"]}],"gender":"male","birthDate":"1975-01-02"},"request":{"method":"PUT","url":"Patient/554c649c-cc35-489d-9216-31ccf349a841"}},{"fullUrl":"https://madie.cms.gov/Encounter/143f0dde-57de-45fe-ab06-5c75fbc7dbb4","resource":{"resourceType":"Encounter","id":"143f0dde-57de-45fe-ab06-5c75fbc7dbb4","meta":{"profile":["http://hl7.org/fhir/us/qicore/StructureDefinition/qicore-encounter"]},"status":"finished","class":{"system":"http://terminology.hl7.org/CodeSystem/v3-ActCode","code":"IMP","display":"inpatient encounter"},"type":[{"coding":[{"system":"http://snomed.info/sct","code":"8715000"}]}],"subject":{"reference":"Patient/554c649c-cc35-489d-9216-31ccf349a841"},"period":{"start":"2026-11-01T08:00:00+00:00","end":"2026-11-26T08:15:00+00:00"},"length":{"value":25.0,"unit":"days"}},"request":{"method":"PUT","url":"Encounter/143f0dde-57de-45fe-ab06-5c75fbc7dbb4"}},{"fullUrl":"https://madie.cms.gov/Observation/b100b03e-1da5-4dce-ac37-054301545065","resource":{"resourceType":"Observation","id":"b100b03e-1da5-4dce-ac37-054301545065","meta":{"profile":["http://hl7.org/fhir/us/qicore/StructureDefinition/qicore-observation"]},"status":"final","category":[{"coding":[{"system":"http://terminology.hl7.org/CodeSystem/observation-category","code":"exam","display":"exam"}]}],"code":{"coding":[{"system":"http://loinc.org","code":"72136-5"}]},"subject":{"reference":"Patient/554c649c-cc35-489d-9216-31ccf349a841"},"effectiveDateTime":"2026-11-02T09:15:00+00:00","valueCodeableConcept":{"coding":[{"system":"http://snomed.info/sct","code":"260362008","display":"Very low (qualifier value)","userSelected":true}]}},"request":{"method":"PUT","url":"Observation/b100b03e-1da5-4dce-ac37-054301545065"}},{"fullUrl":"https://madie.cms.gov/Coverage/6a7855b6-d25d-452b-bbd0-7c00f6c1cfb8","resource":{"resourceType":"Coverage","id":"6a7855b6-d25d-452b-bbd0-7c00f6c1cfb8","status":"active","beneficiary":{"reference":"Patient/554c649c-cc35-489d-9216-31ccf349a841"},"period":{"start":"1975-01-02T08:00:00+00:00"},"payor":[{"reference":"Organization/3e899f33-84eb-4634-a770-a5a0bd7a80e7"}]},"request":{"method":"PUT","url":"Coverage/6a7855b6-d25d-452b-bbd0-7c00f6c1cfb8"}},{"fullUrl":"https://madie.cms.gov/Procedure/93d61d22-beb3-4fd5-ad70-bc66297c6c88","resource":{"resourceType":"Procedure","id":"93d61d22-beb3-4fd5-ad70-bc66297c6c88","meta":{"profile":["http://hl7.org/fhir/us/qicore/StructureDefinition/qicore-procedure"]},"extension":[{"url":"http://hl7.org/fhir/us/qicore/StructureDefinition/qicore-recorded","valueDateTime":"2026-11-02T09:35:00-04:00"}],"status":"completed","code":{"coding":[{"system":"http://www.icd10data.com/icd10pcs","code":"3E030FZ"},{"system":"http://snomed.info/sct","code":"18946005"}]},"subject":{"reference":"Patient/554c649c-cc35-489d-9216-31ccf349a841"},"performedPeriod":{"start":"2026-11-02T09:00:00+00:00","end":"2026-11-02T09:15:00+00:00"}},"request":{"method":"PUT","url":"Procedure/93d61d22-beb3-4fd5-ad70-bc66297c6c88"}},{"fullUrl":"https://madie.cms.gov/Organization/a5ade07d-3e1b-44a3-9724-33f42ddbb286","resource":{"resourceType":"Organization","id":"3e899f33-84eb-4634-a770-a5a0bd7a80e7","meta":{"profile":["http://hl7.org/fhir/us/qicore/StructureDefinition/qicore-organization"]},"identifier":[{"use":"temp","system":"urn:oid:2.16.840.1.113883.4.4","value":"21-3259825"}],"active":true,"type":[{"coding":[{"system":"http://terminology.hl7.org/CodeSystem/organization-type","code":"pay","display":"Payer"}]}],"name":"Blue Cross Blue Shield of Texas","telecom":[{"system":"phone","value":"(+1) 972-766-6900"}],"address":[{"use":"billing","type":"postal","line":["P.O. Box 660044"],"city":"Dallas","state":"TX","postalCode":"75266-0044","country":"USA"}]},"request":{"method":"PUT","url":"Organization/3e899f33-84eb-4634-a770-a5a0bd7a80e7"}},{"fullUrl":"https://madie.cms.gov/Practitioner/7606b1f3-b020-4566-afbc-ab07f6bfe8ed","resource":{"resourceType":"Practitioner","id":"7606b1f3-b020-4566-afbc-ab07f6bfe8ed","identifier":[{"system":"http://hl7.org/fhir/sid/us-npi","value":"123456"}],"name":[{"family":"Evil","prefix":["Dr"]}]},"request":{"method":"PUT","url":"Practitioner/7606b1f3-b020-4566-afbc-ab07f6bfe8ed"}},{"fullUrl":"https://madie.cms.gov/MeasureReport/23b4f0ac-5726-4062-b4be-403ced87ac2b","resource":{"resourceType":"MeasureReport","id":"23b4f0ac-5726-4062-b4be-403ced87ac2b","meta":{"profile":["http://hl7.org/fhir/us/cqfmeasures/StructureDefinition/test-case-cqfm"]},"contained":[{"resourceType":"Parameters","id":"354b0664-3599-4de9-a233-3091d07549fe-parameters","parameter":[{"name":"subject","valueString":"554c649c-cc35-489d-9216-31ccf349a841"}]}],"extension":[{"url":"http://hl7.org/fhir/us/cqfmeasures/StructureDefinition/cqfm-inputParameters","valueReference":{"reference":"#354b0664-3599-4de9-a233-3091d07549fe-parameters"}},{"url":"http://hl7.org/fhir/us/cqfmeasures/StructureDefinition/cqfm-testCaseDescription","valueMarkdown":"risk assessment done concurrent with the end of anesthesia\n"}],"modifierExtension":[{"url":"http://hl7.org/fhir/us/cqfmeasures/StructureDefinition/cqfm-isTestCase","valueBoolean":true}],"status":"complete","type":"individual","measure":"https://madie.cms.gov/Measure/CMS108VTEProphylaxisFHIR","period":{"start":"2026-01-01","end":"2026-12-31"},"group":[{"population":[{"code":{"coding":[{"system":"http://terminology.hl7.org/CodeSystem/measure-population","code":"initial-population","display":"Initial Population"}]},"count":1},{"code":{"coding":[{"system":"http://terminology.hl7.org/CodeSystem/measure-population","code":"denominator","display":"Denominator"}]},"count":1},{"code":{"coding":[{"system":"http://terminology.hl7.org/CodeSystem/measure-population","code":"denominator-exclusion","display":"Denominator Exclusion"}]},"count":0},{"code":{"coding":[{"system":"http://terminology.hl7.org/CodeSystem/measure-population","code":"numerator","display":"Numerator"}]},"count":1}]}]},"request":{"method":"PUT","url":"MeasureReport/23b4f0ac-5726-4062-b4be-403ced87ac2b"}}]}