{"resourceType":"Bundle","id":"tests-29ed471c-3393-43d4-a234-2550851b2bc7-bundle","type":"transaction","entry":[{"fullUrl":"https://madie.cms.gov/Patient/29ed471c-3393-43d4-a234-2550851b2bc7","resource":{"resourceType":"Patient","id":"29ed471c-3393-43d4-a234-2550851b2bc7","meta":{"profile":["http://hl7.org/fhir/us/qicore/StructureDefinition/qicore-patient"]},"text":{"status":"generated","div":"<div xmlns=\"http://www.w3.org/1999/xhtml\"><div class=\"hapiHeaderText\">TestMultipleOccur_1inIPP1FailIPPdueToDx <b>NUMERPASS </b></div><table class=\"hapiPropertyTable\"><tbody><tr><td>Identifier</td><td>d7fcba6cb5e90ce5458a4e79a6dfe7a0</td></tr><tr><td>Date of birth</td><td><span>02 January 1974</span></td></tr></tbody></table></div>"},"extension":[{"url":"http://hl7.org/fhir/us/core/StructureDefinition/us-core-race","extension":[{"url":"ombCategory","valueCoding":{"system":"urn:oid:2.16.840.1.113883.6.238","code":"1002-5","display":"American Indian or Alaska Native","userSelected":true}},{"url":"text","valueString":"American Indian or Alaska Native"}]},{"url":"http://hl7.org/fhir/us/core/StructureDefinition/us-core-ethnicity","extension":[{"url":"ombCategory","valueCoding":{"system":"urn:oid:2.16.840.1.113883.6.238","code":"2135-2","display":"Hispanic or Latino","userSelected":true}},{"url":"text","valueString":"Hispanic or Latino"}]}],"identifier":[{"type":{"coding":[{"system":"http://terminology.hl7.org/CodeSystem/v2-0203","code":"MR"}]},"system":"https://bonnie-fhir.healthit.gov/","value":"612e6a5402c62a011f2e9a75"}],"active":true,"name":[{"use":"usual","family":"NUMERPass","given":["TestMultipleOccur_1inIPP1FailIPPdueToDx"]}],"gender":"male","birthDate":"1975-01-02"},"request":{"method":"PUT","url":"Patient/29ed471c-3393-43d4-a234-2550851b2bc7"}},{"fullUrl":"https://madie.cms.gov/Encounter/01bd7fb5-cae8-46f5-b397-101473541618","resource":{"resourceType":"Encounter","id":"01bd7fb5-cae8-46f5-b397-101473541618","meta":{"profile":["http://hl7.org/fhir/us/qicore/StructureDefinition/qicore-encounter"]},"status":"finished","class":{"system":"http://terminology.hl7.org/CodeSystem/v3-ActCode","code":"IMP","display":"inpatient encounter"},"type":[{"coding":[{"system":"http://snomed.info/sct","code":"8715000"}]}],"subject":{"reference":"Patient/29ed471c-3393-43d4-a234-2550851b2bc7"},"period":{"start":"2026-10-19T08:00:00+00:00","end":"2026-10-31T08:15:00+00:00"},"length":{"value":12.0,"unit":"days"},"diagnosis":[{"condition":{"reference":"Condition/5072531f-9974-4675-9245-9f46d2e31a10"},"use":{"coding":[{"system":"http://snomed.info/sct","code":"10217006","display":"Obstetrics"}]}}]},"request":{"method":"PUT","url":"Encounter/01bd7fb5-cae8-46f5-b397-101473541618"}},{"fullUrl":"https://madie.cms.gov/Encounter/98809597-13ee-4473-b59f-8ec38f19e164","resource":{"resourceType":"Encounter","id":"98809597-13ee-4473-b59f-8ec38f19e164","meta":{"profile":["http://hl7.org/fhir/us/qicore/StructureDefinition/qicore-encounter"]},"status":"finished","class":{"system":"http://terminology.hl7.org/CodeSystem/v3-ActCode","code":"IMP","display":"inpatient encounter"},"type":[{"coding":[{"system":"http://snomed.info/sct","code":"8715000"}]}],"subject":{"reference":"Patient/29ed471c-3393-43d4-a234-2550851b2bc7"},"period":{"start":"2026-11-01T08:00:00+00:00","end":"2026-11-26T08:15:00+00:00"},"length":{"value":25.0,"unit":"days"}},"request":{"method":"PUT","url":"Encounter/98809597-13ee-4473-b59f-8ec38f19e164"}},{"fullUrl":"https://madie.cms.gov/Coverage/59b9b461-4ec6-4e23-bf10-4d494993ee83","resource":{"resourceType":"Coverage","id":"59b9b461-4ec6-4e23-bf10-4d494993ee83","status":"active","beneficiary":{"reference":"Patient/29ed471c-3393-43d4-a234-2550851b2bc7"},"period":{"start":"1975-01-02T08:00:00+00:00"},"payor":[{"reference":"Organization/db141f66-a1cc-407b-9e95-adac27adee14"}]},"request":{"method":"PUT","url":"Coverage/59b9b461-4ec6-4e23-bf10-4d494993ee83"}},{"fullUrl":"https://madie.cms.gov/Condition/5072531f-9974-4675-9245-9f46d2e31a10","resource":{"resourceType":"Condition","id":"5072531f-9974-4675-9245-9f46d2e31a10","meta":{"profile":["http://hl7.org/fhir/us/qicore/StructureDefinition/qicore-condition"]},"category":[{"coding":[{"system":"http://terminology.hl7.org/CodeSystem/condition-category","code":"encounter-diagnosis","display":"Encounter Diagnosis"}]}],"code":{"coding":[{"system":"http://snomed.info/sct","version":"2025-03","code":"13943000","display":"Failed attempted abortion complicated by embolism (disorder)","userSelected":true}]},"subject":{"reference":"Patient/29ed471c-3393-43d4-a234-2550851b2bc7"},"recordedDate":"2026-10-20T08:00:00.000+00:00"},"request":{"method":"PUT","url":"Condition/5072531f-9974-4675-9245-9f46d2e31a10"}},{"fullUrl":"https://madie.cms.gov/Procedure/211f50d7-fbd5-46e3-918e-c8512368a51d","resource":{"resourceType":"Procedure","id":"211f50d7-fbd5-46e3-918e-c8512368a51d","meta":{"profile":["http://hl7.org/fhir/us/qicore/StructureDefinition/qicore-procedure"]},"extension":[{"url":"http://hl7.org/fhir/us/qicore/StructureDefinition/qicore-recorded","valueDateTime":"2013-11-02T09:35:00-04:00"}],"status":"completed","code":{"coding":[{"system":"http://snomed.info/sct","code":"443448006","display":"Application of intermittent pneumatic compression device (procedure)"}]},"subject":{"reference":"Patient/29ed471c-3393-43d4-a234-2550851b2bc7"},"performedDateTime":"2026-11-01T09:00:00.000+00:00"},"request":{"method":"PUT","url":"Procedure/211f50d7-fbd5-46e3-918e-c8512368a51d"}},{"fullUrl":"https://madie.cms.gov/Organization/76e6b086-7168-406d-960b-a395ce583550","resource":{"resourceType":"Organization","id":"db141f66-a1cc-407b-9e95-adac27adee14","meta":{"profile":["http://hl7.org/fhir/us/qicore/StructureDefinition/qicore-organization"]},"identifier":[{"use":"temp","system":"urn:oid:2.16.840.1.113883.4.4","value":"21-3259825"}],"active":true,"type":[{"coding":[{"system":"http://terminology.hl7.org/CodeSystem/organization-type","code":"pay","display":"Payer"}]}],"name":"Blue Cross Blue Shield of Texas","telecom":[{"system":"phone","value":"(+1) 972-766-6900"}],"address":[{"use":"billing","type":"postal","line":["P.O. Box 660044"],"city":"Dallas","state":"TX","postalCode":"75266-0044","country":"USA"}]},"request":{"method":"PUT","url":"Organization/db141f66-a1cc-407b-9e95-adac27adee14"}},{"fullUrl":"https://madie.cms.gov/Practitioner/6b983768-97b1-4bc7-aa7b-bdd93c7079f7","resource":{"resourceType":"Practitioner","id":"6b983768-97b1-4bc7-aa7b-bdd93c7079f7","identifier":[{"system":"http://hl7.org/fhir/sid/us-npi","value":"123456"}],"name":[{"family":"Evil","prefix":["Dr"]}]},"request":{"method":"PUT","url":"Practitioner/6b983768-97b1-4bc7-aa7b-bdd93c7079f7"}},{"fullUrl":"https://madie.cms.gov/MeasureReport/9af13660-7e5d-44ac-b977-99f749809d4d","resource":{"resourceType":"MeasureReport","id":"9af13660-7e5d-44ac-b977-99f749809d4d","meta":{"profile":["http://hl7.org/fhir/us/cqfmeasures/StructureDefinition/test-case-cqfm"]},"contained":[{"resourceType":"Parameters","id":"d75ab42d-08b7-4f39-b80a-e9d799790d0e-parameters","parameter":[{"name":"subject","valueString":"29ed471c-3393-43d4-a234-2550851b2bc7"}]}],"extension":[{"url":"http://hl7.org/fhir/us/cqfmeasures/StructureDefinition/cqfm-inputParameters","valueReference":{"reference":"#d75ab42d-08b7-4f39-b80a-e9d799790d0e-parameters"}},{"url":"http://hl7.org/fhir/us/cqfmeasures/StructureDefinition/cqfm-testCaseDescription","valueMarkdown":"Patient has 2 encounters, first encounter has Obstetrics diagnosis, but second encounter has no ob diagnosis and IPC applied <=1 day after start of encounter\n"}],"modifierExtension":[{"url":"http://hl7.org/fhir/us/cqfmeasures/StructureDefinition/cqfm-isTestCase","valueBoolean":true}],"status":"complete","type":"individual","measure":"https://madie.cms.gov/Measure/CMS108VTEProphylaxisFHIR","period":{"start":"2026-01-01","end":"2026-12-31"},"group":[{"population":[{"code":{"coding":[{"system":"http://terminology.hl7.org/CodeSystem/measure-population","code":"initial-population","display":"Initial Population"}]},"count":1},{"code":{"coding":[{"system":"http://terminology.hl7.org/CodeSystem/measure-population","code":"denominator","display":"Denominator"}]},"count":1},{"code":{"coding":[{"system":"http://terminology.hl7.org/CodeSystem/measure-population","code":"denominator-exclusion","display":"Denominator Exclusion"}]},"count":0},{"code":{"coding":[{"system":"http://terminology.hl7.org/CodeSystem/measure-population","code":"numerator","display":"Numerator"}]},"count":1}]}]},"request":{"method":"PUT","url":"MeasureReport/9af13660-7e5d-44ac-b977-99f749809d4d"}}]}