{"resourceType":"Bundle","id":"tests-a3e0cca4-bdb1-4972-b6ca-84841cb66859-bundle","type":"transaction","entry":[{"fullUrl":"https://madie.cms.gov/Patient/a3e0cca4-bdb1-4972-b6ca-84841cb66859","resource":{"resourceType":"Patient","id":"a3e0cca4-bdb1-4972-b6ca-84841cb66859","meta":{"profile":["http://hl7.org/fhir/us/qicore/StructureDefinition/qicore-patient"]},"text":{"status":"generated","div":"<div xmlns=\"http://www.w3.org/1999/xhtml\"><div class=\"hapiHeaderText\">VTE_RiskAssess_DayAfAnes_ProcRvltDT <b>NUMERPASS </b></div><table class=\"hapiPropertyTable\"><tbody><tr><td>Identifier</td><td>c54dbc364ce913dfe300bd0f00b65409</td></tr><tr><td>Date of birth</td><td><span>02 January 1974</span></td></tr></tbody></table></div>"},"extension":[{"url":"http://hl7.org/fhir/us/core/StructureDefinition/us-core-race","extension":[{"url":"ombCategory","valueCoding":{"system":"urn:oid:2.16.840.1.113883.6.238","code":"1002-5","display":"American Indian or Alaska Native","userSelected":true}},{"url":"text","valueString":"American Indian or Alaska Native"}]},{"url":"http://hl7.org/fhir/us/core/StructureDefinition/us-core-ethnicity","extension":[{"url":"ombCategory","valueCoding":{"system":"urn:oid:2.16.840.1.113883.6.238","code":"2135-2","display":"Hispanic or Latino","userSelected":true}},{"url":"text","valueString":"Hispanic or Latino"}]}],"identifier":[{"type":{"coding":[{"system":"http://terminology.hl7.org/CodeSystem/v2-0203","code":"MR"}]},"system":"https://bonnie-fhir.healthit.gov/","value":"612e6b2c02c62a011f2ecb94"}],"active":true,"name":[{"use":"usual","family":"NUMERPass","given":["VTE_RiskAssess_DayAfAnes_ProcRvltDT"]}],"gender":"male","birthDate":"1975-01-02"},"request":{"method":"PUT","url":"Patient/a3e0cca4-bdb1-4972-b6ca-84841cb66859"}},{"fullUrl":"https://madie.cms.gov/Encounter/5d5d3343-1c5b-4310-980a-553d7d43c88b","resource":{"resourceType":"Encounter","id":"5d5d3343-1c5b-4310-980a-553d7d43c88b","meta":{"profile":["http://hl7.org/fhir/us/qicore/StructureDefinition/qicore-encounter"]},"status":"finished","class":{"system":"http://terminology.hl7.org/CodeSystem/v3-ActCode","code":"IMP","display":"inpatient encounter"},"type":[{"coding":[{"system":"http://snomed.info/sct","code":"8715000"}]}],"subject":{"reference":"Patient/a3e0cca4-bdb1-4972-b6ca-84841cb66859"},"period":{"start":"2026-11-01T08:00:00+00:00","end":"2026-11-26T08:15:00+00:00"},"length":{"value":25.0,"unit":"days"}},"request":{"method":"PUT","url":"Encounter/5d5d3343-1c5b-4310-980a-553d7d43c88b"}},{"fullUrl":"https://madie.cms.gov/Observation/cbbdad9c-96c2-4add-9239-384b4cbecd1e","resource":{"resourceType":"Observation","id":"cbbdad9c-96c2-4add-9239-384b4cbecd1e","meta":{"profile":["http://hl7.org/fhir/us/qicore/StructureDefinition/qicore-observation"]},"status":"amended","category":[{"coding":[{"system":"http://terminology.hl7.org/CodeSystem/observation-category","code":"exam","display":"exam"}]}],"code":{"coding":[{"system":"http://loinc.org","code":"72136-5"}]},"subject":{"reference":"Patient/a3e0cca4-bdb1-4972-b6ca-84841cb66859"},"effectiveDateTime":"2026-11-03T11:00:00+00:00","valueCodeableConcept":{"coding":[{"system":"http://snomed.info/sct","code":"260362008","display":"Low Risk"}]}},"request":{"method":"PUT","url":"Observation/cbbdad9c-96c2-4add-9239-384b4cbecd1e"}},{"fullUrl":"https://madie.cms.gov/Coverage/1e73696b-b3fa-48c6-a6f4-da520a85c906","resource":{"resourceType":"Coverage","id":"1e73696b-b3fa-48c6-a6f4-da520a85c906","status":"active","beneficiary":{"reference":"Patient/a3e0cca4-bdb1-4972-b6ca-84841cb66859"},"period":{"start":"1975-01-02T08:00:00+00:00"},"payor":[{"reference":"Organization/3e899f33-84eb-4634-a770-a5a0bd7a80e7"}]},"request":{"method":"PUT","url":"Coverage/1e73696b-b3fa-48c6-a6f4-da520a85c906"}},{"fullUrl":"https://madie.cms.gov/Procedure/ef6c498c-63d2-43a4-9282-74102eda5348","resource":{"resourceType":"Procedure","id":"ef6c498c-63d2-43a4-9282-74102eda5348","meta":{"profile":["http://hl7.org/fhir/us/qicore/StructureDefinition/qicore-procedure"]},"extension":[{"url":"http://hl7.org/fhir/us/qicore/StructureDefinition/qicore-recorded","valueDateTime":"2026-11-03T09:35:00-04:00"}],"status":"completed","code":{"coding":[{"system":"http://snomed.info/sct","code":"18946005"}]},"subject":{"reference":"Patient/a3e0cca4-bdb1-4972-b6ca-84841cb66859"},"performedPeriod":{"end":"2026-11-02T09:15:00+00:00"}},"request":{"method":"PUT","url":"Procedure/ef6c498c-63d2-43a4-9282-74102eda5348"}},{"fullUrl":"https://madie.cms.gov/Organization/1c937aab-127f-4b75-8d5b-1762dade9a7c","resource":{"resourceType":"Organization","id":"3e899f33-84eb-4634-a770-a5a0bd7a80e7","meta":{"profile":["http://hl7.org/fhir/us/qicore/StructureDefinition/qicore-organization"]},"identifier":[{"use":"temp","system":"urn:oid:2.16.840.1.113883.4.4","value":"21-3259825"}],"active":true,"type":[{"coding":[{"system":"http://terminology.hl7.org/CodeSystem/organization-type","code":"pay","display":"Payer"}]}],"name":"Blue Cross Blue Shield of Texas","telecom":[{"system":"phone","value":"(+1) 972-766-6900"}],"address":[{"use":"billing","type":"postal","line":["P.O. Box 660044"],"city":"Dallas","state":"TX","postalCode":"75266-0044","country":"USA"}]},"request":{"method":"PUT","url":"Organization/3e899f33-84eb-4634-a770-a5a0bd7a80e7"}},{"fullUrl":"https://madie.cms.gov/Practitioner/24870c86-52a1-410c-89aa-c2533c51a135","resource":{"resourceType":"Practitioner","id":"24870c86-52a1-410c-89aa-c2533c51a135","identifier":[{"system":"http://hl7.org/fhir/sid/us-npi","value":"123456"}],"name":[{"family":"Evil","prefix":["Dr"]}]},"request":{"method":"PUT","url":"Practitioner/24870c86-52a1-410c-89aa-c2533c51a135"}},{"fullUrl":"https://madie.cms.gov/MeasureReport/e262932f-f965-4c33-97d5-ee7decd170b3","resource":{"resourceType":"MeasureReport","id":"e262932f-f965-4c33-97d5-ee7decd170b3","meta":{"profile":["http://hl7.org/fhir/us/cqfmeasures/StructureDefinition/test-case-cqfm"]},"contained":[{"resourceType":"Parameters","id":"abfb772f-3e7b-4452-a34d-e83466cc05ff-parameters","parameter":[{"name":"subject","valueString":"a3e0cca4-bdb1-4972-b6ca-84841cb66859"}]}],"extension":[{"url":"http://hl7.org/fhir/us/cqfmeasures/StructureDefinition/cqfm-inputParameters","valueReference":{"reference":"#abfb772f-3e7b-4452-a34d-e83466cc05ff-parameters"}},{"url":"http://hl7.org/fhir/us/cqfmeasures/StructureDefinition/cqfm-testCaseDescription","valueMarkdown":"risk assessment done  1 day after the end of anesthesia as RevelantDateime, result is low risk\n"}],"modifierExtension":[{"url":"http://hl7.org/fhir/us/cqfmeasures/StructureDefinition/cqfm-isTestCase","valueBoolean":true}],"status":"complete","type":"individual","measure":"https://madie.cms.gov/Measure/CMS108VTEProphylaxisFHIR","period":{"start":"2026-01-01","end":"2026-12-31"},"group":[{"population":[{"code":{"coding":[{"system":"http://terminology.hl7.org/CodeSystem/measure-population","code":"initial-population","display":"Initial Population"}]},"count":1},{"code":{"coding":[{"system":"http://terminology.hl7.org/CodeSystem/measure-population","code":"denominator","display":"Denominator"}]},"count":1},{"code":{"coding":[{"system":"http://terminology.hl7.org/CodeSystem/measure-population","code":"denominator-exclusion","display":"Denominator Exclusion"}]},"count":0},{"code":{"coding":[{"system":"http://terminology.hl7.org/CodeSystem/measure-population","code":"numerator","display":"Numerator"}]},"count":1}]}]},"request":{"method":"PUT","url":"MeasureReport/e262932f-f965-4c33-97d5-ee7decd170b3"}}]}