{"resourceType":"Bundle","id":"tests-543248c8-b6af-407d-b435-7e867c4770b4-bundle","type":"transaction","entry":[{"fullUrl":"https://madie.cms.gov/Patient/543248c8-b6af-407d-b435-7e867c4770b4","resource":{"resourceType":"Patient","id":"543248c8-b6af-407d-b435-7e867c4770b4","meta":{"profile":["http://hl7.org/fhir/us/qicore/StructureDefinition/qicore-patient"]},"text":{"status":"generated","div":"<div xmlns=\"http://www.w3.org/1999/xhtml\"><div class=\"hapiHeaderText\">Dx=AFibStartsOnEncEndTime <b>NUMERPASS </b></div><table class=\"hapiPropertyTable\"><tbody><tr><td>Identifier</td><td>fca51eeec53d2cb77f423c38feec332b</td></tr><tr><td>Date of birth</td><td><span>02 January 1974</span></td></tr></tbody></table></div>"},"extension":[{"url":"http://hl7.org/fhir/us/core/StructureDefinition/us-core-race","extension":[{"url":"ombCategory","valueCoding":{"system":"urn:oid:2.16.840.1.113883.6.238","code":"1002-5","display":"American Indian or Alaska Native","userSelected":true}},{"url":"text","valueString":"American Indian or Alaska Native"}]},{"url":"http://hl7.org/fhir/us/core/StructureDefinition/us-core-ethnicity","extension":[{"url":"ombCategory","valueCoding":{"system":"urn:oid:2.16.840.1.113883.6.238","code":"2135-2","display":"Hispanic or Latino","userSelected":true}},{"url":"text","valueString":"Hispanic or Latino"}]}],"identifier":[{"type":{"coding":[{"system":"http://terminology.hl7.org/CodeSystem/v2-0203","code":"MR"}]},"system":"https://bonnie-fhir.healthit.gov/","value":"612e6ac202c62a011f2eb282"}],"active":true,"name":[{"use":"usual","family":"NUMERPass","given":["DxAFibStartsOnEncEndTime"]}],"gender":"male","birthDate":"1975-01-02"},"request":{"method":"PUT","url":"Patient/543248c8-b6af-407d-b435-7e867c4770b4"}},{"fullUrl":"https://madie.cms.gov/Encounter/0c0033c4-61ec-40d6-a576-eb41455e5fbb","resource":{"resourceType":"Encounter","id":"0c0033c4-61ec-40d6-a576-eb41455e5fbb","meta":{"profile":["http://hl7.org/fhir/us/qicore/StructureDefinition/qicore-encounter"]},"status":"finished","class":{"system":"http://terminology.hl7.org/CodeSystem/v3-ActCode","code":"IMP","display":"inpatient encounter"},"type":[{"coding":[{"system":"http://snomed.info/sct","code":"8715000"}]}],"subject":{"reference":"Patient/543248c8-b6af-407d-b435-7e867c4770b4"},"period":{"start":"2026-11-01T08:00:00+00:00","end":"2026-11-26T08:15:00+00:00"},"length":{"value":25.0,"unit":"days"}},"request":{"method":"PUT","url":"Encounter/0c0033c4-61ec-40d6-a576-eb41455e5fbb"}},{"fullUrl":"https://madie.cms.gov/Coverage/e6a33ba7-4d52-4b7e-a4ea-5c2dfeda80d4","resource":{"resourceType":"Coverage","id":"e6a33ba7-4d52-4b7e-a4ea-5c2dfeda80d4","status":"active","beneficiary":{"reference":"Patient/543248c8-b6af-407d-b435-7e867c4770b4"},"period":{"start":"1975-01-02T08:00:00+00:00"},"payor":[{"reference":"Organization/607fdef9-3983-4cef-ab1a-95434d29b463"}]},"request":{"method":"PUT","url":"Coverage/e6a33ba7-4d52-4b7e-a4ea-5c2dfeda80d4"}},{"fullUrl":"https://madie.cms.gov/Condition/0b7fcfb5-9330-4c8e-907c-23415610be82","resource":{"resourceType":"Condition","id":"0b7fcfb5-9330-4c8e-907c-23415610be82","meta":{"profile":["http://hl7.org/fhir/us/qicore/StructureDefinition/qicore-condition"]},"clinicalStatus":{"coding":[{"system":"http://terminology.hl7.org/CodeSystem/condition-clinical","code":"active","display":"active","userSelected":true}]},"verificationStatus":{"coding":[{"system":"http://terminology.hl7.org/CodeSystem/condition-ver-status","code":"confirmed","display":"confirmed","userSelected":true}]},"category":[{"coding":[{"system":"http://terminology.hl7.org/CodeSystem/condition-category","code":"problem-list-item","display":"Problem List Item"}]}],"code":{"coding":[{"system":"http://snomed.info/sct","code":"195080001"},{"system":"http://hl7.org/fhir/sid/icd-9-cm","code":"427.31"},{"system":"http://hl7.org/fhir/sid/icd-10-cm","code":"I48.0"}]},"subject":{"reference":"Patient/543248c8-b6af-407d-b435-7e867c4770b4"},"onsetPeriod":{"start":"2026-11-26T08:15:00+00:00"}},"request":{"method":"PUT","url":"Condition/0b7fcfb5-9330-4c8e-907c-23415610be82"}},{"fullUrl":"https://madie.cms.gov/MedicationAdministration/37570c03-6f9a-427f-ab66-6de40588231c","resource":{"resourceType":"MedicationAdministration","id":"37570c03-6f9a-427f-ab66-6de40588231c","meta":{"profile":["http://hl7.org/fhir/us/qicore/StructureDefinition/qicore-medicationadministration"]},"status":"completed","medicationCodeableConcept":{"coding":[{"system":"http://www.nlm.nih.gov/research/umls/rxnorm","code":"1599555"}]},"subject":{"reference":"Patient/543248c8-b6af-407d-b435-7e867c4770b4"},"effectivePeriod":{"start":"2026-11-01T09:00:00+00:00"}},"request":{"method":"PUT","url":"MedicationAdministration/37570c03-6f9a-427f-ab66-6de40588231c"}},{"fullUrl":"https://madie.cms.gov/Organization/f52d9735-8008-4483-9ceb-024c6d923d51","resource":{"resourceType":"Organization","id":"607fdef9-3983-4cef-ab1a-95434d29b463","meta":{"profile":["http://hl7.org/fhir/us/qicore/StructureDefinition/qicore-organization"]},"identifier":[{"use":"temp","system":"urn:oid:2.16.840.1.113883.4.4","value":"21-3259825"}],"active":true,"type":[{"coding":[{"system":"http://terminology.hl7.org/CodeSystem/organization-type","code":"pay","display":"Payer"}]}],"name":"Blue Cross Blue Shield of Texas","telecom":[{"system":"phone","value":"(+1) 972-766-6900"}],"address":[{"use":"billing","type":"postal","line":["P.O. Box 660044"],"city":"Dallas","state":"TX","postalCode":"75266-0044","country":"USA"}]},"request":{"method":"PUT","url":"Organization/607fdef9-3983-4cef-ab1a-95434d29b463"}},{"fullUrl":"https://madie.cms.gov/Practitioner/2f70465b-aba3-4232-980c-fa8d1c2e5e4d","resource":{"resourceType":"Practitioner","id":"2f70465b-aba3-4232-980c-fa8d1c2e5e4d","identifier":[{"system":"http://hl7.org/fhir/sid/us-npi","value":"123456"}],"name":[{"family":"Evil","prefix":["Dr"]}]},"request":{"method":"PUT","url":"Practitioner/2f70465b-aba3-4232-980c-fa8d1c2e5e4d"}},{"fullUrl":"https://madie.cms.gov/MeasureReport/180c7633-011d-4198-bfc9-b2cdcf964d68","resource":{"resourceType":"MeasureReport","id":"180c7633-011d-4198-bfc9-b2cdcf964d68","meta":{"profile":["http://hl7.org/fhir/us/cqfmeasures/StructureDefinition/test-case-cqfm"]},"contained":[{"resourceType":"Parameters","id":"3968ab7d-b65a-40ed-8744-f403ad5273c2-parameters","parameter":[{"name":"subject","valueString":"543248c8-b6af-407d-b435-7e867c4770b4"}]}],"extension":[{"url":"http://hl7.org/fhir/us/cqfmeasures/StructureDefinition/cqfm-inputParameters","valueReference":{"reference":"#3968ab7d-b65a-40ed-8744-f403ad5273c2-parameters"}},{"url":"http://hl7.org/fhir/us/cqfmeasures/StructureDefinition/cqfm-testCaseDescription","valueMarkdown":"Has oral Xa and AFib - AFib start time concurrent with EncInp end time.\n"}],"modifierExtension":[{"url":"http://hl7.org/fhir/us/cqfmeasures/StructureDefinition/cqfm-isTestCase","valueBoolean":true}],"status":"complete","type":"individual","measure":"https://madie.cms.gov/Measure/CMS108VTEProphylaxisFHIR","period":{"start":"2026-01-01","end":"2026-12-31"},"group":[{"population":[{"code":{"coding":[{"system":"http://terminology.hl7.org/CodeSystem/measure-population","code":"initial-population","display":"Initial Population"}]},"count":1},{"code":{"coding":[{"system":"http://terminology.hl7.org/CodeSystem/measure-population","code":"denominator","display":"Denominator"}]},"count":1},{"code":{"coding":[{"system":"http://terminology.hl7.org/CodeSystem/measure-population","code":"denominator-exclusion","display":"Denominator Exclusion"}]},"count":0},{"code":{"coding":[{"system":"http://terminology.hl7.org/CodeSystem/measure-population","code":"numerator","display":"Numerator"}]},"count":1}]}]},"request":{"method":"PUT","url":"MeasureReport/180c7633-011d-4198-bfc9-b2cdcf964d68"}}]}