{"resourceType":"Bundle","id":"tests-3c8c427a-d756-456a-8f4e-e909b364e4fb-bundle","type":"transaction","entry":[{"fullUrl":"https://madie.cms.gov/Patient/3c8c427a-d756-456a-8f4e-e909b364e4fb","resource":{"resourceType":"Patient","id":"3c8c427a-d756-456a-8f4e-e909b364e4fb","meta":{"profile":["http://hl7.org/fhir/us/qicore/StructureDefinition/qicore-patient"]},"text":{"status":"generated","div":"<div xmlns=\"http://www.w3.org/1999/xhtml\"><div class=\"hapiHeaderText\">MA_OralXaOnDayAFAnes_MedAdmDT <b>NUMERPASS </b></div><table class=\"hapiPropertyTable\"><tbody><tr><td>Identifier</td><td>a47c3099d7a3ac0ff12b569e6d2221d4</td></tr><tr><td>Date of birth</td><td><span>02 January 1974</span></td></tr></tbody></table></div>"},"extension":[{"url":"http://hl7.org/fhir/us/core/StructureDefinition/us-core-race","extension":[{"url":"ombCategory","valueCoding":{"system":"urn:oid:2.16.840.1.113883.6.238","code":"1002-5","display":"American Indian or Alaska Native","userSelected":true}},{"url":"text","valueString":"American Indian or Alaska Native"}]},{"url":"http://hl7.org/fhir/us/core/StructureDefinition/us-core-ethnicity","extension":[{"url":"ombCategory","valueCoding":{"system":"urn:oid:2.16.840.1.113883.6.238","code":"2135-2","display":"Hispanic or Latino","userSelected":true}},{"url":"text","valueString":"Hispanic or Latino"}]}],"identifier":[{"type":{"coding":[{"system":"http://terminology.hl7.org/CodeSystem/v2-0203","code":"MR"}]},"system":"https://bonnie-fhir.healthit.gov/","value":"612e6a6302c62a011f2e9eca"}],"active":true,"name":[{"use":"usual","family":"NUMERPass","given":["MA_OralXaOnDayAFAnes_MedAdmDT"]}],"gender":"male","birthDate":"1975-01-02"},"request":{"method":"PUT","url":"Patient/3c8c427a-d756-456a-8f4e-e909b364e4fb"}},{"fullUrl":"https://madie.cms.gov/Encounter/90d729ac-b286-4b39-9948-4c0f7c909449","resource":{"resourceType":"Encounter","id":"90d729ac-b286-4b39-9948-4c0f7c909449","meta":{"profile":["http://hl7.org/fhir/us/qicore/StructureDefinition/qicore-encounter"]},"status":"finished","class":{"system":"http://terminology.hl7.org/CodeSystem/v3-ActCode","code":"IMP","display":"inpatient encounter"},"type":[{"coding":[{"system":"http://snomed.info/sct","code":"8715000"}]}],"subject":{"reference":"Patient/3c8c427a-d756-456a-8f4e-e909b364e4fb"},"period":{"start":"2026-11-01T08:00:00+00:00","end":"2026-11-26T08:15:00+00:00"},"length":{"value":25.0,"unit":"days"}},"request":{"method":"PUT","url":"Encounter/90d729ac-b286-4b39-9948-4c0f7c909449"}},{"fullUrl":"https://madie.cms.gov/Coverage/075a0ca6-a4cd-440f-8310-3eb59b2195b1","resource":{"resourceType":"Coverage","id":"075a0ca6-a4cd-440f-8310-3eb59b2195b1","status":"active","beneficiary":{"reference":"Patient/3c8c427a-d756-456a-8f4e-e909b364e4fb"},"period":{"start":"1975-01-02T08:00:00+00:00"},"payor":[{"reference":"Organization/5ad6ea38-07e9-4482-9e1b-c09eee595be9"}]},"request":{"method":"PUT","url":"Coverage/075a0ca6-a4cd-440f-8310-3eb59b2195b1"}},{"fullUrl":"https://madie.cms.gov/Condition/6a5c026a-d1a2-471a-9b20-b9416fc428c1","resource":{"resourceType":"Condition","id":"6a5c026a-d1a2-471a-9b20-b9416fc428c1","meta":{"profile":["http://hl7.org/fhir/us/qicore/StructureDefinition/qicore-condition"]},"clinicalStatus":{"coding":[{"system":"http://terminology.hl7.org/CodeSystem/condition-clinical","code":"active","display":"active","userSelected":true}]},"verificationStatus":{"coding":[{"system":"http://terminology.hl7.org/CodeSystem/condition-ver-status","code":"confirmed","display":"confirmed","userSelected":true}]},"category":[{"coding":[{"system":"http://terminology.hl7.org/CodeSystem/condition-category","code":"problem-list-item","display":"Problem List Item"}]}],"code":{"coding":[{"system":"http://hl7.org/fhir/sid/icd-9-cm","code":"427.31"},{"system":"http://hl7.org/fhir/sid/icd-10-cm","code":"I48.0"},{"system":"http://snomed.info/sct","code":"5370000"}]},"subject":{"reference":"Patient/3c8c427a-d756-456a-8f4e-e909b364e4fb"},"onsetPeriod":{"start":"2026-10-09T08:00:00+00:00","end":"2026-10-09T08:15:00+00:00"}},"request":{"method":"PUT","url":"Condition/6a5c026a-d1a2-471a-9b20-b9416fc428c1"}},{"fullUrl":"https://madie.cms.gov/MedicationAdministration/d11443fc-eed9-4aa0-97b0-dc2110edab98","resource":{"resourceType":"MedicationAdministration","id":"d11443fc-eed9-4aa0-97b0-dc2110edab98","meta":{"profile":["http://hl7.org/fhir/us/qicore/StructureDefinition/qicore-medicationadministration"]},"status":"completed","medicationCodeableConcept":{"coding":[{"system":"http://www.nlm.nih.gov/research/umls/rxnorm","code":"1992427","display":"{74 (apixaban 5 MG Oral Tablet) } Pack"}]},"subject":{"reference":"Patient/3c8c427a-d756-456a-8f4e-e909b364e4fb"},"effectiveDateTime":"2026-11-03T11:00:00+00:00"},"request":{"method":"PUT","url":"MedicationAdministration/d11443fc-eed9-4aa0-97b0-dc2110edab98"}},{"fullUrl":"https://madie.cms.gov/Procedure/76a145b8-174f-49a4-aee6-1637255a8105","resource":{"resourceType":"Procedure","id":"76a145b8-174f-49a4-aee6-1637255a8105","meta":{"profile":["http://hl7.org/fhir/us/qicore/StructureDefinition/qicore-procedure"]},"extension":[{"url":"http://hl7.org/fhir/us/qicore/StructureDefinition/qicore-recorded","valueDateTime":"2013-11-19T09:35:00-04:00"}],"status":"completed","code":{"coding":[{"system":"http://www.cms.gov/Medicare/Coding/ICD10","code":"3E030FZ"}]},"subject":{"reference":"Patient/3c8c427a-d756-456a-8f4e-e909b364e4fb"},"performedPeriod":{"start":"2026-11-02T09:00:00+00:00","end":"2026-11-02T09:15:00+00:00"}},"request":{"method":"PUT","url":"Procedure/76a145b8-174f-49a4-aee6-1637255a8105"}},{"fullUrl":"https://madie.cms.gov/Organization/6cb049d6-bd07-4001-836a-4aaac8ee1557","resource":{"resourceType":"Organization","id":"5ad6ea38-07e9-4482-9e1b-c09eee595be9","meta":{"profile":["http://hl7.org/fhir/us/qicore/StructureDefinition/qicore-organization"]},"identifier":[{"use":"temp","system":"urn:oid:2.16.840.1.113883.4.4","value":"21-3259825"}],"active":true,"type":[{"coding":[{"system":"http://terminology.hl7.org/CodeSystem/organization-type","code":"pay","display":"Payer"}]}],"name":"Blue Cross Blue Shield of Texas","telecom":[{"system":"phone","value":"(+1) 972-766-6900"}],"address":[{"use":"billing","type":"postal","line":["P.O. Box 660044"],"city":"Dallas","state":"TX","postalCode":"75266-0044","country":"USA"}]},"request":{"method":"PUT","url":"Organization/5ad6ea38-07e9-4482-9e1b-c09eee595be9"}},{"fullUrl":"https://madie.cms.gov/Practitioner/f784d7a9-5cd4-4a04-a8a6-086d5249e045","resource":{"resourceType":"Practitioner","id":"f784d7a9-5cd4-4a04-a8a6-086d5249e045","identifier":[{"system":"http://hl7.org/fhir/sid/us-npi","value":"123456"}],"name":[{"family":"Evil","prefix":["Dr"]}]},"request":{"method":"PUT","url":"Practitioner/f784d7a9-5cd4-4a04-a8a6-086d5249e045"}},{"fullUrl":"https://madie.cms.gov/MeasureReport/444290b4-7287-482f-8e62-ae4ceec43b37","resource":{"resourceType":"MeasureReport","id":"444290b4-7287-482f-8e62-ae4ceec43b37","meta":{"profile":["http://hl7.org/fhir/us/cqfmeasures/StructureDefinition/test-case-cqfm"]},"contained":[{"resourceType":"Parameters","id":"c2ff40c2-adaa-4474-a40d-574d32be801d-parameters","parameter":[{"name":"subject","valueString":"3c8c427a-d756-456a-8f4e-e909b364e4fb"}]}],"extension":[{"url":"http://hl7.org/fhir/us/cqfmeasures/StructureDefinition/cqfm-inputParameters","valueReference":{"reference":"#c2ff40c2-adaa-4474-a40d-574d32be801d-parameters"}},{"url":"http://hl7.org/fhir/us/cqfmeasures/StructureDefinition/cqfm-testCaseDescription","valueMarkdown":"oral factor Xa administered =0 day after end of anesthesia with MedicationAdm. effectiveDateTime\n"}],"modifierExtension":[{"url":"http://hl7.org/fhir/us/cqfmeasures/StructureDefinition/cqfm-isTestCase","valueBoolean":true}],"status":"complete","type":"individual","measure":"https://madie.cms.gov/Measure/CMS108VTEProphylaxisFHIR","period":{"start":"2026-01-01","end":"2026-12-31"},"group":[{"population":[{"code":{"coding":[{"system":"http://terminology.hl7.org/CodeSystem/measure-population","code":"initial-population","display":"Initial Population"}]},"count":1},{"code":{"coding":[{"system":"http://terminology.hl7.org/CodeSystem/measure-population","code":"denominator","display":"Denominator"}]},"count":1},{"code":{"coding":[{"system":"http://terminology.hl7.org/CodeSystem/measure-population","code":"denominator-exclusion","display":"Denominator Exclusion"}]},"count":0},{"code":{"coding":[{"system":"http://terminology.hl7.org/CodeSystem/measure-population","code":"numerator","display":"Numerator"}]},"count":1}]}]},"request":{"method":"PUT","url":"MeasureReport/444290b4-7287-482f-8e62-ae4ceec43b37"}}]}