{"resourceType":"Bundle","id":"tests-26a3b808-8c5e-4fcb-80ee-91932e3880e8-bundle","type":"transaction","entry":[{"fullUrl":"https://madie.cms.gov/Patient/26a3b808-8c5e-4fcb-80ee-91932e3880e8","resource":{"resourceType":"Patient","id":"26a3b808-8c5e-4fcb-80ee-91932e3880e8","meta":{"profile":["http://hl7.org/fhir/us/qicore/StructureDefinition/qicore-patient"]},"text":{"status":"generated","div":"<div xmlns=\"http://www.w3.org/1999/xhtml\"><div class=\"hapiHeaderText\">SCIPUroSrgRank1ProRvltDTDrgEnc <b>DENEXPASS </b></div><table class=\"hapiPropertyTable\"><tbody><tr><td>Identifier</td><td>66c70c125db369967b4b164e75338304</td></tr><tr><td>Date of birth</td><td><span>01 September 2000</span></td></tr></tbody></table></div>"},"extension":[{"url":"http://hl7.org/fhir/us/core/StructureDefinition/us-core-race","extension":[{"url":"ombCategory","valueCoding":{"system":"urn:oid:2.16.840.1.113883.6.238","code":"1002-5","display":"American Indian or Alaska Native","userSelected":true}},{"url":"text","valueString":"American Indian or Alaska Native"}]},{"url":"http://hl7.org/fhir/us/core/StructureDefinition/us-core-ethnicity","extension":[{"url":"ombCategory","valueCoding":{"system":"urn:oid:2.16.840.1.113883.6.238","code":"2135-2","display":"Hispanic or Latino","userSelected":true}},{"url":"text","valueString":"Hispanic or Latino"}]}],"identifier":[{"type":{"coding":[{"system":"http://terminology.hl7.org/CodeSystem/v2-0203","code":"MR"}]},"system":"https://bonnie-fhir.healthit.gov/","value":"612e6b2202c62a011f2ec9a3"}],"active":true,"name":[{"use":"usual","family":"DENEXPass","given":["SCIPUroSrgRank1ProRvltDTDrgEnc"]}],"gender":"male","birthDate":"2001-09-01"},"request":{"method":"PUT","url":"Patient/26a3b808-8c5e-4fcb-80ee-91932e3880e8"}},{"fullUrl":"https://madie.cms.gov/Encounter/f8978c37-ed88-455c-9caa-056610b6e70e","resource":{"resourceType":"Encounter","id":"f8978c37-ed88-455c-9caa-056610b6e70e","meta":{"profile":["http://hl7.org/fhir/us/qicore/StructureDefinition/qicore-encounter"]},"extension":[{"url":"http://hl7.org/fhir/us/qicore/StructureDefinition/qicore-encounter-procedure","extension":[{"url":"type","valueCodeableConcept":{"coding":[{"system":"http://www.cms.gov/Medicare/Coding/ICD10","code":"0T1607C"}]}},{"url":"rank","valuePositiveInt":1},{"url":"procedure","valueReference":{"reference":"Procedure/92a2437d-13f3-4ee2-a352-f2a212a5e1b9"}}]}],"status":"finished","class":{"system":"http://terminology.hl7.org/CodeSystem/v3-ActCode","code":"IMP","display":"inpatient encounter"},"type":[{"coding":[{"system":"http://snomed.info/sct","code":"183452005"}]}],"subject":{"reference":"Patient/26a3b808-8c5e-4fcb-80ee-91932e3880e8"},"period":{"start":"2026-09-02T06:00:00+00:00","end":"2026-12-31T12:59:00+00:00"},"length":{"value":120.0,"unit":"days"}},"request":{"method":"PUT","url":"Encounter/f8978c37-ed88-455c-9caa-056610b6e70e"}},{"fullUrl":"https://madie.cms.gov/Coverage/081e3a69-2b3f-4a58-9cdc-64c7939939af","resource":{"resourceType":"Coverage","id":"081e3a69-2b3f-4a58-9cdc-64c7939939af","status":"active","beneficiary":{"reference":"Patient/26a3b808-8c5e-4fcb-80ee-91932e3880e8"},"period":{"start":"2001-09-01T08:00:00+00:00"},"payor":[{"reference":"Organization/5ad6ea38-07e9-4482-9e1b-c09eee595be9"}]},"request":{"method":"PUT","url":"Coverage/081e3a69-2b3f-4a58-9cdc-64c7939939af"}},{"fullUrl":"https://madie.cms.gov/Procedure/92a2437d-13f3-4ee2-a352-f2a212a5e1b9","resource":{"resourceType":"Procedure","id":"92a2437d-13f3-4ee2-a352-f2a212a5e1b9","meta":{"profile":["http://hl7.org/fhir/us/qicore/StructureDefinition/qicore-procedure"]},"extension":[{"url":"http://hl7.org/fhir/us/qicore/StructureDefinition/qicore-recorded","valueDateTime":"2013-09-02T09:35:00-04:00"}],"status":"completed","code":{"coding":[{"system":"http://www.cms.gov/Medicare/Coding/ICD10","code":"0T1607C"}]},"subject":{"reference":"Patient/26a3b808-8c5e-4fcb-80ee-91932e3880e8"},"performedDateTime":"2026-09-02T09:00:00+00:00"},"request":{"method":"PUT","url":"Procedure/92a2437d-13f3-4ee2-a352-f2a212a5e1b9"}},{"fullUrl":"https://madie.cms.gov/Organization/7c24390a-f2f1-4b3b-b175-0057fd18b1cd","resource":{"resourceType":"Organization","id":"5ad6ea38-07e9-4482-9e1b-c09eee595be9","meta":{"profile":["http://hl7.org/fhir/us/qicore/StructureDefinition/qicore-organization"]},"identifier":[{"use":"temp","system":"urn:oid:2.16.840.1.113883.4.4","value":"21-3259825"}],"active":true,"type":[{"coding":[{"system":"http://terminology.hl7.org/CodeSystem/organization-type","code":"pay","display":"Payer"}]}],"name":"Blue Cross Blue Shield of Texas","telecom":[{"system":"phone","value":"(+1) 972-766-6900"}],"address":[{"use":"billing","type":"postal","line":["P.O. Box 660044"],"city":"Dallas","state":"TX","postalCode":"75266-0044","country":"USA"}]},"request":{"method":"PUT","url":"Organization/5ad6ea38-07e9-4482-9e1b-c09eee595be9"}},{"fullUrl":"https://madie.cms.gov/Practitioner/c4248cd4-d468-495a-abf4-437132d65b88","resource":{"resourceType":"Practitioner","id":"c4248cd4-d468-495a-abf4-437132d65b88","identifier":[{"system":"http://hl7.org/fhir/sid/us-npi","value":"123456"}],"name":[{"family":"Evil","prefix":["Dr"]}]},"request":{"method":"PUT","url":"Practitioner/c4248cd4-d468-495a-abf4-437132d65b88"}},{"fullUrl":"https://madie.cms.gov/MeasureReport/eaa807ce-1d10-4249-a898-609bec0e9644","resource":{"resourceType":"MeasureReport","id":"eaa807ce-1d10-4249-a898-609bec0e9644","meta":{"profile":["http://hl7.org/fhir/us/cqfmeasures/StructureDefinition/test-case-cqfm"]},"contained":[{"resourceType":"Parameters","id":"c6291682-c766-4acd-81f5-ca35ca9b8898-parameters","parameter":[{"name":"subject","valueString":"26a3b808-8c5e-4fcb-80ee-91932e3880e8"}]}],"extension":[{"url":"http://hl7.org/fhir/us/cqfmeasures/StructureDefinition/cqfm-inputParameters","valueReference":{"reference":"#c6291682-c766-4acd-81f5-ca35ca9b8898-parameters"}},{"url":"http://hl7.org/fhir/us/cqfmeasures/StructureDefinition/cqfm-testCaseDescription","valueMarkdown":"Patient had SCIP -UrologicalSurg during Encounter and Rank =1\n"}],"modifierExtension":[{"url":"http://hl7.org/fhir/us/cqfmeasures/StructureDefinition/cqfm-isTestCase","valueBoolean":true}],"status":"complete","type":"individual","measure":"https://madie.cms.gov/Measure/CMS108VTEProphylaxisFHIR","period":{"start":"2026-01-01","end":"2026-12-31"},"group":[{"population":[{"code":{"coding":[{"system":"http://terminology.hl7.org/CodeSystem/measure-population","code":"initial-population","display":"Initial Population"}]},"count":1},{"code":{"coding":[{"system":"http://terminology.hl7.org/CodeSystem/measure-population","code":"denominator","display":"Denominator"}]},"count":1},{"code":{"coding":[{"system":"http://terminology.hl7.org/CodeSystem/measure-population","code":"denominator-exclusion","display":"Denominator Exclusion"}]},"count":1},{"code":{"coding":[{"system":"http://terminology.hl7.org/CodeSystem/measure-population","code":"numerator","display":"Numerator"}]},"count":0}]}]},"request":{"method":"PUT","url":"MeasureReport/eaa807ce-1d10-4249-a898-609bec0e9644"}}]}