{"resourceType":"Bundle","id":"tests-70a5b41a-14ac-4e08-b661-d5523ad80fbf-bundle","type":"transaction","entry":[{"fullUrl":"https://madie.cms.gov/Patient/70a5b41a-14ac-4e08-b661-d5523ad80fbf","resource":{"resourceType":"Patient","id":"70a5b41a-14ac-4e08-b661-d5523ad80fbf","meta":{"profile":["http://hl7.org/fhir/us/qicore/StructureDefinition/qicore-patient"]},"text":{"status":"generated","div":"<div xmlns=\"http://www.w3.org/1999/xhtml\"><div class=\"hapiHeaderText\">SCIPNeuroRank1RvltDTDrgEncSMD <b>DENEXPASS </b></div><table class=\"hapiPropertyTable\"><tbody><tr><td>Identifier</td><td>66c70c125db369967b4b164e75338304</td></tr><tr><td>Date of birth</td><td><span>01 September 2000</span></td></tr></tbody></table></div>"},"extension":[{"url":"http://hl7.org/fhir/us/core/StructureDefinition/us-core-race","extension":[{"url":"ombCategory","valueCoding":{"system":"urn:oid:2.16.840.1.113883.6.238","code":"1002-5","display":"American Indian or Alaska Native","userSelected":true}},{"url":"text","valueString":"American Indian or Alaska Native"}]},{"url":"http://hl7.org/fhir/us/core/StructureDefinition/us-core-ethnicity","extension":[{"url":"ombCategory","valueCoding":{"system":"urn:oid:2.16.840.1.113883.6.238","code":"2135-2","display":"Hispanic or Latino","userSelected":true}},{"url":"text","valueString":"Hispanic or Latino"}]}],"identifier":[{"type":{"coding":[{"system":"http://terminology.hl7.org/CodeSystem/v2-0203","code":"MR"}]},"system":"https://bonnie-fhir.healthit.gov/","value":"612e6b2202c62a011f2ec9a3"}],"active":true,"name":[{"use":"usual","family":"DENEXPass","given":["SCIPNeuroRank1RvltDTDrgEncSMD"]}],"gender":"male","birthDate":"2001-09-01"},"request":{"method":"PUT","url":"Patient/70a5b41a-14ac-4e08-b661-d5523ad80fbf"}},{"fullUrl":"https://madie.cms.gov/Encounter/d3fecb6a-ab23-43d3-92ed-50722e37845f","resource":{"resourceType":"Encounter","id":"d3fecb6a-ab23-43d3-92ed-50722e37845f","meta":{"profile":["http://hl7.org/fhir/us/qicore/StructureDefinition/qicore-encounter"]},"extension":[{"url":"http://hl7.org/fhir/us/qicore/StructureDefinition/qicore-encounter-procedure","extension":[{"url":"type","valueCodeableConcept":{"coding":[{"system":"http://snomed.info/sct","code":"14247003","display":"Cerebral hemispherectomy (procedure)"}]}},{"url":"rank","valuePositiveInt":1},{"url":"procedure","valueReference":{"reference":"Procedure/76ee91ed-1d92-4684-89a5-2caf1bbf2150"}}]}],"status":"finished","class":{"system":"http://terminology.hl7.org/CodeSystem/v3-ActCode","code":"IMP","display":"inpatient encounter"},"type":[{"coding":[{"system":"http://snomed.info/sct","code":"183452005"}]}],"subject":{"reference":"Patient/70a5b41a-14ac-4e08-b661-d5523ad80fbf"},"period":{"start":"2026-09-02T06:00:00+00:00","end":"2026-12-31T12:59:00+00:00"},"length":{"value":120.0,"unit":"days"}},"request":{"method":"PUT","url":"Encounter/d3fecb6a-ab23-43d3-92ed-50722e37845f"}},{"fullUrl":"https://madie.cms.gov/Coverage/43dce79c-a35a-457f-862e-e0f40a6cb8c9","resource":{"resourceType":"Coverage","id":"43dce79c-a35a-457f-862e-e0f40a6cb8c9","status":"active","beneficiary":{"reference":"Patient/70a5b41a-14ac-4e08-b661-d5523ad80fbf"},"period":{"start":"2001-09-01T08:00:00+00:00"},"payor":[{"reference":"Organization/e75793c9-fdf6-463a-8c1d-4ee44320dc25"}]},"request":{"method":"PUT","url":"Coverage/43dce79c-a35a-457f-862e-e0f40a6cb8c9"}},{"fullUrl":"https://madie.cms.gov/Procedure/76ee91ed-1d92-4684-89a5-2caf1bbf2150","resource":{"resourceType":"Procedure","id":"76ee91ed-1d92-4684-89a5-2caf1bbf2150","meta":{"profile":["http://hl7.org/fhir/us/qicore/StructureDefinition/qicore-procedure"]},"extension":[{"url":"http://hl7.org/fhir/us/qicore/StructureDefinition/qicore-recorded","valueDateTime":"2013-09-02T09:35:00-04:00"}],"status":"completed","code":{"coding":[{"system":"http://snomed.info/sct","code":"14247003","display":"Cerebral hemispherectomy (procedure)"}]},"subject":{"reference":"Patient/70a5b41a-14ac-4e08-b661-d5523ad80fbf"},"performedDateTime":"2026-09-02T09:00:00+00:00"},"request":{"method":"PUT","url":"Procedure/76ee91ed-1d92-4684-89a5-2caf1bbf2150"}},{"fullUrl":"https://madie.cms.gov/Organization/564cd006-5d68-43a5-9c26-13014514c8e6","resource":{"resourceType":"Organization","id":"e75793c9-fdf6-463a-8c1d-4ee44320dc25","meta":{"profile":["http://hl7.org/fhir/us/qicore/StructureDefinition/qicore-organization"]},"identifier":[{"use":"temp","system":"urn:oid:2.16.840.1.113883.4.4","value":"21-3259825"}],"active":true,"type":[{"coding":[{"system":"http://terminology.hl7.org/CodeSystem/organization-type","code":"pay","display":"Payer"}]}],"name":"Blue Cross Blue Shield of Texas","telecom":[{"system":"phone","value":"(+1) 972-766-6900"}],"address":[{"use":"billing","type":"postal","line":["P.O. Box 660044"],"city":"Dallas","state":"TX","postalCode":"75266-0044","country":"USA"}]},"request":{"method":"PUT","url":"Organization/e75793c9-fdf6-463a-8c1d-4ee44320dc25"}},{"fullUrl":"https://madie.cms.gov/Practitioner/706c7192-1796-4828-b2f1-8e0a43cb819f","resource":{"resourceType":"Practitioner","id":"706c7192-1796-4828-b2f1-8e0a43cb819f","identifier":[{"system":"http://hl7.org/fhir/sid/us-npi","value":"123456"}],"name":[{"family":"Evil","prefix":["Dr"]}]},"request":{"method":"PUT","url":"Practitioner/706c7192-1796-4828-b2f1-8e0a43cb819f"}},{"fullUrl":"https://madie.cms.gov/MeasureReport/d990fb2e-4c11-4b40-8691-ef529653be8f","resource":{"resourceType":"MeasureReport","id":"d990fb2e-4c11-4b40-8691-ef529653be8f","meta":{"profile":["http://hl7.org/fhir/us/cqfmeasures/StructureDefinition/test-case-cqfm"]},"contained":[{"resourceType":"Parameters","id":"158fff92-3c51-42fb-9a40-d18a9d209797-parameters","parameter":[{"name":"subject","valueString":"70a5b41a-14ac-4e08-b661-d5523ad80fbf"}]}],"extension":[{"url":"http://hl7.org/fhir/us/cqfmeasures/StructureDefinition/cqfm-inputParameters","valueReference":{"reference":"#158fff92-3c51-42fb-9a40-d18a9d209797-parameters"}},{"url":"http://hl7.org/fhir/us/cqfmeasures/StructureDefinition/cqfm-testCaseDescription","valueMarkdown":"duplicate case by using SNOMED CT code for Neuro Px."}],"modifierExtension":[{"url":"http://hl7.org/fhir/us/cqfmeasures/StructureDefinition/cqfm-isTestCase","valueBoolean":true}],"status":"complete","type":"individual","measure":"https://madie.cms.gov/Measure/CMS108VTEProphylaxisFHIR","period":{"start":"2026-01-01","end":"2026-12-31"},"group":[{"population":[{"code":{"coding":[{"system":"http://terminology.hl7.org/CodeSystem/measure-population","code":"initial-population","display":"Initial Population"}]},"count":1},{"code":{"coding":[{"system":"http://terminology.hl7.org/CodeSystem/measure-population","code":"denominator","display":"Denominator"}]},"count":1},{"code":{"coding":[{"system":"http://terminology.hl7.org/CodeSystem/measure-population","code":"denominator-exclusion","display":"Denominator Exclusion"}]},"count":1},{"code":{"coding":[{"system":"http://terminology.hl7.org/CodeSystem/measure-population","code":"numerator","display":"Numerator"}]},"count":0}]}]},"request":{"method":"PUT","url":"MeasureReport/d990fb2e-4c11-4b40-8691-ef529653be8f"}}]}