{"resourceType":"Bundle","id":"tests-23f1ece5-35ea-4446-8305-f6f023dfb1a3-bundle","type":"transaction","entry":[{"fullUrl":"https://madie.cms.gov/Patient/23f1ece5-35ea-4446-8305-f6f023dfb1a3","resource":{"resourceType":"Patient","id":"23f1ece5-35ea-4446-8305-f6f023dfb1a3","meta":{"profile":["http://hl7.org/fhir/us/qicore/StructureDefinition/qicore-patient"]},"text":{"status":"generated","div":"<div xmlns=\"http://www.w3.org/1999/xhtml\"><div class=\"hapiHeaderText\">MA_OralXa_apixabanWVTEdiagnosisAFProc <b>NUMERFAIL </b></div><table class=\"hapiPropertyTable\"><tbody><tr><td>Identifier</td><td>6c48d9c79b22e4d3ea2146a4520f69cf</td></tr><tr><td>Date of birth</td><td><span>01 December 1966</span></td></tr></tbody></table></div>"},"extension":[{"url":"http://hl7.org/fhir/us/core/StructureDefinition/us-core-race","extension":[{"url":"ombCategory","valueCoding":{"system":"urn:oid:2.16.840.1.113883.6.238","code":"1002-5","display":"American Indian or Alaska Native","userSelected":true}},{"url":"text","valueString":"American Indian or Alaska Native"}]},{"url":"http://hl7.org/fhir/us/core/StructureDefinition/us-core-ethnicity","extension":[{"url":"ombCategory","valueCoding":{"system":"urn:oid:2.16.840.1.113883.6.238","code":"2135-2","display":"Hispanic or Latino","userSelected":true}},{"url":"text","valueString":"Hispanic or Latino"}]}],"identifier":[{"type":{"coding":[{"system":"http://terminology.hl7.org/CodeSystem/v2-0203","code":"MR"}]},"system":"https://bonnie-fhir.healthit.gov/","value":"612e6b5602c62a011f2ed5d3"}],"active":true,"name":[{"use":"usual","family":"NUMERFail","given":["MA_OralXa_apixabanWVTEdiagnosisAFProc"]}],"gender":"male","birthDate":"1967-12-01"},"request":{"method":"PUT","url":"Patient/23f1ece5-35ea-4446-8305-f6f023dfb1a3"}},{"fullUrl":"https://madie.cms.gov/Encounter/f49a0067-c013-4431-801f-d6eb6458bdce","resource":{"resourceType":"Encounter","id":"f49a0067-c013-4431-801f-d6eb6458bdce","meta":{"profile":["http://hl7.org/fhir/us/qicore/StructureDefinition/qicore-encounter"]},"status":"finished","class":{"system":"http://terminology.hl7.org/CodeSystem/v3-ActCode","code":"IMP","display":"inpatient encounter"},"type":[{"coding":[{"system":"http://snomed.info/sct","code":"8715000"}]}],"subject":{"reference":"Patient/23f1ece5-35ea-4446-8305-f6f023dfb1a3"},"period":{"start":"2026-11-01T08:00:00+00:00","end":"2026-11-26T08:15:00+00:00"},"length":{"value":25.0,"unit":"days"}},"request":{"method":"PUT","url":"Encounter/f49a0067-c013-4431-801f-d6eb6458bdce"}},{"fullUrl":"https://madie.cms.gov/Coverage/e5a2905f-12c1-4765-bc26-60a99ab98d82","resource":{"resourceType":"Coverage","id":"e5a2905f-12c1-4765-bc26-60a99ab98d82","status":"active","beneficiary":{"reference":"Patient/23f1ece5-35ea-4446-8305-f6f023dfb1a3"},"period":{"start":"1967-12-01T01:00:00+00:00"},"payor":[{"reference":"Organization/db141f66-a1cc-407b-9e95-adac27adee14"}]},"request":{"method":"PUT","url":"Coverage/e5a2905f-12c1-4765-bc26-60a99ab98d82"}},{"fullUrl":"https://madie.cms.gov/Condition/e35982f9-747b-44ce-b312-be6d8951ebe1","resource":{"resourceType":"Condition","id":"e35982f9-747b-44ce-b312-be6d8951ebe1","meta":{"profile":["http://hl7.org/fhir/us/qicore/StructureDefinition/qicore-condition"]},"category":[{"coding":[{"system":"http://terminology.hl7.org/CodeSystem/condition-category","code":"problem-list-item","display":"Problem List Item"}]}],"code":{"coding":[{"system":"http://snomed.info/sct","code":"1001000119102"}]},"subject":{"reference":"Patient/23f1ece5-35ea-4446-8305-f6f023dfb1a3"},"onsetPeriod":{"start":"2026-11-02T08:00:00+00:00","end":"2026-11-02T08:15:00+00:00"}},"request":{"method":"PUT","url":"Condition/e35982f9-747b-44ce-b312-be6d8951ebe1"}},{"fullUrl":"https://madie.cms.gov/MedicationAdministration/174e5f53-30b5-4c53-a41e-1065c1c7b2c4","resource":{"resourceType":"MedicationAdministration","id":"174e5f53-30b5-4c53-a41e-1065c1c7b2c4","meta":{"profile":["http://hl7.org/fhir/us/qicore/StructureDefinition/qicore-medicationadministration"]},"status":"completed","medicationCodeableConcept":{"coding":[{"system":"http://www.nlm.nih.gov/research/umls/rxnorm","code":"1364435"}]},"subject":{"reference":"Patient/23f1ece5-35ea-4446-8305-f6f023dfb1a3"},"effectivePeriod":{"start":"2026-11-01T11:00:00+00:00"}},"request":{"method":"PUT","url":"MedicationAdministration/174e5f53-30b5-4c53-a41e-1065c1c7b2c4"}},{"fullUrl":"https://madie.cms.gov/Procedure/2f0a2ed1-e824-4de5-a9f7-15de00f67f81","resource":{"resourceType":"Procedure","id":"2f0a2ed1-e824-4de5-a9f7-15de00f67f81","meta":{"profile":["http://hl7.org/fhir/us/qicore/StructureDefinition/qicore-procedure"]},"extension":[{"url":"http://hl7.org/fhir/us/qicore/StructureDefinition/qicore-recorded","valueDateTime":"2013-12-04T09:35:00-04:00"}],"status":"completed","code":{"coding":[{"system":"http://www.icd10data.com/icd10pcs","code":"3E030FZ"},{"system":"http://snomed.info/sct","code":"18946005"}]},"subject":{"reference":"Patient/23f1ece5-35ea-4446-8305-f6f023dfb1a3"},"performedPeriod":{"start":"2026-11-01T09:00:00+00:00","end":"2026-11-01T09:15:00+00:00"}},"request":{"method":"PUT","url":"Procedure/2f0a2ed1-e824-4de5-a9f7-15de00f67f81"}},{"fullUrl":"https://madie.cms.gov/Organization/8d45af77-5482-4476-944a-1be7214aea99","resource":{"resourceType":"Organization","id":"db141f66-a1cc-407b-9e95-adac27adee14","meta":{"profile":["http://hl7.org/fhir/us/qicore/StructureDefinition/qicore-organization"]},"identifier":[{"use":"temp","system":"urn:oid:2.16.840.1.113883.4.4","value":"21-3259825"}],"active":true,"type":[{"coding":[{"system":"http://terminology.hl7.org/CodeSystem/organization-type","code":"pay","display":"Payer"}]}],"name":"Blue Cross Blue Shield of Texas","telecom":[{"system":"phone","value":"(+1) 972-766-6900"}],"address":[{"use":"billing","type":"postal","line":["P.O. Box 660044"],"city":"Dallas","state":"TX","postalCode":"75266-0044","country":"USA"}]},"request":{"method":"PUT","url":"Organization/db141f66-a1cc-407b-9e95-adac27adee14"}},{"fullUrl":"https://madie.cms.gov/Practitioner/146ac030-fb1d-464f-b406-75deb3536998","resource":{"resourceType":"Practitioner","id":"146ac030-fb1d-464f-b406-75deb3536998","identifier":[{"system":"http://hl7.org/fhir/sid/us-npi","value":"123456"}],"name":[{"family":"Evil","prefix":["Dr"]}]},"request":{"method":"PUT","url":"Practitioner/146ac030-fb1d-464f-b406-75deb3536998"}},{"fullUrl":"https://madie.cms.gov/MeasureReport/67e29254-e00b-475f-9a9b-3595e1e45856","resource":{"resourceType":"MeasureReport","id":"67e29254-e00b-475f-9a9b-3595e1e45856","meta":{"profile":["http://hl7.org/fhir/us/cqfmeasures/StructureDefinition/test-case-cqfm"]},"contained":[{"resourceType":"Parameters","id":"71f88bf3-71f4-4395-af34-f3d71d428817-parameters","parameter":[{"name":"subject","valueString":"23f1ece5-35ea-4446-8305-f6f023dfb1a3"}]}],"extension":[{"url":"http://hl7.org/fhir/us/cqfmeasures/StructureDefinition/cqfm-inputParameters","valueReference":{"reference":"#71f88bf3-71f4-4395-af34-f3d71d428817-parameters"}},{"url":"http://hl7.org/fhir/us/cqfmeasures/StructureDefinition/cqfm-testCaseDescription","valueMarkdown":">18, LOS<120 day. Medication, Administered: Oral Factor Xa Inhibitor for VTE Prophylaxis with diagnosis of active VTE starts after end of surgery\n"}],"modifierExtension":[{"url":"http://hl7.org/fhir/us/cqfmeasures/StructureDefinition/cqfm-isTestCase","valueBoolean":true}],"status":"complete","type":"individual","measure":"https://madie.cms.gov/Measure/CMS108VTEProphylaxisFHIR","period":{"start":"2026-01-01","end":"2026-12-31"},"group":[{"population":[{"code":{"coding":[{"system":"http://terminology.hl7.org/CodeSystem/measure-population","code":"initial-population","display":"Initial Population"}]},"count":1},{"code":{"coding":[{"system":"http://terminology.hl7.org/CodeSystem/measure-population","code":"denominator","display":"Denominator"}]},"count":1},{"code":{"coding":[{"system":"http://terminology.hl7.org/CodeSystem/measure-population","code":"denominator-exclusion","display":"Denominator Exclusion"}]},"count":0},{"code":{"coding":[{"system":"http://terminology.hl7.org/CodeSystem/measure-population","code":"numerator","display":"Numerator"}]},"count":0}]}]},"request":{"method":"PUT","url":"MeasureReport/67e29254-e00b-475f-9a9b-3595e1e45856"}}]}