{
  "resourceType": "Bundle",
  "id": "6359776b6aee9629c8298235",
  "type": "transaction",
  "entry": [ {
    "fullUrl": "https://madie.cms.gov/Patient/cb74c37a-dcdc-45bb-a2c0-02bbc84503a5",
    "resource": {
      "resourceType": "Patient",
      "id": "cb74c37a-dcdc-45bb-a2c0-02bbc84503a5",
      "meta": {
        "profile": [ "http://hl7.org/fhir/us/qicore/StructureDefinition/qicore-patient" ]
      },
      "text": {
        "status": "generated",
        "div": "<div xmlns=\"http://www.w3.org/1999/xhtml\"><div class=\"hapiHeaderText\">WBCRsltDtTimeEQDelStartless1Min <b>RISKPass </b></div><table class=\"hapiPropertyTable\"><tbody><tr><td>Date of birth</td><td><span>01 February 2004</span></td></tr></tbody></table></div>"
      },
      "extension": [ {
        "url": "http://hl7.org/fhir/us/core/StructureDefinition/us-core-race",
        "extension": [ {
          "url": "ombCategory",
          "valueCoding": {
            "system": "urn:oid:2.16.840.1.113883.6.238",
            "code": "1002-5",
            "display": "American Indian or Alaska Native",
            "userSelected": true
          }
        }, {
          "url": "text",
          "valueString": "American Indian or Alaska Native"
        } ]
      }, {
        "url": "http://hl7.org/fhir/us/core/StructureDefinition/us-core-ethnicity",
        "extension": [ {
          "url": "ombCategory",
          "valueCoding": {
            "system": "urn:oid:2.16.840.1.113883.6.238",
            "code": "2135-2",
            "display": "Hispanic or Latino",
            "userSelected": true
          }
        }, {
          "url": "text",
          "valueString": "Hispanic or Latino"
        } ]
      } ],
      "identifier": [ {
        "type": {
          "coding": [ {
            "system": "http://terminology.hl7.org/CodeSystem/v2-0203",
            "code": "MR"
          } ]
        },
        "system": "https://bonnie-fhir.healthit.gov/",
        "value": "6359776b6aee9629c8298235"
      } ],
      "active": true,
      "name": [ {
        "use": "usual",
        "family": "RiskPassWBC",
        "given": [ "WBCRsltDtTimeEQDelStartless1Min" ]
      } ],
      "gender": "female",
      "birthDate": "2004-02-01"
    },
    "request": {
      "method": "PUT",
      "url": "Patient/cb74c37a-dcdc-45bb-a2c0-02bbc84503a5"
    }
  }, {
    "fullUrl": "https://madie.cms.gov/Observation/8c906ddd-817c-4334-bea4-600a02ea6286",
    "resource": {
      "resourceType": "Observation",
      "id": "8c906ddd-817c-4334-bea4-600a02ea6286",
      "meta": {
        "profile": [ "http://hl7.org/fhir/us/qicore/StructureDefinition/qicore-observation" ]
      },
      "status": "final",
      "category": [ {
        "coding": [ {
          "system": "http://terminology.hl7.org/CodeSystem/observation-category",
          "code": "exam",
          "display": "exam",
          "userSelected": true
        } ]
      } ],
      "code": {
        "coding": [ {
          "system": "http://loinc.org",
          "code": "93857-1"
        } ]
      },
      "subject": {
        "reference": "Patient/cb74c37a-dcdc-45bb-a2c0-02bbc84503a5"
      },
      "effectiveDateTime": "2025-02-01T08:00:00.000+00:00",
      "valueDateTime": "2025-02-01T08:00:00+00:00"
    },
    "request": {
      "method": "PUT",
      "url": "Observation/8c906ddd-817c-4334-bea4-600a02ea6286"
    }
  }, {
    "fullUrl": "https://madie.cms.gov/Observation/74bb56ec-3395-42ec-9f9b-4c0a3b716115",
    "resource": {
      "resourceType": "Observation",
      "id": "74bb56ec-3395-42ec-9f9b-4c0a3b716115",
      "meta": {
        "profile": [ "http://hl7.org/fhir/us/qicore/StructureDefinition/qicore-observation" ]
      },
      "status": "final",
      "category": [ {
        "coding": [ {
          "system": "http://terminology.hl7.org/CodeSystem/observation-category",
          "code": "exam",
          "display": "exam",
          "userSelected": true
        } ]
      } ],
      "code": {
        "coding": [ {
          "system": "http://loinc.org",
          "code": "11884-4"
        } ]
      },
      "subject": {
        "reference": "Patient/cb74c37a-dcdc-45bb-a2c0-02bbc84503a5"
      },
      "effectiveDateTime": "2025-02-01T08:00:00.000+00:00",
      "valueQuantity": {
        "value": 21,
        "system": "http://unitsofmeasure.org",
        "code": "wk"
      }
    },
    "request": {
      "method": "PUT",
      "url": "Observation/74bb56ec-3395-42ec-9f9b-4c0a3b716115"
    }
  }, {
    "fullUrl": "https://madie.cms.gov/Encounter/56d7ec82-0fa6-453d-b895-d7712ed3d825",
    "resource": {
      "resourceType": "Encounter",
      "id": "56d7ec82-0fa6-453d-b895-d7712ed3d825",
      "meta": {
        "profile": [ "http://hl7.org/fhir/us/qicore/StructureDefinition/qicore-encounter" ]
      },
      "status": "finished",
      "class": {
        "system": "http://terminology.hl7.org/CodeSystem/v3-ActCode",
        "code": "IMP",
        "display": "inpatient encounter"
      },
      "type": [ {
        "coding": [ {
          "system": "http://snomed.info/sct",
          "code": "183452005"
        } ]
      } ],
      "subject": {
        "reference": "Patient/cb74c37a-dcdc-45bb-a2c0-02bbc84503a5"
      },
      "period": {
        "start": "2025-02-01T08:00:00.000Z",
        "end": "2025-02-05T08:15:00.000Z"
      }
    },
    "request": {
      "method": "PUT",
      "url": "Encounter/56d7ec82-0fa6-453d-b895-d7712ed3d825"
    }
  }, {
    "fullUrl": "https://madie.cms.gov/Encounter/0487f448-9582-418a-acf9-4f9af3e7431c",
    "resource": {
      "resourceType": "Encounter",
      "id": "0487f448-9582-418a-acf9-4f9af3e7431c",
      "meta": {
        "profile": [ "http://hl7.org/fhir/us/qicore/StructureDefinition/qicore-encounter" ]
      },
      "status": "finished",
      "class": {
        "system": "http://terminology.hl7.org/CodeSystem/v3-ActCode",
        "code": "EMER",
        "display": "emergency"
      },
      "type": [ {
        "coding": [ {
          "system": "http://snomed.info/sct",
          "code": "4525004"
        } ]
      } ],
      "subject": {
        "reference": "Patient/cb74c37a-dcdc-45bb-a2c0-02bbc84503a5"
      },
      "period": {
        "start": "2025-02-01T07:00:00.000Z",
        "end": "2025-02-01T07:59:00.000Z"
      }
    },
    "request": {
      "method": "PUT",
      "url": "Encounter/0487f448-9582-418a-acf9-4f9af3e7431c"
    }
  }, {
    "fullUrl": "https://madie.cms.gov/Procedure/d30ce665-6d49-4130-a2ec-1bf8d176fe7a",
    "resource": {
      "resourceType": "Procedure",
      "id": "d30ce665-6d49-4130-a2ec-1bf8d176fe7a",
      "meta": {
        "profile": [ "http://hl7.org/fhir/us/qicore/StructureDefinition/qicore-procedure" ]
      },
      "extension": [ {
        "url": "http://hl7.org/fhir/us/qicore/StructureDefinition/qicore-recorded",
        "valueDateTime": "2025-02-04T09:35:00-04:00"
      } ],
      "status": "completed",
      "code": {
        "coding": [ {
          "system": "http://snomed.info/sct",
          "code": "10745001"
        } ]
      },
      "subject": {
        "reference": "Patient/cb74c37a-dcdc-45bb-a2c0-02bbc84503a5"
      },
      "performedPeriod": {
        "start": "2025-02-01T08:00:00.000Z",
        "end": "2025-02-05T08:15:00.000Z"
      }
    },
    "request": {
      "method": "PUT",
      "url": "Procedure/d30ce665-6d49-4130-a2ec-1bf8d176fe7a"
    }
  }, {
    "fullUrl": "https://madie.cms.gov/Observation/8fca4f92-3bce-4a0c-b7a2-742fdbc9fc44",
    "resource": {
      "resourceType": "Observation",
      "id": "8fca4f92-3bce-4a0c-b7a2-742fdbc9fc44",
      "meta": {
        "profile": [ "http://hl7.org/fhir/us/core/StructureDefinition/us-core-observation-lab" ]
      },
      "status": "final",
      "category": [ {
        "coding": [ {
          "system": "http://terminology.hl7.org/CodeSystem/observation-category",
          "code": "laboratory",
          "display": "laboratory",
          "userSelected": true
        } ]
      } ],
      "code": {
        "coding": [ {
          "system": "http://loinc.org",
          "version": "2.73",
          "code": "26464-8",
          "display": "Leukocytes [#/volume] in Blood",
          "userSelected": true
        } ]
      },
      "subject": {
        "reference": "Patient/cb74c37a-dcdc-45bb-a2c0-02bbc84503a5"
      },
      "effectiveDateTime": "2025-02-01T07:59:00.000+00:00",
      "issued": "2025-02-01T07:59:00.000+00:00",
      "valueQuantity": {
        "value": 20,
        "unit": "10*3/u"
      }
    },
    "request": {
      "method": "PUT",
      "url": "Observation/8fca4f92-3bce-4a0c-b7a2-742fdbc9fc44"
    }
  }, {
    "fullUrl": "https://madie.cms.gov/MeasureReport/974be2df-791e-499c-827a-7d3cb328e357",
    "resource": {
      "resourceType": "MeasureReport",
      "id": "974be2df-791e-499c-827a-7d3cb328e357",
      "meta": {
        "profile": [ "http://hl7.org/fhir/us/cqfmeasures/StructureDefinition/test-case-cqfm" ]
      },
      "contained": [ {
        "resourceType": "Parameters",
        "id": "e4e21e50-1cd6-44b8-9dc6-c1e4493ab360-parameters",
        "parameter": [ {
          "name": "subject",
          "valueString": "cb74c37a-dcdc-45bb-a2c0-02bbc84503a5"
        } ]
      } ],
      "extension": [ {
        "url": "http://hl7.org/fhir/us/cqfmeasures/StructureDefinition/cqfm-inputParameters",
        "valueReference": {
          "reference": "#e4e21e50-1cd6-44b8-9dc6-c1e4493ab360-parameters"
        }
      }, {
        "url": "http://hl7.org/fhir/us/cqfmeasures/StructureDefinition/cqfm-testCaseDescription",
        "valueMarkdown": "Patient with WBC result date/time = delivery date/time minus 1 minute\n"
      } ],
      "modifierExtension": [ {
        "url": "http://hl7.org/fhir/us/cqfmeasures/StructureDefinition/cqfm-isTestCase",
        "valueBoolean": true
      } ],
      "status": "complete",
      "type": "individual",
      "measure": "https://madie.cms.gov/Measure/CMS1028FHIRPCSevereOBComps",
      "period": {
        "start": "2025-01-01",
        "end": "2025-12-31"
      },
      "group": [ {
        "population": [ {
          "code": {
            "coding": [ {
              "system": "http://terminology.hl7.org/CodeSystem/measure-population",
              "code": "initial-population",
              "display": "Initial Population"
            } ]
          },
          "count": 1
        }, {
          "code": {
            "coding": [ {
              "system": "http://terminology.hl7.org/CodeSystem/measure-population",
              "code": "denominator",
              "display": "Denominator"
            } ]
          },
          "count": 1
        }, {
          "code": {
            "coding": [ {
              "system": "http://terminology.hl7.org/CodeSystem/measure-population",
              "code": "numerator",
              "display": "Numerator"
            } ]
          },
          "count": 0
        }, {
          "code": {
            "coding": [ {
              "system": "http://terminology.hl7.org/CodeSystem/measure-population",
              "code": "numerator-exclusion",
              "display": "Numerator Exclusion"
            } ]
          },
          "count": 0
        } ]
      }, {
        "population": [ {
          "code": {
            "coding": [ {
              "system": "http://terminology.hl7.org/CodeSystem/measure-population",
              "code": "initial-population",
              "display": "Initial Population"
            } ]
          },
          "count": 1
        }, {
          "code": {
            "coding": [ {
              "system": "http://terminology.hl7.org/CodeSystem/measure-population",
              "code": "denominator",
              "display": "Denominator"
            } ]
          },
          "count": 1
        }, {
          "code": {
            "coding": [ {
              "system": "http://terminology.hl7.org/CodeSystem/measure-population",
              "code": "numerator",
              "display": "Numerator"
            } ]
          },
          "count": 0
        }, {
          "code": {
            "coding": [ {
              "system": "http://terminology.hl7.org/CodeSystem/measure-population",
              "code": "numerator-exclusion",
              "display": "Numerator Exclusion"
            } ]
          },
          "count": 0
        } ]
      } ],
      "evaluatedResource": [ {
        "reference": "Patient/cb74c37a-dcdc-45bb-a2c0-02bbc84503a5"
      }, {
        "reference": "Observation/8c906ddd-817c-4334-bea4-600a02ea6286"
      }, {
        "reference": "Observation/74bb56ec-3395-42ec-9f9b-4c0a3b716115"
      }, {
        "reference": "Encounter/56d7ec82-0fa6-453d-b895-d7712ed3d825"
      }, {
        "reference": "Encounter/0487f448-9582-418a-acf9-4f9af3e7431c"
      }, {
        "reference": "Procedure/d30ce665-6d49-4130-a2ec-1bf8d176fe7a"
      }, {
        "reference": "Observation/8fca4f92-3bce-4a0c-b7a2-742fdbc9fc44"
      } ]
    },
    "request": {
      "method": "PUT",
      "url": "MeasureReport/974be2df-791e-499c-827a-7d3cb328e357"
    }
  } ]
}