{
  "resourceType": "Bundle",
  "id": "617825214bf8e25b8f204e0f",
  "type": "transaction",
  "entry": [ {
    "fullUrl": "https://madie.cms.gov/Patient/f6d175e8-c952-424a-9961-9cba93219131",
    "resource": {
      "resourceType": "Patient",
      "id": "f6d175e8-c952-424a-9961-9cba93219131",
      "meta": {
        "profile": [ "http://hl7.org/fhir/us/qicore/StructureDefinition/qicore-patient" ]
      },
      "extension": [ {
        "url": "http://hl7.org/fhir/us/core/StructureDefinition/us-core-race",
        "extension": [ {
          "url": "ombCategory",
          "valueCoding": {
            "system": "urn:oid:2.16.840.1.113883.6.238",
            "code": "2076-8",
            "display": "Native Hawaiian or Other Pacific Islander",
            "userSelected": true
          }
        }, {
          "url": "text",
          "valueString": "Native Hawaiian or Other Pacific Islander"
        } ]
      }, {
        "url": "http://hl7.org/fhir/us/core/StructureDefinition/us-core-ethnicity",
        "extension": [ {
          "url": "ombCategory",
          "valueCoding": {
            "system": "urn:oid:2.16.840.1.113883.6.238",
            "code": "2186-5",
            "display": "Not Hispanic or Latino",
            "userSelected": true
          }
        }, {
          "url": "text",
          "valueString": "Not Hispanic or Latino"
        } ]
      } ],
      "identifier": [ {
        "type": {
          "coding": [ {
            "system": "http://terminology.hl7.org/CodeSystem/v2-0203",
            "code": "MR"
          } ]
        },
        "system": "https://bonnie-fhir.healthit.gov/",
        "value": "617825214bf8e25b8f204e0f"
      } ],
      "name": [ {
        "family": "DenExcl1Fail",
        "given": [ "DxExclStartsBeforeEDNoend" ]
      } ],
      "gender": "female",
      "birthDate": "1985-12-02"
    },
    "request": {
      "method": "PUT",
      "url": "Patient/f6d175e8-c952-424a-9961-9cba93219131"
    }
  }, {
    "fullUrl": "https://madie.cms.gov/Encounter/c6d026ca-c086-45e3-95d7-92b68ec02de6",
    "resource": {
      "resourceType": "Encounter",
      "id": "c6d026ca-c086-45e3-95d7-92b68ec02de6",
      "meta": {
        "profile": [ "http://hl7.org/fhir/us/qicore/StructureDefinition/qicore-encounter" ]
      },
      "status": "finished",
      "class": {
        "system": "http://terminology.hl7.org/CodeSystem/v3-ActCode",
        "code": "EMER",
        "display": "emergency",
        "userSelected": true
      },
      "type": [ {
        "coding": [ {
          "system": "http://snomed.info/sct",
          "version": "2020-09",
          "code": "4525004",
          "display": "Emergency department patient visit (procedure)",
          "userSelected": true
        } ]
      } ],
      "subject": {
        "reference": "Patient/f6d175e8-c952-424a-9961-9cba93219131"
      },
      "period": {
        "start": "2026-10-09T08:05:00.000+00:00",
        "end": "2026-10-10T07:15:00.000+00:00"
      }
    },
    "request": {
      "method": "PUT",
      "url": "Encounter/c6d026ca-c086-45e3-95d7-92b68ec02de6"
    }
  }, {
    "fullUrl": "https://madie.cms.gov/Condition/92331a38-7448-45d6-8286-c92455e97f3a",
    "resource": {
      "resourceType": "Condition",
      "id": "92331a38-7448-45d6-8286-c92455e97f3a",
      "meta": {
        "profile": [ "http://hl7.org/fhir/us/qicore/StructureDefinition/qicore-condition" ]
      },
      "clinicalStatus": {
        "coding": [ {
          "system": "http://terminology.hl7.org/CodeSystem/condition-clinical",
          "code": "active",
          "display": "active",
          "userSelected": true
        } ]
      },
      "category": [ {
        "coding": [ {
          "system": "http://terminology.hl7.org/CodeSystem/condition-category",
          "code": "encounter-diagnosis",
          "display": "Encounter Diagnosis",
          "userSelected": true
        } ]
      } ],
      "code": {
        "coding": [ {
          "system": "http://snomed.info/sct",
          "version": "2020-09",
          "code": "401303003",
          "display": "Acute ST segment elevation myocardial infarction (disorder)",
          "userSelected": true
        } ]
      },
      "subject": {
        "reference": "Patient/f6d175e8-c952-424a-9961-9cba93219131"
      },
      "onsetDateTime": "2026-10-09T08:30:00.000+00:00"
    },
    "request": {
      "method": "PUT",
      "url": "Condition/92331a38-7448-45d6-8286-c92455e97f3a"
    }
  }, {
    "fullUrl": "https://madie.cms.gov/Condition/84e148d5-8fc0-4e55-968b-424ae356da71",
    "resource": {
      "resourceType": "Condition",
      "id": "84e148d5-8fc0-4e55-968b-424ae356da71",
      "meta": {
        "profile": [ "http://hl7.org/fhir/us/qicore/StructureDefinition/qicore-condition" ]
      },
      "clinicalStatus": {
        "coding": [ {
          "system": "http://terminology.hl7.org/CodeSystem/condition-clinical",
          "code": "active",
          "display": "active",
          "userSelected": true
        } ]
      },
      "category": [ {
        "coding": [ {
          "system": "http://terminology.hl7.org/CodeSystem/condition-category",
          "code": "encounter-diagnosis",
          "display": "Encounter Diagnosis",
          "userSelected": true
        } ]
      } ],
      "code": {
        "coding": [ {
          "system": "http://snomed.info/sct",
          "version": "2020-09",
          "code": "14336007",
          "display": "Ruptured abdominal aortic aneurysm (disorder)",
          "userSelected": true
        } ]
      },
      "subject": {
        "reference": "Patient/f6d175e8-c952-424a-9961-9cba93219131"
      },
      "onsetDateTime": "2026-01-09T13:00:00.000+00:00"
    },
    "request": {
      "method": "PUT",
      "url": "Condition/84e148d5-8fc0-4e55-968b-424ae356da71"
    }
  }, {
    "fullUrl": "https://madie.cms.gov/MeasureReport/46e1c36e-d7eb-4eb5-8afe-349e45892c70",
    "resource": {
      "resourceType": "MeasureReport",
      "id": "46e1c36e-d7eb-4eb5-8afe-349e45892c70",
      "meta": {
        "profile": [ "http://hl7.org/fhir/us/cqfmeasures/StructureDefinition/test-case-cqfm" ]
      },
      "contained": [ {
        "resourceType": "Parameters",
        "id": "58796a19-576c-4f12-80af-9b7ae112e1b6-parameters",
        "parameter": [ {
          "name": "subject",
          "valueString": "f6d175e8-c952-424a-9961-9cba93219131"
        } ]
      } ],
      "extension": [ {
        "url": "http://hl7.org/fhir/us/cqfmeasures/StructureDefinition/cqfm-inputParameters",
        "valueReference": {
          "reference": "#58796a19-576c-4f12-80af-9b7ae112e1b6-parameters"
        }
      }, {
        "url": "http://hl7.org/fhir/us/cqfmeasures/StructureDefinition/cqfm-testCaseDescription",
        "valueMarkdown": "Patient has aortic dissection (exclusion diagnosis) that starts before ED encounter and does not end"
      } ],
      "modifierExtension": [ {
        "url": "http://hl7.org/fhir/us/cqfmeasures/StructureDefinition/cqfm-isTestCase",
        "valueBoolean": true
      } ],
      "status": "complete",
      "type": "individual",
      "measure": "https://madie.cms.gov/Measure/CMS996FHIRAptTxforSTEMI",
      "period": {
        "start": "2026-01-01",
        "end": "2026-12-31"
      },
      "group": [ {
        "population": [ {
          "code": {
            "coding": [ {
              "system": "http://terminology.hl7.org/CodeSystem/measure-population",
              "code": "initial-population",
              "display": "Initial Population"
            } ]
          },
          "count": 1
        }, {
          "code": {
            "coding": [ {
              "system": "http://terminology.hl7.org/CodeSystem/measure-population",
              "code": "denominator",
              "display": "Denominator"
            } ]
          },
          "count": 1
        }, {
          "code": {
            "coding": [ {
              "system": "http://terminology.hl7.org/CodeSystem/measure-population",
              "code": "denominator-exclusion",
              "display": "Denominator Exclusion"
            } ]
          },
          "count": 0
        }, {
          "code": {
            "coding": [ {
              "system": "http://terminology.hl7.org/CodeSystem/measure-population",
              "code": "numerator",
              "display": "Numerator"
            } ]
          },
          "count": 0
        }, {
          "code": {
            "coding": [ {
              "system": "http://terminology.hl7.org/CodeSystem/measure-population",
              "code": "denominator-exception",
              "display": "Denominator Exception"
            } ]
          },
          "count": 0
        } ]
      } ],
      "evaluatedResource": [ {
        "reference": "Patient/f6d175e8-c952-424a-9961-9cba93219131"
      }, {
        "reference": "Encounter/c6d026ca-c086-45e3-95d7-92b68ec02de6"
      }, {
        "reference": "Condition/92331a38-7448-45d6-8286-c92455e97f3a"
      }, {
        "reference": "Condition/84e148d5-8fc0-4e55-968b-424ae356da71"
      } ]
    },
    "request": {
      "method": "PUT",
      "url": "MeasureReport/46e1c36e-d7eb-4eb5-8afe-349e45892c70"
    }
  } ]
}