{
  "resourceType": "Bundle",
  "id": "63594c7a6aee9629c82981df",
  "type": "transaction",
  "entry": [ {
    "fullUrl": "https://madie.cms.gov/Patient/d7d8914e-2ee8-4fc8-b627-7d7543c964fd",
    "resource": {
      "resourceType": "Patient",
      "id": "d7d8914e-2ee8-4fc8-b627-7d7543c964fd",
      "meta": {
        "profile": [ "http://hl7.org/fhir/us/qicore/StructureDefinition/qicore-patient" ]
      },
      "text": {
        "status": "generated",
        "div": "<div xmlns=\"http://www.w3.org/1999/xhtml\"><div class=\"hapiHeaderText\">Risk_PlacentalAbruption <b>RISKPass </b></div><table class=\"hapiPropertyTable\"><tbody><tr><td>Date of birth</td><td><span>01 February 2004</span></td></tr></tbody></table></div>"
      },
      "extension": [ {
        "url": "http://hl7.org/fhir/us/core/StructureDefinition/us-core-race",
        "extension": [ {
          "url": "ombCategory",
          "valueCoding": {
            "system": "urn:oid:2.16.840.1.113883.6.238",
            "code": "1002-5",
            "display": "American Indian or Alaska Native",
            "userSelected": true
          }
        }, {
          "url": "text",
          "valueString": "American Indian or Alaska Native"
        } ]
      }, {
        "url": "http://hl7.org/fhir/us/core/StructureDefinition/us-core-ethnicity",
        "extension": [ {
          "url": "ombCategory",
          "valueCoding": {
            "system": "urn:oid:2.16.840.1.113883.6.238",
            "code": "2135-2",
            "display": "Hispanic or Latino",
            "userSelected": true
          }
        }, {
          "url": "text",
          "valueString": "Hispanic or Latino"
        } ]
      } ],
      "identifier": [ {
        "type": {
          "coding": [ {
            "system": "http://terminology.hl7.org/CodeSystem/v2-0203",
            "code": "MR"
          } ]
        },
        "system": "https://bonnie-fhir.healthit.gov/",
        "value": "63594c7a6aee9629c82981df"
      } ],
      "active": true,
      "name": [ {
        "use": "usual",
        "family": "RiskPass",
        "given": [ "Risk_PlacentalAbruption" ]
      } ],
      "gender": "female",
      "birthDate": "2004-02-01"
    },
    "request": {
      "method": "PUT",
      "url": "Patient/d7d8914e-2ee8-4fc8-b627-7d7543c964fd"
    }
  }, {
    "fullUrl": "https://madie.cms.gov/Observation/39f59bd0-9f1b-49e5-b8c1-db484130c4ac",
    "resource": {
      "resourceType": "Observation",
      "id": "39f59bd0-9f1b-49e5-b8c1-db484130c4ac",
      "meta": {
        "profile": [ "http://hl7.org/fhir/us/qicore/StructureDefinition/qicore-observation" ]
      },
      "status": "final",
      "category": [ {
        "coding": [ {
          "system": "http://terminology.hl7.org/CodeSystem/observation-category",
          "code": "exam",
          "display": "exam",
          "userSelected": true
        } ]
      } ],
      "code": {
        "coding": [ {
          "system": "http://loinc.org",
          "code": "93857-1"
        } ]
      },
      "subject": {
        "reference": "Patient/d7d8914e-2ee8-4fc8-b627-7d7543c964fd"
      },
      "effectiveDateTime": "2025-02-01T08:00:00.000+00:00",
      "valueDateTime": "2025-02-01T08:00:00+00:00"
    },
    "request": {
      "method": "PUT",
      "url": "Observation/39f59bd0-9f1b-49e5-b8c1-db484130c4ac"
    }
  }, {
    "fullUrl": "https://madie.cms.gov/Observation/6e9e9952-b944-4cee-9b68-ad19a9d12283",
    "resource": {
      "resourceType": "Observation",
      "id": "6e9e9952-b944-4cee-9b68-ad19a9d12283",
      "meta": {
        "profile": [ "http://hl7.org/fhir/us/qicore/StructureDefinition/qicore-observation" ]
      },
      "status": "final",
      "category": [ {
        "coding": [ {
          "system": "http://terminology.hl7.org/CodeSystem/observation-category",
          "code": "exam",
          "display": "exam",
          "userSelected": true
        } ]
      } ],
      "code": {
        "coding": [ {
          "system": "http://loinc.org",
          "code": "11778-8"
        } ]
      },
      "subject": {
        "reference": "Patient/d7d8914e-2ee8-4fc8-b627-7d7543c964fd"
      },
      "effectiveDateTime": "2025-02-01T08:00:00.000+00:00",
      "valueDateTime": "2025-02-01T00:00:00.000+00:00"
    },
    "request": {
      "method": "PUT",
      "url": "Observation/6e9e9952-b944-4cee-9b68-ad19a9d12283"
    }
  }, {
    "fullUrl": "https://madie.cms.gov/Encounter/532363ab-c6a5-4a25-92b3-50f8b681fe53",
    "resource": {
      "resourceType": "Encounter",
      "id": "532363ab-c6a5-4a25-92b3-50f8b681fe53",
      "meta": {
        "profile": [ "http://hl7.org/fhir/us/qicore/StructureDefinition/qicore-encounter" ]
      },
      "status": "finished",
      "class": {
        "system": "http://terminology.hl7.org/CodeSystem/v3-ActCode",
        "code": "IMP",
        "display": "inpatient encounter"
      },
      "type": [ {
        "coding": [ {
          "system": "http://snomed.info/sct",
          "code": "183452005"
        } ]
      } ],
      "subject": {
        "reference": "Patient/d7d8914e-2ee8-4fc8-b627-7d7543c964fd"
      },
      "period": {
        "start": "2025-02-01T08:00:00.000Z",
        "end": "2025-02-05T08:15:00.000Z"
      },
      "diagnosis": [ {
        "extension": [ {
          "url": "http://hl7.org/fhir/us/qicore/StructureDefinition/qicore-encounter-diagnosisPresentOnAdmission",
          "valueCodeableConcept": {
            "coding": [ {
              "system": "https://www.cms.gov/Medicare/Medicare-Fee-for-Service-Payment/HospitalAcqCond/Coding",
              "code": "Y"
            } ]
          }
        } ],
        "condition": {
          "reference": "Condition/ec8b1eb2-27dd-4342-a2c7-4f6b308b03f4"
        }
      }, {
        "extension": [ {
          "url": "http://hl7.org/fhir/us/qicore/StructureDefinition/qicore-encounter-diagnosisPresentOnAdmission",
          "valueCodeableConcept": {
            "coding": [ {
              "system": "https://www.cms.gov/Medicare/Medicare-Fee-for-Service-Payment/HospitalAcqCond/Coding",
              "code": "N"
            } ]
          }
        } ],
        "condition": {
          "reference": "Condition/8b895d0d-0dd4-44f3-829e-a97cbe5b0588"
        }
      } ]
    },
    "request": {
      "method": "PUT",
      "url": "Encounter/532363ab-c6a5-4a25-92b3-50f8b681fe53"
    }
  }, {
    "fullUrl": "https://madie.cms.gov/Procedure/3dc25f68-6bba-4361-96dd-5b02dfef3772",
    "resource": {
      "resourceType": "Procedure",
      "id": "3dc25f68-6bba-4361-96dd-5b02dfef3772",
      "meta": {
        "profile": [ "http://hl7.org/fhir/us/qicore/StructureDefinition/qicore-procedure" ]
      },
      "extension": [ {
        "url": "http://hl7.org/fhir/us/qicore/StructureDefinition/qicore-recorded",
        "valueDateTime": "2013-04-05T09:35:00-04:00"
      } ],
      "status": "completed",
      "code": {
        "coding": [ {
          "system": "http://snomed.info/sct",
          "code": "10745001"
        } ]
      },
      "subject": {
        "reference": "Patient/d7d8914e-2ee8-4fc8-b627-7d7543c964fd"
      },
      "performedDateTime": "2025-02-01T08:00:00.000+00:00"
    },
    "request": {
      "method": "PUT",
      "url": "Procedure/3dc25f68-6bba-4361-96dd-5b02dfef3772"
    }
  }, {
    "fullUrl": "https://madie.cms.gov/Condition/8b895d0d-0dd4-44f3-829e-a97cbe5b0588",
    "resource": {
      "resourceType": "Condition",
      "id": "8b895d0d-0dd4-44f3-829e-a97cbe5b0588",
      "meta": {
        "profile": [ "http://hl7.org/fhir/us/qicore/StructureDefinition/qicore-condition" ]
      },
      "category": [ {
        "coding": [ {
          "system": "http://terminology.hl7.org/CodeSystem/condition-category",
          "code": "encounter-diagnosis",
          "display": "Encounter Diagnosis"
        } ]
      } ],
      "code": {
        "coding": [ {
          "system": "http://hl7.org/fhir/sid/icd-10-cm",
          "version": "2023",
          "code": "A32.7",
          "display": "Listerial sepsis",
          "userSelected": true
        } ]
      },
      "subject": {
        "reference": "Patient/d7d8914e-2ee8-4fc8-b627-7d7543c964fd"
      },
      "recordedDate": "2025-10-26T08:00:00.000+00:00"
    },
    "request": {
      "method": "PUT",
      "url": "Condition/8b895d0d-0dd4-44f3-829e-a97cbe5b0588"
    }
  }, {
    "fullUrl": "https://madie.cms.gov/Condition/ec8b1eb2-27dd-4342-a2c7-4f6b308b03f4",
    "resource": {
      "resourceType": "Condition",
      "id": "ec8b1eb2-27dd-4342-a2c7-4f6b308b03f4",
      "meta": {
        "profile": [ "http://hl7.org/fhir/us/qicore/StructureDefinition/qicore-condition" ]
      },
      "category": [ {
        "coding": [ {
          "system": "http://terminology.hl7.org/CodeSystem/condition-category",
          "code": "encounter-diagnosis",
          "display": "Encounter Diagnosis"
        } ]
      } ],
      "code": {
        "coding": [ {
          "system": "http://hl7.org/fhir/sid/icd-10-cm",
          "version": "2023",
          "code": "O45.001",
          "display": "Placental Abruption",
          "userSelected": true
        } ]
      },
      "subject": {
        "reference": "Patient/d7d8914e-2ee8-4fc8-b627-7d7543c964fd"
      },
      "recordedDate": "2025-10-26T08:00:00.000+00:00"
    },
    "request": {
      "method": "PUT",
      "url": "Condition/ec8b1eb2-27dd-4342-a2c7-4f6b308b03f4"
    }
  }, {
    "fullUrl": "https://madie.cms.gov/MeasureReport/76c5be84-9450-4185-ad08-713fde08dd5d",
    "resource": {
      "resourceType": "MeasureReport",
      "id": "76c5be84-9450-4185-ad08-713fde08dd5d",
      "meta": {
        "profile": [ "http://hl7.org/fhir/us/cqfmeasures/StructureDefinition/test-case-cqfm" ]
      },
      "contained": [ {
        "resourceType": "Parameters",
        "id": "9ec5b51c-eb4b-4282-872d-5b34c767ab5f-parameters",
        "parameter": [ {
          "name": "subject",
          "valueString": "d7d8914e-2ee8-4fc8-b627-7d7543c964fd"
        } ]
      } ],
      "extension": [ {
        "url": "http://hl7.org/fhir/us/cqfmeasures/StructureDefinition/cqfm-inputParameters",
        "valueReference": {
          "reference": "#9ec5b51c-eb4b-4282-872d-5b34c767ab5f-parameters"
        }
      }, {
        "url": "http://hl7.org/fhir/us/cqfmeasures/StructureDefinition/cqfm-testCaseDescription",
        "valueMarkdown": " Risk variable of placental abruption.\n\n"
      } ],
      "modifierExtension": [ {
        "url": "http://hl7.org/fhir/us/cqfmeasures/StructureDefinition/cqfm-isTestCase",
        "valueBoolean": true
      } ],
      "status": "complete",
      "type": "individual",
      "measure": "https://madie.cms.gov/Measure/CMS1028FHIRPCSevereOBComps",
      "period": {
        "start": "2025-01-01",
        "end": "2025-12-31"
      },
      "group": [ {
        "population": [ {
          "code": {
            "coding": [ {
              "system": "http://terminology.hl7.org/CodeSystem/measure-population",
              "code": "initial-population",
              "display": "Initial Population"
            } ]
          },
          "count": 1
        }, {
          "code": {
            "coding": [ {
              "system": "http://terminology.hl7.org/CodeSystem/measure-population",
              "code": "denominator",
              "display": "Denominator"
            } ]
          },
          "count": 1
        }, {
          "code": {
            "coding": [ {
              "system": "http://terminology.hl7.org/CodeSystem/measure-population",
              "code": "numerator",
              "display": "Numerator"
            } ]
          },
          "count": 1
        }, {
          "code": {
            "coding": [ {
              "system": "http://terminology.hl7.org/CodeSystem/measure-population",
              "code": "numerator-exclusion",
              "display": "Numerator Exclusion"
            } ]
          },
          "count": 0
        } ]
      }, {
        "population": [ {
          "code": {
            "coding": [ {
              "system": "http://terminology.hl7.org/CodeSystem/measure-population",
              "code": "initial-population",
              "display": "Initial Population"
            } ]
          },
          "count": 1
        }, {
          "code": {
            "coding": [ {
              "system": "http://terminology.hl7.org/CodeSystem/measure-population",
              "code": "denominator",
              "display": "Denominator"
            } ]
          },
          "count": 1
        }, {
          "code": {
            "coding": [ {
              "system": "http://terminology.hl7.org/CodeSystem/measure-population",
              "code": "numerator",
              "display": "Numerator"
            } ]
          },
          "count": 1
        }, {
          "code": {
            "coding": [ {
              "system": "http://terminology.hl7.org/CodeSystem/measure-population",
              "code": "numerator-exclusion",
              "display": "Numerator Exclusion"
            } ]
          },
          "count": 0
        } ]
      } ],
      "evaluatedResource": [ {
        "reference": "Patient/d7d8914e-2ee8-4fc8-b627-7d7543c964fd"
      }, {
        "reference": "Observation/39f59bd0-9f1b-49e5-b8c1-db484130c4ac"
      }, {
        "reference": "Observation/6e9e9952-b944-4cee-9b68-ad19a9d12283"
      }, {
        "reference": "Encounter/532363ab-c6a5-4a25-92b3-50f8b681fe53"
      }, {
        "reference": "Procedure/3dc25f68-6bba-4361-96dd-5b02dfef3772"
      }, {
        "reference": "Condition/8b895d0d-0dd4-44f3-829e-a97cbe5b0588"
      }, {
        "reference": "Condition/ec8b1eb2-27dd-4342-a2c7-4f6b308b03f4"
      } ]
    },
    "request": {
      "method": "PUT",
      "url": "MeasureReport/76c5be84-9450-4185-ad08-713fde08dd5d"
    }
  } ]
}