{
  "resourceType": "Bundle",
  "id": "6129133302c62a011f2e654a",
  "type": "transaction",
  "entry": [ {
    "fullUrl": "https://madie.cms.gov/Patient/2e0b5b75-22d9-4607-b8fe-f31c86620554",
    "resource": {
      "resourceType": "Patient",
      "id": "2e0b5b75-22d9-4607-b8fe-f31c86620554",
      "meta": {
        "profile": [ "http://hl7.org/fhir/us/qicore/StructureDefinition/qicore-patient" ]
      },
      "text": {
        "status": "generated",
        "div": "<div xmlns=\"http://www.w3.org/1999/xhtml\"><div class=\"hapiHeaderText\">PrinDxIschemicStk <b>DENOMPASS </b></div><table class=\"hapiPropertyTable\"><tbody><tr><td>Identifier</td><td>18194897e45f8ffb9878afc760b9d205</td></tr><tr><td>Date of birth</td><td><span>20 August 1994</span></td></tr></tbody></table></div>"
      },
      "extension": [ {
        "url": "http://hl7.org/fhir/us/core/StructureDefinition/us-core-race",
        "extension": [ {
          "url": "ombCategory",
          "valueCoding": {
            "system": "urn:oid:2.16.840.1.113883.6.238",
            "code": "1002-5",
            "display": "American Indian or Alaska Native",
            "userSelected": true
          }
        }, {
          "url": "text",
          "valueString": "American Indian or Alaska Native"
        } ]
      }, {
        "url": "http://hl7.org/fhir/us/core/StructureDefinition/us-core-ethnicity",
        "extension": [ {
          "url": "ombCategory",
          "valueCoding": {
            "system": "urn:oid:2.16.840.1.113883.6.238",
            "code": "2135-2",
            "display": "Hispanic or Latino",
            "userSelected": true
          }
        }, {
          "url": "text",
          "valueString": "Hispanic or Latino"
        } ]
      } ],
      "identifier": [ {
        "type": {
          "coding": [ {
            "system": "http://terminology.hl7.org/CodeSystem/v2-0203",
            "code": "MR"
          } ]
        },
        "system": "https://bonnie-fhir.healthit.gov/",
        "value": "6129133302c62a011f2e654a"
      } ],
      "active": true,
      "name": [ {
        "use": "usual",
        "family": "DENOMPass",
        "given": [ "PrinDxIschemicStk" ]
      } ],
      "gender": "male",
      "birthDate": "2004-08-20"
    },
    "request": {
      "method": "PUT",
      "url": "Patient/2e0b5b75-22d9-4607-b8fe-f31c86620554"
    }
  }, {
    "fullUrl": "https://madie.cms.gov/Encounter/5e6e970d-d3fd-44dc-a4e5-7296fb044e81",
    "resource": {
      "resourceType": "Encounter",
      "id": "5e6e970d-d3fd-44dc-a4e5-7296fb044e81",
      "meta": {
        "profile": [ "http://hl7.org/fhir/us/qicore/StructureDefinition/qicore-encounter" ]
      },
      "status": "finished",
      "class": {
        "system": "http://terminology.hl7.org/CodeSystem/v3-ActCode",
        "code": "IMP",
        "display": "inpatient encounter",
        "userSelected": true
      },
      "type": [ {
        "coding": [ {
          "system": "http://snomed.info/sct",
          "code": "32485007"
        } ]
      } ],
      "subject": {
        "reference": "Patient/2e0b5b75-22d9-4607-b8fe-f31c86620554"
      },
      "period": {
        "start": "2026-08-21T00:00:00.000+00:00",
        "end": "2026-12-19T08:15:00.000+00:00"
      },
      "length": {
        "value": 120,
        "unit": "days"
      },
      "diagnosis": [ {
        "condition": {
          "reference": "Condition/8729b65c-b20e-41e8-b7b5-ecb298596370"
        },
        "use": {
          "coding": [ {
            "system": "http://terminology.hl7.org/CodeSystem/diagnosis-role",
            "code": "billing",
            "display": "Billing"
          } ]
        },
        "rank": 1
      } ]
    },
    "request": {
      "method": "PUT",
      "url": "Encounter/5e6e970d-d3fd-44dc-a4e5-7296fb044e81"
    }
  }, {
    "fullUrl": "https://madie.cms.gov/Condition/8729b65c-b20e-41e8-b7b5-ecb298596370",
    "resource": {
      "resourceType": "Condition",
      "id": "8729b65c-b20e-41e8-b7b5-ecb298596370",
      "meta": {
        "profile": [ "http://hl7.org/fhir/us/qicore/StructureDefinition/qicore-condition" ]
      },
      "clinicalStatus": {
        "coding": [ {
          "system": "http://terminology.hl7.org/CodeSystem/condition-clinical",
          "code": "active"
        } ]
      },
      "verificationStatus": {
        "coding": [ {
          "system": "http://terminology.hl7.org/CodeSystem/condition-ver-status",
          "code": "confirmed"
        } ]
      },
      "category": [ {
        "coding": [ {
          "system": "http://terminology.hl7.org/CodeSystem/condition-category",
          "code": "encounter-diagnosis",
          "display": "Encounter Diagnosis"
        } ]
      } ],
      "code": {
        "coding": [ {
          "system": "http://snomed.info/sct",
          "version": "2020-09",
          "code": "111297002",
          "display": "Nonparalytic stroke (disorder)",
          "userSelected": true
        } ]
      },
      "subject": {
        "reference": "Patient/2e0b5b75-22d9-4607-b8fe-f31c86620554"
      },
      "recordedDate": "2026-11-23T08:00:00.000+00:00"
    },
    "request": {
      "method": "PUT",
      "url": "Condition/8729b65c-b20e-41e8-b7b5-ecb298596370"
    }
  }, {
    "fullUrl": "https://madie.cms.gov/Coverage/418b6db6-0d89-4b01-bb38-331d0fec35e1",
    "resource": {
      "resourceType": "Coverage",
      "id": "418b6db6-0d89-4b01-bb38-331d0fec35e1",
      "meta": {
        "profile": [ "http://hl7.org/fhir/us/qicore/StructureDefinition/qicore-coverage" ]
      },
      "status": "active",
      "beneficiary": {
        "reference": "Patient/2e0b5b75-22d9-4607-b8fe-f31c86620554"
      },
      "payor": [ {
        "reference": "Organization/e8a7f2f9-7dbb-4f54-9582-e8137e4a8783"
      } ]
    },
    "request": {
      "method": "PUT",
      "url": "Coverage/418b6db6-0d89-4b01-bb38-331d0fec35e1"
    }
  }, {
    "fullUrl": "https://madie.cms.gov/Organization/e8a7f2f9-7dbb-4f54-9582-e8137e4a8783",
    "resource": {
      "resourceType": "Organization",
      "id": "e8a7f2f9-7dbb-4f54-9582-e8137e4a8783",
      "meta": {
        "profile": [ "http://hl7.org/fhir/us/qicore/StructureDefinition/qicore-organization" ]
      },
      "identifier": [ {
        "use": "temp",
        "system": "urn:oid:2.16.840.1.113883.4.4",
        "value": "21-3259825"
      } ],
      "active": true,
      "type": [ {
        "coding": [ {
          "system": "http://terminology.hl7.org/CodeSystem/organization-type",
          "code": "pay",
          "display": "Payer"
        } ]
      } ],
      "name": "Blue Cross Blue Shield of Texas",
      "telecom": [ {
        "system": "phone",
        "value": "(+1) 972-766-6900"
      } ],
      "address": [ {
        "use": "billing",
        "type": "postal",
        "line": [ "P.O. Box 660044" ],
        "city": "Dallas",
        "state": "TX",
        "postalCode": "75266-0044",
        "country": "USA"
      } ]
    },
    "request": {
      "method": "PUT",
      "url": "Organization/e8a7f2f9-7dbb-4f54-9582-e8137e4a8783"
    }
  }, {
    "fullUrl": "https://madie.cms.gov/MeasureReport/bb881f9c-a130-43f1-8220-3914d063267f",
    "resource": {
      "resourceType": "MeasureReport",
      "id": "bb881f9c-a130-43f1-8220-3914d063267f",
      "meta": {
        "profile": [ "http://hl7.org/fhir/us/cqfmeasures/StructureDefinition/test-case-cqfm" ]
      },
      "contained": [ {
        "resourceType": "Parameters",
        "id": "f84825ef-43db-4094-9756-a1b019b8a3b6-parameters",
        "parameter": [ {
          "name": "subject",
          "valueString": "2e0b5b75-22d9-4607-b8fe-f31c86620554"
        } ]
      } ],
      "extension": [ {
        "url": "http://hl7.org/fhir/us/cqfmeasures/StructureDefinition/cqfm-inputParameters",
        "valueReference": {
          "reference": "#f84825ef-43db-4094-9756-a1b019b8a3b6-parameters"
        }
      }, {
        "url": "http://hl7.org/fhir/us/cqfmeasures/StructureDefinition/cqfm-testCaseDescription",
        "valueMarkdown": "Patient turns 18 day before admission with Non-Elective Inpatient Encounter ends during MP with principal diagnosis of stroke"
      } ],
      "modifierExtension": [ {
        "url": "http://hl7.org/fhir/us/cqfmeasures/StructureDefinition/cqfm-isTestCase",
        "valueBoolean": true
      } ],
      "status": "complete",
      "type": "individual",
      "measure": "https://madie.cms.gov/Measure/CMS104FHIRSTKDCAntithrombotic",
      "period": {
        "start": "2026-01-01",
        "end": "2026-12-31"
      },
      "group": [ {
        "population": [ {
          "code": {
            "coding": [ {
              "system": "http://terminology.hl7.org/CodeSystem/measure-population",
              "code": "initial-population",
              "display": "Initial Population"
            } ]
          },
          "count": 1
        }, {
          "code": {
            "coding": [ {
              "system": "http://terminology.hl7.org/CodeSystem/measure-population",
              "code": "denominator",
              "display": "Denominator"
            } ]
          },
          "count": 1
        }, {
          "code": {
            "coding": [ {
              "system": "http://terminology.hl7.org/CodeSystem/measure-population",
              "code": "denominator-exclusion",
              "display": "Denominator Exclusion"
            } ]
          },
          "count": 0
        }, {
          "code": {
            "coding": [ {
              "system": "http://terminology.hl7.org/CodeSystem/measure-population",
              "code": "numerator",
              "display": "Numerator"
            } ]
          },
          "count": 0
        }, {
          "code": {
            "coding": [ {
              "system": "http://terminology.hl7.org/CodeSystem/measure-population",
              "code": "denominator-exception",
              "display": "Denominator Exception"
            } ]
          },
          "count": 0
        } ]
      } ],
      "evaluatedResource": [ {
        "reference": "Patient/2e0b5b75-22d9-4607-b8fe-f31c86620554"
      }, {
        "reference": "Encounter/5e6e970d-d3fd-44dc-a4e5-7296fb044e81"
      }, {
        "reference": "Condition/8729b65c-b20e-41e8-b7b5-ecb298596370"
      }, {
        "reference": "Coverage/418b6db6-0d89-4b01-bb38-331d0fec35e1"
      }, {
        "reference": "Organization/e8a7f2f9-7dbb-4f54-9582-e8137e4a8783"
      } ]
    },
    "request": {
      "method": "PUT",
      "url": "MeasureReport/bb881f9c-a130-43f1-8220-3914d063267f"
    }
  } ]
}