{
  "resourceType": "Bundle",
  "id": "denomfail-nounits",
  "type": "transaction",
  "entry": [ {
    "fullUrl": "https://madie.cms.gov/Patient/8eca8e58-b539-430c-ac25-093fb4fac477",
    "resource": {
      "resourceType": "Patient",
      "id": "8eca8e58-b539-430c-ac25-093fb4fac477",
      "meta": {
        "profile": [ "http://hl7.org/fhir/us/core/StructureDefinition/us-core-patient", "http://hl7.org/fhir/us/qicore/StructureDefinition/qicore-patient" ]
      },
      "extension": [ {
        "url": "http://hl7.org/fhir/us/core/StructureDefinition/us-core-race",
        "extension": [ {
          "url": "ombCategory",
          "valueCoding": {
            "system": "urn:oid:2.16.840.1.113883.6.238",
            "code": "2028-9",
            "display": "Asian"
          }
        }, {
          "url": "text",
          "valueString": "Asian"
        } ]
      }, {
        "url": "http://hl7.org/fhir/us/core/StructureDefinition/us-core-ethnicity",
        "extension": [ {
          "url": "ombCategory",
          "valueCoding": {
            "system": "urn:oid:2.16.840.1.113883.6.238",
            "code": "2135-2",
            "display": "Hispanic or Latino"
          }
        }, {
          "url": "text",
          "valueString": "Hispanic or Latino"
        } ]
      } ],
      "identifier": [ {
        "system": "http://hospital.smarthealthit.org",
        "value": "999999995"
      } ],
      "name": [ {
        "family": "NoUnits",
        "given": [ "DENOMFail" ]
      } ],
      "gender": "female",
      "birthDate": "1985-06-12"
    },
    "request": {
      "method": "PUT",
      "url": "Patient/8eca8e58-b539-430c-ac25-093fb4fac477"
    }
  }, {
    "fullUrl": "https://madie.cms.gov/Encounter/c2bc8c92-a298-43f7-a9a2-56dc0843865b",
    "resource": {
      "resourceType": "Encounter",
      "id": "c2bc8c92-a298-43f7-a9a2-56dc0843865b",
      "meta": {
        "profile": [ "http://hl7.org/fhir/us/qicore/StructureDefinition/qicore-encounter" ]
      },
      "status": "finished",
      "class": {
        "system": "http://terminology.hl7.org/CodeSystem/v3-ActCode",
        "code": "IMP",
        "display": "inpatient encounter"
      },
      "type": [ {
        "coding": [ {
          "system": "http://snomed.info/sct",
          "code": "183452005",
          "display": "Emergency hospital admission"
        } ]
      } ],
      "subject": {
        "reference": "Patient/8eca8e58-b539-430c-ac25-093fb4fac477"
      },
      "period": {
        "start": "2026-05-01T00:00:00.000Z",
        "end": "2026-05-03T01:00:00.000Z"
      }
    },
    "request": {
      "method": "PUT",
      "url": "Encounter/c2bc8c92-a298-43f7-a9a2-56dc0843865b"
    }
  }, {
    "fullUrl": "https://madie.cms.gov/Observation/74e777fe-6863-435e-9464-32705702eb69",
    "resource": {
      "resourceType": "Observation",
      "id": "74e777fe-6863-435e-9464-32705702eb69",
      "meta": {
        "profile": [ "http://hl7.org/fhir/us/qicore/StructureDefinition/qicore-observation" ]
      },
      "status": "final",
      "category": [ {
        "coding": [ {
          "system": "http://terminology.hl7.org/CodeSystem/observation-category",
          "code": "imaging",
          "display": "Imaging"
        } ]
      } ],
      "code": {
        "coding": [ {
          "system": "http://loinc.org",
          "code": "96914-7",
          "display": "CT dose and image quality category"
        } ],
        "text": "CT dose and image quality category"
      },
      "subject": {
        "reference": "Patient/8eca8e58-b539-430c-ac25-093fb4fac477"
      },
      "encounter": {
        "reference": "Encounter/c2bc8c92-a298-43f7-a9a2-56dc0843865b"
      },
      "effectiveDateTime": "2026-05-02T00:00:00.000Z",
      "valueCodeableConcept": {
        "coding": [ {
          "system": "http://loinc.org",
          "code": "LA31752-1",
          "display": "Abdomen and Pelvis Low Dose"
        } ]
      },
      "component": [ {
        "code": {
          "coding": [ {
            "system": "http://loinc.org",
            "code": "96912-1",
            "display": "Calculated CT global noise"
          } ]
        },
        "valueQuantity": {
          "value": 63
        }
      }, {
        "code": {
          "coding": [ {
            "system": "http://loinc.org",
            "code": "96913-9",
            "display": "Calculated CT size-adjusted dose"
          } ]
        },
        "valueQuantity": {
          "value": 597
        }
      } ]
    },
    "request": {
      "method": "PUT",
      "url": "Observation/74e777fe-6863-435e-9464-32705702eb69"
    }
  }, {
    "fullUrl": "https://madie.cms.gov/MeasureReport/815bfc04-43ab-4f21-af4a-9ec2d9e2a6cb",
    "resource": {
      "resourceType": "MeasureReport",
      "id": "815bfc04-43ab-4f21-af4a-9ec2d9e2a6cb",
      "meta": {
        "profile": [ "http://hl7.org/fhir/us/cqfmeasures/StructureDefinition/test-case-cqfm" ]
      },
      "contained": [ {
        "resourceType": "Parameters",
        "id": "34f8ffac-60a3-4990-b9d3-22e7c7761875-parameters",
        "parameter": [ {
          "name": "subject",
          "valueString": "8eca8e58-b539-430c-ac25-093fb4fac477"
        } ]
      } ],
      "extension": [ {
        "url": "http://hl7.org/fhir/us/cqfmeasures/StructureDefinition/cqfm-inputParameters",
        "valueReference": {
          "reference": "#34f8ffac-60a3-4990-b9d3-22e7c7761875-parameters"
        }
      }, {
        "url": "http://hl7.org/fhir/us/cqfmeasures/StructureDefinition/cqfm-testCaseDescription",
        "valueMarkdown": "Patient has valid CT scan but with missing units on the noise and dose"
      } ],
      "modifierExtension": [ {
        "url": "http://hl7.org/fhir/us/cqfmeasures/StructureDefinition/cqfm-isTestCase",
        "valueBoolean": true
      } ],
      "status": "complete",
      "type": "individual",
      "measure": "https://madie.cms.gov/Measure/AlaraCTIQRFHIR",
      "period": {
        "start": "2026-01-01",
        "end": "2026-12-31"
      },
      "group": [ {
        "population": [ {
          "code": {
            "coding": [ {
              "system": "http://terminology.hl7.org/CodeSystem/measure-population",
              "code": "initial-population",
              "display": "Initial Population"
            } ]
          },
          "count": 1
        }, {
          "code": {
            "coding": [ {
              "system": "http://terminology.hl7.org/CodeSystem/measure-population",
              "code": "denominator",
              "display": "Denominator"
            } ]
          },
          "count": 0
        }, {
          "code": {
            "coding": [ {
              "system": "http://terminology.hl7.org/CodeSystem/measure-population",
              "code": "denominator-exclusion",
              "display": "Denominator Exclusion"
            } ]
          },
          "count": 0
        }, {
          "code": {
            "coding": [ {
              "system": "http://terminology.hl7.org/CodeSystem/measure-population",
              "code": "numerator",
              "display": "Numerator"
            } ]
          },
          "count": 0
        } ]
      } ],
      "evaluatedResource": [ {
        "reference": "Patient/8eca8e58-b539-430c-ac25-093fb4fac477"
      }, {
        "reference": "Encounter/c2bc8c92-a298-43f7-a9a2-56dc0843865b"
      }, {
        "reference": "Observation/74e777fe-6863-435e-9464-32705702eb69"
      } ]
    },
    "request": {
      "method": "PUT",
      "url": "MeasureReport/815bfc04-43ab-4f21-af4a-9ec2d9e2a6cb"
    }
  } ]
}