{
  "resourceType": "Bundle",
  "id": "IPPFail-ObstetricalDiagnosis",
  "type": "transaction",
  "entry": [ {
    "fullUrl": "https://madie.cms.gov/Procedure/44212dd6-6566-4d2f-ba61-e99c89d214d4",
    "resource": {
      "resourceType": "Procedure",
      "id": "44212dd6-6566-4d2f-ba61-e99c89d214d4",
      "meta": {
        "profile": [ "http://hl7.org/fhir/us/qicore/StructureDefinition/qicore-procedure" ]
      },
      "extension": [ {
        "url": "http://hl7.org/fhir/us/qicore/StructureDefinition/qicore-recorded",
        "valueDateTime": "2026-04-11T10:30:00+00:00"
      } ],
      "status": "completed",
      "category": {
        "coding": [ {
          "system": "http://snomed.info/sct",
          "code": "18286008",
          "display": "General or neuraxial anesthesia"
        } ]
      },
      "code": {
        "coding": [ {
          "system": "http://snomed.info/sct",
          "code": "112943005",
          "display": "Epidural injection of anesthetic substance, diagnostic, caudal, continuous"
        } ]
      },
      "subject": {
        "reference": "Patient/ea9c34ee-b50e-4d13-bd9c-ab2033d15717"
      },
      "performedPeriod": {
        "start": "2026-04-11T08:00:00+00:00",
        "end": "2026-04-11T10:15:00+00:00"
      }
    },
    "request": {
      "method": "PUT",
      "url": "Procedure/44212dd6-6566-4d2f-ba61-e99c89d214d4"
    }
  }, {
    "fullUrl": "https://madie.cms.gov/Encounter/1b5e4ab8-1ce1-4b1c-bf59-d0855b6c1529",
    "resource": {
      "resourceType": "Encounter",
      "id": "1b5e4ab8-1ce1-4b1c-bf59-d0855b6c1529",
      "meta": {
        "profile": [ "http://hl7.org/fhir/us/qicore/StructureDefinition/qicore-encounter" ]
      },
      "status": "finished",
      "class": {
        "system": "http://terminology.hl7.org/CodeSystem/v3-ActCode",
        "code": "PRENC",
        "display": "pre-admission"
      },
      "type": [ {
        "coding": [ {
          "system": "http://snomed.info/sct",
          "code": "112689000"
        } ]
      } ],
      "subject": {
        "reference": "Patient/ea9c34ee-b50e-4d13-bd9c-ab2033d15717"
      },
      "period": {
        "start": "2026-04-10T08:00:00+00:00",
        "end": "2026-04-14T08:15:00+00:00"
      }
    },
    "request": {
      "method": "PUT",
      "url": "Encounter/1b5e4ab8-1ce1-4b1c-bf59-d0855b6c1529"
    }
  }, {
    "fullUrl": "https://madie.cms.gov/Condition/300e4cbd-8bc0-499c-bedb-6ea0927ea03a",
    "resource": {
      "resourceType": "Condition",
      "id": "300e4cbd-8bc0-499c-bedb-6ea0927ea03a",
      "meta": {
        "profile": [ "http://hl7.org/fhir/us/qicore/StructureDefinition/qicore-condition" ]
      },
      "clinicalStatus": {
        "coding": [ {
          "system": "http://terminology.hl7.org/CodeSystem/condition-clinical",
          "code": "active"
        } ]
      },
      "verificationStatus": {
        "coding": [ {
          "system": "http://terminology.hl7.org/CodeSystem/condition-ver-status",
          "code": "confirmed"
        } ]
      },
      "category": [ {
        "coding": [ {
          "system": "http://terminology.hl7.org/CodeSystem/condition-category",
          "code": "encounter-diagnosis",
          "display": "Encounter Diagnosis"
        } ]
      } ],
      "code": {
        "coding": [ {
          "system": "http://snomed.info/sct",
          "code": "10749811000119108"
        } ]
      },
      "subject": {
        "reference": "Patient/ea9c34ee-b50e-4d13-bd9c-ab2033d15717"
      },
      "encounter": {
        "reference": "Encounter/1b5e4ab8-1ce1-4b1c-bf59-d0855b6c1529"
      }
    },
    "request": {
      "method": "PUT",
      "url": "Condition/300e4cbd-8bc0-499c-bedb-6ea0927ea03a"
    }
  }, {
    "fullUrl": "https://madie.cms.gov/Patient/ea9c34ee-b50e-4d13-bd9c-ab2033d15717",
    "resource": {
      "resourceType": "Patient",
      "id": "ea9c34ee-b50e-4d13-bd9c-ab2033d15717",
      "meta": {
        "profile": [ "http://hl7.org/fhir/us/qicore/StructureDefinition/qicore-patient" ]
      },
      "extension": [ {
        "url": "http://hl7.org/fhir/us/core/StructureDefinition/us-core-race",
        "extension": [ {
          "url": "ombCategory",
          "valueCoding": {
            "system": "urn:oid:2.16.840.1.113883.6.238",
            "code": "2028-9",
            "display": "Asian",
            "userSelected": true
          }
        }, {
          "url": "text",
          "valueString": "Asian"
        } ]
      }, {
        "url": "http://hl7.org/fhir/us/core/StructureDefinition/us-core-ethnicity",
        "extension": [ {
          "url": "ombCategory",
          "valueCoding": {
            "system": "urn:oid:2.16.840.1.113883.6.238",
            "code": "2186-5",
            "display": "Not Hispanic or Latino",
            "userSelected": true
          }
        }, {
          "url": "text",
          "valueString": "Not Hispanic or Latino"
        } ]
      } ],
      "identifier": [ {
        "type": {
          "coding": [ {
            "system": "http://terminology.hl7.org/CodeSystem/v2-0203",
            "code": "MR"
          } ]
        },
        "system": "https://bonnie-fhir.healthit.gov/",
        "value": "61152a3b98086b7a79cbd7c1"
      } ],
      "active": true,
      "name": [ {
        "use": "usual",
        "family": "IPPFail",
        "given": [ "ObstetricalDiagnosis" ]
      } ],
      "gender": "female",
      "birthDate": "1966-04-09"
    },
    "request": {
      "method": "PUT",
      "url": "Patient/ea9c34ee-b50e-4d13-bd9c-ab2033d15717"
    }
  }, {
    "fullUrl": "https://madie.cms.gov/MeasureReport/a44b281c-61c8-4108-a77f-4807e4fa74c0",
    "resource": {
      "resourceType": "MeasureReport",
      "id": "a44b281c-61c8-4108-a77f-4807e4fa74c0",
      "meta": {
        "profile": [ "http://hl7.org/fhir/us/cqfmeasures/StructureDefinition/test-case-cqfm" ]
      },
      "contained": [ {
        "resourceType": "Parameters",
        "id": "041f959d-3644-406d-a47c-a3c4bd33b099-parameters",
        "parameter": [ {
          "name": "subject",
          "valueString": "ea9c34ee-b50e-4d13-bd9c-ab2033d15717"
        } ]
      } ],
      "extension": [ {
        "url": "http://hl7.org/fhir/us/cqfmeasures/StructureDefinition/cqfm-inputParameters",
        "valueReference": {
          "reference": "#041f959d-3644-406d-a47c-a3c4bd33b099-parameters"
        }
      }, {
        "url": "http://hl7.org/fhir/us/cqfmeasures/StructureDefinition/cqfm-testCaseDescription",
        "valueMarkdown": "Elective hospitalization with procedure (general anesthesia) within first 3 days of encounter. Has encounter diagnosis for an obstetrical condition, so does not meet IPP. Must not have OB condition to be in IPP. "
      } ],
      "modifierExtension": [ {
        "url": "http://hl7.org/fhir/us/cqfmeasures/StructureDefinition/cqfm-isTestCase",
        "valueBoolean": true
      } ],
      "status": "complete",
      "type": "individual",
      "measure": "https://madie.cms.gov/Measure/CMS1218HHRFFHIR",
      "period": {
        "start": "2026-01-01",
        "end": "2026-12-31"
      },
      "group": [ {
        "population": [ {
          "code": {
            "coding": [ {
              "system": "http://terminology.hl7.org/CodeSystem/measure-population",
              "code": "initial-population",
              "display": "Initial Population"
            } ]
          },
          "count": 0
        }, {
          "code": {
            "coding": [ {
              "system": "http://terminology.hl7.org/CodeSystem/measure-population",
              "code": "denominator",
              "display": "Denominator"
            } ]
          },
          "count": 0
        }, {
          "code": {
            "coding": [ {
              "system": "http://terminology.hl7.org/CodeSystem/measure-population",
              "code": "denominator-exclusion",
              "display": "Denominator Exclusion"
            } ]
          },
          "count": 0
        }, {
          "code": {
            "coding": [ {
              "system": "http://terminology.hl7.org/CodeSystem/measure-population",
              "code": "numerator",
              "display": "Numerator"
            } ]
          },
          "count": 0
        } ]
      } ],
      "evaluatedResource": [ {
        "reference": "Procedure/44212dd6-6566-4d2f-ba61-e99c89d214d4"
      }, {
        "reference": "Encounter/1b5e4ab8-1ce1-4b1c-bf59-d0855b6c1529"
      }, {
        "reference": "Condition/300e4cbd-8bc0-499c-bedb-6ea0927ea03a"
      }, {
        "reference": "Patient/ea9c34ee-b50e-4d13-bd9c-ab2033d15717"
      } ]
    },
    "request": {
      "method": "PUT",
      "url": "MeasureReport/a44b281c-61c8-4108-a77f-4807e4fa74c0"
    }
  } ]
}