{
  "resourceType": "Bundle",
  "id": "612e6a5e02c62a011f2e9d40",
  "type": "transaction",
  "entry": [ {
    "fullUrl": "https://madie.cms.gov/Patient/41a02e47-7593-4107-bed2-b24fca5ddf3d",
    "resource": {
      "resourceType": "Patient",
      "id": "41a02e47-7593-4107-bed2-b24fca5ddf3d",
      "meta": {
        "profile": [ "http://hl7.org/fhir/us/qicore/StructureDefinition/qicore-patient" ]
      },
      "text": {
        "status": "generated",
        "div": "<div xmlns=\"http://www.w3.org/1999/xhtml\"><div class=\"hapiHeaderText\">MAWarfarinConcurrentAnes <b>NUMERPASS </b></div><table class=\"hapiPropertyTable\"><tbody><tr><td>Identifier</td><td>8a73949853d1489520b4f85cece6c975</td></tr><tr><td>Date of birth</td><td><span>02 January 1974</span></td></tr></tbody></table></div>"
      },
      "extension": [ {
        "url": "http://hl7.org/fhir/us/core/StructureDefinition/us-core-race",
        "extension": [ {
          "url": "ombCategory",
          "valueCoding": {
            "system": "urn:oid:2.16.840.1.113883.6.238",
            "code": "1002-5",
            "display": "American Indian or Alaska Native",
            "userSelected": true
          }
        }, {
          "url": "text",
          "valueString": "American Indian or Alaska Native"
        } ]
      }, {
        "url": "http://hl7.org/fhir/us/core/StructureDefinition/us-core-ethnicity",
        "extension": [ {
          "url": "ombCategory",
          "valueCoding": {
            "system": "urn:oid:2.16.840.1.113883.6.238",
            "code": "2135-2",
            "display": "Hispanic or Latino",
            "userSelected": true
          }
        }, {
          "url": "text",
          "valueString": "Hispanic or Latino"
        } ]
      } ],
      "identifier": [ {
        "type": {
          "coding": [ {
            "system": "http://terminology.hl7.org/CodeSystem/v2-0203",
            "code": "MR"
          } ]
        },
        "system": "https://bonnie-fhir.healthit.gov/",
        "value": "612e6a5e02c62a011f2e9d40"
      } ],
      "active": true,
      "name": [ {
        "use": "usual",
        "family": "NUMERPass",
        "given": [ "MAWarfarinConcurrentAnes" ]
      } ],
      "gender": "male",
      "birthDate": "1975-01-02"
    },
    "request": {
      "method": "PUT",
      "url": "Patient/41a02e47-7593-4107-bed2-b24fca5ddf3d"
    }
  }, {
    "fullUrl": "https://madie.cms.gov/Encounter/8dfe3a20-9ed7-4c39-99e7-7b6f02572c6a",
    "resource": {
      "resourceType": "Encounter",
      "id": "8dfe3a20-9ed7-4c39-99e7-7b6f02572c6a",
      "meta": {
        "profile": [ "http://hl7.org/fhir/us/qicore/StructureDefinition/qicore-encounter" ]
      },
      "status": "finished",
      "class": {
        "system": "http://terminology.hl7.org/CodeSystem/v3-ActCode",
        "code": "IMP",
        "display": "inpatient encounter"
      },
      "type": [ {
        "coding": [ {
          "system": "http://snomed.info/sct",
          "code": "8715000"
        } ]
      } ],
      "subject": {
        "reference": "Patient/41a02e47-7593-4107-bed2-b24fca5ddf3d"
      },
      "period": {
        "start": "2026-11-01T08:00:00+00:00",
        "end": "2026-11-26T08:15:00+00:00"
      },
      "length": {
        "value": 25.0,
        "unit": "days"
      },
      "location": [ {
        "location": {
          "reference": "Location/c5b3f2ef-64d6-4c62-89bb-6b82da9af170"
        },
        "period": {
          "start": "2026-11-01T09:00:00.000+00:00",
          "end": "2026-11-10T08:15:00.000+00:00"
        }
      } ]
    },
    "request": {
      "method": "PUT",
      "url": "Encounter/8dfe3a20-9ed7-4c39-99e7-7b6f02572c6a"
    }
  }, {
    "fullUrl": "https://madie.cms.gov/Coverage/e26f6a37-d440-4be0-b190-d816d5d06a5b",
    "resource": {
      "resourceType": "Coverage",
      "id": "e26f6a37-d440-4be0-b190-d816d5d06a5b",
      "status": "active",
      "beneficiary": {
        "reference": "Patient/41a02e47-7593-4107-bed2-b24fca5ddf3d"
      },
      "period": {
        "start": "1975-01-02T08:00:00+00:00"
      },
      "payor": [ {
        "reference": "Organization/3400f4e5-6f84-4dd1-8725-5d668620290c"
      } ]
    },
    "request": {
      "method": "PUT",
      "url": "Coverage/e26f6a37-d440-4be0-b190-d816d5d06a5b"
    }
  }, {
    "fullUrl": "https://madie.cms.gov/MedicationAdministration/f71eca0e-9946-46e1-83f8-f96ea6247268",
    "resource": {
      "resourceType": "MedicationAdministration",
      "id": "f71eca0e-9946-46e1-83f8-f96ea6247268",
      "meta": {
        "profile": [ "http://hl7.org/fhir/us/qicore/StructureDefinition/qicore-medicationadministration" ]
      },
      "status": "completed",
      "medicationCodeableConcept": {
        "coding": [ {
          "system": "http://www.nlm.nih.gov/research/umls/rxnorm",
          "code": "855288"
        } ]
      },
      "subject": {
        "reference": "Patient/41a02e47-7593-4107-bed2-b24fca5ddf3d"
      },
      "effectivePeriod": {
        "start": "2026-11-01T10:00:00+00:00",
        "end": "2026-11-02T08:15:00+00:00"
      }
    },
    "request": {
      "method": "PUT",
      "url": "MedicationAdministration/f71eca0e-9946-46e1-83f8-f96ea6247268"
    }
  }, {
    "fullUrl": "https://madie.cms.gov/Procedure/5cfcc90e-c5b1-42c2-bbcf-5be6d8aff590",
    "resource": {
      "resourceType": "Procedure",
      "id": "5cfcc90e-c5b1-42c2-bbcf-5be6d8aff590",
      "meta": {
        "profile": [ "http://hl7.org/fhir/us/qicore/StructureDefinition/qicore-procedure" ]
      },
      "extension": [ {
        "url": "http://hl7.org/fhir/us/qicore/StructureDefinition/qicore-recorded",
        "valueDateTime": "2026-11-01T09:35:00-04:00"
      } ],
      "status": "completed",
      "code": {
        "coding": [ {
          "system": "http://www.icd10data.com/icd10pcs",
          "code": "3E030FZ"
        }, {
          "system": "http://snomed.info/sct",
          "code": "18946005"
        } ]
      },
      "subject": {
        "reference": "Patient/41a02e47-7593-4107-bed2-b24fca5ddf3d"
      },
      "performedPeriod": {
        "start": "2026-11-01T09:00:00+00:00",
        "end": "2026-11-01T10:00:00+00:00"
      }
    },
    "request": {
      "method": "PUT",
      "url": "Procedure/5cfcc90e-c5b1-42c2-bbcf-5be6d8aff590"
    }
  }, {
    "fullUrl": "https://madie.cms.gov/Location/c5b3f2ef-64d6-4c62-89bb-6b82da9af170",
    "resource": {
      "resourceType": "Location",
      "id": "c5b3f2ef-64d6-4c62-89bb-6b82da9af170",
      "meta": {
        "profile": [ "http://hl7.org/fhir/us/qicore/StructureDefinition/qicore-location" ]
      },
      "identifier": [ {
        "use": "usual",
        "system": "http://exampleoflocation.com",
        "value": "B1-S.F2"
      } ],
      "name": "Medical Surgical East, first floor",
      "type": [ {
        "coding": [ {
          "system": "https://www.cdc.gov/nhsn/cdaportal/terminology/codesystem/hsloc.html",
          "code": "1025-6",
          "display": "Trauma Critical Care",
          "userSelected": true
        } ]
      } ]
    },
    "request": {
      "method": "PUT",
      "url": "Location/c5b3f2ef-64d6-4c62-89bb-6b82da9af170"
    }
  }, {
    "fullUrl": "https://madie.cms.gov/Organization/3400f4e5-6f84-4dd1-8725-5d668620290c",
    "resource": {
      "resourceType": "Organization",
      "id": "3400f4e5-6f84-4dd1-8725-5d668620290c",
      "meta": {
        "profile": [ "http://hl7.org/fhir/us/qicore/StructureDefinition/qicore-organization" ]
      },
      "identifier": [ {
        "use": "temp",
        "system": "urn:oid:2.16.840.1.113883.4.4",
        "value": "21-3259825"
      } ],
      "active": true,
      "type": [ {
        "coding": [ {
          "system": "http://terminology.hl7.org/CodeSystem/organization-type",
          "code": "pay",
          "display": "Payer"
        } ]
      } ],
      "name": "Blue Cross Blue Shield of Texas",
      "telecom": [ {
        "system": "phone",
        "value": "(+1) 972-766-6900"
      } ],
      "address": [ {
        "use": "billing",
        "type": "postal",
        "line": [ "P.O. Box 660044" ],
        "city": "Dallas",
        "state": "TX",
        "postalCode": "75266-0044",
        "country": "USA"
      } ]
    },
    "request": {
      "method": "PUT",
      "url": "Organization/3400f4e5-6f84-4dd1-8725-5d668620290c"
    }
  }, {
    "fullUrl": "https://madie.cms.gov/Practitioner/a1762950-180c-41d0-8935-054ad3904018",
    "resource": {
      "resourceType": "Practitioner",
      "id": "a1762950-180c-41d0-8935-054ad3904018",
      "identifier": [ {
        "system": "http://hl7.org/fhir/sid/us-npi",
        "value": "123456"
      } ],
      "name": [ {
        "family": "Evil",
        "prefix": [ "Dr" ]
      } ]
    },
    "request": {
      "method": "PUT",
      "url": "Practitioner/a1762950-180c-41d0-8935-054ad3904018"
    }
  }, {
    "fullUrl": "https://madie.cms.gov/MeasureReport/fe3fdce4-c469-49f8-9709-b4e169161e42",
    "resource": {
      "resourceType": "MeasureReport",
      "id": "fe3fdce4-c469-49f8-9709-b4e169161e42",
      "meta": {
        "profile": [ "http://hl7.org/fhir/us/cqfmeasures/StructureDefinition/test-case-cqfm" ]
      },
      "contained": [ {
        "resourceType": "Parameters",
        "id": "383332d6-04cd-4494-b2e2-1ae57580b86c-parameters",
        "parameter": [ {
          "name": "subject",
          "valueString": "41a02e47-7593-4107-bed2-b24fca5ddf3d"
        } ]
      } ],
      "extension": [ {
        "url": "http://hl7.org/fhir/us/cqfmeasures/StructureDefinition/cqfm-inputParameters",
        "valueReference": {
          "reference": "#383332d6-04cd-4494-b2e2-1ae57580b86c-parameters"
        }
      }, {
        "url": "http://hl7.org/fhir/us/cqfmeasures/StructureDefinition/cqfm-testCaseDescription",
        "valueMarkdown": "Warf concurrent with  anesthesia.\n"
      } ],
      "modifierExtension": [ {
        "url": "http://hl7.org/fhir/us/cqfmeasures/StructureDefinition/cqfm-isTestCase",
        "valueBoolean": true
      } ],
      "status": "complete",
      "type": "individual",
      "measure": "https://madie.cms.gov/Measure/CMS190VTEProphylaxisICUFHIR",
      "period": {
        "start": "2026-01-01",
        "end": "2026-12-31"
      },
      "group": [ {
        "population": [ {
          "code": {
            "coding": [ {
              "system": "http://terminology.hl7.org/CodeSystem/measure-population",
              "code": "initial-population",
              "display": "Initial Population"
            } ]
          },
          "count": 1
        }, {
          "code": {
            "coding": [ {
              "system": "http://terminology.hl7.org/CodeSystem/measure-population",
              "code": "denominator",
              "display": "Denominator"
            } ]
          },
          "count": 1
        }, {
          "code": {
            "coding": [ {
              "system": "http://terminology.hl7.org/CodeSystem/measure-population",
              "code": "denominator-exclusion",
              "display": "Denominator Exclusion"
            } ]
          },
          "count": 0
        }, {
          "code": {
            "coding": [ {
              "system": "http://terminology.hl7.org/CodeSystem/measure-population",
              "code": "numerator",
              "display": "Numerator"
            } ]
          },
          "count": 1
        }, {
          "code": {
            "coding": [ {
              "system": "http://terminology.hl7.org/CodeSystem/measure-population",
              "code": "denominator-exception",
              "display": "Denominator Exception"
            } ]
          },
          "count": 0
        } ]
      } ],
      "evaluatedResource": [ {
        "reference": "Patient/41a02e47-7593-4107-bed2-b24fca5ddf3d"
      }, {
        "reference": "Encounter/8dfe3a20-9ed7-4c39-99e7-7b6f02572c6a"
      }, {
        "reference": "Coverage/e26f6a37-d440-4be0-b190-d816d5d06a5b"
      }, {
        "reference": "MedicationAdministration/f71eca0e-9946-46e1-83f8-f96ea6247268"
      }, {
        "reference": "Procedure/5cfcc90e-c5b1-42c2-bbcf-5be6d8aff590"
      }, {
        "reference": "Location/c5b3f2ef-64d6-4c62-89bb-6b82da9af170"
      }, {
        "reference": "Organization/3400f4e5-6f84-4dd1-8725-5d668620290c"
      }, {
        "reference": "Practitioner/a1762950-180c-41d0-8935-054ad3904018"
      } ]
    },
    "request": {
      "method": "PUT",
      "url": "MeasureReport/fe3fdce4-c469-49f8-9709-b4e169161e42"
    }
  } ]
}