{
  "resourceType": "Bundle",
  "id": "ScreNotatriNorefNoasseNodxNoCP",
  "type": "transaction",
  "entry": [ {
    "fullUrl": "https://madie.cms.gov/Patient/07654a7e-5579-4899-a276-52333a66bfe3",
    "resource": {
      "resourceType": "Patient",
      "id": "07654a7e-5579-4899-a276-52333a66bfe3",
      "meta": {
        "profile": [ "http://hl7.org/fhir/us/qicore/StructureDefinition/qicore-patient" ]
      },
      "text": {
        "status": "generated",
        "div": "<div xmlns=\"http://www.w3.org/1999/xhtml\"><div class=\"hapiHeaderText\">ScreNotatriNorefNoasseNodxNoCP, , <b> </b></div><table class=\"hapiPropertyTable\"><tbody><tr><td>Identifier</td><td>ScreNotatriNorefNoasseNodxNoCP</td></tr><tr><td>Date of birth</td><td><span>14 May 1950</span></td></tr></tbody></table></div>"
      },
      "extension": [ {
        "url": "http://hl7.org/fhir/us/core/StructureDefinition/us-core-race",
        "extension": [ {
          "url": "ombCategory",
          "valueCoding": {
            "system": "urn:oid:2.16.840.1.113883.6.238",
            "code": "2106-3",
            "display": "White",
            "userSelected": true
          }
        }, {
          "url": "text",
          "valueString": "White"
        } ]
      }, {
        "url": "http://hl7.org/fhir/us/core/StructureDefinition/us-core-ethnicity",
        "extension": [ {
          "url": "ombCategory",
          "valueCoding": {
            "system": "urn:oid:2.16.840.1.113883.6.238",
            "code": "2186-5",
            "display": "Not Hispanic or Latino",
            "userSelected": true
          }
        }, {
          "url": "text",
          "valueString": "Not Hispanic or Latino"
        } ]
      } ],
      "identifier": [ {
        "type": {
          "coding": [ {
            "system": "http://terminology.hl7.org/CodeSystem/v2-0203",
            "code": "MR"
          } ]
        },
        "system": "https://madie.cms.gov/",
        "value": "ScreNotatriNorefNoasseNodxNoCP"
      } ],
      "active": true,
      "name": [ {
        "use": "usual",
        "text": "ScreNotatriNorefNoasseNodxNoCP",
        "family": "denompass1",
        "given": [ "ScreNotatriNorefNoasseNodxNoCPdenompass1" ]
      } ],
      "gender": "male",
      "birthDate": "1950-05-14",
      "address": [ {
        "text": "ScreNotatriNorefNoasseNodxNoCP, Screened at risk Assessed Severely Malnourished Diagnosed Care Plan, ID=ScreNotatriNorefNoasseNodxNoCP, DOB: 14 May 1950"
      } ]
    },
    "request": {
      "method": "POST",
      "url": "Patient/07654a7e-5579-4899-a276-52333a66bfe3"
    }
  }, {
    "fullUrl": "https://madie.cms.gov/Encounter/ScreNotatriNorefNoasseNodxNoCP-01",
    "resource": {
      "resourceType": "Encounter",
      "id": "ScreNotatriNorefNoasseNodxNoCP-01",
      "meta": {
        "profile": [ "http://hl7.org/fhir/us/qicore/StructureDefinition/qicore-encounter" ]
      },
      "status": "finished",
      "class": {
        "system": "http://terminology.hl7.org/CodeSystem/v3-ActCode",
        "code": "IMP",
        "display": "inpatient encounter"
      },
      "type": [ {
        "coding": [ {
          "system": "http://snomed.info/sct",
          "code": "183452005"
        } ]
      } ],
      "subject": {
        "reference": "Patient/07654a7e-5579-4899-a276-52333a66bfe3"
      },
      "period": {
        "start": "2025-02-01T08:00:00.000Z",
        "end": "2025-02-07T08:15:00.000Z"
      }
    },
    "request": {
      "method": "POST",
      "url": "Encounter/ScreNotatriNorefNoasseNodxNoCP-01"
    }
  }, {
    "fullUrl": "https://madie.cms.gov/Observation/ScreNotatriNorefNoasseNodxNoCP-18",
    "resource": {
      "resourceType": "Observation",
      "id": "ScreNotatriNorefNoasseNodxNoCP-18",
      "meta": {
        "profile": [ "http://hl7.org/fhir/us/qicore/StructureDefinition/qicore-observation" ]
      },
      "status": "final",
      "category": [ {
        "coding": [ {
          "system": "http://terminology.hl7.org/CodeSystem/observation-category",
          "code": "survey",
          "display": "Survey"
        } ]
      } ],
      "code": {
        "coding": [ {
          "system": "http://loinc.org",
          "code": "98967-3",
          "display": "Nutritional Risk Screening 2002 panel",
          "userSelected": true
        } ]
      },
      "subject": {
        "reference": "Patient/07654a7e-5579-4899-a276-52333a66bfe3"
      },
      "effectiveDateTime": "2025-02-02T09:00:00.000+00:00",
      "valueCodeableConcept": {
        "coding": [ {
          "system": "http://snomed.info/sct",
          "code": "36823005",
          "display": "Normal diet (finding)",
          "userSelected": true
        } ]
      }
    },
    "request": {
      "method": "POST",
      "url": "Observation/ScreNotatriNorefNoasseNodxNoCP-18"
    }
  }, {
    "fullUrl": "https://madie.cms.gov/Coverage/ScreNotatriNorefNoasseNodxNoCP-61",
    "resource": {
      "resourceType": "Coverage",
      "id": "ScreNotatriNorefNoasseNodxNoCP-61",
      "meta": {
        "profile": [ "http://hl7.org/fhir/us/qicore/StructureDefinition/qicore-coverage" ]
      },
      "status": "active",
      "type": {
        "coding": [ {
          "system": "https://nahdo.org/sopt",
          "version": "9.2",
          "code": "11",
          "display": "Medicare Managed Care (Includes Medicare Advantage Plans)"
        } ]
      },
      "beneficiary": {
        "reference": "Patient/07654a7e-5579-4899-a276-52333a66bfe3"
      },
      "period": {
        "start": "2024-10-01T00:00:00+00:00"
      },
      "payor": [ {
        "reference": "Organization/ScreNotatriNorefNoasseNodxNoCP-98"
      } ]
    },
    "request": {
      "method": "POST",
      "url": "Coverage/ScreNotatriNorefNoasseNodxNoCP-61"
    }
  }, {
    "fullUrl": "https://madie.cms.gov/Organization/ScreNotatriNorefNoasseNodxNoCP-98",
    "resource": {
      "resourceType": "Organization",
      "id": "ScreNotatriNorefNoasseNodxNoCP-98",
      "meta": {
        "profile": [ "http://hl7.org/fhir/us/qicore/StructureDefinition/qicore-organization" ]
      },
      "identifier": [ {
        "use": "temp",
        "system": "urn:oid:2.16.840.1.113883.4.4",
        "value": "21-3259825"
      } ],
      "active": true,
      "type": [ {
        "coding": [ {
          "system": "http://terminology.hl7.org/CodeSystem/organization-type",
          "code": "pay",
          "display": "Payer"
        } ]
      } ],
      "name": "Blue Cross Blue Shield of Texas",
      "telecom": [ {
        "system": "phone",
        "value": "(+1) 972-766-6900"
      } ],
      "address": [ {
        "use": "billing",
        "type": "postal",
        "line": [ "P.O. Box 660044" ],
        "city": "Dallas",
        "state": "TX",
        "postalCode": "75266-0044",
        "country": "USA"
      } ]
    },
    "request": {
      "method": "POST",
      "url": "Organization/ScreNotatriNorefNoasseNodxNoCP-98"
    }
  }, {
    "fullUrl": "https://madie.cms.gov/MeasureReport/f578127e-1f42-4d41-9541-1b9a2b6f0c37",
    "resource": {
      "resourceType": "MeasureReport",
      "id": "f578127e-1f42-4d41-9541-1b9a2b6f0c37",
      "meta": {
        "profile": [ "http://hl7.org/fhir/us/cqfmeasures/StructureDefinition/test-case-cqfm" ]
      },
      "contained": [ {
        "resourceType": "Parameters",
        "id": "bddf17a0-fa9c-4a12-b109-7a08fdaa62be-parameters",
        "parameter": [ {
          "name": "subject",
          "valueString": "07654a7e-5579-4899-a276-52333a66bfe3"
        } ]
      } ],
      "extension": [ {
        "url": "http://hl7.org/fhir/us/cqfmeasures/StructureDefinition/cqfm-inputParameters",
        "valueReference": {
          "reference": "#bddf17a0-fa9c-4a12-b109-7a08fdaa62be-parameters"
        }
      }, {
        "url": "http://hl7.org/fhir/us/cqfmeasures/StructureDefinition/cqfm-testCaseDescription",
        "valueMarkdown": "Screened, Not at Risk, No Referral, No Assessment, No Diagnosis, No Nutrition Care Plan"
      } ],
      "modifierExtension": [ {
        "url": "http://hl7.org/fhir/us/cqfmeasures/StructureDefinition/cqfm-isTestCase",
        "valueBoolean": true
      } ],
      "status": "complete",
      "type": "individual",
      "measure": "https://madie.cms.gov/Measure/GlobalMalnutritionCompositeFHIR",
      "period": {
        "start": "2025-01-01",
        "end": "2025-12-31"
      },
      "group": [ {
        "population": [ {
          "code": {
            "coding": [ {
              "system": "http://terminology.hl7.org/CodeSystem/measure-population",
              "code": "initial-population",
              "display": "Initial Population"
            } ]
          },
          "count": 1
        }, {
          "code": {
            "coding": [ {
              "system": "http://terminology.hl7.org/CodeSystem/measure-population",
              "code": "measure-population",
              "display": "Measure Population"
            } ]
          },
          "count": 1
        }, {
          "code": {
            "coding": [ {
              "system": "http://terminology.hl7.org/CodeSystem/measure-population",
              "code": "measure-population-observation",
              "display": "Measure Population Observation"
            } ]
          },
          "count": 1
        } ]
      }, {
        "population": [ {
          "code": {
            "coding": [ {
              "system": "http://terminology.hl7.org/CodeSystem/measure-population",
              "code": "initial-population",
              "display": "Initial Population"
            } ]
          },
          "count": 1
        }, {
          "code": {
            "coding": [ {
              "system": "http://terminology.hl7.org/CodeSystem/measure-population",
              "code": "measure-population",
              "display": "Measure Population"
            } ]
          },
          "count": 1
        }, {
          "code": {
            "coding": [ {
              "system": "http://terminology.hl7.org/CodeSystem/measure-population",
              "code": "measure-population-observation",
              "display": "Measure Population Observation"
            } ]
          },
          "count": 0
        } ]
      }, {
        "population": [ {
          "code": {
            "coding": [ {
              "system": "http://terminology.hl7.org/CodeSystem/measure-population",
              "code": "initial-population",
              "display": "Initial Population"
            } ]
          },
          "count": 1
        }, {
          "code": {
            "coding": [ {
              "system": "http://terminology.hl7.org/CodeSystem/measure-population",
              "code": "measure-population",
              "display": "Measure Population"
            } ]
          },
          "count": 1
        }, {
          "code": {
            "coding": [ {
              "system": "http://terminology.hl7.org/CodeSystem/measure-population",
              "code": "measure-population-observation",
              "display": "Measure Population Observation"
            } ]
          },
          "count": 0
        } ]
      }, {
        "population": [ {
          "code": {
            "coding": [ {
              "system": "http://terminology.hl7.org/CodeSystem/measure-population",
              "code": "initial-population",
              "display": "Initial Population"
            } ]
          },
          "count": 1
        }, {
          "code": {
            "coding": [ {
              "system": "http://terminology.hl7.org/CodeSystem/measure-population",
              "code": "measure-population",
              "display": "Measure Population"
            } ]
          },
          "count": 1
        }, {
          "code": {
            "coding": [ {
              "system": "http://terminology.hl7.org/CodeSystem/measure-population",
              "code": "measure-population-observation",
              "display": "Measure Population Observation"
            } ]
          },
          "count": 0
        } ]
      }, {
        "population": [ {
          "code": {
            "coding": [ {
              "system": "http://terminology.hl7.org/CodeSystem/measure-population",
              "code": "initial-population",
              "display": "Initial Population"
            } ]
          },
          "count": 1
        }, {
          "code": {
            "coding": [ {
              "system": "http://terminology.hl7.org/CodeSystem/measure-population",
              "code": "measure-population",
              "display": "Measure Population"
            } ]
          },
          "count": 1
        }, {
          "code": {
            "coding": [ {
              "system": "http://terminology.hl7.org/CodeSystem/measure-population",
              "code": "measure-population-observation",
              "display": "Measure Population Observation"
            } ]
          },
          "count": 1
        } ]
      }, {
        "population": [ {
          "code": {
            "coding": [ {
              "system": "http://terminology.hl7.org/CodeSystem/measure-population",
              "code": "initial-population",
              "display": "Initial Population"
            } ]
          },
          "count": 1
        }, {
          "code": {
            "coding": [ {
              "system": "http://terminology.hl7.org/CodeSystem/measure-population",
              "code": "measure-population",
              "display": "Measure Population"
            } ]
          },
          "count": 1
        }, {
          "code": {
            "coding": [ {
              "system": "http://terminology.hl7.org/CodeSystem/measure-population",
              "code": "measure-population-observation",
              "display": "Measure Population Observation"
            } ]
          },
          "count": 100
        } ]
      } ],
      "evaluatedResource": [ {
        "reference": "Patient/07654a7e-5579-4899-a276-52333a66bfe3"
      }, {
        "reference": "Encounter/ScreNotatriNorefNoasseNodxNoCP-01"
      }, {
        "reference": "Observation/ScreNotatriNorefNoasseNodxNoCP-18"
      }, {
        "reference": "Coverage/ScreNotatriNorefNoasseNodxNoCP-61"
      }, {
        "reference": "Organization/ScreNotatriNorefNoasseNodxNoCP-98"
      } ]
    },
    "request": {
      "method": "POST",
      "url": "MeasureReport/f578127e-1f42-4d41-9541-1b9a2b6f0c37"
    }
  } ]
}
