{
  "resourceType": "Bundle",
  "id": "tests-DENEXPass-TrachOnlyProcedure-bundle",
  "type": "transaction",
  "entry": [ {
    "fullUrl": "https://madie.cms.gov/Encounter/a6a6af2c-e9c5-4e12-a37d-c8c229b6af4d",
    "resource": {
      "resourceType": "Encounter",
      "id": "a6a6af2c-e9c5-4e12-a37d-c8c229b6af4d",
      "meta": {
        "profile": [ "http://hl7.org/fhir/us/qicore/StructureDefinition/qicore-encounter" ]
      },
      "status": "finished",
      "class": {
        "system": "http://terminology.hl7.org/CodeSystem/v3-ActCode",
        "code": "IMP",
        "display": "inpatient encounter"
      },
      "type": [ {
        "coding": [ {
          "system": "http://snomed.info/sct",
          "code": "112689000",
          "display": "Hospital admission, elective, with complete pre-admission work-up"
        } ],
        "text": "Hospital admission, elective, with complete pre-admission work-up"
      } ],
      "priority": {
        "coding": [ {
          "system": "http://snomed.info/sct",
          "code": "103390000"
        } ]
      },
      "subject": {
        "reference": "Patient/e2f1c511-959c-4f2a-b886-c820d983c2e3"
      },
      "period": {
        "start": "2026-04-10T08:00:00+00:00",
        "end": "2026-04-14T08:15:00+00:00"
      }
    },
    "request": {
      "method": "PUT",
      "url": "Encounter/a6a6af2c-e9c5-4e12-a37d-c8c229b6af4d"
    }
  }, {
    "fullUrl": "https://madie.cms.gov/Patient/e2f1c511-959c-4f2a-b886-c820d983c2e3",
    "resource": {
      "resourceType": "Patient",
      "id": "e2f1c511-959c-4f2a-b886-c820d983c2e3",
      "meta": {
        "profile": [ "http://hl7.org/fhir/us/qicore/StructureDefinition/qicore-patient" ]
      },
      "extension": [ {
        "url": "http://hl7.org/fhir/us/core/StructureDefinition/us-core-race",
        "extension": [ {
          "url": "ombCategory",
          "valueCoding": {
            "system": "urn:oid:2.16.840.1.113883.6.238",
            "code": "2054-5",
            "display": "Black or African American",
            "userSelected": true
          }
        }, {
          "url": "text",
          "valueString": "Black or African American"
        } ]
      }, {
        "url": "http://hl7.org/fhir/us/core/StructureDefinition/us-core-ethnicity",
        "extension": [ {
          "url": "ombCategory",
          "valueCoding": {
            "system": "urn:oid:2.16.840.1.113883.6.238",
            "code": "2186-5",
            "display": "Not Hispanic or Latino",
            "userSelected": true
          }
        }, {
          "url": "text",
          "valueString": "Not Hispanic or Latino"
        } ]
      } ],
      "identifier": [ {
        "type": {
          "coding": [ {
            "system": "http://terminology.hl7.org/CodeSystem/v2-0203",
            "code": "MR"
          } ]
        },
        "system": "https://bonnie-fhir.healthit.gov/",
        "value": "61152a3b98086b7a79cbd7c1"
      } ],
      "active": true,
      "name": [ {
        "use": "usual",
        "family": "DENEXPass",
        "given": [ "DENEXPass-TrachOnlyProcedure" ]
      } ],
      "gender": "female",
      "birthDate": "1966-07-12"
    },
    "request": {
      "method": "PUT",
      "url": "Patient/e2f1c511-959c-4f2a-b886-c820d983c2e3"
    }
  }, {
    "fullUrl": "https://madie.cms.gov/Procedure/1e8b18ab-6bc8-4b20-bf70-6a2913cc3c73",
    "resource": {
      "resourceType": "Procedure",
      "id": "1e8b18ab-6bc8-4b20-bf70-6a2913cc3c73",
      "meta": {
        "profile": [ "http://hl7.org/fhir/us/qicore/StructureDefinition/qicore-procedure" ]
      },
      "extension": [ {
        "url": "http://hl7.org/fhir/us/qicore/StructureDefinition/qicore-recorded",
        "valueDateTime": "2026-04-11T10:20:00+00:00"
      } ],
      "status": "completed",
      "category": {
        "coding": [ {
          "system": "http://snomed.info/sct",
          "code": "18286008",
          "display": "General or neuraxial anesthesia"
        } ]
      },
      "code": {
        "coding": [ {
          "system": "http://snomed.info/sct",
          "code": "112943005",
          "display": "Epidural injection of anesthetic substance, diagnostic, caudal, continuous"
        } ]
      },
      "subject": {
        "reference": "Patient/e2f1c511-959c-4f2a-b886-c820d983c2e3"
      },
      "performedPeriod": {
        "start": "2026-04-11T08:00:00+00:00",
        "end": "2026-04-11T10:15:00+00:00"
      }
    },
    "request": {
      "method": "PUT",
      "url": "Procedure/1e8b18ab-6bc8-4b20-bf70-6a2913cc3c73"
    }
  }, {
    "fullUrl": "https://madie.cms.gov/Procedure/4ee1d5b1-aed3-4de5-b423-cbdd5b4f8fee",
    "resource": {
      "resourceType": "Procedure",
      "id": "4ee1d5b1-aed3-4de5-b423-cbdd5b4f8fee",
      "meta": {
        "profile": [ "http://hl7.org/fhir/us/qicore/StructureDefinition/qicore-procedure" ]
      },
      "extension": [ {
        "url": "http://hl7.org/fhir/us/qicore/StructureDefinition/qicore-recorded",
        "valueDateTime": "2026-04-11T09:10:00+00:00"
      } ],
      "status": "completed",
      "code": {
        "coding": [ {
          "system": "http://www.cms.gov/Medicare/Coding/ICD10",
          "code": "0BW10FZ",
          "display": "Revision of Tracheostomy Device in Trachea, Open Approach"
        } ],
        "text": "Revision of Tracheostomy Device in Trachea, Open Approach"
      },
      "subject": {
        "reference": "Patient/e2f1c511-959c-4f2a-b886-c820d983c2e3"
      },
      "performedDateTime": "2026-04-11T09:00:00+00:00"
    },
    "request": {
      "method": "PUT",
      "url": "Procedure/4ee1d5b1-aed3-4de5-b423-cbdd5b4f8fee"
    }
  }, {
    "fullUrl": "https://madie.cms.gov/MeasureReport/f69690be-a105-4823-a63a-047f23ba3c8b",
    "resource": {
      "resourceType": "MeasureReport",
      "id": "f69690be-a105-4823-a63a-047f23ba3c8b",
      "meta": {
        "profile": [ "http://hl7.org/fhir/us/cqfmeasures/StructureDefinition/test-case-cqfm" ]
      },
      "contained": [ {
        "resourceType": "Parameters",
        "id": "a86a0567-ba4e-43cc-8fb8-a2dee348acc9-parameters",
        "parameter": [ {
          "name": "subject",
          "valueString": "e2f1c511-959c-4f2a-b886-c820d983c2e3"
        } ]
      } ],
      "extension": [ {
        "url": "http://hl7.org/fhir/us/cqfmeasures/StructureDefinition/cqfm-inputParameters",
        "valueReference": {
          "reference": "#a86a0567-ba4e-43cc-8fb8-a2dee348acc9-parameters"
        }
      }, {
        "url": "http://hl7.org/fhir/us/cqfmeasures/StructureDefinition/cqfm-testCaseDescription",
        "valueMarkdown": "Elective hospitalization with tracheostomy procedure with start datetime during general anesthesia period. No other procedure (i.e., anesthesia) occurs during encounter. Meets Denom exclusion. \n"
      } ],
      "modifierExtension": [ {
        "url": "http://hl7.org/fhir/us/cqfmeasures/StructureDefinition/cqfm-isTestCase",
        "valueBoolean": true
      } ],
      "status": "complete",
      "type": "individual",
      "measure": "https://madie.cms.gov/Measure/CMS1218HHRFFHIR",
      "period": {
        "start": "2026-01-01",
        "end": "2026-12-31"
      },
      "group": [ {
        "population": [ {
          "code": {
            "coding": [ {
              "system": "http://terminology.hl7.org/CodeSystem/measure-population",
              "code": "initial-population",
              "display": "Initial Population"
            } ]
          },
          "count": 1
        }, {
          "code": {
            "coding": [ {
              "system": "http://terminology.hl7.org/CodeSystem/measure-population",
              "code": "denominator",
              "display": "Denominator"
            } ]
          },
          "count": 1
        }, {
          "code": {
            "coding": [ {
              "system": "http://terminology.hl7.org/CodeSystem/measure-population",
              "code": "denominator-exclusion",
              "display": "Denominator Exclusion"
            } ]
          },
          "count": 1
        }, {
          "code": {
            "coding": [ {
              "system": "http://terminology.hl7.org/CodeSystem/measure-population",
              "code": "numerator",
              "display": "Numerator"
            } ]
          },
          "count": 0
        } ]
      } ],
      "evaluatedResource": [ {
        "reference": "Encounter/a6a6af2c-e9c5-4e12-a37d-c8c229b6af4d"
      }, {
        "reference": "Patient/e2f1c511-959c-4f2a-b886-c820d983c2e3"
      }, {
        "reference": "Procedure/1e8b18ab-6bc8-4b20-bf70-6a2913cc3c73"
      }, {
        "reference": "Procedure/4ee1d5b1-aed3-4de5-b423-cbdd5b4f8fee"
      } ]
    },
    "request": {
      "method": "PUT",
      "url": "MeasureReport/f69690be-a105-4823-a63a-047f23ba3c8b"
    }
  } ]
}