{
  "resourceType": "Bundle",
  "id": "NUMERPass-2EncFallsInjuryDxNPOA",
  "type": "transaction",
  "entry": [ {
    "fullUrl": "https://madie.cms.gov/Encounter/0e24716d-4cf6-4464-8ad1-a0de331eed04",
    "resource": {
      "resourceType": "Encounter",
      "id": "0e24716d-4cf6-4464-8ad1-a0de331eed04",
      "meta": {
        "profile": [ "http://hl7.org/fhir/us/qicore/StructureDefinition/qicore-encounter" ]
      },
      "status": "finished",
      "class": {
        "system": "http://terminology.hl7.org/CodeSystem/v3-ActCode",
        "code": "IMP",
        "display": "inpatient encounter"
      },
      "type": [ {
        "coding": [ {
          "system": "http://snomed.info/sct",
          "code": "183452005"
        } ]
      } ],
      "subject": {
        "reference": "Patient/07dfba42-b35d-4a87-b5a6-d7f02d299317"
      },
      "period": {
        "start": "2026-12-01T08:00:00+00:00",
        "end": "2026-12-08T08:15:00+00:00"
      },
      "diagnosis": [ {
        "extension": [ {
          "url": "http://hl7.org/fhir/us/qicore/StructureDefinition/qicore-encounter-diagnosisPresentOnAdmission",
          "valueCodeableConcept": {
            "coding": [ {
              "system": "https://www.cms.gov/Medicare/Medicare-Fee-for-Service-Payment/HospitalAcqCond/Coding",
              "code": "N"
            } ]
          }
        } ],
        "condition": {
          "reference": "Condition/07ee0b09-5696-4ee6-97ca-5613528ef5b0"
        }
      }, {
        "extension": [ {
          "url": "http://hl7.org/fhir/us/qicore/StructureDefinition/qicore-encounter-diagnosisPresentOnAdmission",
          "valueCodeableConcept": {
            "coding": [ {
              "system": "https://www.cms.gov/Medicare/Medicare-Fee-for-Service-Payment/HospitalAcqCond/Coding",
              "code": "N"
            } ]
          }
        } ],
        "condition": {
          "reference": "Condition/31fc618e-b1d9-45a8-a531-3f4b2e991692"
        }
      } ]
    },
    "request": {
      "method": "PUT",
      "url": "Encounter/0e24716d-4cf6-4464-8ad1-a0de331eed04"
    }
  }, {
    "fullUrl": "https://madie.cms.gov/Encounter/99698d7f-2eb8-470d-9880-24972940b540",
    "resource": {
      "resourceType": "Encounter",
      "id": "99698d7f-2eb8-470d-9880-24972940b540",
      "meta": {
        "profile": [ "http://hl7.org/fhir/us/qicore/StructureDefinition/qicore-encounter" ]
      },
      "status": "finished",
      "class": {
        "system": "http://terminology.hl7.org/CodeSystem/v3-ActCode",
        "code": "IMP",
        "display": "inpatient encounter"
      },
      "type": [ {
        "coding": [ {
          "system": "http://snomed.info/sct",
          "code": "183452005"
        } ]
      } ],
      "subject": {
        "reference": "Patient/07dfba42-b35d-4a87-b5a6-d7f02d299317"
      },
      "period": {
        "start": "2026-11-09T11:00:00+00:00",
        "end": "2026-11-12T08:15:00+00:00"
      },
      "diagnosis": [ {
        "extension": [ {
          "url": "http://hl7.org/fhir/us/qicore/StructureDefinition/qicore-encounter-diagnosisPresentOnAdmission",
          "valueCodeableConcept": {
            "coding": [ {
              "system": "https://www.cms.gov/Medicare/Medicare-Fee-for-Service-Payment/HospitalAcqCond/Coding",
              "code": "N"
            } ]
          }
        } ],
        "condition": {
          "reference": "Condition/1ed8b98d-d006-4f00-92d7-4e34d289143f"
        }
      }, {
        "extension": [ {
          "url": "http://hl7.org/fhir/us/qicore/StructureDefinition/qicore-encounter-diagnosisPresentOnAdmission",
          "valueCodeableConcept": {
            "coding": [ {
              "system": "https://www.cms.gov/Medicare/Medicare-Fee-for-Service-Payment/HospitalAcqCond/Coding",
              "code": "N"
            } ]
          }
        } ],
        "condition": {
          "reference": "Condition/49df5c63-40ce-421e-a587-2cd0d00cc234"
        }
      } ]
    },
    "request": {
      "method": "PUT",
      "url": "Encounter/99698d7f-2eb8-470d-9880-24972940b540"
    }
  }, {
    "fullUrl": "https://madie.cms.gov/Encounter/da9fcc6c-7c18-44f6-bae2-5584aaf610e5",
    "resource": {
      "resourceType": "Encounter",
      "id": "da9fcc6c-7c18-44f6-bae2-5584aaf610e5",
      "meta": {
        "profile": [ "http://hl7.org/fhir/us/qicore/StructureDefinition/qicore-encounter" ]
      },
      "status": "finished",
      "class": {
        "system": "http://terminology.hl7.org/CodeSystem/v3-ActCode",
        "code": "IMP",
        "display": "inpatient encounter"
      },
      "type": [ {
        "coding": [ {
          "system": "http://snomed.info/sct",
          "code": "4525004"
        } ]
      } ],
      "subject": {
        "reference": "Patient/07dfba42-b35d-4a87-b5a6-d7f02d299317"
      },
      "period": {
        "start": "2026-11-09T08:00:00+00:00",
        "end": "2026-11-09T10:15:00+00:00"
      }
    },
    "request": {
      "method": "PUT",
      "url": "Encounter/da9fcc6c-7c18-44f6-bae2-5584aaf610e5"
    }
  }, {
    "fullUrl": "https://madie.cms.gov/Condition/31fc618e-b1d9-45a8-a531-3f4b2e991692",
    "resource": {
      "resourceType": "Condition",
      "id": "31fc618e-b1d9-45a8-a531-3f4b2e991692",
      "meta": {
        "profile": [ "http://hl7.org/fhir/us/qicore/StructureDefinition/qicore-condition" ]
      },
      "clinicalStatus": {
        "coding": [ {
          "system": "http://terminology.hl7.org/CodeSystem/condition-clinical",
          "code": "active"
        } ]
      },
      "verificationStatus": {
        "coding": [ {
          "system": "http://terminology.hl7.org/CodeSystem/condition-ver-status",
          "code": "confirmed"
        } ]
      },
      "category": [ {
        "coding": [ {
          "system": "http://terminology.hl7.org/CodeSystem/condition-category",
          "code": "encounter-diagnosis",
          "display": "Encounter Diagnosis"
        } ]
      } ],
      "code": {
        "coding": [ {
          "system": "http://hl7.org/fhir/sid/icd-10-cm",
          "code": "S01.00XA"
        } ]
      },
      "subject": {
        "reference": "Patient/07dfba42-b35d-4a87-b5a6-d7f02d299317"
      },
      "encounter": {
        "reference": "Encounter/0e24716d-4cf6-4464-8ad1-a0de331eed04"
      }
    },
    "request": {
      "method": "PUT",
      "url": "Condition/31fc618e-b1d9-45a8-a531-3f4b2e991692"
    }
  }, {
    "fullUrl": "https://madie.cms.gov/Condition/07ee0b09-5696-4ee6-97ca-5613528ef5b0",
    "resource": {
      "resourceType": "Condition",
      "id": "07ee0b09-5696-4ee6-97ca-5613528ef5b0",
      "meta": {
        "profile": [ "http://hl7.org/fhir/us/qicore/StructureDefinition/qicore-condition" ]
      },
      "clinicalStatus": {
        "coding": [ {
          "system": "http://terminology.hl7.org/CodeSystem/condition-clinical",
          "code": "active"
        } ]
      },
      "verificationStatus": {
        "coding": [ {
          "system": "http://terminology.hl7.org/CodeSystem/condition-ver-status",
          "code": "confirmed"
        } ]
      },
      "category": [ {
        "coding": [ {
          "system": "http://terminology.hl7.org/CodeSystem/condition-category",
          "code": "encounter-diagnosis",
          "display": "Encounter Diagnosis"
        } ]
      } ],
      "code": {
        "coding": [ {
          "system": "http://hl7.org/fhir/sid/icd-10-cm",
          "code": "W01.0XXA"
        } ]
      },
      "subject": {
        "reference": "Patient/07dfba42-b35d-4a87-b5a6-d7f02d299317"
      },
      "encounter": {
        "reference": "Encounter/0e24716d-4cf6-4464-8ad1-a0de331eed04"
      }
    },
    "request": {
      "method": "PUT",
      "url": "Condition/07ee0b09-5696-4ee6-97ca-5613528ef5b0"
    }
  }, {
    "fullUrl": "https://madie.cms.gov/Condition/49df5c63-40ce-421e-a587-2cd0d00cc234",
    "resource": {
      "resourceType": "Condition",
      "id": "49df5c63-40ce-421e-a587-2cd0d00cc234",
      "meta": {
        "profile": [ "http://hl7.org/fhir/us/qicore/StructureDefinition/qicore-condition" ]
      },
      "clinicalStatus": {
        "coding": [ {
          "system": "http://terminology.hl7.org/CodeSystem/condition-clinical",
          "code": "active"
        } ]
      },
      "verificationStatus": {
        "coding": [ {
          "system": "http://terminology.hl7.org/CodeSystem/condition-ver-status",
          "code": "confirmed"
        } ]
      },
      "category": [ {
        "coding": [ {
          "system": "http://terminology.hl7.org/CodeSystem/condition-category",
          "code": "encounter-diagnosis",
          "display": "Encounter Diagnosis"
        } ]
      } ],
      "code": {
        "coding": [ {
          "system": "http://hl7.org/fhir/sid/icd-10-cm",
          "code": "M80.00XA"
        } ]
      },
      "subject": {
        "reference": "Patient/07dfba42-b35d-4a87-b5a6-d7f02d299317"
      },
      "encounter": {
        "reference": "Encounter/99698d7f-2eb8-470d-9880-24972940b540"
      }
    },
    "request": {
      "method": "PUT",
      "url": "Condition/49df5c63-40ce-421e-a587-2cd0d00cc234"
    }
  }, {
    "fullUrl": "https://madie.cms.gov/Condition/1ed8b98d-d006-4f00-92d7-4e34d289143f",
    "resource": {
      "resourceType": "Condition",
      "id": "1ed8b98d-d006-4f00-92d7-4e34d289143f",
      "meta": {
        "profile": [ "http://hl7.org/fhir/us/qicore/StructureDefinition/qicore-condition" ]
      },
      "clinicalStatus": {
        "coding": [ {
          "system": "http://terminology.hl7.org/CodeSystem/condition-clinical",
          "code": "active"
        } ]
      },
      "verificationStatus": {
        "coding": [ {
          "system": "http://terminology.hl7.org/CodeSystem/condition-ver-status",
          "code": "confirmed"
        } ]
      },
      "category": [ {
        "coding": [ {
          "system": "http://terminology.hl7.org/CodeSystem/condition-category",
          "code": "encounter-diagnosis",
          "display": "Encounter Diagnosis"
        } ]
      } ],
      "code": {
        "coding": [ {
          "system": "http://hl7.org/fhir/sid/icd-10-cm",
          "code": "W01.0XXA"
        } ]
      },
      "subject": {
        "reference": "Patient/07dfba42-b35d-4a87-b5a6-d7f02d299317"
      },
      "encounter": {
        "reference": "Encounter/99698d7f-2eb8-470d-9880-24972940b540"
      }
    },
    "request": {
      "method": "PUT",
      "url": "Condition/1ed8b98d-d006-4f00-92d7-4e34d289143f"
    }
  }, {
    "fullUrl": "https://madie.cms.gov/Patient/07dfba42-b35d-4a87-b5a6-d7f02d299317",
    "resource": {
      "resourceType": "Patient",
      "id": "07dfba42-b35d-4a87-b5a6-d7f02d299317",
      "meta": {
        "profile": [ "http://hl7.org/fhir/us/qicore/StructureDefinition/qicore-patient" ]
      },
      "extension": [ {
        "url": "http://hl7.org/fhir/us/core/StructureDefinition/us-core-race",
        "extension": [ {
          "url": "ombCategory",
          "valueCoding": {
            "system": "urn:oid:2.16.840.1.113883.6.238",
            "code": "2054-5",
            "display": "Black or African American",
            "userSelected": true
          }
        }, {
          "url": "text",
          "valueString": "Black or African American"
        } ]
      }, {
        "url": "http://hl7.org/fhir/us/core/StructureDefinition/us-core-ethnicity",
        "extension": [ {
          "url": "ombCategory",
          "valueCoding": {
            "system": "urn:oid:2.16.840.1.113883.6.238",
            "code": "2186-5",
            "display": "Not Hispanic or Latino",
            "userSelected": true
          }
        }, {
          "url": "text",
          "valueString": "Not Hispanic or Latino"
        } ]
      } ],
      "identifier": [ {
        "type": {
          "coding": [ {
            "system": "http://terminology.hl7.org/CodeSystem/v2-0203",
            "code": "MR"
          } ]
        },
        "system": "https://bonnie-fhir.healthit.gov/",
        "value": "61152a3b98086b7a79cbd7c1"
      } ],
      "active": true,
      "name": [ {
        "use": "usual",
        "family": "NUMERPass",
        "given": [ "2EncFallsInjuryDxNPOA" ]
      } ],
      "gender": "male",
      "birthDate": "1964-12-11"
    },
    "request": {
      "method": "PUT",
      "url": "Patient/07dfba42-b35d-4a87-b5a6-d7f02d299317"
    }
  }, {
    "fullUrl": "https://madie.cms.gov/MeasureReport/8a9df99d-c110-4e96-94d5-f65c1e940826",
    "resource": {
      "resourceType": "MeasureReport",
      "id": "8a9df99d-c110-4e96-94d5-f65c1e940826",
      "meta": {
        "profile": [ "http://hl7.org/fhir/us/cqfmeasures/StructureDefinition/test-case-cqfm" ]
      },
      "contained": [ {
        "resourceType": "Parameters",
        "id": "fa606fb8-31f3-421c-8b62-7e8fcdc5095e-parameters",
        "parameter": [ {
          "name": "subject",
          "valueString": "07dfba42-b35d-4a87-b5a6-d7f02d299317"
        } ]
      } ],
      "extension": [ {
        "url": "http://hl7.org/fhir/us/cqfmeasures/StructureDefinition/cqfm-inputParameters",
        "valueReference": {
          "reference": "#fa606fb8-31f3-421c-8b62-7e8fcdc5095e-parameters"
        }
      }, {
        "url": "http://hl7.org/fhir/us/cqfmeasures/StructureDefinition/cqfm-testCaseDescription",
        "valueMarkdown": "Two encounters both with fall and injury diag during encounter, NPOA. Meets Numerator both encounters. "
      } ],
      "modifierExtension": [ {
        "url": "http://hl7.org/fhir/us/cqfmeasures/StructureDefinition/cqfm-isTestCase",
        "valueBoolean": true
      } ],
      "status": "complete",
      "type": "individual",
      "measure": "https://madie.cms.gov/Measure/FallsWithInjuryFHIR",
      "period": {
        "start": "2026-01-01",
        "end": "2026-12-31"
      },
      "group": [ {
        "population": [ {
          "code": {
            "coding": [ {
              "system": "http://terminology.hl7.org/CodeSystem/measure-population",
              "code": "initial-population",
              "display": "Initial Population"
            } ]
          },
          "count": 2
        }, {
          "code": {
            "coding": [ {
              "system": "http://terminology.hl7.org/CodeSystem/measure-population",
              "code": "denominator",
              "display": "Denominator"
            } ]
          },
          "count": 2
        }, {
          "code": {
            "coding": [ {
              "system": "http://terminology.hl7.org/CodeSystem/measure-population",
              "code": "denominator-exclusion",
              "display": "Denominator Exclusion"
            } ]
          },
          "count": 0
        }, {
          "code": {
            "coding": [ {
              "system": "http://terminology.hl7.org/CodeSystem/measure-population",
              "code": "numerator",
              "display": "Numerator"
            } ]
          },
          "count": 2
        }, {
          "code": {
            "coding": [ {
              "system": "http://terminology.hl7.org/CodeSystem/measure-population",
              "code": "numerator-exclusion",
              "display": "Numerator Exclusion"
            } ]
          },
          "count": 0
        }, {
          "code": {
            "coding": [ {
              "system": "http://terminology.hl7.org/CodeSystem/measure-population",
              "code": "denominator-observation",
              "display": "DenominatorObservation"
            } ]
          },
          "count": 7
        }, {
          "code": {
            "coding": [ {
              "system": "http://terminology.hl7.org/CodeSystem/measure-population",
              "code": "denominator-observation",
              "display": "DenominatorObservation"
            } ]
          },
          "count": 3
        }, {
          "code": {
            "coding": [ {
              "system": "http://terminology.hl7.org/CodeSystem/measure-population",
              "code": "numerator-observation",
              "display": "Numerator Observation"
            } ]
          },
          "count": 1
        }, {
          "code": {
            "coding": [ {
              "system": "http://terminology.hl7.org/CodeSystem/measure-population",
              "code": "numerator-observation",
              "display": "Numerator Observation"
            } ]
          },
          "count": 1
        } ]
      } ],
      "evaluatedResource": [ {
        "reference": "Encounter/0e24716d-4cf6-4464-8ad1-a0de331eed04"
      }, {
        "reference": "Encounter/99698d7f-2eb8-470d-9880-24972940b540"
      }, {
        "reference": "Encounter/da9fcc6c-7c18-44f6-bae2-5584aaf610e5"
      }, {
        "reference": "Condition/31fc618e-b1d9-45a8-a531-3f4b2e991692"
      }, {
        "reference": "Condition/07ee0b09-5696-4ee6-97ca-5613528ef5b0"
      }, {
        "reference": "Condition/49df5c63-40ce-421e-a587-2cd0d00cc234"
      }, {
        "reference": "Condition/1ed8b98d-d006-4f00-92d7-4e34d289143f"
      }, {
        "reference": "Patient/07dfba42-b35d-4a87-b5a6-d7f02d299317"
      } ]
    },
    "request": {
      "method": "PUT",
      "url": "MeasureReport/8a9df99d-c110-4e96-94d5-f65c1e940826"
    }
  } ]
}