{
  "resourceType": "Bundle",
  "id": "661476b015ed5841a5547ebf",
  "type": "transaction",
  "entry": [ {
    "fullUrl": "https://madie.cms.gov/Patient/6252a858-2362-4c63-8d7d-6db0b7ac9299",
    "resource": {
      "resourceType": "Patient",
      "id": "6252a858-2362-4c63-8d7d-6db0b7ac9299",
      "meta": {
        "profile": [ "http://hl7.org/fhir/us/qicore/StructureDefinition/qicore-patient" ]
      },
      "extension": [ {
        "url": "http://hl7.org/fhir/us/core/StructureDefinition/us-core-race",
        "extension": [ {
          "url": "ombCategory",
          "valueCoding": {
            "system": "urn:oid:2.16.840.1.113883.6.238",
            "code": "1002-5",
            "display": "American Indian or Alaska Native",
            "userSelected": true
          }
        }, {
          "url": "text",
          "valueString": "American Indian or Alaska Native"
        } ]
      }, {
        "url": "http://hl7.org/fhir/us/core/StructureDefinition/us-core-ethnicity",
        "extension": [ {
          "url": "ombCategory",
          "valueCoding": {
            "system": "urn:oid:2.16.840.1.113883.6.238",
            "code": "2135-2",
            "display": "Hispanic or Latino",
            "userSelected": true
          }
        }, {
          "url": "text",
          "valueString": "Hispanic or Latino"
        } ]
      } ],
      "identifier": [ {
        "type": {
          "coding": [ {
            "system": "http://terminology.hl7.org/CodeSystem/v2-0203",
            "code": "MR"
          } ]
        },
        "system": "https://bonnie-fhir.healthit.gov/",
        "value": "661476b015ed5841a5547ebf"
      } ],
      "name": [ {
        "family": "NUMEXStrat2Pass",
        "given": [ "EDOBSOrderBoarded" ]
      } ],
      "gender": "male",
      "birthDate": "2008-01-01"
    },
    "request": {
      "method": "PUT",
      "url": "Patient/6252a858-2362-4c63-8d7d-6db0b7ac9299"
    }
  }, {
    "fullUrl": "https://madie.cms.gov/Encounter/d481c9c0-31bc-4ef6-b2aa-5afa8442064a",
    "resource": {
      "resourceType": "Encounter",
      "id": "d481c9c0-31bc-4ef6-b2aa-5afa8442064a",
      "meta": {
        "profile": [ "http://hl7.org/fhir/us/qicore/StructureDefinition/qicore-encounter" ]
      },
      "status": "finished",
      "class": {
        "system": "http://terminology.hl7.org/CodeSystem/v3-ActCode",
        "code": "EMER",
        "display": "emergency department"
      },
      "type": [ {
        "coding": [ {
          "system": "http://snomed.info/sct",
          "version": "2023-09",
          "code": "4525004",
          "display": "Emergency department patient visit (procedure)",
          "userSelected": true
        } ]
      } ],
      "subject": {
        "reference": "Patient/6252a858-2362-4c63-8d7d-6db0b7ac9299"
      },
      "period": {
        "start": "2026-01-01T00:00:00.000+00:00",
        "end": "2026-01-01T06:00:00.000+00:00"
      },
      "diagnosis": [ {
        "condition": {
          "reference": "Condition/non-behavioral-health-diagnosis-without-substance-use-disorders-8a64"
        },
        "use": {
          "coding": [ {
            "system": "http://terminology.hl7.org/CodeSystem/diagnosis-role",
            "code": "billing"
          } ]
        },
        "rank": 1
      } ],
      "location": [ {
        "location": {
          "reference": "Location/0439d9ec-efef-43f3-a745-06254be24e44"
        },
        "period": {
          "start": "2026-01-01T00:00:00.000+00:00",
          "end": "2026-01-01T06:01:00.000+00:00"
        }
      } ]
    },
    "request": {
      "method": "PUT",
      "url": "Encounter/d481c9c0-31bc-4ef6-b2aa-5afa8442064a"
    }
  }, {
    "fullUrl": "https://madie.cms.gov/Encounter/fc2612a8-7065-4041-9659-c3ec841d78c1",
    "resource": {
      "resourceType": "Encounter",
      "id": "fc2612a8-7065-4041-9659-c3ec841d78c1",
      "meta": {
        "profile": [ "http://hl7.org/fhir/us/qicore/StructureDefinition/qicore-encounter" ]
      },
      "status": "finished",
      "class": {
        "system": "http://terminology.hl7.org/CodeSystem/v3-ActCode",
        "code": "IMP",
        "display": "inpatient encounter"
      },
      "type": [ {
        "coding": [ {
          "system": "http://snomed.info/sct",
          "version": "2023-09",
          "code": "183452005",
          "display": "Emergency hospital admission (procedure)",
          "userSelected": true
        } ]
      } ],
      "subject": {
        "reference": "Patient/6252a858-2362-4c63-8d7d-6db0b7ac9299"
      },
      "period": {
        "start": "2026-01-01T05:00:00.000+00:00",
        "end": "2026-01-03T06:15:00.000+00:00"
      }
    },
    "request": {
      "method": "PUT",
      "url": "Encounter/fc2612a8-7065-4041-9659-c3ec841d78c1"
    }
  }, {
    "fullUrl": "https://madie.cms.gov/ServiceRequest/022132ca-d7f5-4380-806e-8f3c6c6676df",
    "resource": {
      "resourceType": "ServiceRequest",
      "id": "022132ca-d7f5-4380-806e-8f3c6c6676df",
      "meta": {
        "profile": [ "http://hl7.org/fhir/us/qicore/StructureDefinition/qicore-servicerequest" ]
      },
      "status": "completed",
      "intent": "order",
      "code": {
        "coding": [ {
          "system": "http://snomed.info/sct",
          "code": "5751000175101",
          "display": "Patient bed assigned (finding)",
          "userSelected": true
        } ]
      },
      "subject": {
        "reference": "Patient/6252a858-2362-4c63-8d7d-6db0b7ac9299"
      },
      "authoredOn": "2026-01-01T02:00:00.000+00:00"
    },
    "request": {
      "method": "PUT",
      "url": "ServiceRequest/022132ca-d7f5-4380-806e-8f3c6c6676df"
    }
  }, {
    "fullUrl": "https://madie.cms.gov/Location/0439d9ec-efef-43f3-a745-06254be24e44",
    "resource": {
      "resourceType": "Location",
      "id": "0439d9ec-efef-43f3-a745-06254be24e44",
      "meta": {
        "profile": [ "http://hl7.org/fhir/us/qicore/StructureDefinition/qicore-location" ]
      },
      "identifier": [ {
        "use": "usual",
        "system": "http://exampleoflocation.com",
        "value": "B1-S.F2"
      } ],
      "name": "Medical Surgical East, first floor",
      "type": [ {
        "coding": [ {
          "system": "https://www.cdc.gov/nhsn/cdaportal/terminology/codesystem/hsloc.html",
          "version": "2022",
          "code": "1108-0",
          "display": "Emergency Department",
          "userSelected": true
        } ]
      } ]
    },
    "request": {
      "method": "PUT",
      "url": "Location/0439d9ec-efef-43f3-a745-06254be24e44"
    }
  }, {
    "fullUrl": "https://madie.cms.gov/Coverage/234da9d6-945f-4fae-9ebb-891cda5fe144",
    "resource": {
      "resourceType": "Coverage",
      "id": "234da9d6-945f-4fae-9ebb-891cda5fe144",
      "meta": {
        "profile": [ "http://hl7.org/fhir/us/qicore/StructureDefinition/qicore-coverage" ]
      },
      "status": "active",
      "beneficiary": {
        "reference": "Patient/6252a858-2362-4c63-8d7d-6db0b7ac9299"
      },
      "payor": [ {
        "reference": "Organization/d0599ea1-0f82-4edb-be99-f3c4de26344c"
      } ]
    },
    "request": {
      "method": "PUT",
      "url": "Coverage/234da9d6-945f-4fae-9ebb-891cda5fe144"
    }
  }, {
    "fullUrl": "https://madie.cms.gov/Condition/83614dd0-8b6a-4674-9a72-b2b91ff7cecb",
    "resource": {
      "resourceType": "Condition",
      "id": "83614dd0-8b6a-4674-9a72-b2b91ff7cecb",
      "meta": {
        "profile": [ "http://hl7.org/fhir/us/qicore/StructureDefinition/qicore-condition" ]
      },
      "category": [ {
        "coding": [ {
          "system": "http://terminology.hl7.org/CodeSystem/condition-category",
          "code": "encounter-diagnosis",
          "display": "Encounter Diagnosis"
        } ]
      } ],
      "code": {
        "coding": [ {
          "system": "http://snomed.info/sct",
          "version": "2023-09",
          "code": "10674711000119105",
          "display": "Acute severe exacerbation of asthma co-occurrent with allergic rhinitis (disorder)",
          "userSelected": true
        } ]
      },
      "subject": {
        "reference": "Patient/6252a858-2362-4c63-8d7d-6db0b7ac9299"
      },
      "recordedDate": "2026-01-01T08:00:00.000+00:00"
    },
    "request": {
      "method": "PUT",
      "url": "Condition/83614dd0-8b6a-4674-9a72-b2b91ff7cecb"
    }
  }, {
    "fullUrl": "https://madie.cms.gov/ServiceRequest/0a7a8140-11e2-46e7-830a-fc605fd94dab",
    "resource": {
      "resourceType": "ServiceRequest",
      "id": "0a7a8140-11e2-46e7-830a-fc605fd94dab",
      "meta": {
        "profile": [ "http://hl7.org/fhir/us/qicore/StructureDefinition/qicore-servicerequest" ]
      },
      "status": "active",
      "intent": "order",
      "code": {
        "coding": [ {
          "system": "http://www.ama-assn.org/go/cpt",
          "version": "2024",
          "code": "99221",
          "display": "Initial hospital inpatient or observation care, per day, for the evaluation and management of a patient, which requires a medically appropriate history and/or examination and straightforward or low level medical decision making. When using total time on the date of the encounter for code selection, 40 minutes must be met or exceeded.",
          "userSelected": true
        } ]
      },
      "subject": {
        "reference": "Patient/6252a858-2362-4c63-8d7d-6db0b7ac9299"
      },
      "authoredOn": "2026-01-01T02:00:00.000+00:00"
    },
    "request": {
      "method": "PUT",
      "url": "ServiceRequest/0a7a8140-11e2-46e7-830a-fc605fd94dab"
    }
  }, {
    "fullUrl": "https://madie.cms.gov/Organization/d0599ea1-0f82-4edb-be99-f3c4de26344c",
    "resource": {
      "resourceType": "Organization",
      "id": "d0599ea1-0f82-4edb-be99-f3c4de26344c",
      "meta": {
        "profile": [ "http://hl7.org/fhir/us/qicore/StructureDefinition/qicore-organization" ]
      },
      "identifier": [ {
        "use": "temp",
        "system": "urn:oid:2.16.840.1.113883.4.4",
        "value": "21-3259825"
      } ],
      "active": true,
      "type": [ {
        "coding": [ {
          "system": "http://terminology.hl7.org/CodeSystem/organization-type",
          "code": "pay",
          "display": "Payer"
        } ]
      } ],
      "name": "Blue Cross Blue Shield of Texas",
      "telecom": [ {
        "system": "phone",
        "value": "(+1) 972-766-6900"
      } ],
      "address": [ {
        "use": "billing",
        "type": "postal",
        "line": [ "P.O. Box 660044" ],
        "city": "Dallas",
        "state": "TX",
        "postalCode": "75266-0044",
        "country": "USA"
      } ]
    },
    "request": {
      "method": "PUT",
      "url": "Organization/d0599ea1-0f82-4edb-be99-f3c4de26344c"
    }
  }, {
    "fullUrl": "https://madie.cms.gov/Practitioner/95d2cede-3b53-4a4e-8a9f-3e26b715afd1",
    "resource": {
      "resourceType": "Practitioner",
      "id": "95d2cede-3b53-4a4e-8a9f-3e26b715afd1",
      "meta": {
        "profile": [ "http://hl7.org/fhir/us/qicore/StructureDefinition/qicore-practitioner" ]
      },
      "identifier": [ {
        "system": "http://hl7.org/fhir/sid/us-npi",
        "value": "123456"
      } ],
      "name": [ {
        "family": "Evil",
        "prefix": [ "Dr" ]
      } ]
    },
    "request": {
      "method": "PUT",
      "url": "Practitioner/95d2cede-3b53-4a4e-8a9f-3e26b715afd1"
    }
  }, {
    "fullUrl": "https://madie.cms.gov/MeasureReport/ab340246-babf-434d-9f16-29b0f5a217d0",
    "resource": {
      "resourceType": "MeasureReport",
      "id": "ab340246-babf-434d-9f16-29b0f5a217d0",
      "meta": {
        "profile": [ "http://hl7.org/fhir/us/cqfmeasures/StructureDefinition/test-case-cqfm" ]
      },
      "contained": [ {
        "resourceType": "Parameters",
        "id": "f302d324-dd2d-488a-bae2-7baa0f096c58-parameters",
        "parameter": [ {
          "name": "subject",
          "valueString": "6252a858-2362-4c63-8d7d-6db0b7ac9299"
        } ]
      } ],
      "extension": [ {
        "url": "http://hl7.org/fhir/us/cqfmeasures/StructureDefinition/cqfm-inputParameters",
        "valueReference": {
          "reference": "#f302d324-dd2d-488a-bae2-7baa0f096c58-parameters"
        }
      }, {
        "url": "http://hl7.org/fhir/us/cqfmeasures/StructureDefinition/cqfm-testCaseDescription",
        "valueMarkdown": "Adult, ED observation order during ED enc where patient was boarded 6 hrs 1 min; Enc 8 hrs, enc departure 8 hrs 1 min. dx asthma "
      } ],
      "modifierExtension": [ {
        "url": "http://hl7.org/fhir/us/cqfmeasures/StructureDefinition/cqfm-isTestCase",
        "valueBoolean": true
      } ],
      "status": "complete",
      "type": "individual",
      "measure": "https://madie.cms.gov/Measure/CMS1244ECCQHOQRFHIR",
      "period": {
        "start": "2026-01-01",
        "end": "2026-12-31"
      },
      "group": [ {
        "population": [ {
          "code": {
            "coding": [ {
              "system": "http://terminology.hl7.org/CodeSystem/measure-population",
              "code": "initial-population",
              "display": "Initial Population"
            } ]
          },
          "count": 1
        }, {
          "code": {
            "coding": [ {
              "system": "http://terminology.hl7.org/CodeSystem/measure-population",
              "code": "denominator",
              "display": "Denominator"
            } ]
          },
          "count": 1
        }, {
          "code": {
            "coding": [ {
              "system": "http://terminology.hl7.org/CodeSystem/measure-population",
              "code": "numerator",
              "display": "Numerator"
            } ]
          },
          "count": 0
        } ]
      } ],
      "evaluatedResource": [ {
        "reference": "Patient/6252a858-2362-4c63-8d7d-6db0b7ac9299"
      }, {
        "reference": "Encounter/d481c9c0-31bc-4ef6-b2aa-5afa8442064a"
      }, {
        "reference": "Encounter/fc2612a8-7065-4041-9659-c3ec841d78c1"
      }, {
        "reference": "ServiceRequest/022132ca-d7f5-4380-806e-8f3c6c6676df"
      }, {
        "reference": "Location/0439d9ec-efef-43f3-a745-06254be24e44"
      }, {
        "reference": "Coverage/234da9d6-945f-4fae-9ebb-891cda5fe144"
      }, {
        "reference": "Condition/83614dd0-8b6a-4674-9a72-b2b91ff7cecb"
      }, {
        "reference": "ServiceRequest/0a7a8140-11e2-46e7-830a-fc605fd94dab"
      }, {
        "reference": "Organization/d0599ea1-0f82-4edb-be99-f3c4de26344c"
      }, {
        "reference": "Practitioner/95d2cede-3b53-4a4e-8a9f-3e26b715afd1"
      } ]
    },
    "request": {
      "method": "PUT",
      "url": "MeasureReport/ab340246-babf-434d-9f16-29b0f5a217d0"
    }
  } ]
}