{"resourceType":"Bundle","id":"tests-69c40e81-479f-44cb-a2dd-ff3bbc9a8923-bundle","type":"transaction","entry":[{"fullUrl":"https://madie.cms.gov/Patient/69c40e81-479f-44cb-a2dd-ff3bbc9a8923","resource":{"resourceType":"Patient","id":"69c40e81-479f-44cb-a2dd-ff3bbc9a8923","meta":{"profile":["http://hl7.org/fhir/us/qicore/StructureDefinition/qicore-patient"]},"text":{"status":"generated","div":"<div xmlns=\"http://www.w3.org/1999/xhtml\"><div class=\"hapiHeaderText\">GT94Yrs <b>IPFAIL </b></div><table class=\"hapiPropertyTable\"><tbody><tr><td>Identifier</td><td>3e2cc83e5e4f5654bc788ad95fe65be8e90e99da3635326149b0cf67c8c316a9</td></tr><tr><td>Date of birth</td><td><span>21 June 1926</span></td></tr></tbody></table></div>"},"extension":[{"url":"http://hl7.org/fhir/us/core/StructureDefinition/us-core-race","extension":[{"url":"ombCategory","valueCoding":{"system":"urn:oid:2.16.840.1.113883.6.238","code":"1002-5","display":"American Indian or Alaska Native","userSelected":true}},{"url":"text","valueString":"American Indian or Alaska Native"}]},{"url":"http://hl7.org/fhir/us/core/StructureDefinition/us-core-ethnicity","extension":[{"url":"ombCategory","valueCoding":{"system":"urn:oid:2.16.840.1.113883.6.238","code":"2186-5","display":"Not Hispanic or Latino","userSelected":true}},{"url":"text","valueString":"Not Hispanic or Latino"}]}],"identifier":[{"type":{"coding":[{"system":"http://terminology.hl7.org/CodeSystem/v2-0203","code":"MR"}]},"system":"https://bonnie-fhir.healthit.gov/","value":"63ec0969ccb3770120fe9f0b"}],"active":true,"name":[{"use":"usual","family":"IPPass","given":["Age94DayOfEncounter"]}],"gender":"male","birthDate":"1932-07-01"},"request":{"method":"PUT","url":"Patient/69c40e81-479f-44cb-a2dd-ff3bbc9a8923"}},{"fullUrl":"https://madie.cms.gov/Encounter/bc3a32c9-f598-4eae-98d6-13b17545a913","resource":{"resourceType":"Encounter","id":"bc3a32c9-f598-4eae-98d6-13b17545a913","meta":{"profile":["http://hl7.org/fhir/us/qicore/StructureDefinition/qicore-encounter"]},"status":"finished","class":{"system":"http://terminology.hl7.org/CodeSystem/v3-ActCode","code":"IMP","display":"inpatient encounter","userSelected":true},"type":[{"coding":[{"system":"http://snomed.info/sct","code":"183452005"}]}],"subject":{"reference":"Patient/69c40e81-479f-44cb-a2dd-ff3bbc9a8923"},"period":{"start":"2026-07-01T08:00:00.000+00:00","end":"2026-07-03T08:15:00.000+00:00"},"length":{"value":2.0,"unit":"days"}},"request":{"method":"PUT","url":"Encounter/bc3a32c9-f598-4eae-98d6-13b17545a913"}},{"fullUrl":"https://madie.cms.gov/Coverage/1fac886f-7641-49aa-9fe0-e528dcaa18ff","resource":{"resourceType":"Coverage","id":"1fac886f-7641-49aa-9fe0-e528dcaa18ff","meta":{"profile":["http://hl7.org/fhir/us/qicore/StructureDefinition/qicore-coverage"]},"status":"active","type":{"coding":[{"system":"https://nahdo.org/sopt","version":"1.0.1","code":"1","display":"Medicare payer","userSelected":true}]},"beneficiary":{"reference":"Patient/69c40e81-479f-44cb-a2dd-ff3bbc9a8923"},"payor":[{"reference":"Organization/a6c3e6fa-301e-4714-9d04-3dde9a7e7c49"}]},"request":{"method":"PUT","url":"Coverage/1fac886f-7641-49aa-9fe0-e528dcaa18ff"}},{"fullUrl":"https://madie.cms.gov/Organization/9e0146fa-6e50-4a2d-b86a-5c51538d6f96","resource":{"resourceType":"Organization","id":"a6c3e6fa-301e-4714-9d04-3dde9a7e7c49","meta":{"profile":["http://hl7.org/fhir/us/qicore/StructureDefinition/qicore-organization"]},"identifier":[{"use":"temp","system":"urn:oid:2.16.840.1.113883.4.4","value":"21-3259825"}],"active":true,"type":[{"coding":[{"system":"http://terminology.hl7.org/CodeSystem/organization-type","code":"pay","display":"Payer"}]}],"name":"Blue Cross Blue Shield of Texas","telecom":[{"system":"phone","value":"(+1) 972-766-6900"}],"address":[{"use":"billing","type":"postal","line":["P.O. Box 660044"],"city":"Dallas","state":"TX","postalCode":"75266-0044","country":"USA"}]},"request":{"method":"PUT","url":"Organization/a6c3e6fa-301e-4714-9d04-3dde9a7e7c49"}},{"fullUrl":"https://madie.cms.gov/Practitioner/b0d6114c-ef35-44a6-a670-583ed40bec8a","resource":{"resourceType":"Practitioner","id":"b0d6114c-ef35-44a6-a670-583ed40bec8a","meta":{"profile":["http://hl7.org/fhir/us/qicore/StructureDefinition/qicore-practitioner"]},"identifier":[{"system":"http://hl7.org/fhir/sid/us-npi","value":"123456"}],"name":[{"family":"Evil","prefix":["Dr"]}]},"request":{"method":"PUT","url":"Practitioner/b0d6114c-ef35-44a6-a670-583ed40bec8a"}},{"fullUrl":"https://madie.cms.gov/MeasureReport/ceca2f50-669f-4fd1-8ab7-16f3c4dca3d9","resource":{"resourceType":"MeasureReport","id":"ceca2f50-669f-4fd1-8ab7-16f3c4dca3d9","meta":{"profile":["http://hl7.org/fhir/us/cqfmeasures/StructureDefinition/test-case-cqfm"]},"contained":[{"resourceType":"Parameters","id":"4004e2be-8023-4e1a-b130-6a20c558b5d6-parameters","parameter":[{"name":"subject","valueString":"69c40e81-479f-44cb-a2dd-ff3bbc9a8923"}]}],"extension":[{"url":"http://hl7.org/fhir/us/cqfmeasures/StructureDefinition/cqfm-inputParameters","valueReference":{"reference":"#4004e2be-8023-4e1a-b130-6a20c558b5d6-parameters"}},{"url":"http://hl7.org/fhir/us/cqfmeasures/StructureDefinition/cqfm-testCaseDescription","valueMarkdown":"Encounter first day of MP (7/1), patient turned 94 this day and has Medicare."}],"modifierExtension":[{"url":"http://hl7.org/fhir/us/cqfmeasures/StructureDefinition/cqfm-isTestCase","valueBoolean":true}],"status":"complete","type":"individual","measure":"https://madie.cms.gov/Measure/CMSFHIR844HybridHospitalWideMortality","period":{"start":"2026-07-01","end":"2027-06-30"},"group":[{"population":[{"code":{"coding":[{"system":"http://terminology.hl7.org/CodeSystem/measure-population","code":"initial-population","display":"Initial Population"}]},"count":1}]}]},"request":{"method":"PUT","url":"MeasureReport/ceca2f50-669f-4fd1-8ab7-16f3c4dca3d9"}}]}