{"resourceType":"Bundle","id":"tests-387330f1-1023-4576-9994-626c196d2c01-bundle","type":"transaction","entry":[{"fullUrl":"https://madie.cms.gov/Patient/387330f1-1023-4576-9994-626c196d2c01","resource":{"resourceType":"Patient","id":"387330f1-1023-4576-9994-626c196d2c01","meta":{"profile":["http://hl7.org/fhir/us/qicore/StructureDefinition/qicore-patient"]},"text":{"status":"generated","div":"<div xmlns=\"http://www.w3.org/1999/xhtml\"><div class=\"hapiHeaderText\">LT65Yrs <b>IPFAIL </b></div><table class=\"hapiPropertyTable\"><tbody><tr><td>Identifier</td><td>03c3bdaef06b3f281a8ed34325059b1306340d0e1ed2849915ba5f5a7c4f080a</td></tr><tr><td>Date of birth</td><td><span>22 June 1960</span></td></tr></tbody></table></div>"},"extension":[{"url":"http://hl7.org/fhir/us/core/StructureDefinition/us-core-race","extension":[{"url":"ombCategory","valueCoding":{"system":"urn:oid:2.16.840.1.113883.6.238","code":"2106-3","display":"White","userSelected":true}},{"url":"text","valueString":"White"}]},{"url":"http://hl7.org/fhir/us/core/StructureDefinition/us-core-ethnicity","extension":[{"url":"ombCategory","valueCoding":{"system":"urn:oid:2.16.840.1.113883.6.238","code":"2186-5","display":"Not Hispanic or Latino","userSelected":true}},{"url":"text","valueString":"Not Hispanic or Latino"}]}],"identifier":[{"type":{"coding":[{"system":"http://terminology.hl7.org/CodeSystem/v2-0203","code":"MR"}]},"system":"https://bonnie-fhir.healthit.gov/","value":"63ec096fccb3770120fea42f"}],"active":true,"name":[{"use":"usual","family":"IPPFail","given":["TooYoung"]}],"gender":"male","birthDate":"1963-06-28"},"request":{"method":"PUT","url":"Patient/387330f1-1023-4576-9994-626c196d2c01"}},{"fullUrl":"https://madie.cms.gov/Encounter/e9058579-82c3-4edb-8e2c-5de795d3dbbe","resource":{"resourceType":"Encounter","id":"e9058579-82c3-4edb-8e2c-5de795d3dbbe","meta":{"profile":["http://hl7.org/fhir/us/qicore/StructureDefinition/qicore-encounter"]},"status":"finished","class":{"system":"http://terminology.hl7.org/CodeSystem/v3-ActCode","code":"IMP","display":"inpatient encounter","userSelected":true},"type":[{"coding":[{"system":"http://snomed.info/sct","code":"183452005"}]}],"subject":{"reference":"Patient/387330f1-1023-4576-9994-626c196d2c01"},"period":{"start":"2027-06-28T08:00:00+00:00","end":"2027-06-30T08:15:00+00:00"},"length":{"value":2,"unit":"days"}},"request":{"method":"PUT","url":"Encounter/e9058579-82c3-4edb-8e2c-5de795d3dbbe"}},{"fullUrl":"https://madie.cms.gov/Coverage/ee5e4eb9-28b2-4a5a-8933-887413596be8","resource":{"resourceType":"Coverage","id":"ee5e4eb9-28b2-4a5a-8933-887413596be8","meta":{"profile":["http://hl7.org/fhir/us/qicore/StructureDefinition/qicore-coverage"]},"status":"active","type":{"coding":[{"system":"https://nahdo.org/sopt","version":"1.0.1","code":"1","display":"Medicare payer","userSelected":true}]},"beneficiary":{"reference":"Patient/387330f1-1023-4576-9994-626c196d2c01"},"payor":[{"reference":"Organization/80e3e0d1-b2aa-43a6-b1d2-00bfa3164a0f"}]},"request":{"method":"PUT","url":"Coverage/ee5e4eb9-28b2-4a5a-8933-887413596be8"}},{"fullUrl":"https://madie.cms.gov/Observation/b84a970c-0349-4190-8a77-9bce09a79503","resource":{"resourceType":"Observation","id":"b84a970c-0349-4190-8a77-9bce09a79503","meta":{"profile":["http://hl7.org/fhir/us/qicore/StructureDefinition/qicore-observation"]},"status":"final","category":[{"coding":[{"system":"http://terminology.hl7.org/CodeSystem/observation-category","code":"laboratory","display":"laboratory","userSelected":true}]}],"code":{"coding":[{"system":"http://loinc.org","version":"2.69","code":"8867-4","display":"Heart rate","userSelected":true}]},"subject":{"reference":"Patient/387330f1-1023-4576-9994-626c196d2c01"},"effectiveDateTime":"2025-06-28T08:00:00.000+00:00","valueQuantity":{"value":82.0,"unit":"{beats}/min","system":"http://unitsofmeasure.org","code":"{beats}/min"}},"request":{"method":"PUT","url":"Observation/b84a970c-0349-4190-8a77-9bce09a79503"}},{"fullUrl":"https://madie.cms.gov/Organization/1d53d290-6b41-46c8-b0f3-32e252d930f4","resource":{"resourceType":"Organization","id":"80e3e0d1-b2aa-43a6-b1d2-00bfa3164a0f","meta":{"profile":["http://hl7.org/fhir/us/qicore/StructureDefinition/qicore-organization"]},"identifier":[{"use":"temp","system":"urn:oid:2.16.840.1.113883.4.4","value":"21-3259825"}],"active":true,"type":[{"coding":[{"system":"http://terminology.hl7.org/CodeSystem/organization-type","code":"pay","display":"Payer"}]}],"name":"Blue Cross Blue Shield of Texas","telecom":[{"system":"phone","value":"(+1) 972-766-6900"}],"address":[{"use":"billing","type":"postal","line":["P.O. Box 660044"],"city":"Dallas","state":"TX","postalCode":"75266-0044","country":"USA"}]},"request":{"method":"PUT","url":"Organization/80e3e0d1-b2aa-43a6-b1d2-00bfa3164a0f"}},{"fullUrl":"https://madie.cms.gov/Practitioner/e005ff4d-9335-4808-b73e-6e9cac1fab6c","resource":{"resourceType":"Practitioner","id":"e005ff4d-9335-4808-b73e-6e9cac1fab6c","meta":{"profile":["http://hl7.org/fhir/us/qicore/StructureDefinition/qicore-practitioner"]},"identifier":[{"system":"http://hl7.org/fhir/sid/us-npi","value":"123456"}],"name":[{"family":"Evil","prefix":["Dr"]}]},"request":{"method":"PUT","url":"Practitioner/e005ff4d-9335-4808-b73e-6e9cac1fab6c"}},{"fullUrl":"https://madie.cms.gov/MeasureReport/eb88a594-9725-4cbc-a176-b22e74a5df37","resource":{"resourceType":"MeasureReport","id":"eb88a594-9725-4cbc-a176-b22e74a5df37","meta":{"profile":["http://hl7.org/fhir/us/cqfmeasures/StructureDefinition/test-case-cqfm"]},"contained":[{"resourceType":"Parameters","id":"5d4e96a8-8a32-4a70-ad6f-02d5407a1b71-parameters","parameter":[{"name":"subject","valueString":"387330f1-1023-4576-9994-626c196d2c01"}]}],"extension":[{"url":"http://hl7.org/fhir/us/cqfmeasures/StructureDefinition/cqfm-inputParameters","valueReference":{"reference":"#5d4e96a8-8a32-4a70-ad6f-02d5407a1b71-parameters"}},{"url":"http://hl7.org/fhir/us/cqfmeasures/StructureDefinition/cqfm-testCaseDescription","valueMarkdown":"Enc ends last day of MP, patient's birthday same day as admission but is age 64. Patient does have Medicare coverage\n "}],"modifierExtension":[{"url":"http://hl7.org/fhir/us/cqfmeasures/StructureDefinition/cqfm-isTestCase","valueBoolean":true}],"status":"complete","type":"individual","measure":"https://madie.cms.gov/Measure/CMSFHIR844HybridHospitalWideMortality","period":{"start":"2026-07-01","end":"2027-06-30"},"group":[{"population":[{"code":{"coding":[{"system":"http://terminology.hl7.org/CodeSystem/measure-population","code":"initial-population","display":"Initial Population"}]},"count":0}]}]},"request":{"method":"PUT","url":"MeasureReport/eb88a594-9725-4cbc-a176-b22e74a5df37"}}]}