{"resourceType":"Bundle","id":"tests-cac6a3c8-edb3-416d-a057-4c966d970902-bundle","type":"transaction","entry":[{"fullUrl":"https://madie.cms.gov/Patient/cac6a3c8-edb3-416d-a057-4c966d970902","resource":{"resourceType":"Patient","id":"cac6a3c8-edb3-416d-a057-4c966d970902","meta":{"profile":["http://hl7.org/fhir/us/qicore/StructureDefinition/qicore-patient"]},"text":{"status":"generated","div":"<div xmlns=\"http://www.w3.org/1999/xhtml\"><div class=\"hapiHeaderText\">EncStartsBeforeMP <b>IPFAIL </b></div><table class=\"hapiPropertyTable\"><tbody><tr><td>Identifier</td><td>5357cf1fa2383d9a0e8f3ff5d42eaa9911ad131ad62a639f75e98789c2c8866b</td></tr><tr><td>Date of birth</td><td><span>15 June 1956</span></td></tr></tbody></table></div>"},"extension":[{"url":"http://hl7.org/fhir/us/core/StructureDefinition/us-core-race","extension":[{"url":"ombCategory","valueCoding":{"system":"urn:oid:2.16.840.1.113883.6.238","code":"1002-5","display":"American Indian or Alaska Native","userSelected":true}},{"url":"text","valueString":"American Indian or Alaska Native"}]},{"url":"http://hl7.org/fhir/us/core/StructureDefinition/us-core-ethnicity","extension":[{"url":"ombCategory","valueCoding":{"system":"urn:oid:2.16.840.1.113883.6.238","code":"2186-5","display":"Not Hispanic or Latino","userSelected":true}},{"url":"text","valueString":"Not Hispanic or Latino"}]}],"identifier":[{"type":{"coding":[{"system":"http://terminology.hl7.org/CodeSystem/v2-0203","code":"MR"}]},"system":"https://bonnie-fhir.healthit.gov/","value":"63ec096eccb3770120fea3a7"}],"active":true,"name":[{"use":"usual","family":"IPPFail","given":["EncounterEndsAfterMP"]}],"gender":"male","birthDate":"1957-06-15"},"request":{"method":"PUT","url":"Patient/cac6a3c8-edb3-416d-a057-4c966d970902"}},{"fullUrl":"https://madie.cms.gov/Encounter/413bf440-d8f9-47c3-bd4c-d14d7fca1371","resource":{"resourceType":"Encounter","id":"413bf440-d8f9-47c3-bd4c-d14d7fca1371","meta":{"profile":["http://hl7.org/fhir/us/qicore/StructureDefinition/qicore-encounter"]},"status":"finished","class":{"system":"http://terminology.hl7.org/CodeSystem/v3-ActCode","code":"IMP","display":"inpatient encounter","userSelected":true},"type":[{"coding":[{"system":"http://snomed.info/sct","code":"32485007","display":"Hospital admission (procedure)"}]}],"subject":{"reference":"Patient/cac6a3c8-edb3-416d-a057-4c966d970902"},"period":{"start":"2026-12-30T08:00:00.000Z","end":"2027-07-01T11:59:00.000Z"},"length":{"value":5.0,"unit":"days"}},"request":{"method":"PUT","url":"Encounter/413bf440-d8f9-47c3-bd4c-d14d7fca1371"}},{"fullUrl":"https://madie.cms.gov/Coverage/e896acaf-818a-45e5-8e72-9b454d7a9b58","resource":{"resourceType":"Coverage","id":"e896acaf-818a-45e5-8e72-9b454d7a9b58","meta":{"profile":["http://hl7.org/fhir/us/qicore/StructureDefinition/qicore-coverage"]},"status":"active","type":{"coding":[{"system":"https://nahdo.org/sopt","version":"1.0.1","code":"1","display":"Medicare payer","userSelected":true}]},"beneficiary":{"reference":"Patient/cac6a3c8-edb3-416d-a057-4c966d970902"},"period":{"start":"2026-01-01T06:00:00.000Z","end":"2027-12-31T11:06:01.000Z"},"payor":[{"reference":"Organization/9e9b3f13-a353-4173-b29b-947d6f1f2031"}]},"request":{"method":"PUT","url":"Coverage/e896acaf-818a-45e5-8e72-9b454d7a9b58"}},{"fullUrl":"https://madie.cms.gov/Organization/ae34d240-700f-4637-82af-3d70768a6bff","resource":{"resourceType":"Organization","id":"9e9b3f13-a353-4173-b29b-947d6f1f2031","meta":{"profile":["http://hl7.org/fhir/us/qicore/StructureDefinition/qicore-organization"]},"identifier":[{"use":"temp","system":"urn:oid:2.16.840.1.113883.4.4","value":"21-3259825"}],"active":true,"type":[{"coding":[{"system":"http://terminology.hl7.org/CodeSystem/organization-type","code":"pay","display":"Payer"}]}],"name":"Blue Cross Blue Shield of Texas","telecom":[{"system":"phone","value":"(+1) 972-766-6900"}],"address":[{"use":"billing","type":"postal","line":["P.O. Box 660044"],"city":"Dallas","state":"TX","postalCode":"75266-0044","country":"USA"}]},"request":{"method":"PUT","url":"Organization/9e9b3f13-a353-4173-b29b-947d6f1f2031"}},{"fullUrl":"https://madie.cms.gov/Practitioner/126011f2-5307-43b9-ad4d-64677a7eb31e","resource":{"resourceType":"Practitioner","id":"126011f2-5307-43b9-ad4d-64677a7eb31e","meta":{"profile":["http://hl7.org/fhir/us/qicore/StructureDefinition/qicore-practitioner"]},"identifier":[{"system":"http://hl7.org/fhir/sid/us-npi","value":"123456"}],"name":[{"family":"Evil","prefix":["Dr"]}]},"request":{"method":"PUT","url":"Practitioner/126011f2-5307-43b9-ad4d-64677a7eb31e"}},{"fullUrl":"https://madie.cms.gov/MeasureReport/056db46f-260b-4a94-9d32-33b6296e9724","resource":{"resourceType":"MeasureReport","id":"056db46f-260b-4a94-9d32-33b6296e9724","meta":{"profile":["http://hl7.org/fhir/us/cqfmeasures/StructureDefinition/test-case-cqfm"]},"contained":[{"resourceType":"Parameters","id":"4f0810dd-89c2-4949-bb63-f33e656cf705-parameters","parameter":[{"name":"subject","valueString":"cac6a3c8-edb3-416d-a057-4c966d970902"}]}],"extension":[{"url":"http://hl7.org/fhir/us/cqfmeasures/StructureDefinition/cqfm-inputParameters","valueReference":{"reference":"#4f0810dd-89c2-4949-bb63-f33e656cf705-parameters"}},{"url":"http://hl7.org/fhir/us/cqfmeasures/StructureDefinition/cqfm-testCaseDescription","valueMarkdown":"Encounter starts last day of MP (6/30) but does not end until next MP (7/5)"}],"modifierExtension":[{"url":"http://hl7.org/fhir/us/cqfmeasures/StructureDefinition/cqfm-isTestCase","valueBoolean":true}],"status":"complete","type":"individual","measure":"https://madie.cms.gov/Measure/CMSFHIR844HybridHospitalWideMortality","period":{"start":"2026-07-01","end":"2027-06-30"},"group":[{"population":[{"code":{"coding":[{"system":"http://terminology.hl7.org/CodeSystem/measure-population","code":"initial-population","display":"Initial Population"}]},"count":0}]}]},"request":{"method":"PUT","url":"MeasureReport/056db46f-260b-4a94-9d32-33b6296e9724"}}]}