{"resourceType":"Bundle","id":"tests-6f22a06f-7186-4db1-9310-4f907dc49ff3-bundle","type":"transaction","entry":[{"fullUrl":"https://madie.cms.gov/Patient/6f22a06f-7186-4db1-9310-4f907dc49ff3","resource":{"resourceType":"Patient","id":"6f22a06f-7186-4db1-9310-4f907dc49ff3","meta":{"profile":["http://hl7.org/fhir/us/qicore/StructureDefinition/qicore-patient"]},"text":{"status":"generated","div":"<div xmlns=\"http://www.w3.org/1999/xhtml\"><div class=\"hapiHeaderText\">LT24beforeAndLT2after <b>WBCPASS </b></div><table class=\"hapiPropertyTable\"><tbody><tr><td>Identifier</td><td>02a3c13b70ccf5a73b893e80582952bdd83e9cabbf053902bb5eb341874dc5ec</td></tr><tr><td>Date of birth</td><td><span>15 June 1956</span></td></tr></tbody></table></div>"},"extension":[{"url":"http://hl7.org/fhir/us/core/StructureDefinition/us-core-race","extension":[{"url":"ombCategory","valueCoding":{"system":"urn:oid:2.16.840.1.113883.6.238","code":"1002-5","display":"American Indian or Alaska Native","userSelected":true}},{"url":"text","valueString":"American Indian or Alaska Native"}]},{"url":"http://hl7.org/fhir/us/core/StructureDefinition/us-core-ethnicity","extension":[{"url":"ombCategory","valueCoding":{"system":"urn:oid:2.16.840.1.113883.6.238","code":"2186-5","display":"Not Hispanic or Latino","userSelected":true}},{"url":"text","valueString":"Not Hispanic or Latino"}]}],"identifier":[{"type":{"coding":[{"system":"http://terminology.hl7.org/CodeSystem/v2-0203","code":"MR"}]},"system":"https://bonnie-fhir.healthit.gov/","value":"63ec096accb3770120fe9fa2"}],"active":true,"name":[{"use":"usual","family":"WhiteBloodCellFail","given":["24Hrs1MinBeforeAnd48HrsAfterStartOfInpatient"]}],"gender":"male","birthDate":"1962-06-28"},"request":{"method":"PUT","url":"Patient/6f22a06f-7186-4db1-9310-4f907dc49ff3"}},{"fullUrl":"https://madie.cms.gov/Encounter/c7044694-987c-408d-b022-adbf99a36ed7","resource":{"resourceType":"Encounter","id":"c7044694-987c-408d-b022-adbf99a36ed7","meta":{"profile":["http://hl7.org/fhir/us/qicore/StructureDefinition/qicore-encounter"]},"status":"finished","class":{"system":"http://terminology.hl7.org/CodeSystem/v3-ActCode","code":"IMP","display":"inpatient encounter","userSelected":true},"type":[{"coding":[{"system":"http://snomed.info/sct","code":"183452005"}]}],"subject":{"reference":"Patient/6f22a06f-7186-4db1-9310-4f907dc49ff3"},"period":{"start":"2027-06-28T08:00:00.000+00:00","end":"2027-06-30T23:59:00.000+00:00"},"length":{"value":2,"unit":"days"}},"request":{"method":"PUT","url":"Encounter/c7044694-987c-408d-b022-adbf99a36ed7"}},{"fullUrl":"https://madie.cms.gov/Coverage/50617f8a-6e14-41ce-ada3-7325286b12a9","resource":{"resourceType":"Coverage","id":"50617f8a-6e14-41ce-ada3-7325286b12a9","meta":{"profile":["http://hl7.org/fhir/us/qicore/StructureDefinition/qicore-coverage"]},"status":"active","type":{"coding":[{"system":"https://nahdo.org/sopt","version":"1.0.1","code":"1","display":"Medicare payer","userSelected":true}]},"beneficiary":{"reference":"Patient/6f22a06f-7186-4db1-9310-4f907dc49ff3"},"payor":[{"reference":"Organization/9e9b3f13-a353-4173-b29b-947d6f1f2031"}]},"request":{"method":"PUT","url":"Coverage/50617f8a-6e14-41ce-ada3-7325286b12a9"}},{"fullUrl":"https://madie.cms.gov/Observation/0df2cc2e-b54b-49ff-a69b-b21f7fab597b","resource":{"resourceType":"Observation","id":"0df2cc2e-b54b-49ff-a69b-b21f7fab597b","meta":{"profile":["http://hl7.org/fhir/us/core/StructureDefinition/us-core-observation-lab"]},"status":"amended","category":[{"coding":[{"system":"http://terminology.hl7.org/CodeSystem/observation-category","code":"laboratory","display":"laboratory","userSelected":true}]}],"code":{"coding":[{"system":"http://loinc.org","code":"26464-8","display":"Leukocytes [#/volume] in Blood"}]},"subject":{"reference":"Patient/6f22a06f-7186-4db1-9310-4f907dc49ff3"},"issued":"2027-06-27T07:59:00.000+00:00","valueQuantity":{"value":4500,"unit":"uL","system":"http://unitsofmeasure.org","code":"uL"}},"request":{"method":"PUT","url":"Observation/0df2cc2e-b54b-49ff-a69b-b21f7fab597b"}},{"fullUrl":"https://madie.cms.gov/Observation/ebc908bf-4d6c-4f83-8f49-c49f5ab4b6a8","resource":{"resourceType":"Observation","id":"ebc908bf-4d6c-4f83-8f49-c49f5ab4b6a8","meta":{"profile":["http://hl7.org/fhir/us/qicore/StructureDefinition/qicore-observation"]},"status":"final","category":[{"coding":[{"system":"http://terminology.hl7.org/CodeSystem/observation-category","code":"laboratory","display":"laboratory","userSelected":true}]}],"code":{"coding":[{"system":"http://loinc.org","code":"26464-8","display":"Leukocytes [#/volume] in Blood"}]},"subject":{"reference":"Patient/6f22a06f-7186-4db1-9310-4f907dc49ff3"},"issued":"2027-06-30T08:00:00.000+00:00","valueQuantity":{"value":5000,"unit":"uL","system":"http://unitsofmeasure.org","code":"uL"}},"request":{"method":"PUT","url":"Observation/ebc908bf-4d6c-4f83-8f49-c49f5ab4b6a8"}},{"fullUrl":"https://madie.cms.gov/Organization/175b4070-54f9-4022-9075-df62449e1602","resource":{"resourceType":"Organization","id":"9e9b3f13-a353-4173-b29b-947d6f1f2031","meta":{"profile":["http://hl7.org/fhir/us/qicore/StructureDefinition/qicore-organization"]},"identifier":[{"use":"temp","system":"urn:oid:2.16.840.1.113883.4.4","value":"21-3259825"}],"active":true,"type":[{"coding":[{"system":"http://terminology.hl7.org/CodeSystem/organization-type","code":"pay","display":"Payer"}]}],"name":"Blue Cross Blue Shield of Texas","telecom":[{"system":"phone","value":"(+1) 972-766-6900"}],"address":[{"use":"billing","type":"postal","line":["P.O. Box 660044"],"city":"Dallas","state":"TX","postalCode":"75266-0044","country":"USA"}]},"request":{"method":"PUT","url":"Organization/9e9b3f13-a353-4173-b29b-947d6f1f2031"}},{"fullUrl":"https://madie.cms.gov/Practitioner/8dc47f10-9c7e-4f30-ae07-db81950c3f46","resource":{"resourceType":"Practitioner","id":"8dc47f10-9c7e-4f30-ae07-db81950c3f46","meta":{"profile":["http://hl7.org/fhir/us/qicore/StructureDefinition/qicore-practitioner"]},"identifier":[{"system":"http://hl7.org/fhir/sid/us-npi","value":"123456"}],"name":[{"family":"Evil","prefix":["Dr"]}]},"request":{"method":"PUT","url":"Practitioner/8dc47f10-9c7e-4f30-ae07-db81950c3f46"}},{"fullUrl":"https://madie.cms.gov/MeasureReport/e51eac22-2514-4da8-a9bb-c1f08aa8e112","resource":{"resourceType":"MeasureReport","id":"e51eac22-2514-4da8-a9bb-c1f08aa8e112","meta":{"profile":["http://hl7.org/fhir/us/cqfmeasures/StructureDefinition/test-case-cqfm"]},"contained":[{"resourceType":"Parameters","id":"587f66e4-7b53-4d09-a614-578cf8e4e9cc-parameters","parameter":[{"name":"subject","valueString":"6f22a06f-7186-4db1-9310-4f907dc49ff3"}]}],"extension":[{"url":"http://hl7.org/fhir/us/cqfmeasures/StructureDefinition/cqfm-inputParameters","valueReference":{"reference":"#587f66e4-7b53-4d09-a614-578cf8e4e9cc-parameters"}},{"url":"http://hl7.org/fhir/us/cqfmeasures/StructureDefinition/cqfm-testCaseDescription","valueMarkdown":"Enc ends last day of MP (6/30), turned 65 day admitted, has Medicare, first lab 24 hrs 1 min before enc., and second 48 hrs after admit- neither meet the timeframe. "}],"modifierExtension":[{"url":"http://hl7.org/fhir/us/cqfmeasures/StructureDefinition/cqfm-isTestCase","valueBoolean":true}],"status":"complete","type":"individual","measure":"https://madie.cms.gov/Measure/CMSFHIR844HybridHospitalWideMortality","period":{"start":"2026-07-01","end":"2027-06-30"},"group":[{"population":[{"code":{"coding":[{"system":"http://terminology.hl7.org/CodeSystem/measure-population","code":"initial-population","display":"Initial Population"}]},"count":1}]}]},"request":{"method":"PUT","url":"MeasureReport/e51eac22-2514-4da8-a9bb-c1f08aa8e112"}}]}