{"resourceType":"Bundle","id":"tests-34f7d577-183d-4a6b-905d-22f6751c3940-bundle","type":"transaction","entry":[{"fullUrl":"https://madie.cms.gov/Patient/34f7d577-183d-4a6b-905d-22f6751c3940","resource":{"resourceType":"Patient","id":"34f7d577-183d-4a6b-905d-22f6751c3940","meta":{"profile":["http://hl7.org/fhir/us/qicore/StructureDefinition/qicore-patient"]},"text":{"status":"generated","div":"<div xmlns=\"http://www.w3.org/1999/xhtml\"><div class=\"hapiHeaderText\">EncStartsBeforeMP <b>IPFAIL </b></div><table class=\"hapiPropertyTable\"><tbody><tr><td>Identifier</td><td>5357cf1fa2383d9a0e8f3ff5d42eaa9911ad131ad62a639f75e98789c2c8866b</td></tr><tr><td>Date of birth</td><td><span>15 June 1956</span></td></tr></tbody></table></div>"},"extension":[{"url":"http://hl7.org/fhir/us/core/StructureDefinition/us-core-race","extension":[{"url":"ombCategory","valueCoding":{"system":"urn:oid:2.16.840.1.113883.6.238","code":"1002-5","display":"American Indian or Alaska Native","userSelected":true}},{"url":"text","valueString":"American Indian or Alaska Native"}]},{"url":"http://hl7.org/fhir/us/core/StructureDefinition/us-core-ethnicity","extension":[{"url":"ombCategory","valueCoding":{"system":"urn:oid:2.16.840.1.113883.6.238","code":"2186-5","display":"Not Hispanic or Latino","userSelected":true}},{"url":"text","valueString":"Not Hispanic or Latino"}]}],"identifier":[{"type":{"coding":[{"system":"http://terminology.hl7.org/CodeSystem/v2-0203","code":"MR"}]},"system":"https://bonnie-fhir.healthit.gov/","value":"63ec096eccb3770120fea3a7"}],"active":true,"name":[{"use":"usual","family":"IPFail","given":["EncounterEndsB4StartofMP"]}],"gender":"male","birthDate":"1957-06-15"},"request":{"method":"PUT","url":"Patient/34f7d577-183d-4a6b-905d-22f6751c3940"}},{"fullUrl":"https://madie.cms.gov/Encounter/19189b16-3ffa-4f28-9805-6792f978538d","resource":{"resourceType":"Encounter","id":"19189b16-3ffa-4f28-9805-6792f978538d","meta":{"profile":["http://hl7.org/fhir/us/qicore/StructureDefinition/qicore-encounter"]},"status":"finished","class":{"system":"http://terminology.hl7.org/CodeSystem/v3-ActCode","code":"IMP","display":"inpatient encounter"},"type":[{"coding":[{"system":"http://snomed.info/sct","code":"183452005"}]}],"subject":{"reference":"Patient/34f7d577-183d-4a6b-905d-22f6751c3940"},"period":{"start":"2026-06-26T08:00:00.000+00:00","end":"2026-06-30T11:59:00.000+00:00"},"length":{"value":5.0,"unit":"days"}},"request":{"method":"PUT","url":"Encounter/19189b16-3ffa-4f28-9805-6792f978538d"}},{"fullUrl":"https://madie.cms.gov/Coverage/2e4a2105-6120-47c2-9046-1f1b8afc1d79","resource":{"resourceType":"Coverage","id":"2e4a2105-6120-47c2-9046-1f1b8afc1d79","meta":{"profile":["http://hl7.org/fhir/us/qicore/StructureDefinition/qicore-coverage"]},"status":"active","type":{"coding":[{"system":"https://nahdo.org/sopt","version":"9.2","code":"1","display":"MEDICARE","userSelected":true}]},"beneficiary":{"reference":"Patient/34f7d577-183d-4a6b-905d-22f6751c3940"},"period":{"start":"2025-12-01T00:00:00+00:00"},"payor":[{"reference":"Organization/806b0255-13cb-4f2b-9412-571554dd2169"}]},"request":{"method":"PUT","url":"Coverage/2e4a2105-6120-47c2-9046-1f1b8afc1d79"}},{"fullUrl":"https://madie.cms.gov/Organization/8fb0a053-d635-48ec-9bff-5033490c748e","resource":{"resourceType":"Organization","id":"806b0255-13cb-4f2b-9412-571554dd2169","meta":{"profile":["http://hl7.org/fhir/us/qicore/StructureDefinition/qicore-organization"]},"identifier":[{"use":"temp","system":"urn:oid:2.16.840.1.113883.4.4","value":"21-3259825"}],"active":true,"type":[{"coding":[{"system":"http://terminology.hl7.org/CodeSystem/organization-type","code":"pay","display":"Payer"}]}],"name":"Blue Cross Blue Shield of Texas","telecom":[{"system":"phone","value":"(+1) 972-766-6900"}],"address":[{"use":"billing","type":"postal","line":["P.O. Box 660044"],"city":"Dallas","state":"TX","postalCode":"75266-0044","country":"USA"}]},"request":{"method":"PUT","url":"Organization/806b0255-13cb-4f2b-9412-571554dd2169"}},{"fullUrl":"https://madie.cms.gov/Practitioner/eb630ac6-37cc-4f19-9389-8af99245fcc4","resource":{"resourceType":"Practitioner","id":"eb630ac6-37cc-4f19-9389-8af99245fcc4","meta":{"profile":["http://hl7.org/fhir/us/qicore/StructureDefinition/qicore-practitioner"]},"identifier":[{"system":"http://hl7.org/fhir/sid/us-npi","value":"123456"}],"name":[{"family":"Evil","prefix":["Dr"]}]},"request":{"method":"PUT","url":"Practitioner/eb630ac6-37cc-4f19-9389-8af99245fcc4"}},{"fullUrl":"https://madie.cms.gov/MeasureReport/7bc3f5ea-5b77-4767-85e6-13050ea9dc26","resource":{"resourceType":"MeasureReport","id":"7bc3f5ea-5b77-4767-85e6-13050ea9dc26","meta":{"profile":["http://hl7.org/fhir/us/cqfmeasures/StructureDefinition/test-case-cqfm"]},"contained":[{"resourceType":"Parameters","id":"761b298d-dcf6-417b-b90b-57afd716e535-parameters","parameter":[{"name":"subject","valueString":"34f7d577-183d-4a6b-905d-22f6751c3940"}]}],"extension":[{"url":"http://hl7.org/fhir/us/cqfmeasures/StructureDefinition/cqfm-inputParameters","valueReference":{"reference":"#761b298d-dcf6-417b-b90b-57afd716e535-parameters"}},{"url":"http://hl7.org/fhir/us/cqfmeasures/StructureDefinition/cqfm-testCaseDescription","valueMarkdown":"Encounter ends (06/30) one day before start of measurement period.\n "}],"modifierExtension":[{"url":"http://hl7.org/fhir/us/cqfmeasures/StructureDefinition/cqfm-isTestCase","valueBoolean":true}],"status":"complete","type":"individual","measure":"https://madie.cms.gov/Measure/CMSFHIR844HybridHospitalWideMortality","period":{"start":"2026-07-01","end":"2027-06-30"},"group":[{"population":[{"code":{"coding":[{"system":"http://terminology.hl7.org/CodeSystem/measure-population","code":"initial-population","display":"Initial Population"}]},"count":0}]}]},"request":{"method":"PUT","url":"MeasureReport/7bc3f5ea-5b77-4767-85e6-13050ea9dc26"}}]}