{"resourceType":"Bundle","id":"tests-a08b6d26-8ef7-417e-9957-fcdfaf0913d8-bundle","type":"transaction","entry":[{"fullUrl":"https://madie.cms.gov/Patient/a08b6d26-8ef7-417e-9957-fcdfaf0913d8","resource":{"resourceType":"Patient","id":"a08b6d26-8ef7-417e-9957-fcdfaf0913d8","meta":{"profile":["http://hl7.org/fhir/us/qicore/StructureDefinition/qicore-patient"]},"text":{"status":"generated","div":"<div xmlns=\"http://www.w3.org/1999/xhtml\"><div class=\"hapiHeaderText\">OnAdmit_relevantPeriod <b>HRPASS </b></div><table class=\"hapiPropertyTable\"><tbody><tr><td>Identifier</td><td>849bc1d9a88035639bba704b9d791fc277243ded96eb819b2df3b340c5bc6669</td></tr><tr><td>Date of birth</td><td><span>15 June 1956</span></td></tr></tbody></table></div>"},"extension":[{"url":"http://hl7.org/fhir/us/core/StructureDefinition/us-core-race","extension":[{"url":"ombCategory","valueCoding":{"system":"urn:oid:2.16.840.1.113883.6.238","code":"2106-3","display":"White","userSelected":true}},{"url":"text","valueString":"White"}]},{"url":"http://hl7.org/fhir/us/core/StructureDefinition/us-core-ethnicity","extension":[{"url":"ombCategory","valueCoding":{"system":"urn:oid:2.16.840.1.113883.6.238","code":"2135-2","display":"Hispanic or Latino","userSelected":true}},{"url":"text","valueString":"Hispanic or Latino"}]}],"identifier":[{"type":{"coding":[{"system":"http://terminology.hl7.org/CodeSystem/v2-0203","code":"MR"}]},"system":"https://bonnie-fhir.healthit.gov/","value":"63ec0967ccb3770120fe9c8f"}],"active":true,"name":[{"use":"usual","family":"HeartRatePass","given":["OnAdmitrelevantPeriod"]}],"gender":"male","birthDate":"1957-06-15"},"request":{"method":"PUT","url":"Patient/a08b6d26-8ef7-417e-9957-fcdfaf0913d8"}},{"fullUrl":"https://madie.cms.gov/Encounter/37bd9f0c-1a11-4232-8ee9-29504d3af8f2","resource":{"resourceType":"Encounter","id":"37bd9f0c-1a11-4232-8ee9-29504d3af8f2","meta":{"profile":["http://hl7.org/fhir/us/qicore/StructureDefinition/qicore-encounter"]},"status":"finished","class":{"system":"http://terminology.hl7.org/CodeSystem/v3-ActCode","code":"ACUTE","display":"acute","userSelected":true},"type":[{"coding":[{"system":"http://snomed.info/sct","code":"183452005"}]}],"subject":{"reference":"Patient/a08b6d26-8ef7-417e-9957-fcdfaf0913d8"},"period":{"start":"2026-07-21T08:15:00.000+00:00","end":"2026-07-22T08:20:00.000+00:00"},"length":{"value":1.0,"unit":"days"}},"request":{"method":"PUT","url":"Encounter/37bd9f0c-1a11-4232-8ee9-29504d3af8f2"}},{"fullUrl":"https://madie.cms.gov/Coverage/7faad91d-82dc-4388-81b7-493815a40412","resource":{"resourceType":"Coverage","id":"7faad91d-82dc-4388-81b7-493815a40412","meta":{"profile":["http://hl7.org/fhir/us/qicore/StructureDefinition/qicore-coverage"]},"status":"active","type":{"coding":[{"system":"https://nahdo.org/sopt","version":"1.0.1","code":"1","display":"Medicare payer","userSelected":true}]},"beneficiary":{"reference":"Patient/a08b6d26-8ef7-417e-9957-fcdfaf0913d8"},"period":{"start":"2025-01-01T06:00:00.000Z","end":"2028-01-01T11:06:01.000Z"},"payor":[{"reference":"Organization/5ad6ea38-07e9-4482-9e1b-c09eee595be9"}]},"request":{"method":"PUT","url":"Coverage/7faad91d-82dc-4388-81b7-493815a40412"}},{"fullUrl":"https://madie.cms.gov/Observation/e07ec325-ee43-40bb-ba33-74b0edcfdb29","resource":{"resourceType":"Observation","id":"e07ec325-ee43-40bb-ba33-74b0edcfdb29","meta":{"profile":["http://hl7.org/fhir/StructureDefinition/heartrate"]},"status":"final","category":[{"coding":[{"system":"http://terminology.hl7.org/CodeSystem/observation-category","code":"vital-signs","display":"Vital Signs","userSelected":true}]}],"code":{"coding":[{"system":"http://loinc.org","code":"8867-4","display":"Heart rate"}]},"subject":{"reference":"Patient/a08b6d26-8ef7-417e-9957-fcdfaf0913d8"},"effectiveDateTime":"2026-07-21T08:15:00.000Z","issued":"2026-07-21T08:15:00.000Z","valueQuantity":{"value":80.0,"unit":"/min","system":"http://unitsofmeasure.org","code":"/min"}},"request":{"method":"PUT","url":"Observation/e07ec325-ee43-40bb-ba33-74b0edcfdb29"}},{"fullUrl":"https://madie.cms.gov/Organization/ba91a289-e074-43dd-8593-a265c11d8883","resource":{"resourceType":"Organization","id":"5ad6ea38-07e9-4482-9e1b-c09eee595be9","meta":{"profile":["http://hl7.org/fhir/us/qicore/StructureDefinition/qicore-organization"]},"identifier":[{"use":"temp","system":"urn:oid:2.16.840.1.113883.4.4","value":"21-3259825"}],"active":true,"type":[{"coding":[{"system":"http://terminology.hl7.org/CodeSystem/organization-type","code":"pay","display":"Payer"}]}],"name":"Blue Cross Blue Shield of Texas","telecom":[{"system":"phone","value":"(+1) 972-766-6900"}],"address":[{"use":"billing","type":"postal","line":["P.O. Box 660044"],"city":"Dallas","state":"TX","postalCode":"75266-0044","country":"USA"}]},"request":{"method":"PUT","url":"Organization/5ad6ea38-07e9-4482-9e1b-c09eee595be9"}},{"fullUrl":"https://madie.cms.gov/Practitioner/8fcd1b54-c378-4bb1-9fae-336e1d27d346","resource":{"resourceType":"Practitioner","id":"8fcd1b54-c378-4bb1-9fae-336e1d27d346","meta":{"profile":["http://hl7.org/fhir/us/qicore/StructureDefinition/qicore-practitioner"]},"identifier":[{"system":"http://hl7.org/fhir/sid/us-npi","value":"123456"}],"name":[{"family":"Evil","prefix":["Dr"]}]},"request":{"method":"PUT","url":"Practitioner/8fcd1b54-c378-4bb1-9fae-336e1d27d346"}},{"fullUrl":"https://madie.cms.gov/MeasureReport/a699aa66-890b-4807-a6a9-f2b1a0faaa6f","resource":{"resourceType":"MeasureReport","id":"a699aa66-890b-4807-a6a9-f2b1a0faaa6f","meta":{"profile":["http://hl7.org/fhir/us/cqfmeasures/StructureDefinition/test-case-cqfm"]},"contained":[{"resourceType":"Parameters","id":"eacf36ee-5e9a-409d-95a2-023e6b4aecaa-parameters","parameter":[{"name":"subject","valueString":"a08b6d26-8ef7-417e-9957-fcdfaf0913d8"}]}],"extension":[{"url":"http://hl7.org/fhir/us/cqfmeasures/StructureDefinition/cqfm-inputParameters","valueReference":{"reference":"#eacf36ee-5e9a-409d-95a2-023e6b4aecaa-parameters"}},{"url":"http://hl7.org/fhir/us/cqfmeasures/StructureDefinition/cqfm-testCaseDescription","valueMarkdown":"Patient has heart rate exam on admittance. \n "}],"modifierExtension":[{"url":"http://hl7.org/fhir/us/cqfmeasures/StructureDefinition/cqfm-isTestCase","valueBoolean":true}],"status":"complete","type":"individual","measure":"https://madie.cms.gov/Measure/CMSFHIR844HybridHospitalWideMortality","period":{"start":"2026-07-01","end":"2027-06-30"},"group":[{"population":[{"code":{"coding":[{"system":"http://terminology.hl7.org/CodeSystem/measure-population","code":"initial-population","display":"Initial Population"}]},"count":1}]}]},"request":{"method":"PUT","url":"MeasureReport/a699aa66-890b-4807-a6a9-f2b1a0faaa6f"}}]}