{"resourceType":"Bundle","id":"tests-4eab6409-9883-44b2-a938-8dce1f10b363-bundle","type":"transaction","entry":[{"fullUrl":"https://madie.cms.gov/Patient/4eab6409-9883-44b2-a938-8dce1f10b363","resource":{"resourceType":"Patient","id":"4eab6409-9883-44b2-a938-8dce1f10b363","meta":{"profile":["http://hl7.org/fhir/us/qicore/StructureDefinition/qicore-patient"]},"text":{"status":"generated","div":"<div xmlns=\"http://www.w3.org/1999/xhtml\"><div class=\"hapiHeaderText\">NoResult <b>SODIUMFAIL </b></div><table class=\"hapiPropertyTable\"><tbody><tr><td>Identifier</td><td>eb360e3679224871964d5b3575a59ceb3c2f6260372fb1be3ea61ac84d2937cf</td></tr><tr><td>Date of birth</td><td><span>15 June 1956</span></td></tr></tbody></table></div>"},"extension":[{"url":"http://hl7.org/fhir/us/core/StructureDefinition/us-core-race","extension":[{"url":"ombCategory","valueCoding":{"system":"urn:oid:2.16.840.1.113883.6.238","code":"1002-5","display":"American Indian or Alaska Native","userSelected":true}},{"url":"text","valueString":"American Indian or Alaska Native"}]},{"url":"http://hl7.org/fhir/us/core/StructureDefinition/us-core-ethnicity","extension":[{"url":"ombCategory","valueCoding":{"system":"urn:oid:2.16.840.1.113883.6.238","code":"2186-5","display":"Not Hispanic or Latino","userSelected":true}},{"url":"text","valueString":"Not Hispanic or Latino"}]}],"identifier":[{"type":{"coding":[{"system":"http://terminology.hl7.org/CodeSystem/v2-0203","code":"MR"}]},"system":"https://bonnie-fhir.healthit.gov/","value":"63ec096bccb3770120fea0ad"}],"active":true,"name":[{"use":"usual","family":"PerformedOnAdmission","given":["OxygenSatPass"]}],"gender":"male","birthDate":"1941-07-01"},"request":{"method":"PUT","url":"Patient/4eab6409-9883-44b2-a938-8dce1f10b363"}},{"fullUrl":"https://madie.cms.gov/Encounter/dbc9c84c-5218-4dea-869a-9c82cd14685f","resource":{"resourceType":"Encounter","id":"dbc9c84c-5218-4dea-869a-9c82cd14685f","meta":{"profile":["http://hl7.org/fhir/us/qicore/StructureDefinition/qicore-encounter"]},"status":"finished","class":{"system":"http://terminology.hl7.org/CodeSystem/v3-ActCode","code":"IMP","display":"inpatient encounter","userSelected":true},"type":[{"coding":[{"system":"http://snomed.info/sct","code":"183452005"}]}],"subject":{"reference":"Patient/4eab6409-9883-44b2-a938-8dce1f10b363"},"period":{"start":"2026-07-01T12:01:00.000+00:00","end":"2026-07-04T08:15:00.000+00:00"}},"request":{"method":"PUT","url":"Encounter/dbc9c84c-5218-4dea-869a-9c82cd14685f"}},{"fullUrl":"https://madie.cms.gov/Encounter/dbc9c84c-5218-4dea-869a-9c82cd14685f1","resource":{"resourceType":"Encounter","id":"749b7a39-3b5c-4762-9caf-5a1f84c374fe","meta":{"profile":["http://hl7.org/fhir/us/qicore/StructureDefinition/qicore-encounter"]},"status":"finished","class":{"system":"http://terminology.hl7.org/CodeSystem/v3-ActCode","code":"IMP","display":"inpatient encounter","userSelected":true},"type":[{"coding":[{"system":"http://snomed.info/sct","code":"183452005","display":"Emergency hospital admission (procedure)"}]}],"subject":{"reference":"Patient/4eab6409-9883-44b2-a938-8dce1f10b363"},"period":{"start":"2026-12-31T12:01:00.000+00:00","end":"2027-01-03T10:00:00.000+00:00"}},"request":{"method":"PUT","url":"Encounter/749b7a39-3b5c-4762-9caf-5a1f84c374fe"}},{"fullUrl":"https://madie.cms.gov/Encounter/dbc9c84c-5218-4dea-869a-9c82cd14685f2","resource":{"resourceType":"Encounter","id":"975063a5-e8ad-48ed-8dee-4e29ffe6224e","meta":{"profile":["http://hl7.org/fhir/us/qicore/StructureDefinition/qicore-encounter"]},"status":"finished","class":{"system":"http://terminology.hl7.org/CodeSystem/v3-ActCode","code":"IMP","display":"inpatient encounter","userSelected":true},"type":[{"coding":[{"system":"http://snomed.info/sct","code":"32485007","display":"Hospital admission (procedure)"}]}],"subject":{"reference":"Patient/4eab6409-9883-44b2-a938-8dce1f10b363"},"period":{"start":"2027-01-04T08:00:00.000+00:00","end":"2027-01-08T08:15:00.000+00:00"}},"request":{"method":"PUT","url":"Encounter/975063a5-e8ad-48ed-8dee-4e29ffe6224e"}},{"fullUrl":"https://madie.cms.gov/Observation/fbacae31-414c-4ee8-92bc-bfccf6d462fa","resource":{"resourceType":"Observation","id":"fbacae31-414c-4ee8-92bc-bfccf6d462fa","meta":{"profile":["http://hl7.org/fhir/us/qicore/StructureDefinition/qicore-observation"]},"status":"final","category":[{"coding":[{"system":"http://terminology.hl7.org/CodeSystem/observation-category","code":"vital-signs","display":"Vital Signs","userSelected":true}]}],"code":{"coding":[{"system":"http://loinc.org","code":"59408-5","display":"Oxygen saturation in Arterial blood by Pulse oximetry"}]},"subject":{"reference":"Patient/4eab6409-9883-44b2-a938-8dce1f10b363"},"effectiveDateTime":"2026-07-01T11:59:00.000+00:00","valueQuantity":{"value":98,"unit":"%","system":"http://unitsofmeasure.org","code":"%"}},"request":{"method":"PUT","url":"Observation/fbacae31-414c-4ee8-92bc-bfccf6d462fa"}},{"fullUrl":"https://madie.cms.gov/Coverage/013f7e99-49bb-4525-8b70-1596b584bb34","resource":{"resourceType":"Coverage","id":"013f7e99-49bb-4525-8b70-1596b584bb34","meta":{"profile":["http://hl7.org/fhir/us/qicore/StructureDefinition/qicore-coverage"]},"status":"active","type":{"coding":[{"system":"https://nahdo.org/sopt","version":"1.0.1","code":"1","display":"Medicare payer","userSelected":true}]},"beneficiary":{"reference":"Patient/4eab6409-9883-44b2-a938-8dce1f10b363"},"payor":[{"reference":"Organization/5ad6ea38-07e9-4482-9e1b-c09eee595be9"}]},"request":{"method":"PUT","url":"Coverage/013f7e99-49bb-4525-8b70-1596b584bb34"}},{"fullUrl":"https://madie.cms.gov/Practitioner/f174f36f-72dc-4ef2-a034-cba3d9dcd18a","resource":{"resourceType":"Practitioner","id":"f174f36f-72dc-4ef2-a034-cba3d9dcd18a","meta":{"profile":["http://hl7.org/fhir/us/qicore/StructureDefinition/qicore-practitioner"]},"identifier":[{"system":"http://hl7.org/fhir/sid/us-npi","value":"123456"}],"name":[{"family":"Evil","prefix":["Dr"]}]},"request":{"method":"PUT","url":"Practitioner/f174f36f-72dc-4ef2-a034-cba3d9dcd18a"}},{"fullUrl":"https://madie.cms.gov/MeasureReport/5711dfab-51dd-42b1-8b20-c1cd17ae8fca","resource":{"resourceType":"MeasureReport","id":"5711dfab-51dd-42b1-8b20-c1cd17ae8fca","meta":{"profile":["http://hl7.org/fhir/us/cqfmeasures/StructureDefinition/test-case-cqfm"]},"contained":[{"resourceType":"Parameters","id":"27d99bd3-fb1a-46d0-835a-36b5b5dc4639-parameters","parameter":[{"name":"subject","valueString":"4eab6409-9883-44b2-a938-8dce1f10b363"}]}],"extension":[{"url":"http://hl7.org/fhir/us/cqfmeasures/StructureDefinition/cqfm-inputParameters","valueReference":{"reference":"#27d99bd3-fb1a-46d0-835a-36b5b5dc4639-parameters"}},{"url":"http://hl7.org/fhir/us/cqfmeasures/StructureDefinition/cqfm-testCaseDescription","valueMarkdown":"Multiple encs, enc 7/01, O2 sats evaluated"}],"modifierExtension":[{"url":"http://hl7.org/fhir/us/cqfmeasures/StructureDefinition/cqfm-isTestCase","valueBoolean":true}],"status":"complete","type":"individual","measure":"https://madie.cms.gov/Measure/CMSFHIR844HybridHospitalWideMortality","period":{"start":"2026-07-01","end":"2027-06-30"},"group":[{"population":[{"code":{"coding":[{"system":"http://terminology.hl7.org/CodeSystem/measure-population","code":"initial-population","display":"Initial Population"}]},"count":3}]}]},"request":{"method":"PUT","url":"MeasureReport/5711dfab-51dd-42b1-8b20-c1cd17ae8fca"}}]}