{"resourceType":"Bundle","id":"tests-e7c3ce5f-06e7-437f-a611-3df5d324eaf9-bundle","type":"transaction","entry":[{"fullUrl":"https://madie.cms.gov/Patient/e7c3ce5f-06e7-437f-a611-3df5d324eaf9","resource":{"resourceType":"Patient","id":"e7c3ce5f-06e7-437f-a611-3df5d324eaf9","meta":{"profile":["http://hl7.org/fhir/us/qicore/StructureDefinition/qicore-patient"]},"text":{"status":"generated","div":"<div xmlns=\"http://www.w3.org/1999/xhtml\"><div class=\"hapiHeaderText\">GT2after_relevantPeriod_startonly <b>TEMPFAIL </b></div><table class=\"hapiPropertyTable\"><tbody><tr><td>Identifier</td><td>cc92ca2d683777c37369f3543d9693f391ac5069002d71debd1939cd48bb2d8a</td></tr><tr><td>Date of birth</td><td><span>15 June 1956</span></td></tr></tbody></table></div>"},"extension":[{"url":"http://hl7.org/fhir/us/core/StructureDefinition/us-core-race","extension":[{"url":"ombCategory","valueCoding":{"system":"urn:oid:2.16.840.1.113883.6.238","code":"1002-5","display":"American Indian or Alaska Native","userSelected":true}},{"url":"text","valueString":"American Indian or Alaska Native"}]},{"url":"http://hl7.org/fhir/us/core/StructureDefinition/us-core-ethnicity","extension":[{"url":"ombCategory","valueCoding":{"system":"urn:oid:2.16.840.1.113883.6.238","code":"2186-5","display":"Not Hispanic or Latino","userSelected":true}},{"url":"text","valueString":"Not Hispanic or Latino"}]}],"identifier":[{"type":{"coding":[{"system":"http://terminology.hl7.org/CodeSystem/v2-0203","code":"MR"}]},"system":"https://bonnie-fhir.healthit.gov/","value":"63ec0968ccb3770120fe9dc6"}],"active":true,"name":[{"use":"usual","family":"TemperaturePass","given":["2HrsAfterStartOfEncounter"]}],"gender":"male","birthDate":"1957-06-15"},"request":{"method":"PUT","url":"Patient/e7c3ce5f-06e7-437f-a611-3df5d324eaf9"}},{"fullUrl":"https://madie.cms.gov/Encounter/e5ba8b46-0391-4080-afde-d6526144ba4f","resource":{"resourceType":"Encounter","id":"e5ba8b46-0391-4080-afde-d6526144ba4f","meta":{"profile":["http://hl7.org/fhir/us/qicore/StructureDefinition/qicore-encounter"]},"status":"finished","class":{"system":"http://terminology.hl7.org/CodeSystem/v3-ActCode","code":"NONAC","display":"Nonacute","userSelected":true},"type":[{"coding":[{"system":"http://snomed.info/sct","code":"183452005","display":"Emergency hospital admission (procedure)"}]}],"subject":{"reference":"Patient/e7c3ce5f-06e7-437f-a611-3df5d324eaf9"},"period":{"start":"2026-07-01T08:00:00.000+00:00","end":"2026-07-02T08:15:00.000+00:00"}},"request":{"method":"PUT","url":"Encounter/e5ba8b46-0391-4080-afde-d6526144ba4f"}},{"fullUrl":"https://madie.cms.gov/Coverage/feab03f6-63b9-4f26-9410-89d9b102e85e","resource":{"resourceType":"Coverage","id":"feab03f6-63b9-4f26-9410-89d9b102e85e","meta":{"profile":["http://hl7.org/fhir/us/qicore/StructureDefinition/qicore-coverage"]},"status":"active","type":{"coding":[{"system":"https://nahdo.org/sopt","version":"1.0.1","code":"1","display":"Medicare payer","userSelected":true}]},"beneficiary":{"reference":"Patient/e7c3ce5f-06e7-437f-a611-3df5d324eaf9"},"period":{"start":"2026-01-28T08:00:00.000+00:00","end":"2026-12-31T08:15:00.000+00:00"},"payor":[{"reference":"Organization/ec8cac12-7dd8-4c6e-8c44-d6c645085c80"}]},"request":{"method":"PUT","url":"Coverage/feab03f6-63b9-4f26-9410-89d9b102e85e"}},{"fullUrl":"https://madie.cms.gov/Observation/37df2770-bd4e-49fd-9065-4c7c41b05e5b","resource":{"resourceType":"Observation","id":"37df2770-bd4e-49fd-9065-4c7c41b05e5b","meta":{"profile":["http://hl7.org/fhir/StructureDefinition/bodytemp"]},"status":"corrected","category":[{"coding":[{"system":"http://terminology.hl7.org/CodeSystem/observation-category","code":"vital-signs","display":"Vital Signs","userSelected":true}]}],"code":{"coding":[{"system":"http://loinc.org","code":"8310-5","display":"Body temperature"}]},"subject":{"reference":"Patient/e7c3ce5f-06e7-437f-a611-3df5d324eaf9"},"effectiveDateTime":"2026-07-01T10:00:00.000+00:00","valueQuantity":{"value":98.6,"unit":"[degF]","system":"http://unitsofmeasure.org","code":"[degF]"}},"request":{"method":"PUT","url":"Observation/37df2770-bd4e-49fd-9065-4c7c41b05e5b"}},{"fullUrl":"https://madie.cms.gov/Organization/f48cf505-e584-41e3-9921-88793ae37ce7","resource":{"resourceType":"Organization","id":"ec8cac12-7dd8-4c6e-8c44-d6c645085c80","meta":{"profile":["http://hl7.org/fhir/us/qicore/StructureDefinition/qicore-organization"]},"identifier":[{"use":"temp","system":"urn:oid:2.16.840.1.113883.4.4","value":"21-3259825"}],"active":true,"type":[{"coding":[{"system":"http://terminology.hl7.org/CodeSystem/organization-type","code":"pay","display":"Payer"}]}],"name":"Blue Cross Blue Shield of Texas","telecom":[{"system":"phone","value":"(+1) 972-766-6900"}],"address":[{"use":"billing","type":"postal","line":["P.O. Box 660044"],"city":"Dallas","state":"TX","postalCode":"75266-0044","country":"USA"}]},"request":{"method":"PUT","url":"Organization/ec8cac12-7dd8-4c6e-8c44-d6c645085c80"}},{"fullUrl":"https://madie.cms.gov/Practitioner/baa4cc67-ce30-48e7-a459-d5298909299f","resource":{"resourceType":"Practitioner","id":"baa4cc67-ce30-48e7-a459-d5298909299f","meta":{"profile":["http://hl7.org/fhir/us/qicore/StructureDefinition/qicore-practitioner"]},"identifier":[{"system":"http://hl7.org/fhir/sid/us-npi","value":"123456"}],"name":[{"family":"Evil","prefix":["Dr"]}]},"request":{"method":"PUT","url":"Practitioner/baa4cc67-ce30-48e7-a459-d5298909299f"}},{"fullUrl":"https://madie.cms.gov/MeasureReport/26c9ac95-1967-4352-afce-a7ff30339163","resource":{"resourceType":"MeasureReport","id":"26c9ac95-1967-4352-afce-a7ff30339163","meta":{"profile":["http://hl7.org/fhir/us/cqfmeasures/StructureDefinition/test-case-cqfm"]},"contained":[{"resourceType":"Parameters","id":"f7faef99-f3c2-41fe-b037-b2b61e801b0e-parameters","parameter":[{"name":"subject","valueString":"e7c3ce5f-06e7-437f-a611-3df5d324eaf9"}]}],"extension":[{"url":"http://hl7.org/fhir/us/cqfmeasures/StructureDefinition/cqfm-inputParameters","valueReference":{"reference":"#f7faef99-f3c2-41fe-b037-b2b61e801b0e-parameters"}},{"url":"http://hl7.org/fhir/us/cqfmeasures/StructureDefinition/cqfm-testCaseDescription","valueMarkdown":"Enc first day of MP (7/1), has Medicare, Patient has temperature taken 2hrs after start of encounter"}],"modifierExtension":[{"url":"http://hl7.org/fhir/us/cqfmeasures/StructureDefinition/cqfm-isTestCase","valueBoolean":true}],"status":"complete","type":"individual","measure":"https://madie.cms.gov/Measure/CMSFHIR844HybridHospitalWideMortality","period":{"start":"2026-07-01","end":"2027-06-30"},"group":[{"population":[{"code":{"coding":[{"system":"http://terminology.hl7.org/CodeSystem/measure-population","code":"initial-population","display":"Initial Population"}]},"count":1}]}]},"request":{"method":"PUT","url":"MeasureReport/26c9ac95-1967-4352-afce-a7ff30339163"}}]}