{"resourceType":"Bundle","id":"tests-b0245fca-030a-497b-9a0f-47ee78678dbe-bundle","type":"transaction","entry":[{"fullUrl":"https://madie.cms.gov/Patient/b0245fca-030a-497b-9a0f-47ee78678dbe","resource":{"resourceType":"Patient","id":"b0245fca-030a-497b-9a0f-47ee78678dbe","meta":{"profile":["http://hl7.org/fhir/us/qicore/StructureDefinition/qicore-patient"]},"text":{"status":"generated","div":"<div xmlns=\"http://www.w3.org/1999/xhtml\"><div class=\"hapiHeaderText\">24After <b>PLATELETPASS </b></div><table class=\"hapiPropertyTable\"><tbody><tr><td>Identifier</td><td>3fdea26b1d172050afffe1c0ff7bd899faa0bd0df7d367f433ae26111f27549c</td></tr><tr><td>Date of birth</td><td><span>15 June 1956</span></td></tr></tbody></table></div>"},"extension":[{"url":"http://hl7.org/fhir/us/core/StructureDefinition/us-core-race","extension":[{"url":"ombCategory","valueCoding":{"system":"urn:oid:2.16.840.1.113883.6.238","code":"1002-5","display":"American Indian or Alaska Native","userSelected":true}},{"url":"text","valueString":"American Indian or Alaska Native"}]},{"url":"http://hl7.org/fhir/us/core/StructureDefinition/us-core-ethnicity","extension":[{"url":"ombCategory","valueCoding":{"system":"urn:oid:2.16.840.1.113883.6.238","code":"2186-5","display":"Not Hispanic or Latino","userSelected":true}},{"url":"text","valueString":"Not Hispanic or Latino"}]}],"identifier":[{"type":{"coding":[{"system":"http://terminology.hl7.org/CodeSystem/v2-0203","code":"MR"}]},"system":"https://bonnie-fhir.healthit.gov/","value":"63ec0969ccb3770120fe9ec7"}],"active":true,"name":[{"use":"usual","family":"PlateletPass","given":["24AfterStartOfAdmit"]}],"gender":"male","birthDate":"1961-06-30"},"request":{"method":"PUT","url":"Patient/b0245fca-030a-497b-9a0f-47ee78678dbe"}},{"fullUrl":"https://madie.cms.gov/Encounter/0acce726-9a03-4a51-8a48-0ba7d94c66fd","resource":{"resourceType":"Encounter","id":"0acce726-9a03-4a51-8a48-0ba7d94c66fd","meta":{"profile":["http://hl7.org/fhir/us/qicore/StructureDefinition/qicore-encounter"]},"status":"finished","class":{"system":"http://terminology.hl7.org/CodeSystem/v3-ActCode","code":"IMP","display":"inpatient encounter","userSelected":true},"type":[{"coding":[{"system":"http://snomed.info/sct","code":"183452005","display":"Emergency hospital admission (procedure)"}]}],"subject":{"reference":"Patient/b0245fca-030a-497b-9a0f-47ee78678dbe"},"period":{"start":"2026-07-01T08:00:00.000+00:00","end":"2026-07-03T11:15:00.000+00:00"},"length":{"value":2.0,"unit":"days"}},"request":{"method":"PUT","url":"Encounter/0acce726-9a03-4a51-8a48-0ba7d94c66fd"}},{"fullUrl":"https://madie.cms.gov/Coverage/8454588c-4209-4f90-8283-8a2364a53962","resource":{"resourceType":"Coverage","id":"8454588c-4209-4f90-8283-8a2364a53962","meta":{"profile":["http://hl7.org/fhir/us/qicore/StructureDefinition/qicore-coverage"]},"status":"active","type":{"coding":[{"system":"https://nahdo.org/sopt","version":"1.0.1","code":"1","display":"Medicare payer","userSelected":true}]},"beneficiary":{"reference":"Patient/b0245fca-030a-497b-9a0f-47ee78678dbe"},"payor":[{"reference":"Organization/f4907415-83c5-4eae-ab0b-cb63a840880d"}]},"request":{"method":"PUT","url":"Coverage/8454588c-4209-4f90-8283-8a2364a53962"}},{"fullUrl":"https://madie.cms.gov/Observation/ab2e5c3e-dcf1-4f73-9887-00b48f1a01d3","resource":{"resourceType":"Observation","id":"ab2e5c3e-dcf1-4f73-9887-00b48f1a01d3","meta":{"profile":["http://hl7.org/fhir/us/core/StructureDefinition/us-core-observation-lab"]},"status":"final","category":[{"coding":[{"system":"http://terminology.hl7.org/CodeSystem/observation-category","code":"laboratory","display":"laboratory","userSelected":true}]}],"code":{"coding":[{"system":"http://loinc.org","code":"13056-7","display":"Platelets [#/volume] in Plasma by Automated count"}]},"subject":{"reference":"Patient/b0245fca-030a-497b-9a0f-47ee78678dbe"},"effectiveDateTime":"2026-07-02T08:00:00.000+00:00","issued":"2026-07-02T08:00:00.000+00:00","valueQuantity":{"value":150000,"unit":"/uL","system":"http://unitsofmeasure.org","code":"/uL"}},"request":{"method":"PUT","url":"Observation/ab2e5c3e-dcf1-4f73-9887-00b48f1a01d3"}},{"fullUrl":"https://madie.cms.gov/Organization/058624b1-27e8-4a89-bf75-7971ca6b8a67","resource":{"resourceType":"Organization","id":"f4907415-83c5-4eae-ab0b-cb63a840880d","meta":{"profile":["http://hl7.org/fhir/us/qicore/StructureDefinition/qicore-organization"]},"identifier":[{"use":"temp","system":"urn:oid:2.16.840.1.113883.4.4","value":"21-3259825"}],"active":true,"type":[{"coding":[{"system":"http://terminology.hl7.org/CodeSystem/organization-type","code":"pay","display":"Payer"}]}],"name":"Blue Cross Blue Shield of Texas","telecom":[{"system":"phone","value":"(+1) 972-766-6900"}],"address":[{"use":"billing","type":"postal","line":["P.O. Box 660044"],"city":"Dallas","state":"TX","postalCode":"75266-0044","country":"USA"}]},"request":{"method":"PUT","url":"Organization/f4907415-83c5-4eae-ab0b-cb63a840880d"}},{"fullUrl":"https://madie.cms.gov/Practitioner/53183641-db62-4da4-bdcb-01d537854a45","resource":{"resourceType":"Practitioner","id":"53183641-db62-4da4-bdcb-01d537854a45","meta":{"profile":["http://hl7.org/fhir/us/qicore/StructureDefinition/qicore-practitioner"]},"identifier":[{"system":"http://hl7.org/fhir/sid/us-npi","value":"123456"}],"name":[{"family":"Evil","prefix":["Dr"]}]},"request":{"method":"PUT","url":"Practitioner/53183641-db62-4da4-bdcb-01d537854a45"}},{"fullUrl":"https://madie.cms.gov/MeasureReport/ea0dcb49-b927-4d9d-a872-b4dac653d65e","resource":{"resourceType":"MeasureReport","id":"ea0dcb49-b927-4d9d-a872-b4dac653d65e","meta":{"profile":["http://hl7.org/fhir/us/cqfmeasures/StructureDefinition/test-case-cqfm"]},"contained":[{"resourceType":"Parameters","id":"89920477-bba9-42c0-948e-d0fa9883d108-parameters","parameter":[{"name":"subject","valueString":"b0245fca-030a-497b-9a0f-47ee78678dbe"}]}],"extension":[{"url":"http://hl7.org/fhir/us/cqfmeasures/StructureDefinition/cqfm-inputParameters","valueReference":{"reference":"#89920477-bba9-42c0-948e-d0fa9883d108-parameters"}},{"url":"http://hl7.org/fhir/us/cqfmeasures/StructureDefinition/cqfm-testCaseDescription","valueMarkdown":"Enc first day of  MP (7/1) , age 65 yesterday, Platelet lab occurred 24 hours after start of inpatient encounter\n"}],"modifierExtension":[{"url":"http://hl7.org/fhir/us/cqfmeasures/StructureDefinition/cqfm-isTestCase","valueBoolean":true}],"status":"complete","type":"individual","measure":"https://madie.cms.gov/Measure/CMSFHIR844HybridHospitalWideMortality","period":{"start":"2026-07-01","end":"2027-06-30"},"group":[{"population":[{"code":{"coding":[{"system":"http://terminology.hl7.org/CodeSystem/measure-population","code":"initial-population","display":"Initial Population"}]},"count":1}]}]},"request":{"method":"PUT","url":"MeasureReport/ea0dcb49-b927-4d9d-a872-b4dac653d65e"}}]}