{
  "resourceType": "Bundle",
  "id": "633b3f9e0968f80122503cd7",
  "type": "transaction",
  "entry": [ {
    "fullUrl": "https://madie.cms.gov/Patient/3c6ed429-eef2-4b6c-a962-56584468ae7c",
    "resource": {
      "resourceType": "Patient",
      "id": "3c6ed429-eef2-4b6c-a962-56584468ae7c",
      "meta": {
        "profile": [ "http://hl7.org/fhir/us/qicore/StructureDefinition/qicore-patient" ]
      },
      "text": {
        "status": "generated",
        "div": "<div xmlns=\"http://www.w3.org/1999/xhtml\"><div class=\"hapiHeaderText\">LastAssPrfEstDELRsltDtTimeMissing <b>DENOMFAIL </b></div><table class=\"hapiPropertyTable\"><tbody><tr><td>Date of birth</td><td><span>01 February 2004</span></td></tr></tbody></table></div>"
      },
      "extension": [ {
        "url": "http://hl7.org/fhir/us/core/StructureDefinition/us-core-race",
        "extension": [ {
          "url": "ombCategory",
          "valueCoding": {
            "system": "urn:oid:2.16.840.1.113883.6.238",
            "code": "1002-5",
            "display": "American Indian or Alaska Native",
            "userSelected": true
          }
        }, {
          "url": "text",
          "valueString": "American Indian or Alaska Native"
        } ]
      }, {
        "url": "http://hl7.org/fhir/us/core/StructureDefinition/us-core-ethnicity",
        "extension": [ {
          "url": "ombCategory",
          "valueCoding": {
            "system": "urn:oid:2.16.840.1.113883.6.238",
            "code": "2135-2",
            "display": "Hispanic or Latino",
            "userSelected": true
          }
        }, {
          "url": "text",
          "valueString": "Hispanic or Latino"
        } ]
      } ],
      "identifier": [ {
        "type": {
          "coding": [ {
            "system": "http://terminology.hl7.org/CodeSystem/v2-0203",
            "code": "MR"
          } ]
        },
        "system": "https://bonnie-fhir.healthit.gov/",
        "value": "633b3f9e0968f80122503cd7"
      } ],
      "active": true,
      "name": [ {
        "use": "usual",
        "family": "DENOMFail",
        "given": [ "LastAssPrfEstDELRsltDtTimeMissing" ]
      } ],
      "gender": "female",
      "birthDate": "2004-02-01"
    },
    "request": {
      "method": "PUT",
      "url": "Patient/3c6ed429-eef2-4b6c-a962-56584468ae7c"
    }
  }, {
    "fullUrl": "https://madie.cms.gov/Observation/a9b83f24-8882-42c9-aff2-1f92955b73e3",
    "resource": {
      "resourceType": "Observation",
      "id": "a9b83f24-8882-42c9-aff2-1f92955b73e3",
      "meta": {
        "profile": [ "http://hl7.org/fhir/us/qicore/StructureDefinition/qicore-observation" ]
      },
      "status": "final",
      "category": [ {
        "coding": [ {
          "system": "http://terminology.hl7.org/CodeSystem/observation-category",
          "code": "exam",
          "display": "exam",
          "userSelected": true
        } ]
      } ],
      "code": {
        "coding": [ {
          "system": "http://loinc.org",
          "code": "93857-1"
        } ]
      },
      "subject": {
        "reference": "Patient/3c6ed429-eef2-4b6c-a962-56584468ae7c"
      },
      "effectiveDateTime": "2025-02-01T08:00:00.000+00:00",
      "valueDateTime": "2025-02-01T08:00:00+00:00"
    },
    "request": {
      "method": "PUT",
      "url": "Observation/a9b83f24-8882-42c9-aff2-1f92955b73e3"
    }
  }, {
    "fullUrl": "https://madie.cms.gov/Observation/39c2dafe-86ce-448e-ab85-63c2c954a30c",
    "resource": {
      "resourceType": "Observation",
      "id": "39c2dafe-86ce-448e-ab85-63c2c954a30c",
      "meta": {
        "profile": [ "http://hl7.org/fhir/us/qicore/StructureDefinition/qicore-observation" ]
      },
      "status": "final",
      "category": [ {
        "coding": [ {
          "system": "http://terminology.hl7.org/CodeSystem/observation-category",
          "code": "exam",
          "display": "exam",
          "userSelected": true
        } ]
      } ],
      "code": {
        "coding": [ {
          "system": "http://loinc.org",
          "code": "11778-8"
        } ]
      },
      "subject": {
        "reference": "Patient/3c6ed429-eef2-4b6c-a962-56584468ae7c"
      },
      "effectiveDateTime": "2025-02-01T08:00:00.000+00:00"
    },
    "request": {
      "method": "PUT",
      "url": "Observation/39c2dafe-86ce-448e-ab85-63c2c954a30c"
    }
  }, {
    "fullUrl": "https://madie.cms.gov/Encounter/b89bcba7-4978-4d5d-856a-d278d44cd2f3",
    "resource": {
      "resourceType": "Encounter",
      "id": "b89bcba7-4978-4d5d-856a-d278d44cd2f3",
      "meta": {
        "profile": [ "http://hl7.org/fhir/us/qicore/StructureDefinition/qicore-encounter" ]
      },
      "status": "finished",
      "class": {
        "system": "http://terminology.hl7.org/CodeSystem/v3-ActCode",
        "code": "IMP",
        "display": "inpatient encounter"
      },
      "type": [ {
        "coding": [ {
          "system": "http://snomed.info/sct",
          "code": "183452005"
        } ]
      } ],
      "subject": {
        "reference": "Patient/3c6ed429-eef2-4b6c-a962-56584468ae7c"
      },
      "period": {
        "start": "2025-02-01T08:00:00.000Z",
        "end": "2025-02-05T08:15:00.000Z"
      }
    },
    "request": {
      "method": "PUT",
      "url": "Encounter/b89bcba7-4978-4d5d-856a-d278d44cd2f3"
    }
  }, {
    "fullUrl": "https://madie.cms.gov/Coverage/a2ede51f-8955-45a0-8068-774dd864a39e",
    "resource": {
      "resourceType": "Coverage",
      "id": "a2ede51f-8955-45a0-8068-774dd864a39e",
      "status": "active",
      "beneficiary": {
        "reference": "Patient/3c6ed429-eef2-4b6c-a962-56584468ae7c"
      },
      "period": {
        "start": "2004-02-01T08:00:00.000Z"
      },
      "payor": [ {
        "reference": "Organization/0bf61d68-5b3e-4a6a-91ac-77783b84cda1"
      } ]
    },
    "request": {
      "method": "PUT",
      "url": "Coverage/a2ede51f-8955-45a0-8068-774dd864a39e"
    }
  }, {
    "fullUrl": "https://madie.cms.gov/Procedure/418ac743-e42a-4b74-abbd-7d3bdcef8a60",
    "resource": {
      "resourceType": "Procedure",
      "id": "418ac743-e42a-4b74-abbd-7d3bdcef8a60",
      "meta": {
        "profile": [ "http://hl7.org/fhir/us/qicore/StructureDefinition/qicore-procedure" ]
      },
      "extension": [ {
        "url": "http://hl7.org/fhir/us/qicore/StructureDefinition/qicore-recorded",
        "valueDateTime": "2013-04-05T09:35:00-04:00"
      } ],
      "status": "completed",
      "code": {
        "coding": [ {
          "system": "http://snomed.info/sct",
          "code": "10745001"
        } ]
      },
      "subject": {
        "reference": "Patient/3c6ed429-eef2-4b6c-a962-56584468ae7c"
      },
      "performedPeriod": {
        "start": "2025-02-01T08:00:00.000Z",
        "end": "2025-02-05T08:15:00.000Z"
      }
    },
    "request": {
      "method": "PUT",
      "url": "Procedure/418ac743-e42a-4b74-abbd-7d3bdcef8a60"
    }
  }, {
    "fullUrl": "https://madie.cms.gov/Organization/0bf61d68-5b3e-4a6a-91ac-77783b84cda1",
    "resource": {
      "resourceType": "Organization",
      "id": "0bf61d68-5b3e-4a6a-91ac-77783b84cda1",
      "meta": {
        "profile": [ "http://hl7.org/fhir/us/qicore/StructureDefinition/qicore-organization" ]
      },
      "identifier": [ {
        "use": "temp",
        "system": "urn:oid:2.16.840.1.113883.4.4",
        "value": "21-3259825"
      } ],
      "active": true,
      "type": [ {
        "coding": [ {
          "system": "http://terminology.hl7.org/CodeSystem/organization-type",
          "code": "pay",
          "display": "Payer"
        } ]
      } ],
      "name": "Blue Cross Blue Shield of Texas",
      "telecom": [ {
        "system": "phone",
        "value": "(+1) 972-766-6900"
      } ],
      "address": [ {
        "use": "billing",
        "type": "postal",
        "line": [ "P.O. Box 660044" ],
        "city": "Dallas",
        "state": "TX",
        "postalCode": "75266-0044",
        "country": "USA"
      } ]
    },
    "request": {
      "method": "PUT",
      "url": "Organization/0bf61d68-5b3e-4a6a-91ac-77783b84cda1"
    }
  }, {
    "fullUrl": "https://madie.cms.gov/Practitioner/5dd57426-46d2-4789-9c61-fc8048b15464",
    "resource": {
      "resourceType": "Practitioner",
      "id": "5dd57426-46d2-4789-9c61-fc8048b15464",
      "identifier": [ {
        "system": "http://hl7.org/fhir/sid/us-npi",
        "value": "123456"
      } ],
      "name": [ {
        "family": "Evil",
        "prefix": [ "Dr" ]
      } ]
    },
    "request": {
      "method": "PUT",
      "url": "Practitioner/5dd57426-46d2-4789-9c61-fc8048b15464"
    }
  }, {
    "fullUrl": "https://madie.cms.gov/MeasureReport/289181d8-fae7-4810-ab91-b9c355839f3d",
    "resource": {
      "resourceType": "MeasureReport",
      "id": "289181d8-fae7-4810-ab91-b9c355839f3d",
      "meta": {
        "profile": [ "http://hl7.org/fhir/us/cqfmeasures/StructureDefinition/test-case-cqfm" ]
      },
      "contained": [ {
        "resourceType": "Parameters",
        "id": "6fc56281-9d65-4cf4-9aa3-b4497227514b-parameters",
        "parameter": [ {
          "name": "subject",
          "valueString": "3c6ed429-eef2-4b6c-a962-56584468ae7c"
        } ]
      } ],
      "extension": [ {
        "url": "http://hl7.org/fhir/us/cqfmeasures/StructureDefinition/cqfm-inputParameters",
        "valueReference": {
          "reference": "#6fc56281-9d65-4cf4-9aa3-b4497227514b-parameters"
        }
      }, {
        "url": "http://hl7.org/fhir/us/cqfmeasures/StructureDefinition/cqfm-testCaseDescription",
        "valueMarkdown": "Last assessment Performed, Estimated Delivery Date, result date/time is null.\n"
      } ],
      "modifierExtension": [ {
        "url": "http://hl7.org/fhir/us/cqfmeasures/StructureDefinition/cqfm-isTestCase",
        "valueBoolean": true
      } ],
      "status": "complete",
      "type": "individual",
      "measure": "https://madie.cms.gov/Measure/CMS1028FHIRPCSevereOBComps",
      "period": {
        "start": "2025-01-01",
        "end": "2025-12-31"
      },
      "group": [ {
        "population": [ {
          "code": {
            "coding": [ {
              "system": "http://terminology.hl7.org/CodeSystem/measure-population",
              "code": "initial-population",
              "display": "Initial Population"
            } ]
          },
          "count": 1
        }, {
          "code": {
            "coding": [ {
              "system": "http://terminology.hl7.org/CodeSystem/measure-population",
              "code": "denominator",
              "display": "Denominator"
            } ]
          },
          "count": 0
        }, {
          "code": {
            "coding": [ {
              "system": "http://terminology.hl7.org/CodeSystem/measure-population",
              "code": "numerator",
              "display": "Numerator"
            } ]
          },
          "count": 0
        }, {
          "code": {
            "coding": [ {
              "system": "http://terminology.hl7.org/CodeSystem/measure-population",
              "code": "numerator-exclusion",
              "display": "Numerator Exclusion"
            } ]
          },
          "count": 0
        } ]
      }, {
        "population": [ {
          "code": {
            "coding": [ {
              "system": "http://terminology.hl7.org/CodeSystem/measure-population",
              "code": "initial-population",
              "display": "Initial Population"
            } ]
          },
          "count": 1
        }, {
          "code": {
            "coding": [ {
              "system": "http://terminology.hl7.org/CodeSystem/measure-population",
              "code": "denominator",
              "display": "Denominator"
            } ]
          },
          "count": 0
        }, {
          "code": {
            "coding": [ {
              "system": "http://terminology.hl7.org/CodeSystem/measure-population",
              "code": "numerator",
              "display": "Numerator"
            } ]
          },
          "count": 0
        }, {
          "code": {
            "coding": [ {
              "system": "http://terminology.hl7.org/CodeSystem/measure-population",
              "code": "numerator-exclusion",
              "display": "Numerator Exclusion"
            } ]
          },
          "count": 0
        } ]
      } ],
      "evaluatedResource": [ {
        "reference": "Patient/3c6ed429-eef2-4b6c-a962-56584468ae7c"
      }, {
        "reference": "Observation/a9b83f24-8882-42c9-aff2-1f92955b73e3"
      }, {
        "reference": "Observation/39c2dafe-86ce-448e-ab85-63c2c954a30c"
      }, {
        "reference": "Encounter/b89bcba7-4978-4d5d-856a-d278d44cd2f3"
      }, {
        "reference": "Coverage/a2ede51f-8955-45a0-8068-774dd864a39e"
      }, {
        "reference": "Procedure/418ac743-e42a-4b74-abbd-7d3bdcef8a60"
      }, {
        "reference": "Organization/0bf61d68-5b3e-4a6a-91ac-77783b84cda1"
      }, {
        "reference": "Practitioner/5dd57426-46d2-4789-9c61-fc8048b15464"
      } ]
    },
    "request": {
      "method": "PUT",
      "url": "MeasureReport/289181d8-fae7-4810-ab91-b9c355839f3d"
    }
  } ]
}