{
  "resourceType": "Bundle",
  "id": "633c9d040968f8012250fcb2",
  "type": "transaction",
  "entry": [ {
    "fullUrl": "https://madie.cms.gov/Patient/e695d66d-1f4e-4b69-acad-0861f1222d44",
    "resource": {
      "resourceType": "Patient",
      "id": "e695d66d-1f4e-4b69-acad-0861f1222d44",
      "meta": {
        "profile": [ "http://hl7.org/fhir/us/qicore/StructureDefinition/qicore-patient" ]
      },
      "text": {
        "status": "generated",
        "div": "<div xmlns=\"http://www.w3.org/1999/xhtml\"><div class=\"hapiHeaderText\">ProcAtrialAblB4EncDateTime <b>DENOMPASS </b></div><table class=\"hapiPropertyTable\"><tbody><tr><td>Identifier</td><td>1ebc7a8ec0c65913b7018969c7b50ead</td></tr><tr><td>Date of birth</td><td><span>01 December 1960</span></td></tr></tbody></table></div>"
      },
      "extension": [ {
        "url": "http://hl7.org/fhir/us/core/StructureDefinition/us-core-race",
        "extension": [ {
          "url": "ombCategory",
          "valueCoding": {
            "system": "urn:oid:2.16.840.1.113883.6.238",
            "code": "1002-5",
            "display": "American Indian or Alaska Native",
            "userSelected": true
          }
        }, {
          "url": "text",
          "valueString": "American Indian or Alaska Native"
        } ]
      }, {
        "url": "http://hl7.org/fhir/us/core/StructureDefinition/us-core-ethnicity",
        "extension": [ {
          "url": "ombCategory",
          "valueCoding": {
            "system": "urn:oid:2.16.840.1.113883.6.238",
            "code": "2135-2",
            "display": "Hispanic or Latino",
            "userSelected": true
          }
        }, {
          "url": "text",
          "valueString": "Hispanic or Latino"
        } ]
      } ],
      "identifier": [ {
        "type": {
          "coding": [ {
            "system": "http://terminology.hl7.org/CodeSystem/v2-0203",
            "code": "MR"
          } ]
        },
        "system": "https://bonnie-fhir.healthit.gov/",
        "value": "633c9d040968f8012250fcb2"
      } ],
      "active": true,
      "name": [ {
        "use": "usual",
        "family": "DENOMPass",
        "given": [ "ProcAtrialAblB4EncDateTime" ]
      } ],
      "gender": "male",
      "birthDate": "1961-12-01"
    },
    "request": {
      "method": "PUT",
      "url": "Patient/e695d66d-1f4e-4b69-acad-0861f1222d44"
    }
  }, {
    "fullUrl": "https://madie.cms.gov/Encounter/f463660f-03ec-4388-96ac-c4caa4a62beb",
    "resource": {
      "resourceType": "Encounter",
      "id": "f463660f-03ec-4388-96ac-c4caa4a62beb",
      "meta": {
        "profile": [ "http://hl7.org/fhir/us/qicore/StructureDefinition/qicore-encounter" ]
      },
      "status": "finished",
      "class": {
        "system": "http://terminology.hl7.org/CodeSystem/v3-ActCode",
        "code": "IMP",
        "display": "inpatient encounter"
      },
      "type": [ {
        "coding": [ {
          "system": "http://snomed.info/sct",
          "code": "32485007"
        } ]
      } ],
      "subject": {
        "reference": "Patient/e695d66d-1f4e-4b69-acad-0861f1222d44"
      },
      "period": {
        "start": "2026-02-08T08:00:00.000Z",
        "end": "2026-02-10T08:15:00.000Z"
      },
      "length": {
        "value": 2,
        "unit": "days"
      },
      "diagnosis": [ {
        "condition": {
          "reference": "Condition/696e2271-7aea-43c2-a6ab-6404de46d903"
        },
        "use": {
          "coding": [ {
            "system": "http://terminology.hl7.org/CodeSystem/diagnosis-role",
            "code": "billing",
            "display": "Billing"
          } ]
        },
        "rank": 1
      } ]
    },
    "request": {
      "method": "PUT",
      "url": "Encounter/f463660f-03ec-4388-96ac-c4caa4a62beb"
    }
  }, {
    "fullUrl": "https://madie.cms.gov/Coverage/3957c378-c67c-4607-bdf3-c9a503ca287a",
    "resource": {
      "resourceType": "Coverage",
      "id": "3957c378-c67c-4607-bdf3-c9a503ca287a",
      "status": "active",
      "beneficiary": {
        "reference": "Patient/e695d66d-1f4e-4b69-acad-0861f1222d44"
      },
      "period": {
        "start": "1961-12-01T08:00:00.000Z"
      },
      "payor": [ {
        "reference": "Organization/43e5520e-a238-4767-b2ee-b958758ec110"
      } ]
    },
    "request": {
      "method": "PUT",
      "url": "Coverage/3957c378-c67c-4607-bdf3-c9a503ca287a"
    }
  }, {
    "fullUrl": "https://madie.cms.gov/Procedure/9d299514-3495-4aba-847e-3351edc70022",
    "resource": {
      "resourceType": "Procedure",
      "id": "9d299514-3495-4aba-847e-3351edc70022",
      "meta": {
        "profile": [ "http://hl7.org/fhir/us/qicore/StructureDefinition/qicore-procedure" ]
      },
      "extension": [ {
        "url": "http://hl7.org/fhir/us/qicore/StructureDefinition/qicore-recorded",
        "valueDateTime": "2026-11-19T09:35:00-04:00"
      } ],
      "status": "completed",
      "code": {
        "coding": [ {
          "system": "http://www.cms.gov/Medicare/Coding/ICD10",
          "code": "02560ZZ"
        }, {
          "system": "http://snomed.info/sct",
          "code": "175095005"
        } ]
      },
      "subject": {
        "reference": "Patient/e695d66d-1f4e-4b69-acad-0861f1222d44"
      },
      "performedDateTime": "2026-02-08T07:59:00.000+00:00"
    },
    "request": {
      "method": "PUT",
      "url": "Procedure/9d299514-3495-4aba-847e-3351edc70022"
    }
  }, {
    "fullUrl": "https://madie.cms.gov/Condition/696e2271-7aea-43c2-a6ab-6404de46d903",
    "resource": {
      "resourceType": "Condition",
      "id": "696e2271-7aea-43c2-a6ab-6404de46d903",
      "meta": {
        "profile": [ "http://hl7.org/fhir/us/qicore/StructureDefinition/qicore-condition" ]
      },
      "clinicalStatus": {
        "coding": [ {
          "system": "http://terminology.hl7.org/CodeSystem/condition-clinical",
          "code": "active"
        } ]
      },
      "verificationStatus": {
        "coding": [ {
          "system": "http://terminology.hl7.org/CodeSystem/condition-ver-status",
          "code": "confirmed"
        } ]
      },
      "category": [ {
        "coding": [ {
          "system": "http://terminology.hl7.org/CodeSystem/condition-category",
          "code": "encounter-diagnosis",
          "display": "Encounter Diagnosis"
        } ]
      } ],
      "code": {
        "coding": [ {
          "system": "http://snomed.info/sct",
          "version": "2021-09",
          "code": "111297002",
          "display": "Nonparalytic stroke (disorder)",
          "userSelected": true
        } ]
      },
      "subject": {
        "reference": "Patient/e695d66d-1f4e-4b69-acad-0861f1222d44"
      },
      "recordedDate": "2026-10-13T08:00:00.000+00:00"
    },
    "request": {
      "method": "PUT",
      "url": "Condition/696e2271-7aea-43c2-a6ab-6404de46d903"
    }
  }, {
    "fullUrl": "https://madie.cms.gov/Organization/43e5520e-a238-4767-b2ee-b958758ec110",
    "resource": {
      "resourceType": "Organization",
      "id": "43e5520e-a238-4767-b2ee-b958758ec110",
      "meta": {
        "profile": [ "http://hl7.org/fhir/us/qicore/StructureDefinition/qicore-organization" ]
      },
      "identifier": [ {
        "use": "temp",
        "system": "urn:oid:2.16.840.1.113883.4.4",
        "value": "21-3259825"
      } ],
      "active": true,
      "type": [ {
        "coding": [ {
          "system": "http://terminology.hl7.org/CodeSystem/organization-type",
          "code": "pay",
          "display": "Payer"
        } ]
      } ],
      "name": "Blue Cross Blue Shield of Texas",
      "telecom": [ {
        "system": "phone",
        "value": "(+1) 972-766-6900"
      } ],
      "address": [ {
        "use": "billing",
        "type": "postal",
        "line": [ "P.O. Box 660044" ],
        "city": "Dallas",
        "state": "TX",
        "postalCode": "75266-0044",
        "country": "USA"
      } ]
    },
    "request": {
      "method": "PUT",
      "url": "Organization/43e5520e-a238-4767-b2ee-b958758ec110"
    }
  }, {
    "fullUrl": "https://madie.cms.gov/Practitioner/cf842b27-4ca0-47a5-98f6-6a766f4fd906",
    "resource": {
      "resourceType": "Practitioner",
      "id": "cf842b27-4ca0-47a5-98f6-6a766f4fd906",
      "identifier": [ {
        "system": "http://hl7.org/fhir/sid/us-npi",
        "value": "123456"
      } ],
      "name": [ {
        "family": "Evil",
        "prefix": [ "Dr" ]
      } ]
    },
    "request": {
      "method": "PUT",
      "url": "Practitioner/cf842b27-4ca0-47a5-98f6-6a766f4fd906"
    }
  }, {
    "fullUrl": "https://madie.cms.gov/MeasureReport/f808c849-3f29-44f4-97f0-a9155e623622",
    "resource": {
      "resourceType": "MeasureReport",
      "id": "f808c849-3f29-44f4-97f0-a9155e623622",
      "meta": {
        "profile": [ "http://hl7.org/fhir/us/cqfmeasures/StructureDefinition/test-case-cqfm" ]
      },
      "contained": [ {
        "resourceType": "Parameters",
        "id": "bd296b9d-7e7f-40ee-827a-8c9872a59b58-parameters",
        "parameter": [ {
          "name": "subject",
          "valueString": "e695d66d-1f4e-4b69-acad-0861f1222d44"
        } ]
      } ],
      "extension": [ {
        "url": "http://hl7.org/fhir/us/cqfmeasures/StructureDefinition/cqfm-inputParameters",
        "valueReference": {
          "reference": "#bd296b9d-7e7f-40ee-827a-8c9872a59b58-parameters"
        }
      }, {
        "url": "http://hl7.org/fhir/us/cqfmeasures/StructureDefinition/cqfm-testCaseDescription",
        "valueMarkdown": "Proc performed Atrial Ablation starts before start of OccA by 1 minutes\n"
      } ],
      "modifierExtension": [ {
        "url": "http://hl7.org/fhir/us/cqfmeasures/StructureDefinition/cqfm-isTestCase",
        "valueBoolean": true
      } ],
      "status": "complete",
      "type": "individual",
      "measure": "https://madie.cms.gov/Measure/CMS71FHIRSTKAnticoagAFFlutter",
      "period": {
        "start": "2026-01-01",
        "end": "2026-12-31"
      },
      "group": [ {
        "population": [ {
          "code": {
            "coding": [ {
              "system": "http://terminology.hl7.org/CodeSystem/measure-population",
              "code": "initial-population",
              "display": "Initial Population"
            } ]
          },
          "count": 1
        }, {
          "code": {
            "coding": [ {
              "system": "http://terminology.hl7.org/CodeSystem/measure-population",
              "code": "denominator",
              "display": "Denominator"
            } ]
          },
          "count": 1
        }, {
          "code": {
            "coding": [ {
              "system": "http://terminology.hl7.org/CodeSystem/measure-population",
              "code": "denominator-exclusion",
              "display": "Denominator Exclusion"
            } ]
          },
          "count": 0
        }, {
          "code": {
            "coding": [ {
              "system": "http://terminology.hl7.org/CodeSystem/measure-population",
              "code": "numerator",
              "display": "Numerator"
            } ]
          },
          "count": 0
        }, {
          "code": {
            "coding": [ {
              "system": "http://terminology.hl7.org/CodeSystem/measure-population",
              "code": "denominator-exception",
              "display": "Denominator Exception"
            } ]
          },
          "count": 0
        } ]
      } ],
      "evaluatedResource": [ {
        "reference": "Patient/e695d66d-1f4e-4b69-acad-0861f1222d44"
      }, {
        "reference": "Encounter/f463660f-03ec-4388-96ac-c4caa4a62beb"
      }, {
        "reference": "Coverage/3957c378-c67c-4607-bdf3-c9a503ca287a"
      }, {
        "reference": "Procedure/9d299514-3495-4aba-847e-3351edc70022"
      }, {
        "reference": "Condition/696e2271-7aea-43c2-a6ab-6404de46d903"
      }, {
        "reference": "Organization/43e5520e-a238-4767-b2ee-b958758ec110"
      }, {
        "reference": "Practitioner/cf842b27-4ca0-47a5-98f6-6a766f4fd906"
      } ]
    },
    "request": {
      "method": "PUT",
      "url": "MeasureReport/f808c849-3f29-44f4-97f0-a9155e623622"
    }
  } ]
}