{"resourceType":"Bundle","id":"tests-77178177-d553-4bf3-8c92-65382bfbee73-bundle","type":"transaction","entry":[{"fullUrl":"https://madie.cms.gov/Encounter/e2d6555a-8114-460c-934e-267b302e8329","resource":{"resourceType":"Encounter","id":"e2d6555a-8114-460c-934e-267b302e8329","meta":{"profile":["http://hl7.org/fhir/us/qicore/StructureDefinition/qicore-encounter"]},"status":"finished","class":{"system":"http://terminology.hl7.org/CodeSystem/v3-ActCode","code":"IMP","display":"inpatient encounter"},"type":[{"coding":[{"system":"http://snomed.info/sct","code":"183452005"}]}],"subject":{"reference":"Patient/77178177-d553-4bf3-8c92-65382bfbee73"},"period":{"start":"2026-11-09T11:15:00+00:00","end":"2026-11-13T08:15:00+00:00"},"diagnosis":[{"extension":[{"url":"http://hl7.org/fhir/us/qicore/StructureDefinition/qicore-encounter-diagnosisPresentOnAdmission","valueCodeableConcept":{"coding":[{"system":"https://www.cms.gov/Medicare/Medicare-Fee-for-Service-Payment/HospitalAcqCond/Coding","code":"N"}]}}],"condition":{"reference":"Condition/PtAgeNot18EncounterStart-1"}},{"extension":[{"url":"http://hl7.org/fhir/us/qicore/StructureDefinition/qicore-encounter-diagnosisPresentOnAdmission","valueCodeableConcept":{"coding":[{"system":"https://www.cms.gov/Medicare/Medicare-Fee-for-Service-Payment/HospitalAcqCond/Coding","code":"N"}]}}],"condition":{"reference":"Condition/IPPFail-PtAgeNot18EncounterStart-2"}}]},"request":{"method":"PUT","url":"Encounter/e2d6555a-8114-460c-934e-267b302e8329"}},{"fullUrl":"https://madie.cms.gov/Encounter/f8b223cd-ac75-4859-8038-c5ff25587f4f","resource":{"resourceType":"Encounter","id":"f8b223cd-ac75-4859-8038-c5ff25587f4f","meta":{"profile":["http://hl7.org/fhir/us/qicore/StructureDefinition/qicore-encounter"]},"status":"finished","class":{"system":"http://terminology.hl7.org/CodeSystem/v3-ActCode","code":"IMP","display":"inpatient encounter"},"type":[{"coding":[{"system":"http://snomed.info/sct","code":"4525004"}]}],"subject":{"reference":"Patient/77178177-d553-4bf3-8c92-65382bfbee73"},"period":{"start":"2026-11-09T08:00:00+00:00","end":"2026-11-09T10:15:00+00:00"}},"request":{"method":"PUT","url":"Encounter/f8b223cd-ac75-4859-8038-c5ff25587f4f"}},{"fullUrl":"https://madie.cms.gov/Condition/6c519db1-b170-459d-a46e-56baa8c49d8a","resource":{"resourceType":"Condition","id":"6c519db1-b170-459d-a46e-56baa8c49d8a","meta":{"profile":["http://hl7.org/fhir/us/qicore/StructureDefinition/qicore-condition"]},"clinicalStatus":{"coding":[{"system":"http://terminology.hl7.org/CodeSystem/condition-clinical","code":"active"}]},"verificationStatus":{"coding":[{"system":"http://terminology.hl7.org/CodeSystem/condition-ver-status","code":"confirmed"}]},"category":[{"coding":[{"system":"http://terminology.hl7.org/CodeSystem/condition-category","code":"encounter-diagnosis","display":"Encounter Diagnosis"}]}],"code":{"coding":[{"system":"http://hl7.org/fhir/sid/icd-10-cm","code":"M80.00XA"}]},"subject":{"reference":"Patient/77178177-d553-4bf3-8c92-65382bfbee73"},"encounter":{"reference":"Encounter/e2d6555a-8114-460c-934e-267b302e8329"}},"request":{"method":"PUT","url":"Condition/6c519db1-b170-459d-a46e-56baa8c49d8a"}},{"fullUrl":"https://madie.cms.gov/Condition/1f69a606-f288-4ae1-9eb9-03462f0635ca","resource":{"resourceType":"Condition","id":"1f69a606-f288-4ae1-9eb9-03462f0635ca","meta":{"profile":["http://hl7.org/fhir/us/qicore/StructureDefinition/qicore-condition"]},"clinicalStatus":{"coding":[{"system":"http://terminology.hl7.org/CodeSystem/condition-clinical","code":"active"}]},"verificationStatus":{"coding":[{"system":"http://terminology.hl7.org/CodeSystem/condition-ver-status","code":"confirmed"}]},"category":[{"coding":[{"system":"http://terminology.hl7.org/CodeSystem/condition-category","code":"encounter-diagnosis","display":"Encounter Diagnosis"}]}],"code":{"coding":[{"system":"http://snomed.info/sct","code":"14047009"}]},"subject":{"reference":"Patient/77178177-d553-4bf3-8c92-65382bfbee73"},"encounter":{"reference":"Encounter/e2d6555a-8114-460c-934e-267b302e8329"}},"request":{"method":"PUT","url":"Condition/1f69a606-f288-4ae1-9eb9-03462f0635ca"}},{"fullUrl":"https://madie.cms.gov/Patient/77178177-d553-4bf3-8c92-65382bfbee73","resource":{"resourceType":"Patient","id":"77178177-d553-4bf3-8c92-65382bfbee73","meta":{"profile":["http://hl7.org/fhir/us/qicore/StructureDefinition/qicore-patient"]},"extension":[{"url":"http://hl7.org/fhir/us/core/StructureDefinition/us-core-race","extension":[{"url":"ombCategory","valueCoding":{"system":"urn:oid:2.16.840.1.113883.6.238","code":"2054-5","display":"Black or African American","userSelected":true}},{"url":"text","valueString":"Black or African American"}]},{"url":"http://hl7.org/fhir/us/core/StructureDefinition/us-core-ethnicity","extension":[{"url":"ombCategory","valueCoding":{"system":"urn:oid:2.16.840.1.113883.6.238","code":"2186-5","display":"Not Hispanic or Latino","userSelected":true}},{"url":"text","valueString":"Not Hispanic or Latino"}]}],"identifier":[{"type":{"coding":[{"system":"http://terminology.hl7.org/CodeSystem/v2-0203","code":"MR"}]},"system":"https://bonnie-fhir.healthit.gov/","value":"61152a3b98086b7a79cbd7c1"}],"active":true,"name":[{"use":"usual","family":"IPPFail","given":["PtAgeNot18EncounterStart"]}],"gender":"male","birthDate":"2009-11-09"},"request":{"method":"PUT","url":"Patient/77178177-d553-4bf3-8c92-65382bfbee73"}},{"fullUrl":"https://madie.cms.gov/MeasureReport/a385f006-c796-4f2e-b493-d479134aee12","resource":{"resourceType":"MeasureReport","id":"a385f006-c796-4f2e-b493-d479134aee12","meta":{"profile":["http://hl7.org/fhir/us/cqfmeasures/StructureDefinition/test-case-cqfm"]},"contained":[{"resourceType":"Parameters","id":"52f7154b-d2a7-4492-8011-ccb24deca29c-parameters","parameter":[{"name":"subject","valueString":"77178177-d553-4bf3-8c92-65382bfbee73"}]}],"extension":[{"url":"http://hl7.org/fhir/us/cqfmeasures/StructureDefinition/cqfm-inputParameters","valueReference":{"reference":"#52f7154b-d2a7-4492-8011-ccb24deca29c-parameters"}},{"url":"http://hl7.org/fhir/us/cqfmeasures/StructureDefinition/cqfm-testCaseDescription","valueMarkdown":"Encounter diagnosis includes both fall and major injury NPOA, but patient 17 at encounter start. Must be 18. IPP Fails."}],"modifierExtension":[{"url":"http://hl7.org/fhir/us/cqfmeasures/StructureDefinition/cqfm-isTestCase","valueBoolean":true}],"status":"complete","type":"individual","measure":"https://madie.cms.gov/Measure/FallsWithInjuryFHIR","period":{"start":"2026-01-01","end":"2026-12-31"},"group":[{"population":[{"code":{"coding":[{"system":"http://terminology.hl7.org/CodeSystem/measure-population","code":"initial-population","display":"Initial Population"}]},"count":0},{"code":{"coding":[{"system":"http://terminology.hl7.org/CodeSystem/measure-population","code":"denominator","display":"Denominator"}]},"count":0},{"code":{"coding":[{"system":"http://terminology.hl7.org/CodeSystem/measure-population","code":"denominator-exclusion","display":"Denominator Exclusion"}]},"count":0},{"code":{"coding":[{"system":"http://terminology.hl7.org/CodeSystem/measure-population","code":"numerator","display":"Numerator"}]},"count":0},{"code":{"coding":[{"system":"http://terminology.hl7.org/CodeSystem/measure-population","code":"numerator-exclusion","display":"Numerator Exclusion"}]},"count":0}]}]},"request":{"method":"PUT","url":"MeasureReport/a385f006-c796-4f2e-b493-d479134aee12"}}]}