{"resourceType":"Bundle","id":"tests-8f14c048-8704-47c6-8579-cc73c206ae96-bundle","type":"transaction","entry":[{"fullUrl":"https://madie.cms.gov/Encounter/64988a47-df1c-4e02-a7e6-72d1e17dac24","resource":{"resourceType":"Encounter","id":"64988a47-df1c-4e02-a7e6-72d1e17dac24","meta":{"profile":["http://hl7.org/fhir/us/qicore/StructureDefinition/qicore-encounter"]},"status":"finished","class":{"system":"http://terminology.hl7.org/CodeSystem/v3-ActCode","code":"IMP","display":"inpatient encounter"},"type":[{"coding":[{"system":"http://snomed.info/sct","code":"183452005"}]}],"subject":{"reference":"Patient/8f14c048-8704-47c6-8579-cc73c206ae96"},"period":{"start":"2026-11-10T11:00:00+00:00","end":"2026-11-14T08:15:00+00:00"},"diagnosis":[{"extension":[{"url":"http://hl7.org/fhir/us/qicore/StructureDefinition/qicore-encounter-diagnosisPresentOnAdmission","valueCodeableConcept":{"coding":[{"system":"https://www.cms.gov/Medicare/Medicare-Fee-for-Service-Payment/HospitalAcqCond/Coding","code":"N"}]}}],"condition":{"reference":"Condition/11e651e3-a6fb-4dd2-8990-4980f07e957e"}}]},"request":{"method":"PUT","url":"Encounter/64988a47-df1c-4e02-a7e6-72d1e17dac24"}},{"fullUrl":"https://madie.cms.gov/Encounter/7f98829a-5bd4-472f-a0bc-a3fd4e4a6ebe","resource":{"resourceType":"Encounter","id":"7f98829a-5bd4-472f-a0bc-a3fd4e4a6ebe","meta":{"profile":["http://hl7.org/fhir/us/qicore/StructureDefinition/qicore-encounter"]},"status":"finished","class":{"system":"http://terminology.hl7.org/CodeSystem/v3-ActCode","code":"IMP","display":"inpatient encounter"},"type":[{"coding":[{"system":"http://snomed.info/sct","code":"4525004"}]}],"subject":{"reference":"Patient/8f14c048-8704-47c6-8579-cc73c206ae96"},"period":{"start":"2026-11-09T08:00:00+00:00","end":"2026-11-10T10:15:00+00:00"}},"request":{"method":"PUT","url":"Encounter/7f98829a-5bd4-472f-a0bc-a3fd4e4a6ebe"}},{"fullUrl":"https://madie.cms.gov/Condition/11e651e3-a6fb-4dd2-8990-4980f07e957e","resource":{"resourceType":"Condition","id":"11e651e3-a6fb-4dd2-8990-4980f07e957e","meta":{"profile":["http://hl7.org/fhir/us/qicore/StructureDefinition/qicore-condition"]},"clinicalStatus":{"coding":[{"system":"http://terminology.hl7.org/CodeSystem/condition-clinical","code":"active"}]},"verificationStatus":{"coding":[{"system":"http://terminology.hl7.org/CodeSystem/condition-ver-status","code":"confirmed"}]},"category":[{"coding":[{"system":"http://terminology.hl7.org/CodeSystem/condition-category","code":"encounter-diagnosis","display":"Encounter Diagnosis"}]}],"code":{"coding":[{"system":"http://hl7.org/fhir/sid/icd-10-cm","code":"M80.00XA"}]},"subject":{"reference":"Patient/8f14c048-8704-47c6-8579-cc73c206ae96"},"encounter":{"reference":"Encounter/64988a47-df1c-4e02-a7e6-72d1e17dac24"}},"request":{"method":"PUT","url":"Condition/11e651e3-a6fb-4dd2-8990-4980f07e957e"}},{"fullUrl":"https://madie.cms.gov/Patient/8f14c048-8704-47c6-8579-cc73c206ae96","resource":{"resourceType":"Patient","id":"8f14c048-8704-47c6-8579-cc73c206ae96","meta":{"profile":["http://hl7.org/fhir/us/qicore/StructureDefinition/qicore-patient"]},"extension":[{"url":"http://hl7.org/fhir/us/core/StructureDefinition/us-core-race","extension":[{"url":"ombCategory","valueCoding":{"system":"urn:oid:2.16.840.1.113883.6.238","code":"2054-5","display":"Black or African American","userSelected":true}},{"url":"text","valueString":"Black or African American"}]},{"url":"http://hl7.org/fhir/us/core/StructureDefinition/us-core-ethnicity","extension":[{"url":"ombCategory","valueCoding":{"system":"urn:oid:2.16.840.1.113883.6.238","code":"2186-5","display":"Not Hispanic or Latino","userSelected":true}},{"url":"text","valueString":"Not Hispanic or Latino"}]}],"identifier":[{"type":{"coding":[{"system":"http://terminology.hl7.org/CodeSystem/v2-0203","code":"MR"}]},"system":"https://bonnie-fhir.healthit.gov/","value":"61152a3b98086b7a79cbd7c1"}],"active":true,"name":[{"use":"usual","family":"NUMERPass","given":["AdverseEventFallinED"]}],"gender":"male","birthDate":"1964-12-11"},"request":{"method":"PUT","url":"Patient/8f14c048-8704-47c6-8579-cc73c206ae96"}},{"fullUrl":"https://madie.cms.gov/AdverseEvent/184a1fb3-b311-4c12-8b3c-93920527664f","resource":{"resourceType":"AdverseEvent","id":"184a1fb3-b311-4c12-8b3c-93920527664f","meta":{"profile":["http://hl7.org/fhir/us/qicore/StructureDefinition/qicore-adverseevent"]},"actuality":"actual","event":{"coding":[{"system":"http://hl7.org/fhir/sid/icd-10-cm","code":"W01.0XXA"}]},"subject":{"reference":"Patient/8f14c048-8704-47c6-8579-cc73c206ae96"},"date":"2026-11-09T10:00:00+00:00"},"request":{"method":"PUT","url":"AdverseEvent/184a1fb3-b311-4c12-8b3c-93920527664f"}},{"fullUrl":"https://madie.cms.gov/MeasureReport/f30092ed-dc1e-4940-9924-5753a98c319e","resource":{"resourceType":"MeasureReport","id":"f30092ed-dc1e-4940-9924-5753a98c319e","meta":{"profile":["http://hl7.org/fhir/us/cqfmeasures/StructureDefinition/test-case-cqfm"]},"contained":[{"resourceType":"Parameters","id":"4763302a-2b41-48d1-924c-8c4e60a60232-parameters","parameter":[{"name":"subject","valueString":"8f14c048-8704-47c6-8579-cc73c206ae96"}]}],"extension":[{"url":"http://hl7.org/fhir/us/cqfmeasures/StructureDefinition/cqfm-inputParameters","valueReference":{"reference":"#4763302a-2b41-48d1-924c-8c4e60a60232-parameters"}},{"url":"http://hl7.org/fhir/us/cqfmeasures/StructureDefinition/cqfm-testCaseDescription","valueMarkdown":"Encounter with adverse event fall during ED part of encounter,  and encounter dx of injury NPOA. Meets numerator"}],"modifierExtension":[{"url":"http://hl7.org/fhir/us/cqfmeasures/StructureDefinition/cqfm-isTestCase","valueBoolean":true}],"status":"complete","type":"individual","measure":"https://madie.cms.gov/Measure/FallsWithInjuryFHIR","period":{"start":"2026-01-01","end":"2026-12-31"},"group":[{"population":[{"code":{"coding":[{"system":"http://terminology.hl7.org/CodeSystem/measure-population","code":"initial-population","display":"Initial Population"}]},"count":1},{"code":{"coding":[{"system":"http://terminology.hl7.org/CodeSystem/measure-population","code":"denominator","display":"Denominator"}]},"count":1},{"code":{"coding":[{"system":"http://terminology.hl7.org/CodeSystem/measure-population","code":"denominator-exclusion","display":"Denominator Exclusion"}]},"count":0},{"code":{"coding":[{"system":"http://terminology.hl7.org/CodeSystem/measure-population","code":"numerator","display":"Numerator"}]},"count":1},{"code":{"coding":[{"system":"http://terminology.hl7.org/CodeSystem/measure-population","code":"numerator-exclusion","display":"Numerator Exclusion"}]},"count":0},{"code":{"coding":[{"system":"http://terminology.hl7.org/CodeSystem/measure-population","code":"denominator-observation","display":"DenominatorObservation"}]},"count":5},{"code":{"coding":[{"system":"http://terminology.hl7.org/CodeSystem/measure-population","code":"numerator-observation","display":"Numerator Observation"}]},"count":1}]}]},"request":{"method":"PUT","url":"MeasureReport/f30092ed-dc1e-4940-9924-5753a98c319e"}}]}