{"resourceType":"Bundle","id":"tests-4d82afdc-16a1-4f82-849f-10ed8bf9d9a0-bundle","type":"transaction","entry":[{"fullUrl":"https://madie.cms.gov/Encounter/031664a9-bc74-4f8a-bd36-fc2c1fe684d3","resource":{"resourceType":"Encounter","id":"031664a9-bc74-4f8a-bd36-fc2c1fe684d3","meta":{"profile":["http://hl7.org/fhir/us/qicore/StructureDefinition/qicore-encounter"]},"status":"finished","class":{"system":"http://terminology.hl7.org/CodeSystem/v3-ActCode","code":"IMP","display":"inpatient encounter"},"type":[{"coding":[{"system":"http://snomed.info/sct","code":"183452005"}]}],"subject":{"reference":"Patient/4d82afdc-16a1-4f82-849f-10ed8bf9d9a0"},"period":{"start":"2026-11-09T11:00:00+00:00","end":"2026-11-12T08:15:00+00:00"},"diagnosis":[{"extension":[{"url":"http://hl7.org/fhir/us/qicore/StructureDefinition/qicore-encounter-diagnosisPresentOnAdmission","valueCodeableConcept":{"coding":[{"system":"https://www.cms.gov/Medicare/Medicare-Fee-for-Service-Payment/HospitalAcqCond/Coding","code":"Y"}]}}],"condition":{"reference":"Condition/04dcb248-b0a2-4edd-a8ae-a490c17508e4"}},{"extension":[{"url":"http://hl7.org/fhir/us/qicore/StructureDefinition/qicore-encounter-diagnosisPresentOnAdmission","valueCodeableConcept":{"coding":[{"system":"https://www.cms.gov/Medicare/Medicare-Fee-for-Service-Payment/HospitalAcqCond/Coding","code":"N"}]}}],"condition":{"reference":"Condition/de937f6a-3853-4554-af2b-2f62c3ee57d4"}}]},"request":{"method":"PUT","url":"Encounter/031664a9-bc74-4f8a-bd36-fc2c1fe684d3"}},{"fullUrl":"https://madie.cms.gov/Encounter/ed37a6f9-82ce-4c15-8fdf-135938f92c5e","resource":{"resourceType":"Encounter","id":"ed37a6f9-82ce-4c15-8fdf-135938f92c5e","meta":{"profile":["http://hl7.org/fhir/us/qicore/StructureDefinition/qicore-encounter"]},"status":"finished","class":{"system":"http://terminology.hl7.org/CodeSystem/v3-ActCode","code":"IMP","display":"inpatient encounter"},"type":[{"coding":[{"system":"http://snomed.info/sct","code":"4525004"}]}],"subject":{"reference":"Patient/4d82afdc-16a1-4f82-849f-10ed8bf9d9a0"},"period":{"start":"2026-11-09T08:00:00+00:00","end":"2026-11-09T10:15:00+00:00"}},"request":{"method":"PUT","url":"Encounter/ed37a6f9-82ce-4c15-8fdf-135938f92c5e"}},{"fullUrl":"https://madie.cms.gov/Condition/de937f6a-3853-4554-af2b-2f62c3ee57d4","resource":{"resourceType":"Condition","id":"de937f6a-3853-4554-af2b-2f62c3ee57d4","meta":{"profile":["http://hl7.org/fhir/us/qicore/StructureDefinition/qicore-condition"]},"clinicalStatus":{"coding":[{"system":"http://terminology.hl7.org/CodeSystem/condition-clinical","code":"active"}]},"verificationStatus":{"coding":[{"system":"http://terminology.hl7.org/CodeSystem/condition-ver-status","code":"confirmed"}]},"category":[{"coding":[{"system":"http://terminology.hl7.org/CodeSystem/condition-category","code":"encounter-diagnosis","display":"Encounter Diagnosis"}]}],"code":{"coding":[{"system":"http://hl7.org/fhir/sid/icd-10-cm","code":"S01.00XA"}]},"subject":{"reference":"Patient/4d82afdc-16a1-4f82-849f-10ed8bf9d9a0"},"encounter":{"reference":"Encounter/031664a9-bc74-4f8a-bd36-fc2c1fe684d3"}},"request":{"method":"PUT","url":"Condition/de937f6a-3853-4554-af2b-2f62c3ee57d4"}},{"fullUrl":"https://madie.cms.gov/Condition/04dcb248-b0a2-4edd-a8ae-a490c17508e4","resource":{"resourceType":"Condition","id":"04dcb248-b0a2-4edd-a8ae-a490c17508e4","meta":{"profile":["http://hl7.org/fhir/us/qicore/StructureDefinition/qicore-condition"]},"clinicalStatus":{"coding":[{"system":"http://terminology.hl7.org/CodeSystem/condition-clinical","code":"active"}]},"verificationStatus":{"coding":[{"system":"http://terminology.hl7.org/CodeSystem/condition-ver-status","code":"confirmed"}]},"category":[{"coding":[{"system":"http://terminology.hl7.org/CodeSystem/condition-category","code":"encounter-diagnosis","display":"Encounter Diagnosis"}]}],"code":{"coding":[{"system":"http://hl7.org/fhir/sid/icd-10-cm","code":"W08.XXXA"}]},"subject":{"reference":"Patient/4d82afdc-16a1-4f82-849f-10ed8bf9d9a0"},"encounter":{"reference":"Encounter/031664a9-bc74-4f8a-bd36-fc2c1fe684d3"}},"request":{"method":"PUT","url":"Condition/04dcb248-b0a2-4edd-a8ae-a490c17508e4"}},{"fullUrl":"https://madie.cms.gov/Patient/4d82afdc-16a1-4f82-849f-10ed8bf9d9a0","resource":{"resourceType":"Patient","id":"4d82afdc-16a1-4f82-849f-10ed8bf9d9a0","meta":{"profile":["http://hl7.org/fhir/us/qicore/StructureDefinition/qicore-patient"]},"extension":[{"url":"http://hl7.org/fhir/us/core/StructureDefinition/us-core-race","extension":[{"url":"ombCategory","valueCoding":{"system":"urn:oid:2.16.840.1.113883.6.238","code":"2054-5","display":"Black or African American","userSelected":true}},{"url":"text","valueString":"Black or African American"}]},{"url":"http://hl7.org/fhir/us/core/StructureDefinition/us-core-ethnicity","extension":[{"url":"ombCategory","valueCoding":{"system":"urn:oid:2.16.840.1.113883.6.238","code":"2186-5","display":"Not Hispanic or Latino","userSelected":true}},{"url":"text","valueString":"Not Hispanic or Latino"}]}],"identifier":[{"type":{"coding":[{"system":"http://terminology.hl7.org/CodeSystem/v2-0203","code":"MR"}]},"system":"https://bonnie-fhir.healthit.gov/","value":"61152a3b98086b7a79cbd7c1"}],"active":true,"name":[{"use":"usual","family":"OBSERVFail","given":["BothMOsFailDueToFallPOA"]}],"gender":"male","birthDate":"1964-12-11"},"request":{"method":"PUT","url":"Patient/4d82afdc-16a1-4f82-849f-10ed8bf9d9a0"}},{"fullUrl":"https://madie.cms.gov/MeasureReport/ccd5a337-2cdf-43e7-baac-b4a21ba20934","resource":{"resourceType":"MeasureReport","id":"ccd5a337-2cdf-43e7-baac-b4a21ba20934","meta":{"profile":["http://hl7.org/fhir/us/cqfmeasures/StructureDefinition/test-case-cqfm"]},"contained":[{"resourceType":"Parameters","id":"f93c7bbd-955c-4185-904a-f25e909c54ed-parameters","parameter":[{"name":"subject","valueString":"4d82afdc-16a1-4f82-849f-10ed8bf9d9a0"}]}],"extension":[{"url":"http://hl7.org/fhir/us/cqfmeasures/StructureDefinition/cqfm-inputParameters","valueReference":{"reference":"#f93c7bbd-955c-4185-904a-f25e909c54ed-parameters"}},{"url":"http://hl7.org/fhir/us/cqfmeasures/StructureDefinition/cqfm-testCaseDescription","valueMarkdown":"Encounter diagnoses include: Fall POA and Moderate injury NPOA. Fall POA meets Denominator and Numerator Exclusion so both Measure Observations are not counted."}],"modifierExtension":[{"url":"http://hl7.org/fhir/us/cqfmeasures/StructureDefinition/cqfm-isTestCase","valueBoolean":true}],"status":"complete","type":"individual","measure":"https://madie.cms.gov/Measure/FallsWithInjuryFHIR","period":{"start":"2026-01-01","end":"2026-12-31"},"group":[{"population":[{"code":{"coding":[{"system":"http://terminology.hl7.org/CodeSystem/measure-population","code":"initial-population","display":"Initial Population"}]},"count":1},{"code":{"coding":[{"system":"http://terminology.hl7.org/CodeSystem/measure-population","code":"denominator","display":"Denominator"}]},"count":1},{"code":{"coding":[{"system":"http://terminology.hl7.org/CodeSystem/measure-population","code":"denominator-exclusion","display":"Denominator Exclusion"}]},"count":1},{"code":{"coding":[{"system":"http://terminology.hl7.org/CodeSystem/measure-population","code":"numerator","display":"Numerator"}]},"count":0},{"code":{"coding":[{"system":"http://terminology.hl7.org/CodeSystem/measure-population","code":"numerator-exclusion","display":"Numerator Exclusion"}]},"count":1}]}]},"request":{"method":"PUT","url":"MeasureReport/ccd5a337-2cdf-43e7-baac-b4a21ba20934"}}]}