{"resourceType":"Bundle","id":"tests-814eb904-2889-4c31-9dfe-5b682eb473a4-bundle","type":"transaction","entry":[{"fullUrl":"https://madie.cms.gov/Encounter/60cfba06-27c8-48e0-a776-31df9af5212e","resource":{"resourceType":"Encounter","id":"60cfba06-27c8-48e0-a776-31df9af5212e","meta":{"profile":["http://hl7.org/fhir/us/qicore/StructureDefinition/qicore-encounter"]},"status":"finished","class":{"system":"http://terminology.hl7.org/CodeSystem/v3-ActCode","code":"IMP","display":"inpatient encounter"},"type":[{"coding":[{"system":"http://snomed.info/sct","code":"183452005"}]}],"subject":{"reference":"Patient/814eb904-2889-4c31-9dfe-5b682eb473a4"},"period":{"start":"2026-11-09T11:00:00+00:00","end":"2027-01-04T08:15:00+00:00"},"diagnosis":[{"extension":[{"url":"http://hl7.org/fhir/us/qicore/StructureDefinition/qicore-encounter-diagnosisPresentOnAdmission","valueCodeableConcept":{"coding":[{"system":"https://www.cms.gov/Medicare/Medicare-Fee-for-Service-Payment/HospitalAcqCond/Coding","code":"N"}]}}],"condition":{"reference":"Condition/IPPFail-DischargeAfterMeasurePeriod-1"}},{"extension":[{"url":"http://hl7.org/fhir/us/qicore/StructureDefinition/qicore-encounter-diagnosisPresentOnAdmission","valueCodeableConcept":{"coding":[{"system":"https://www.cms.gov/Medicare/Medicare-Fee-for-Service-Payment/HospitalAcqCond/Coding","code":"N"}]}}],"condition":{"reference":"Condition/IPPFail-DischargeAfterMeasurePeriod-2"}}]},"request":{"method":"PUT","url":"Encounter/60cfba06-27c8-48e0-a776-31df9af5212e"}},{"fullUrl":"https://madie.cms.gov/Encounter/f025f027-d81c-4fe0-88b9-1ccf95ff85ec","resource":{"resourceType":"Encounter","id":"f025f027-d81c-4fe0-88b9-1ccf95ff85ec","meta":{"profile":["http://hl7.org/fhir/us/qicore/StructureDefinition/qicore-encounter"]},"status":"finished","class":{"system":"http://terminology.hl7.org/CodeSystem/v3-ActCode","code":"IMP","display":"inpatient encounter"},"type":[{"coding":[{"system":"http://snomed.info/sct","code":"4525004"}]}],"subject":{"reference":"Patient/814eb904-2889-4c31-9dfe-5b682eb473a4"},"period":{"start":"2026-11-09T08:00:00+00:00","end":"2026-11-09T10:15:00+00:00"}},"request":{"method":"PUT","url":"Encounter/f025f027-d81c-4fe0-88b9-1ccf95ff85ec"}},{"fullUrl":"https://madie.cms.gov/Condition/3d79e37a-1f3f-4a63-b1a8-b842ec1831a4","resource":{"resourceType":"Condition","id":"3d79e37a-1f3f-4a63-b1a8-b842ec1831a4","meta":{"profile":["http://hl7.org/fhir/us/qicore/StructureDefinition/qicore-condition"]},"clinicalStatus":{"coding":[{"system":"http://terminology.hl7.org/CodeSystem/condition-clinical","code":"active"}]},"verificationStatus":{"coding":[{"system":"http://terminology.hl7.org/CodeSystem/condition-ver-status","code":"confirmed"}]},"category":[{"coding":[{"system":"http://terminology.hl7.org/CodeSystem/condition-category","code":"encounter-diagnosis","display":"Encounter Diagnosis"}]}],"code":{"coding":[{"system":"http://hl7.org/fhir/sid/icd-10-sm","code":"S01.00XA"}]},"subject":{"reference":"Patient/814eb904-2889-4c31-9dfe-5b682eb473a4"},"encounter":{"reference":"Encounter/60cfba06-27c8-48e0-a776-31df9af5212e"}},"request":{"method":"PUT","url":"Condition/3d79e37a-1f3f-4a63-b1a8-b842ec1831a4"}},{"fullUrl":"https://madie.cms.gov/Condition/6317be86-39e8-4d47-a4bf-0034e3228fed","resource":{"resourceType":"Condition","id":"6317be86-39e8-4d47-a4bf-0034e3228fed","meta":{"profile":["http://hl7.org/fhir/us/qicore/StructureDefinition/qicore-condition"]},"clinicalStatus":{"coding":[{"system":"http://terminology.hl7.org/CodeSystem/condition-clinical","code":"active"}]},"verificationStatus":{"coding":[{"system":"http://terminology.hl7.org/CodeSystem/condition-ver-status","code":"confirmed"}]},"category":[{"coding":[{"system":"http://terminology.hl7.org/CodeSystem/condition-category","code":"encounter-diagnosis","display":"Encounter Diagnosis"}]}],"code":{"coding":[{"system":"http://snomed.info/sct","code":"14047009"}]},"subject":{"reference":"Patient/814eb904-2889-4c31-9dfe-5b682eb473a4"},"encounter":{"reference":"Encounter/60cfba06-27c8-48e0-a776-31df9af5212e"}},"request":{"method":"PUT","url":"Condition/6317be86-39e8-4d47-a4bf-0034e3228fed"}},{"fullUrl":"https://madie.cms.gov/Patient/814eb904-2889-4c31-9dfe-5b682eb473a4","resource":{"resourceType":"Patient","id":"814eb904-2889-4c31-9dfe-5b682eb473a4","meta":{"profile":["http://hl7.org/fhir/us/qicore/StructureDefinition/qicore-patient"]},"extension":[{"url":"http://hl7.org/fhir/us/core/StructureDefinition/us-core-race","extension":[{"url":"ombCategory","valueCoding":{"system":"urn:oid:2.16.840.1.113883.6.238","code":"2054-5","display":"Black or African American","userSelected":true}},{"url":"text","valueString":"Black or African American"}]},{"url":"http://hl7.org/fhir/us/core/StructureDefinition/us-core-ethnicity","extension":[{"url":"ombCategory","valueCoding":{"system":"urn:oid:2.16.840.1.113883.6.238","code":"2186-5","display":"Not Hispanic or Latino","userSelected":true}},{"url":"text","valueString":"Not Hispanic or Latino"}]}],"identifier":[{"type":{"coding":[{"system":"http://terminology.hl7.org/CodeSystem/v2-0203","code":"MR"}]},"system":"https://bonnie-fhir.healthit.gov/","value":"61152a3b98086b7a79cbd7c1"}],"active":true,"name":[{"use":"usual","family":"IPPFail","given":["Enc1FallPOAEnc2FallNPOAAndInjuryNPOA"]}],"gender":"male","birthDate":"1994-11-30"},"request":{"method":"PUT","url":"Patient/814eb904-2889-4c31-9dfe-5b682eb473a4"}},{"fullUrl":"https://madie.cms.gov/MeasureReport/5d07d8ff-10ce-4b42-a419-e39eadedf360","resource":{"resourceType":"MeasureReport","id":"5d07d8ff-10ce-4b42-a419-e39eadedf360","meta":{"profile":["http://hl7.org/fhir/us/cqfmeasures/StructureDefinition/test-case-cqfm"]},"contained":[{"resourceType":"Parameters","id":"ddabe51b-c08a-41e5-9a75-7d89d612881c-parameters","parameter":[{"name":"subject","valueString":"814eb904-2889-4c31-9dfe-5b682eb473a4"}]}],"extension":[{"url":"http://hl7.org/fhir/us/cqfmeasures/StructureDefinition/cqfm-inputParameters","valueReference":{"reference":"#ddabe51b-c08a-41e5-9a75-7d89d612881c-parameters"}},{"url":"http://hl7.org/fhir/us/cqfmeasures/StructureDefinition/cqfm-testCaseDescription","valueMarkdown":"Encounter diagnosis includes both fall and major injury NPOA, but encounter ends 4 days after measurement period ends. IPP Fails."}],"modifierExtension":[{"url":"http://hl7.org/fhir/us/cqfmeasures/StructureDefinition/cqfm-isTestCase","valueBoolean":true}],"status":"complete","type":"individual","measure":"https://madie.cms.gov/Measure/FallsWithInjuryFHIR","period":{"start":"2026-01-01","end":"2026-12-31"},"group":[{"population":[{"code":{"coding":[{"system":"http://terminology.hl7.org/CodeSystem/measure-population","code":"initial-population","display":"Initial Population"}]},"count":0},{"code":{"coding":[{"system":"http://terminology.hl7.org/CodeSystem/measure-population","code":"denominator","display":"Denominator"}]},"count":0},{"code":{"coding":[{"system":"http://terminology.hl7.org/CodeSystem/measure-population","code":"denominator-exclusion","display":"Denominator Exclusion"}]},"count":0},{"code":{"coding":[{"system":"http://terminology.hl7.org/CodeSystem/measure-population","code":"numerator","display":"Numerator"}]},"count":0},{"code":{"coding":[{"system":"http://terminology.hl7.org/CodeSystem/measure-population","code":"numerator-exclusion","display":"Numerator Exclusion"}]},"count":0}]}]},"request":{"method":"PUT","url":"MeasureReport/5d07d8ff-10ce-4b42-a419-e39eadedf360"}}]}