{"resourceType":"Bundle","id":"tests-972573e8-bd51-4b77-a954-39babec1a055-bundle","type":"transaction","entry":[{"fullUrl":"https://madie.cms.gov/Encounter/fa616a36-604f-4ad5-84fb-f6b5e357cf77","resource":{"resourceType":"Encounter","id":"fa616a36-604f-4ad5-84fb-f6b5e357cf77","meta":{"profile":["http://hl7.org/fhir/us/qicore/StructureDefinition/qicore-encounter"]},"status":"finished","class":{"system":"http://terminology.hl7.org/CodeSystem/v3-ActCode","code":"IMP","display":"inpatient encounter"},"type":[{"coding":[{"system":"http://snomed.info/sct","code":"183452005"}]}],"subject":{"reference":"Patient/972573e8-bd51-4b77-a954-39babec1a055"},"period":{"start":"2026-11-09T11:00:00+00:00","end":"2026-11-12T08:15:00+00:00"},"diagnosis":[{"extension":[{"url":"http://hl7.org/fhir/us/qicore/StructureDefinition/qicore-encounter-diagnosisPresentOnAdmission","valueCodeableConcept":{"coding":[{"system":"https://www.cms.gov/Medicare/Medicare-Fee-for-Service-Payment/HospitalAcqCond/Coding","code":"N"}]}}],"condition":{"reference":"Condition/a529c687-3507-4658-aabd-aecf8ee6785d"}},{"extension":[{"url":"http://hl7.org/fhir/us/qicore/StructureDefinition/qicore-encounter-diagnosisPresentOnAdmission","valueCodeableConcept":{"coding":[{"system":"https://www.cms.gov/Medicare/Medicare-Fee-for-Service-Payment/HospitalAcqCond/Coding","code":"W"}]}}],"condition":{"reference":"Condition/568aae03-24b1-4f6e-ace5-6d59f03aef32"}}]},"request":{"method":"PUT","url":"Encounter/fa616a36-604f-4ad5-84fb-f6b5e357cf77"}},{"fullUrl":"https://madie.cms.gov/Encounter/e69c76bd-cb68-4fba-8785-a29959476044","resource":{"resourceType":"Encounter","id":"e69c76bd-cb68-4fba-8785-a29959476044","meta":{"profile":["http://hl7.org/fhir/us/qicore/StructureDefinition/qicore-encounter"]},"status":"finished","class":{"system":"http://terminology.hl7.org/CodeSystem/v3-ActCode","code":"IMP","display":"inpatient encounter"},"type":[{"coding":[{"system":"http://snomed.info/sct","code":"4525004"}]}],"subject":{"reference":"Patient/972573e8-bd51-4b77-a954-39babec1a055"},"period":{"start":"2026-11-09T08:00:00+00:00","end":"2026-11-09T10:15:00+00:00"}},"request":{"method":"PUT","url":"Encounter/e69c76bd-cb68-4fba-8785-a29959476044"}},{"fullUrl":"https://madie.cms.gov/Condition/568aae03-24b1-4f6e-ace5-6d59f03aef32","resource":{"resourceType":"Condition","id":"568aae03-24b1-4f6e-ace5-6d59f03aef32","meta":{"profile":["http://hl7.org/fhir/us/qicore/StructureDefinition/qicore-condition"]},"clinicalStatus":{"coding":[{"system":"http://terminology.hl7.org/CodeSystem/condition-clinical","code":"active"}]},"verificationStatus":{"coding":[{"system":"http://terminology.hl7.org/CodeSystem/condition-ver-status","code":"confirmed"}]},"category":[{"coding":[{"system":"http://terminology.hl7.org/CodeSystem/condition-category","code":"encounter-diagnosis","display":"Encounter Diagnosis"}]}],"code":{"coding":[{"system":"http://hl7.org/fhir/sid/icd-10-cm","code":"M80.00XA"}]},"subject":{"reference":"Patient/972573e8-bd51-4b77-a954-39babec1a055"},"encounter":{"reference":"Encounter/fa616a36-604f-4ad5-84fb-f6b5e357cf77"}},"request":{"method":"PUT","url":"Condition/568aae03-24b1-4f6e-ace5-6d59f03aef32"}},{"fullUrl":"https://madie.cms.gov/Condition/a529c687-3507-4658-aabd-aecf8ee6785d","resource":{"resourceType":"Condition","id":"a529c687-3507-4658-aabd-aecf8ee6785d","meta":{"profile":["http://hl7.org/fhir/us/qicore/StructureDefinition/qicore-condition"]},"clinicalStatus":{"coding":[{"system":"http://terminology.hl7.org/CodeSystem/condition-clinical","code":"active"}]},"verificationStatus":{"coding":[{"system":"http://terminology.hl7.org/CodeSystem/condition-ver-status","code":"confirmed"}]},"category":[{"coding":[{"system":"http://terminology.hl7.org/CodeSystem/condition-category","code":"encounter-diagnosis","display":"Encounter Diagnosis"}]}],"code":{"coding":[{"system":"http://hl7.org/fhir/sid/icd-10-cm","code":"M80.00XA"}]},"subject":{"reference":"Patient/972573e8-bd51-4b77-a954-39babec1a055"},"encounter":{"reference":"Encounter/fa616a36-604f-4ad5-84fb-f6b5e357cf77"}},"request":{"method":"PUT","url":"Condition/a529c687-3507-4658-aabd-aecf8ee6785d"}},{"fullUrl":"https://madie.cms.gov/Patient/972573e8-bd51-4b77-a954-39babec1a055","resource":{"resourceType":"Patient","id":"972573e8-bd51-4b77-a954-39babec1a055","meta":{"profile":["http://hl7.org/fhir/us/qicore/StructureDefinition/qicore-patient"]},"extension":[{"url":"http://hl7.org/fhir/us/core/StructureDefinition/us-core-race","extension":[{"url":"ombCategory","valueCoding":{"system":"urn:oid:2.16.840.1.113883.6.238","code":"1002-5","display":"American Indian or Alaska Native","userSelected":true}},{"url":"text","valueString":"American Indian or Alaska Native"}]},{"url":"http://hl7.org/fhir/us/core/StructureDefinition/us-core-ethnicity","extension":[{"url":"ombCategory","valueCoding":{"system":"urn:oid:2.16.840.1.113883.6.238","code":"2135-2","display":"Hispanic or Latino","userSelected":true}},{"url":"text","valueString":"Hispanic or Latino"}]}],"identifier":[{"type":{"coding":[{"system":"http://terminology.hl7.org/CodeSystem/v2-0203","code":"MR"}]},"system":"https://bonnie-fhir.healthit.gov/","value":"61152a3b98086b7a79cbd7c1"}],"active":true,"name":[{"use":"usual","family":"DENEXFail","given":["MajorInjuryPOAandNPOA"]}],"gender":"female","birthDate":"1964-12-11"},"request":{"method":"PUT","url":"Patient/972573e8-bd51-4b77-a954-39babec1a055"}},{"fullUrl":"https://madie.cms.gov/AdverseEvent/7e3dfbc0-939c-402e-8894-98e65fad600f","resource":{"resourceType":"AdverseEvent","id":"7e3dfbc0-939c-402e-8894-98e65fad600f","meta":{"profile":["http://hl7.org/fhir/us/qicore/StructureDefinition/qicore-adverseevent"]},"actuality":"actual","event":{"coding":[{"system":"http://hl7.org/fhir/sid/icd-10-cm","code":"W01.0XXA","display":"Fall on same level from slipping, tripping, and stumbling, initial encounter"}]},"subject":{"reference":"Patient/972573e8-bd51-4b77-a954-39babec1a055"},"encounter":{"reference":"Encounter/fa616a36-604f-4ad5-84fb-f6b5e357cf77"},"date":"2026-11-10T08:00:00+00:00"},"request":{"method":"PUT","url":"AdverseEvent/7e3dfbc0-939c-402e-8894-98e65fad600f"}},{"fullUrl":"https://madie.cms.gov/MeasureReport/23acec09-e792-4afa-8bca-8bb007272013","resource":{"resourceType":"MeasureReport","id":"23acec09-e792-4afa-8bca-8bb007272013","meta":{"profile":["http://hl7.org/fhir/us/cqfmeasures/StructureDefinition/test-case-cqfm"]},"contained":[{"resourceType":"Parameters","id":"ff37bb37-2b64-49bd-b51f-5e0141041242-parameters","parameter":[{"name":"subject","valueString":"972573e8-bd51-4b77-a954-39babec1a055"}]}],"extension":[{"url":"http://hl7.org/fhir/us/cqfmeasures/StructureDefinition/cqfm-inputParameters","valueReference":{"reference":"#ff37bb37-2b64-49bd-b51f-5e0141041242-parameters"}},{"url":"http://hl7.org/fhir/us/cqfmeasures/StructureDefinition/cqfm-testCaseDescription","valueMarkdown":"Encounter with a major injury POA. Also has another maj injury NPOA. Had adverse event fall during encounter. Major Inj POA doesn't cause exclusion since there was another major injury NPOA with a fall to meet denom and numerator. DENEX fails."}],"modifierExtension":[{"url":"http://hl7.org/fhir/us/cqfmeasures/StructureDefinition/cqfm-isTestCase","valueBoolean":true}],"status":"complete","type":"individual","measure":"https://madie.cms.gov/Measure/FallsWithInjuryFHIR","period":{"start":"2026-01-01","end":"2026-12-31"},"group":[{"population":[{"code":{"coding":[{"system":"http://terminology.hl7.org/CodeSystem/measure-population","code":"initial-population","display":"Initial Population"}]},"count":1},{"code":{"coding":[{"system":"http://terminology.hl7.org/CodeSystem/measure-population","code":"denominator","display":"Denominator"}]},"count":1},{"code":{"coding":[{"system":"http://terminology.hl7.org/CodeSystem/measure-population","code":"denominator-exclusion","display":"Denominator Exclusion"}]},"count":0},{"code":{"coding":[{"system":"http://terminology.hl7.org/CodeSystem/measure-population","code":"numerator","display":"Numerator"}]},"count":1},{"code":{"coding":[{"system":"http://terminology.hl7.org/CodeSystem/measure-population","code":"numerator-exclusion","display":"Numerator Exclusion"}]},"count":0},{"code":{"coding":[{"system":"http://terminology.hl7.org/CodeSystem/measure-population","code":"denominator-observation","display":"DenominatorObservation"}]},"count":3},{"code":{"coding":[{"system":"http://terminology.hl7.org/CodeSystem/measure-population","code":"numerator-observation","display":"Numerator Observation"}]},"count":1}]}]},"request":{"method":"PUT","url":"MeasureReport/23acec09-e792-4afa-8bca-8bb007272013"}}]}