{"resourceType":"Bundle","id":"tests-5ff2713d-ca89-42ae-91bb-cba3e1d9a487-bundle","type":"transaction","entry":[{"fullUrl":"https://madie.cms.gov/Encounter/5ea7d945-82ad-4b23-858a-f1a34d82366f","resource":{"resourceType":"Encounter","id":"5ea7d945-82ad-4b23-858a-f1a34d82366f","meta":{"profile":["http://hl7.org/fhir/us/qicore/StructureDefinition/qicore-encounter"]},"status":"finished","class":{"system":"http://terminology.hl7.org/CodeSystem/v3-ActCode","code":"IMP","display":"inpatient encounter"},"type":[{"coding":[{"system":"http://snomed.info/sct","code":"183452005"}]}],"subject":{"reference":"Patient/5ff2713d-ca89-42ae-91bb-cba3e1d9a487"},"period":{"start":"2026-12-01T08:00:00+00:00","end":"2026-12-06T08:15:00+00:00"},"diagnosis":[{"extension":[{"url":"http://hl7.org/fhir/us/qicore/StructureDefinition/qicore-encounter-diagnosisPresentOnAdmission","valueCodeableConcept":{"coding":[{"system":"https://www.cms.gov/Medicare/Medicare-Fee-for-Service-Payment/HospitalAcqCond/Coding","code":"N"}]}}],"condition":{"reference":"Condition/27c44ec5-b3d1-465c-ba1f-887d0cd4ec21"}},{"extension":[{"url":"http://hl7.org/fhir/us/qicore/StructureDefinition/qicore-encounter-diagnosisPresentOnAdmission","valueCodeableConcept":{"coding":[{"system":"https://www.cms.gov/Medicare/Medicare-Fee-for-Service-Payment/HospitalAcqCond/Coding","code":"N"}]}}],"condition":{"reference":"Condition/4fb85a27-66e8-4f96-b619-af4f62077338"}}]},"request":{"method":"PUT","url":"Encounter/5ea7d945-82ad-4b23-858a-f1a34d82366f"}},{"fullUrl":"https://madie.cms.gov/Encounter/6889df76-9ef3-4a31-a113-e34d08e7ff5d","resource":{"resourceType":"Encounter","id":"6889df76-9ef3-4a31-a113-e34d08e7ff5d","meta":{"profile":["http://hl7.org/fhir/us/qicore/StructureDefinition/qicore-encounter"]},"status":"finished","class":{"system":"http://terminology.hl7.org/CodeSystem/v3-ActCode","code":"IMP","display":"inpatient encounter"},"type":[{"coding":[{"system":"http://snomed.info/sct","code":"183452005"}]}],"subject":{"reference":"Patient/5ff2713d-ca89-42ae-91bb-cba3e1d9a487"},"period":{"start":"2026-11-09T11:00:00+00:00","end":"2026-11-12T08:15:00+00:00"},"diagnosis":[{"extension":[{"url":"http://hl7.org/fhir/us/qicore/StructureDefinition/qicore-encounter-diagnosisPresentOnAdmission","valueCodeableConcept":{"coding":[{"system":"https://www.cms.gov/Medicare/Medicare-Fee-for-Service-Payment/HospitalAcqCond/Coding","code":"Y"}]}}],"condition":{"reference":"Condition/a053641c-5dbf-4382-b481-fc7c80c3703f"}},{"extension":[{"url":"http://hl7.org/fhir/us/qicore/StructureDefinition/qicore-encounter-diagnosisPresentOnAdmission","valueCodeableConcept":{"coding":[{"system":"https://www.cms.gov/Medicare/Medicare-Fee-for-Service-Payment/HospitalAcqCond/Coding","code":"N"}]}}],"condition":{"reference":"Condition/37f54518-5218-4e90-bc88-817b81046a46"}}]},"request":{"method":"PUT","url":"Encounter/6889df76-9ef3-4a31-a113-e34d08e7ff5d"}},{"fullUrl":"https://madie.cms.gov/Encounter/3f6259dc-b8a6-43b8-b09a-51e043e9d9a7","resource":{"resourceType":"Encounter","id":"3f6259dc-b8a6-43b8-b09a-51e043e9d9a7","meta":{"profile":["http://hl7.org/fhir/us/qicore/StructureDefinition/qicore-encounter"]},"status":"finished","class":{"system":"http://terminology.hl7.org/CodeSystem/v3-ActCode","code":"IMP","display":"inpatient encounter"},"type":[{"coding":[{"system":"http://snomed.info/sct","code":"4525004"}]}],"subject":{"reference":"Patient/5ff2713d-ca89-42ae-91bb-cba3e1d9a487"},"period":{"start":"2026-11-09T08:00:00+00:00","end":"2026-11-09T10:15:00+00:00"}},"request":{"method":"PUT","url":"Encounter/3f6259dc-b8a6-43b8-b09a-51e043e9d9a7"}},{"fullUrl":"https://madie.cms.gov/Condition/4fb85a27-66e8-4f96-b619-af4f62077338","resource":{"resourceType":"Condition","id":"4fb85a27-66e8-4f96-b619-af4f62077338","meta":{"profile":["http://hl7.org/fhir/us/qicore/StructureDefinition/qicore-condition"]},"clinicalStatus":{"coding":[{"system":"http://terminology.hl7.org/CodeSystem/condition-clinical","code":"active"}]},"verificationStatus":{"coding":[{"system":"http://terminology.hl7.org/CodeSystem/condition-ver-status","code":"confirmed"}]},"category":[{"coding":[{"system":"http://terminology.hl7.org/CodeSystem/condition-category","code":"encounter-diagnosis","display":"Encounter Diagnosis"}]}],"code":{"coding":[{"system":"http://hl7.org/fhir/sid/icd-10-cm","code":"S01.129A"}]},"subject":{"reference":"Patient/5ff2713d-ca89-42ae-91bb-cba3e1d9a487"},"encounter":{"reference":"Encounter/5ea7d945-82ad-4b23-858a-f1a34d82366f"}},"request":{"method":"PUT","url":"Condition/4fb85a27-66e8-4f96-b619-af4f62077338"}},{"fullUrl":"https://madie.cms.gov/Condition/27c44ec5-b3d1-465c-ba1f-887d0cd4ec21","resource":{"resourceType":"Condition","id":"27c44ec5-b3d1-465c-ba1f-887d0cd4ec21","meta":{"profile":["http://hl7.org/fhir/us/qicore/StructureDefinition/qicore-condition"]},"clinicalStatus":{"coding":[{"system":"http://terminology.hl7.org/CodeSystem/condition-clinical","code":"active"}]},"verificationStatus":{"coding":[{"system":"http://terminology.hl7.org/CodeSystem/condition-ver-status","code":"confirmed"}]},"category":[{"coding":[{"system":"http://terminology.hl7.org/CodeSystem/condition-category","code":"encounter-diagnosis","display":"Encounter Diagnosis"}]}],"code":{"coding":[{"system":"http://snomed.info/sct","code":"14047009"}]},"subject":{"reference":"Patient/5ff2713d-ca89-42ae-91bb-cba3e1d9a487"},"encounter":{"reference":"Encounter/5ea7d945-82ad-4b23-858a-f1a34d82366f"}},"request":{"method":"PUT","url":"Condition/27c44ec5-b3d1-465c-ba1f-887d0cd4ec21"}},{"fullUrl":"https://madie.cms.gov/Condition/37f54518-5218-4e90-bc88-817b81046a46","resource":{"resourceType":"Condition","id":"37f54518-5218-4e90-bc88-817b81046a46","meta":{"profile":["http://hl7.org/fhir/us/qicore/StructureDefinition/qicore-condition"]},"clinicalStatus":{"coding":[{"system":"http://terminology.hl7.org/CodeSystem/condition-clinical","code":"active"}]},"verificationStatus":{"coding":[{"system":"http://terminology.hl7.org/CodeSystem/condition-ver-status","code":"confirmed"}]},"category":[{"coding":[{"system":"http://terminology.hl7.org/CodeSystem/condition-category","code":"encounter-diagnosis","display":"Encounter Diagnosis"}]}],"code":{"coding":[{"system":"http://hl7.org/fhir/sid/icd-10-cm","code":"S01.00XA"}]},"subject":{"reference":"Patient/5ff2713d-ca89-42ae-91bb-cba3e1d9a487"},"encounter":{"reference":"Encounter/6889df76-9ef3-4a31-a113-e34d08e7ff5d"}},"request":{"method":"PUT","url":"Condition/37f54518-5218-4e90-bc88-817b81046a46"}},{"fullUrl":"https://madie.cms.gov/Condition/a053641c-5dbf-4382-b481-fc7c80c3703f","resource":{"resourceType":"Condition","id":"a053641c-5dbf-4382-b481-fc7c80c3703f","meta":{"profile":["http://hl7.org/fhir/us/qicore/StructureDefinition/qicore-condition"]},"clinicalStatus":{"coding":[{"system":"http://terminology.hl7.org/CodeSystem/condition-clinical","code":"active"}]},"verificationStatus":{"coding":[{"system":"http://terminology.hl7.org/CodeSystem/condition-ver-status","code":"confirmed"}]},"category":[{"coding":[{"system":"http://terminology.hl7.org/CodeSystem/condition-category","code":"encounter-diagnosis","display":"Encounter Diagnosis"}]}],"code":{"coding":[{"system":"http://hl7.org/fhir/sid/icd-10-cm","code":"W01.0XXA"}]},"subject":{"reference":"Patient/5ff2713d-ca89-42ae-91bb-cba3e1d9a487"},"encounter":{"reference":"Encounter/6889df76-9ef3-4a31-a113-e34d08e7ff5d"}},"request":{"method":"PUT","url":"Condition/a053641c-5dbf-4382-b481-fc7c80c3703f"}},{"fullUrl":"https://madie.cms.gov/Patient/5ff2713d-ca89-42ae-91bb-cba3e1d9a487","resource":{"resourceType":"Patient","id":"5ff2713d-ca89-42ae-91bb-cba3e1d9a487","meta":{"profile":["http://hl7.org/fhir/us/qicore/StructureDefinition/qicore-patient"]},"extension":[{"url":"http://hl7.org/fhir/us/core/StructureDefinition/us-core-race","extension":[{"url":"ombCategory","valueCoding":{"system":"urn:oid:2.16.840.1.113883.6.238","code":"2054-5","display":"Black or African American","userSelected":true}},{"url":"text","valueString":"Black or African American"}]},{"url":"http://hl7.org/fhir/us/core/StructureDefinition/us-core-ethnicity","extension":[{"url":"ombCategory","valueCoding":{"system":"urn:oid:2.16.840.1.113883.6.238","code":"2186-5","display":"Not Hispanic or Latino","userSelected":true}},{"url":"text","valueString":"Not Hispanic or Latino"}]}],"identifier":[{"type":{"coding":[{"system":"http://terminology.hl7.org/CodeSystem/v2-0203","code":"MR"}]},"system":"https://bonnie-fhir.healthit.gov/","value":"61152a3b98086b7a79cbd7c1"}],"active":true,"name":[{"use":"usual","family":"NUMEXPass","given":["1stEncExcluded2ndEncNumHit"]}],"gender":"male","birthDate":"1964-12-11"},"request":{"method":"PUT","url":"Patient/5ff2713d-ca89-42ae-91bb-cba3e1d9a487"}},{"fullUrl":"https://madie.cms.gov/AdverseEvent/2d585dd3-15c6-4428-b78e-e6aafa8ad80f","resource":{"resourceType":"AdverseEvent","id":"2d585dd3-15c6-4428-b78e-e6aafa8ad80f","meta":{"profile":["http://hl7.org/fhir/us/qicore/StructureDefinition/qicore-adverseevent"]},"actuality":"actual","event":{"coding":[{"system":"http://hl7.org/fhir/sid/icd-10-cm","code":"W01.0XXA"}]},"subject":{"reference":"Patient/5ff2713d-ca89-42ae-91bb-cba3e1d9a487"},"date":"2026-11-10T08:30:00+00:00"},"request":{"method":"PUT","url":"AdverseEvent/2d585dd3-15c6-4428-b78e-e6aafa8ad80f"}},{"fullUrl":"https://madie.cms.gov/MeasureReport/e8719658-a525-48f8-ac1f-d27a9b8094f1","resource":{"resourceType":"MeasureReport","id":"e8719658-a525-48f8-ac1f-d27a9b8094f1","meta":{"profile":["http://hl7.org/fhir/us/cqfmeasures/StructureDefinition/test-case-cqfm"]},"contained":[{"resourceType":"Parameters","id":"2ae72ddf-6051-429c-85d3-1e058cf78e67-parameters","parameter":[{"name":"subject","valueString":"5ff2713d-ca89-42ae-91bb-cba3e1d9a487"}]}],"extension":[{"url":"http://hl7.org/fhir/us/cqfmeasures/StructureDefinition/cqfm-inputParameters","valueReference":{"reference":"#2ae72ddf-6051-429c-85d3-1e058cf78e67-parameters"}},{"url":"http://hl7.org/fhir/us/cqfmeasures/StructureDefinition/cqfm-testCaseDescription","valueMarkdown":"Enc 1: Fall POA=Y. Injury=NPOA. Meets Den, Num, then excluded from both due to fall POA. MOs = 0. \nEnc 2: Fall and Injury = NPOA, meets numerator. \nNum MO = 1, Denom MO = 5."}],"modifierExtension":[{"url":"http://hl7.org/fhir/us/cqfmeasures/StructureDefinition/cqfm-isTestCase","valueBoolean":true}],"status":"complete","type":"individual","measure":"https://madie.cms.gov/Measure/FallsWithInjuryFHIR","period":{"start":"2026-01-01","end":"2026-12-31"},"group":[{"population":[{"code":{"coding":[{"system":"http://terminology.hl7.org/CodeSystem/measure-population","code":"initial-population","display":"Initial Population"}]},"count":2},{"code":{"coding":[{"system":"http://terminology.hl7.org/CodeSystem/measure-population","code":"denominator","display":"Denominator"}]},"count":2},{"code":{"coding":[{"system":"http://terminology.hl7.org/CodeSystem/measure-population","code":"denominator-exclusion","display":"Denominator Exclusion"}]},"count":1},{"code":{"coding":[{"system":"http://terminology.hl7.org/CodeSystem/measure-population","code":"numerator","display":"Numerator"}]},"count":2},{"code":{"coding":[{"system":"http://terminology.hl7.org/CodeSystem/measure-population","code":"numerator-exclusion","display":"Numerator Exclusion"}]},"count":1},{"code":{"coding":[{"system":"http://terminology.hl7.org/CodeSystem/measure-population","code":"denominator-observation","display":"DenominatorObservation"}]},"count":5},{"code":{"coding":[{"system":"http://terminology.hl7.org/CodeSystem/measure-population","code":"numerator-observation","display":"Numerator Observation"}]},"count":1}]}]},"request":{"method":"PUT","url":"MeasureReport/e8719658-a525-48f8-ac1f-d27a9b8094f1"}}]}