{"resourceType":"Bundle","id":"tests-0884b17b-baa4-47c0-a2b6-5849230dcf43-bundle","type":"transaction","entry":[{"fullUrl":"https://madie.cms.gov/Encounter/f5cc5223-c063-4b9f-91f0-e8434c7af0e9","resource":{"resourceType":"Encounter","id":"f5cc5223-c063-4b9f-91f0-e8434c7af0e9","meta":{"profile":["http://hl7.org/fhir/us/qicore/StructureDefinition/qicore-encounter"]},"status":"finished","class":{"system":"http://terminology.hl7.org/CodeSystem/v3-ActCode","code":"IMP","display":"inpatient encounter"},"type":[{"coding":[{"system":"http://snomed.info/sct","code":"183452005"}]}],"subject":{"reference":"Patient/0884b17b-baa4-47c0-a2b6-5849230dcf43"},"period":{"start":"2026-12-08T08:00:00+00:00","end":"2026-12-12T08:15:00+00:00"},"diagnosis":[{"extension":[{"url":"http://hl7.org/fhir/us/qicore/StructureDefinition/qicore-encounter-diagnosisPresentOnAdmission","valueCodeableConcept":{"coding":[{"system":"https://www.cms.gov/Medicare/Medicare-Fee-for-Service-Payment/HospitalAcqCond/Coding","code":"N"}]}}],"condition":{"reference":"Condition/bee4d691-3eba-4069-bafb-7e9078a54526"}}]},"request":{"method":"PUT","url":"Encounter/f5cc5223-c063-4b9f-91f0-e8434c7af0e9"}},{"fullUrl":"https://madie.cms.gov/Encounter/be071dfb-ff2d-432c-9e59-db1bf98418a5","resource":{"resourceType":"Encounter","id":"be071dfb-ff2d-432c-9e59-db1bf98418a5","meta":{"profile":["http://hl7.org/fhir/us/qicore/StructureDefinition/qicore-encounter"]},"status":"finished","class":{"system":"http://terminology.hl7.org/CodeSystem/v3-ActCode","code":"IMP","display":"inpatient encounter"},"type":[{"coding":[{"system":"http://snomed.info/sct","code":"183452005"}]}],"subject":{"reference":"Patient/0884b17b-baa4-47c0-a2b6-5849230dcf43"},"period":{"start":"2026-11-09T11:00:00+00:00","end":"2026-11-12T08:15:00+00:00"},"diagnosis":[{"extension":[{"url":"http://hl7.org/fhir/us/qicore/StructureDefinition/qicore-encounter-diagnosisPresentOnAdmission","valueCodeableConcept":{"coding":[{"system":"https://www.cms.gov/Medicare/Medicare-Fee-for-Service-Payment/HospitalAcqCond/Coding","code":"U"}]}}],"condition":{"reference":"Condition/c453302a-d159-4d22-999a-42b553b07b2a"}}]},"request":{"method":"PUT","url":"Encounter/be071dfb-ff2d-432c-9e59-db1bf98418a5"}},{"fullUrl":"https://madie.cms.gov/Encounter/edd9bafe-d7ba-4b96-8413-33fe7cdbecae","resource":{"resourceType":"Encounter","id":"edd9bafe-d7ba-4b96-8413-33fe7cdbecae","meta":{"profile":["http://hl7.org/fhir/us/qicore/StructureDefinition/qicore-encounter"]},"status":"finished","class":{"system":"http://terminology.hl7.org/CodeSystem/v3-ActCode","code":"IMP","display":"inpatient encounter"},"type":[{"coding":[{"system":"http://snomed.info/sct","code":"4525004"}]}],"subject":{"reference":"Patient/0884b17b-baa4-47c0-a2b6-5849230dcf43"},"period":{"start":"2026-11-09T08:00:00+00:00","end":"2026-11-09T10:15:00+00:00"}},"request":{"method":"PUT","url":"Encounter/edd9bafe-d7ba-4b96-8413-33fe7cdbecae"}},{"fullUrl":"https://madie.cms.gov/Condition/bee4d691-3eba-4069-bafb-7e9078a54526","resource":{"resourceType":"Condition","id":"bee4d691-3eba-4069-bafb-7e9078a54526","meta":{"profile":["http://hl7.org/fhir/us/qicore/StructureDefinition/qicore-condition"]},"clinicalStatus":{"coding":[{"system":"http://terminology.hl7.org/CodeSystem/condition-clinical","code":"active"}]},"verificationStatus":{"coding":[{"system":"http://terminology.hl7.org/CodeSystem/condition-ver-status","code":"confirmed"}]},"category":[{"coding":[{"system":"http://terminology.hl7.org/CodeSystem/condition-category","code":"encounter-diagnosis","display":"Encounter Diagnosis"}]}],"code":{"coding":[{"system":"http://hl7.org/fhir/sid/icd-10-cm","code":"S01.00XA"}]},"subject":{"reference":"Patient/0884b17b-baa4-47c0-a2b6-5849230dcf43"},"encounter":{"reference":"Encounter/f5cc5223-c063-4b9f-91f0-e8434c7af0e9"}},"request":{"method":"PUT","url":"Condition/bee4d691-3eba-4069-bafb-7e9078a54526"}},{"fullUrl":"https://madie.cms.gov/Condition/c453302a-d159-4d22-999a-42b553b07b2a","resource":{"resourceType":"Condition","id":"c453302a-d159-4d22-999a-42b553b07b2a","meta":{"profile":["http://hl7.org/fhir/us/qicore/StructureDefinition/qicore-condition"]},"clinicalStatus":{"coding":[{"system":"http://terminology.hl7.org/CodeSystem/condition-clinical","code":"active"}]},"verificationStatus":{"coding":[{"system":"http://terminology.hl7.org/CodeSystem/condition-ver-status","code":"confirmed"}]},"category":[{"coding":[{"system":"http://terminology.hl7.org/CodeSystem/condition-category","code":"encounter-diagnosis","display":"Encounter Diagnosis"}]}],"code":{"coding":[{"system":"http://hl7.org/fhir/sid/icd-10-cm","code":"M80.00XA"}]},"subject":{"reference":"Patient/0884b17b-baa4-47c0-a2b6-5849230dcf43"},"encounter":{"reference":"Encounter/be071dfb-ff2d-432c-9e59-db1bf98418a5"}},"request":{"method":"PUT","url":"Condition/c453302a-d159-4d22-999a-42b553b07b2a"}},{"fullUrl":"https://madie.cms.gov/Patient/0884b17b-baa4-47c0-a2b6-5849230dcf43","resource":{"resourceType":"Patient","id":"0884b17b-baa4-47c0-a2b6-5849230dcf43","meta":{"profile":["http://hl7.org/fhir/us/qicore/StructureDefinition/qicore-patient"]},"extension":[{"url":"http://hl7.org/fhir/us/core/StructureDefinition/us-core-race","extension":[{"url":"ombCategory","valueCoding":{"system":"urn:oid:2.16.840.1.113883.6.238","code":"2054-5","display":"Black or African American","userSelected":true}},{"url":"text","valueString":"Black or African American"}]},{"url":"http://hl7.org/fhir/us/core/StructureDefinition/us-core-ethnicity","extension":[{"url":"ombCategory","valueCoding":{"system":"urn:oid:2.16.840.1.113883.6.238","code":"2186-5","display":"Not Hispanic or Latino","userSelected":true}},{"url":"text","valueString":"Not Hispanic or Latino"}]}],"identifier":[{"type":{"coding":[{"system":"http://terminology.hl7.org/CodeSystem/v2-0203","code":"MR"}]},"system":"https://bonnie-fhir.healthit.gov/","value":"61152a3b98086b7a79cbd7c1"}],"active":true,"name":[{"use":"usual","family":"NUMERPass","given":["2Enc2FallsWithInjury"]}],"gender":"male","birthDate":"1964-12-11"},"request":{"method":"PUT","url":"Patient/0884b17b-baa4-47c0-a2b6-5849230dcf43"}},{"fullUrl":"https://madie.cms.gov/AdverseEvent/8e98bd30-82f1-4fc0-970c-e3f8f112ae01","resource":{"resourceType":"AdverseEvent","id":"8e98bd30-82f1-4fc0-970c-e3f8f112ae01","meta":{"profile":["http://hl7.org/fhir/us/qicore/StructureDefinition/qicore-adverseevent"]},"actuality":"actual","event":{"coding":[{"system":"http://hl7.org/fhir/sid/icd-10-cm","code":"W01.0XXA"}]},"subject":{"reference":"Patient/0884b17b-baa4-47c0-a2b6-5849230dcf43"},"date":"2026-12-09T08:00:00+00:00"},"request":{"method":"PUT","url":"AdverseEvent/8e98bd30-82f1-4fc0-970c-e3f8f112ae01"}},{"fullUrl":"https://madie.cms.gov/AdverseEvent/00a2e18b-e124-4bd6-9ce0-73c774dbda5a","resource":{"resourceType":"AdverseEvent","id":"00a2e18b-e124-4bd6-9ce0-73c774dbda5a","meta":{"profile":["http://hl7.org/fhir/us/qicore/StructureDefinition/qicore-adverseevent"]},"actuality":"actual","event":{"coding":[{"system":"http://hl7.org/fhir/sid/icd-10-cm","code":"W01.0XXA"}]},"subject":{"reference":"Patient/0884b17b-baa4-47c0-a2b6-5849230dcf43"},"date":"2026-11-10T08:00:00+00:00"},"request":{"method":"PUT","url":"AdverseEvent/00a2e18b-e124-4bd6-9ce0-73c774dbda5a"}},{"fullUrl":"https://madie.cms.gov/MeasureReport/0f14223d-ffe2-44f3-979b-ee485499c885","resource":{"resourceType":"MeasureReport","id":"0f14223d-ffe2-44f3-979b-ee485499c885","meta":{"profile":["http://hl7.org/fhir/us/cqfmeasures/StructureDefinition/test-case-cqfm"]},"contained":[{"resourceType":"Parameters","id":"e6f11ad1-c750-4339-a50d-acd5156d871f-parameters","parameter":[{"name":"subject","valueString":"0884b17b-baa4-47c0-a2b6-5849230dcf43"}]}],"extension":[{"url":"http://hl7.org/fhir/us/cqfmeasures/StructureDefinition/cqfm-inputParameters","valueReference":{"reference":"#e6f11ad1-c750-4339-a50d-acd5156d871f-parameters"}},{"url":"http://hl7.org/fhir/us/cqfmeasures/StructureDefinition/cqfm-testCaseDescription","valueMarkdown":"Patient fall + injury during 2 encounters. Both had Adverse Event Fall + Major or Mod Injury NPOA."}],"modifierExtension":[{"url":"http://hl7.org/fhir/us/cqfmeasures/StructureDefinition/cqfm-isTestCase","valueBoolean":true}],"status":"complete","type":"individual","measure":"https://madie.cms.gov/Measure/FallsWithInjuryFHIR","period":{"start":"2026-01-01","end":"2026-12-31"},"group":[{"population":[{"code":{"coding":[{"system":"http://terminology.hl7.org/CodeSystem/measure-population","code":"initial-population","display":"Initial Population"}]},"count":2},{"code":{"coding":[{"system":"http://terminology.hl7.org/CodeSystem/measure-population","code":"denominator","display":"Denominator"}]},"count":2},{"code":{"coding":[{"system":"http://terminology.hl7.org/CodeSystem/measure-population","code":"denominator-exclusion","display":"Denominator Exclusion"}]},"count":0},{"code":{"coding":[{"system":"http://terminology.hl7.org/CodeSystem/measure-population","code":"numerator","display":"Numerator"}]},"count":2},{"code":{"coding":[{"system":"http://terminology.hl7.org/CodeSystem/measure-population","code":"numerator-exclusion","display":"Numerator Exclusion"}]},"count":0},{"code":{"coding":[{"system":"http://terminology.hl7.org/CodeSystem/measure-population","code":"denominator-observation","display":"DenominatorObservation"}]},"count":4},{"code":{"coding":[{"system":"http://terminology.hl7.org/CodeSystem/measure-population","code":"denominator-observation","display":"DenominatorObservation"}]},"count":3},{"code":{"coding":[{"system":"http://terminology.hl7.org/CodeSystem/measure-population","code":"numerator-observation","display":"Numerator Observation"}]},"count":1},{"code":{"coding":[{"system":"http://terminology.hl7.org/CodeSystem/measure-population","code":"numerator-observation","display":"Numerator Observation"}]},"count":1}]}]},"request":{"method":"PUT","url":"MeasureReport/0f14223d-ffe2-44f3-979b-ee485499c885"}}]}