{"resourceType":"Bundle","id":"tests-6442de45-b65d-4bda-8143-0e9c28d19485-bundle","type":"transaction","entry":[{"fullUrl":"https://madie.cms.gov/Encounter/3657b047-a0cf-497a-8128-1cf291041ad4","resource":{"resourceType":"Encounter","id":"3657b047-a0cf-497a-8128-1cf291041ad4","meta":{"profile":["http://hl7.org/fhir/us/qicore/StructureDefinition/qicore-encounter"]},"status":"finished","class":{"system":"http://terminology.hl7.org/CodeSystem/v3-ActCode","code":"IMP","display":"inpatient encounter"},"type":[{"coding":[{"system":"http://snomed.info/sct","code":"183452005"}]}],"subject":{"reference":"Patient/6442de45-b65d-4bda-8143-0e9c28d19485"},"period":{"start":"2026-11-02T11:00:00+00:00","end":"2026-11-05T08:15:00+00:00"},"diagnosis":[{"extension":[{"url":"http://hl7.org/fhir/us/qicore/StructureDefinition/qicore-encounter-diagnosisPresentOnAdmission","valueCodeableConcept":{"coding":[{"system":"https://www.cms.gov/Medicare/Medicare-Fee-for-Service-Payment/HospitalAcqCond/Coding","code":"N"}]}}],"condition":{"reference":"Condition/02de5180-d8b8-4b5c-b785-45c63b577762"}}]},"request":{"method":"PUT","url":"Encounter/3657b047-a0cf-497a-8128-1cf291041ad4"}},{"fullUrl":"https://madie.cms.gov/Encounter/e661b7f8-fb06-42d3-a7ca-797849a179ac","resource":{"resourceType":"Encounter","id":"e661b7f8-fb06-42d3-a7ca-797849a179ac","meta":{"profile":["http://hl7.org/fhir/us/qicore/StructureDefinition/qicore-encounter"]},"status":"finished","class":{"system":"http://terminology.hl7.org/CodeSystem/v3-ActCode","code":"IMP","display":"inpatient encounter"},"type":[{"coding":[{"system":"http://snomed.info/sct","code":"4525004"}]}],"subject":{"reference":"Patient/6442de45-b65d-4bda-8143-0e9c28d19485"},"period":{"start":"2026-11-02T08:00:00+00:00","end":"2026-11-02T08:15:00+00:00"}},"request":{"method":"PUT","url":"Encounter/e661b7f8-fb06-42d3-a7ca-797849a179ac"}},{"fullUrl":"https://madie.cms.gov/Condition/02de5180-d8b8-4b5c-b785-45c63b577762","resource":{"resourceType":"Condition","id":"02de5180-d8b8-4b5c-b785-45c63b577762","meta":{"profile":["http://hl7.org/fhir/us/qicore/StructureDefinition/qicore-condition"]},"clinicalStatus":{"coding":[{"system":"http://terminology.hl7.org/CodeSystem/condition-clinical","code":"active"}]},"verificationStatus":{"coding":[{"system":"http://terminology.hl7.org/CodeSystem/condition-ver-status","code":"confirmed"}]},"category":[{"coding":[{"system":"http://terminology.hl7.org/CodeSystem/condition-category","code":"encounter-diagnosis","display":"Encounter Diagnosis"}]}],"code":{"coding":[{"system":"http://hl7.org/fhir/sid/icd-10-cm","code":"M80.00XA"}]},"subject":{"reference":"Patient/6442de45-b65d-4bda-8143-0e9c28d19485"},"encounter":{"reference":"Encounter/3657b047-a0cf-497a-8128-1cf291041ad4"}},"request":{"method":"PUT","url":"Condition/02de5180-d8b8-4b5c-b785-45c63b577762"}},{"fullUrl":"https://madie.cms.gov/Patient/6442de45-b65d-4bda-8143-0e9c28d19485","resource":{"resourceType":"Patient","id":"6442de45-b65d-4bda-8143-0e9c28d19485","meta":{"profile":["http://hl7.org/fhir/us/qicore/StructureDefinition/qicore-patient"]},"extension":[{"url":"http://hl7.org/fhir/us/core/StructureDefinition/us-core-race","extension":[{"url":"ombCategory","valueCoding":{"system":"urn:oid:2.16.840.1.113883.6.238","code":"2054-5","display":"Black or African American","userSelected":true}},{"url":"text","valueString":"Black or African American"}]},{"url":"http://hl7.org/fhir/us/core/StructureDefinition/us-core-ethnicity","extension":[{"url":"ombCategory","valueCoding":{"system":"urn:oid:2.16.840.1.113883.6.238","code":"2186-5","display":"Not Hispanic or Latino","userSelected":true}},{"url":"text","valueString":"Not Hispanic or Latino"}]}],"identifier":[{"type":{"coding":[{"system":"http://terminology.hl7.org/CodeSystem/v2-0203","code":"MR"}]},"system":"https://bonnie-fhir.healthit.gov/","value":"61152a3b98086b7a79cbd7c1"}],"active":true,"name":[{"use":"usual","family":"NUMERFail","given":["FallAdvEventNoDates"]}],"gender":"male","birthDate":"1984-06-11"},"request":{"method":"PUT","url":"Patient/6442de45-b65d-4bda-8143-0e9c28d19485"}},{"fullUrl":"https://madie.cms.gov/AdverseEvent/b03096c2-e31d-4d67-ba26-b852294f709c","resource":{"resourceType":"AdverseEvent","id":"b03096c2-e31d-4d67-ba26-b852294f709c","meta":{"profile":["http://hl7.org/fhir/us/qicore/StructureDefinition/qicore-adverseevent"]},"actuality":"actual","event":{"coding":[{"system":"http://hl7.org/fhir/sid/icd-10-cm","code":"W01.0XXA"}]},"subject":{"reference":"Patient/6442de45-b65d-4bda-8143-0e9c28d19485"}},"request":{"method":"PUT","url":"AdverseEvent/b03096c2-e31d-4d67-ba26-b852294f709c"}},{"fullUrl":"https://madie.cms.gov/MeasureReport/e5d5bdc6-0e44-4ca5-befe-889cc93c8d10","resource":{"resourceType":"MeasureReport","id":"e5d5bdc6-0e44-4ca5-befe-889cc93c8d10","meta":{"profile":["http://hl7.org/fhir/us/cqfmeasures/StructureDefinition/test-case-cqfm"]},"contained":[{"resourceType":"Parameters","id":"2046d566-4be6-4173-8e16-a1c87274c74a-parameters","parameter":[{"name":"subject","valueString":"6442de45-b65d-4bda-8143-0e9c28d19485"}]}],"extension":[{"url":"http://hl7.org/fhir/us/cqfmeasures/StructureDefinition/cqfm-inputParameters","valueReference":{"reference":"#2046d566-4be6-4173-8e16-a1c87274c74a-parameters"}},{"url":"http://hl7.org/fhir/us/cqfmeasures/StructureDefinition/cqfm-testCaseDescription","valueMarkdown":"Encounter with Adverse Event Fall, but no author or relevant date/time during Encounter. Encounter diag of major injury NPOA. Need relevant date time of fall to meet numerator. Numerator Fails."}],"modifierExtension":[{"url":"http://hl7.org/fhir/us/cqfmeasures/StructureDefinition/cqfm-isTestCase","valueBoolean":true}],"status":"complete","type":"individual","measure":"https://madie.cms.gov/Measure/FallsWithInjuryFHIR","period":{"start":"2026-01-01","end":"2026-12-31"},"group":[{"population":[{"code":{"coding":[{"system":"http://terminology.hl7.org/CodeSystem/measure-population","code":"initial-population","display":"Initial Population"}]},"count":1},{"code":{"coding":[{"system":"http://terminology.hl7.org/CodeSystem/measure-population","code":"denominator","display":"Denominator"}]},"count":1},{"code":{"coding":[{"system":"http://terminology.hl7.org/CodeSystem/measure-population","code":"denominator-exclusion","display":"Denominator Exclusion"}]},"count":0},{"code":{"coding":[{"system":"http://terminology.hl7.org/CodeSystem/measure-population","code":"numerator","display":"Numerator"}]},"count":0},{"code":{"coding":[{"system":"http://terminology.hl7.org/CodeSystem/measure-population","code":"numerator-exclusion","display":"Numerator Exclusion"}]},"count":0},{"code":{"coding":[{"system":"http://terminology.hl7.org/CodeSystem/measure-population","code":"denominator-observation","display":"DenominatorObservation"}]},"count":2}]}]},"request":{"method":"PUT","url":"MeasureReport/e5d5bdc6-0e44-4ca5-befe-889cc93c8d10"}}]}