{"resourceType":"Bundle","id":"tests-e287cd76-85bd-4f51-9c41-f19551e83c14-bundle","type":"transaction","entry":[{"fullUrl":"https://madie.cms.gov/Patient/e287cd76-85bd-4f51-9c41-f19551e83c14","resource":{"resourceType":"Patient","id":"e287cd76-85bd-4f51-9c41-f19551e83c14","meta":{"profile":["http://hl7.org/fhir/us/qicore/StructureDefinition/qicore-patient"]},"extension":[{"url":"http://hl7.org/fhir/us/core/StructureDefinition/us-core-race","extension":[{"url":"ombCategory","valueCoding":{"system":"urn:oid:2.16.840.1.113883.6.238","code":"1002-5","display":"American Indian or Alaska Native","userSelected":true}},{"url":"text","valueString":"American Indian or Alaska Native"}]},{"url":"http://hl7.org/fhir/us/core/StructureDefinition/us-core-ethnicity","extension":[{"url":"ombCategory","valueCoding":{"system":"urn:oid:2.16.840.1.113883.6.238","code":"2135-2","display":"Hispanic or Latino","userSelected":true}},{"url":"text","valueString":"Hispanic or Latino"}]}],"identifier":[{"type":{"coding":[{"system":"http://terminology.hl7.org/CodeSystem/v2-0203","code":"MR"}]},"system":"https://bonnie-fhir.healthit.gov/","value":"61152a3b98086b7a79cbd7c1"}],"active":true,"name":[{"use":"usual","family":"DENOMPass","given":["RVPrincipalDiagnosis"]}],"gender":"female","birthDate":"1964-12-11"},"request":{"method":"PUT","url":"Patient/e287cd76-85bd-4f51-9c41-f19551e83c14"}},{"fullUrl":"https://madie.cms.gov/Encounter/19cebad9-1cad-41f9-8100-5f3d04eb2b4d","resource":{"resourceType":"Encounter","id":"19cebad9-1cad-41f9-8100-5f3d04eb2b4d","meta":{"profile":["http://hl7.org/fhir/us/qicore/StructureDefinition/qicore-encounter"]},"status":"finished","class":{"system":"http://terminology.hl7.org/CodeSystem/v3-ActCode","code":"IMP","display":"inpatient encounter"},"type":[{"coding":[{"system":"http://snomed.info/sct","code":"183452005","display":"Emergency hospital admission"}]}],"subject":{"reference":"Patient/e287cd76-85bd-4f51-9c41-f19551e83c14"},"period":{"start":"2026-11-12T08:00:00+00:00","end":"2026-11-18T08:01:00+00:00"},"length":{"value":6,"unit":"days"},"diagnosis":[{"condition":{"reference":"Condition/263da518-c87a-4b4d-9511-b83bff142739"},"rank":1}]},"request":{"method":"PUT","url":"Encounter/19cebad9-1cad-41f9-8100-5f3d04eb2b4d"}},{"fullUrl":"https://madie.cms.gov/Condition/263da518-c87a-4b4d-9511-b83bff142739","resource":{"resourceType":"Condition","id":"263da518-c87a-4b4d-9511-b83bff142739","meta":{"profile":["http://hl7.org/fhir/us/qicore/StructureDefinition/qicore-condition"]},"clinicalStatus":{"coding":[{"system":"http://terminology.hl7.org/CodeSystem/condition-clinical","code":"active"}]},"verificationStatus":{"coding":[{"system":"http://terminology.hl7.org/CodeSystem/condition-ver-status","code":"confirmed"}]},"category":[{"coding":[{"system":"http://terminology.hl7.org/CodeSystem/condition-category","code":"encounter-diagnosis","display":"Encounter Diagnosis"}]}],"code":{"coding":[{"system":"http://hl7.org/fhir/sid/icd-10-cm","code":"E83.01","display":"Disorders of copper metabolism"}]},"subject":{"reference":"Patient/e287cd76-85bd-4f51-9c41-f19551e83c14"},"encounter":{"reference":"Encounter/19cebad9-1cad-41f9-8100-5f3d04eb2b4d"},"onsetDateTime":"2026-11-12T00:00:00+00:00","recordedDate":"2026-11-12T00:00:00+00:00"},"request":{"method":"PUT","url":"Condition/263da518-c87a-4b4d-9511-b83bff142739"}},{"fullUrl":"https://madie.cms.gov/MeasureReport/1665743f-04b7-479b-abaf-da8e369d0423","resource":{"resourceType":"MeasureReport","id":"1665743f-04b7-479b-abaf-da8e369d0423","meta":{"profile":["http://hl7.org/fhir/us/cqfmeasures/StructureDefinition/test-case-cqfm"]},"contained":[{"resourceType":"Parameters","id":"3e9c9d1b-0a44-4b67-9188-aa139b484a8b-parameters","parameter":[{"name":"subject","valueString":"e287cd76-85bd-4f51-9c41-f19551e83c14"}]}],"extension":[{"url":"http://hl7.org/fhir/us/cqfmeasures/StructureDefinition/cqfm-inputParameters","valueReference":{"reference":"#3e9c9d1b-0a44-4b67-9188-aa139b484a8b-parameters"}},{"url":"http://hl7.org/fhir/us/cqfmeasures/StructureDefinition/cqfm-testCaseDescription","valueMarkdown":"Encounter diagnosis (ICD-10-CM E83.01) with rank = 1 (Principal diagnosis). Meets RV logic to display rank for \"Risk Variable All Encounter Diagnoses with Rank and POA Indication\""}],"modifierExtension":[{"url":"http://hl7.org/fhir/us/cqfmeasures/StructureDefinition/cqfm-isTestCase","valueBoolean":true}],"status":"complete","type":"individual","measure":"https://madie.cms.gov/Measure/FallsWithInjuryFHIR","period":{"start":"2026-01-01","end":"2026-12-31"},"group":[{"population":[{"code":{"coding":[{"system":"http://terminology.hl7.org/CodeSystem/measure-population","code":"initial-population","display":"Initial Population"}]},"count":1},{"code":{"coding":[{"system":"http://terminology.hl7.org/CodeSystem/measure-population","code":"denominator","display":"Denominator"}]},"count":1},{"code":{"coding":[{"system":"http://terminology.hl7.org/CodeSystem/measure-population","code":"denominator-exclusion","display":"Denominator Exclusion"}]},"count":0},{"code":{"coding":[{"system":"http://terminology.hl7.org/CodeSystem/measure-population","code":"numerator","display":"Numerator"}]},"count":0},{"code":{"coding":[{"system":"http://terminology.hl7.org/CodeSystem/measure-population","code":"numerator-exclusion","display":"Numerator Exclusion"}]},"count":0},{"code":{"coding":[{"system":"http://terminology.hl7.org/CodeSystem/measure-population","code":"denominator-observation","display":"DenominatorObservation"}]},"count":6}]}]},"request":{"method":"PUT","url":"MeasureReport/1665743f-04b7-479b-abaf-da8e369d0423"}}]}