{
  "resourceType": "Bundle",
  "id": "612e6b4102c62a011f2ed12f",
  "type": "transaction",
  "entry": [ {
    "fullUrl": "https://madie.cms.gov/Patient/afad0252-21ef-48ee-9a5a-33dab92d8709",
    "resource": {
      "resourceType": "Patient",
      "id": "afad0252-21ef-48ee-9a5a-33dab92d8709",
      "meta": {
        "profile": [ "http://hl7.org/fhir/us/qicore/StructureDefinition/qicore-patient" ]
      },
      "text": {
        "status": "generated",
        "div": "<div xmlns=\"http://www.w3.org/1999/xhtml\"><div class=\"hapiHeaderText\">CMOPerf_DayofAnes <b>DENEXPASS </b></div><table class=\"hapiPropertyTable\"><tbody><tr><td>Identifier</td><td>ee7153b84916a96927e2b346d9ea62ff</td></tr><tr><td>Date of birth</td><td><span>02 January 1974</span></td></tr></tbody></table></div>"
      },
      "extension": [ {
        "url": "http://hl7.org/fhir/us/core/StructureDefinition/us-core-race",
        "extension": [ {
          "url": "ombCategory",
          "valueCoding": {
            "system": "urn:oid:2.16.840.1.113883.6.238",
            "code": "1002-5",
            "display": "American Indian or Alaska Native",
            "userSelected": true
          }
        }, {
          "url": "text",
          "valueString": "American Indian or Alaska Native"
        } ]
      }, {
        "url": "http://hl7.org/fhir/us/core/StructureDefinition/us-core-ethnicity",
        "extension": [ {
          "url": "ombCategory",
          "valueCoding": {
            "system": "urn:oid:2.16.840.1.113883.6.238",
            "code": "2135-2",
            "display": "Hispanic or Latino",
            "userSelected": true
          }
        }, {
          "url": "text",
          "valueString": "Hispanic or Latino"
        } ]
      } ],
      "identifier": [ {
        "type": {
          "coding": [ {
            "system": "http://terminology.hl7.org/CodeSystem/v2-0203",
            "code": "MR"
          } ]
        },
        "system": "https://bonnie-fhir.healthit.gov/",
        "value": "612e6b4102c62a011f2ed12f"
      } ],
      "active": true,
      "name": [ {
        "use": "usual",
        "family": "DENEXPass",
        "given": [ "CMOPerf_DayofAnes" ]
      } ],
      "gender": "male",
      "birthDate": "1975-01-02"
    },
    "request": {
      "method": "PUT",
      "url": "Patient/afad0252-21ef-48ee-9a5a-33dab92d8709"
    }
  }, {
    "fullUrl": "https://madie.cms.gov/Encounter/3d0049ce-19b1-4afe-b3b6-052301ace999",
    "resource": {
      "resourceType": "Encounter",
      "id": "3d0049ce-19b1-4afe-b3b6-052301ace999",
      "meta": {
        "profile": [ "http://hl7.org/fhir/us/qicore/StructureDefinition/qicore-encounter" ]
      },
      "status": "finished",
      "class": {
        "system": "http://terminology.hl7.org/CodeSystem/v3-ActCode",
        "code": "IMP",
        "display": "inpatient encounter"
      },
      "type": [ {
        "coding": [ {
          "system": "http://snomed.info/sct",
          "code": "8715000"
        } ]
      } ],
      "subject": {
        "reference": "Patient/afad0252-21ef-48ee-9a5a-33dab92d8709"
      },
      "period": {
        "start": "2026-11-01T08:00:00+00:00",
        "end": "2026-11-26T08:15:00+00:00"
      },
      "length": {
        "value": 25,
        "unit": "days"
      }
    },
    "request": {
      "method": "PUT",
      "url": "Encounter/3d0049ce-19b1-4afe-b3b6-052301ace999"
    }
  }, {
    "fullUrl": "https://madie.cms.gov/Procedure/74f43910-1ad4-416d-841e-cc91306d19aa",
    "resource": {
      "resourceType": "Procedure",
      "id": "74f43910-1ad4-416d-841e-cc91306d19aa",
      "meta": {
        "profile": [ "http://hl7.org/fhir/us/qicore/StructureDefinition/qicore-procedure" ]
      },
      "extension": [ {
        "url": "http://hl7.org/fhir/us/qicore/StructureDefinition/qicore-recorded",
        "valueDateTime": "2013-11-02T09:35:00-04:00"
      } ],
      "status": "completed",
      "code": {
        "coding": [ {
          "system": "http://snomed.info/sct",
          "code": "133918004",
          "display": "Comfort measures (regime/therapy)"
        } ]
      },
      "subject": {
        "reference": "Patient/afad0252-21ef-48ee-9a5a-33dab92d8709"
      },
      "performedPeriod": {
        "start": "2026-11-02T11:00:00+00:00"
      }
    },
    "request": {
      "method": "PUT",
      "url": "Procedure/74f43910-1ad4-416d-841e-cc91306d19aa"
    }
  }, {
    "fullUrl": "https://madie.cms.gov/Coverage/04263609-9f78-4ca8-b6ef-6d84d65216d6",
    "resource": {
      "resourceType": "Coverage",
      "id": "04263609-9f78-4ca8-b6ef-6d84d65216d6",
      "status": "active",
      "beneficiary": {
        "reference": "Patient/afad0252-21ef-48ee-9a5a-33dab92d8709"
      },
      "period": {
        "start": "1975-01-02T08:00:00+00:00"
      },
      "payor": [ {
        "reference": "Organization/b2957d4b-484b-49ff-bd56-582b4e37a3c3"
      } ]
    },
    "request": {
      "method": "PUT",
      "url": "Coverage/04263609-9f78-4ca8-b6ef-6d84d65216d6"
    }
  }, {
    "fullUrl": "https://madie.cms.gov/Procedure/ad5c575d-b779-462b-a574-df0e42904f31",
    "resource": {
      "resourceType": "Procedure",
      "id": "ad5c575d-b779-462b-a574-df0e42904f31",
      "meta": {
        "profile": [ "http://hl7.org/fhir/us/qicore/StructureDefinition/qicore-procedure" ]
      },
      "extension": [ {
        "url": "http://hl7.org/fhir/us/qicore/StructureDefinition/qicore-recorded",
        "valueDateTime": "2013-11-19T09:35:00-04:00"
      } ],
      "status": "completed",
      "code": {
        "coding": [ {
          "system": "http://www.cms.gov/Medicare/Coding/ICD10",
          "code": "3E030FZ"
        }, {
          "system": "http://snomed.info/sct",
          "code": "18946005"
        } ]
      },
      "subject": {
        "reference": "Patient/afad0252-21ef-48ee-9a5a-33dab92d8709"
      },
      "performedPeriod": {
        "start": "2026-11-02T09:00:00+00:00",
        "end": "2026-11-02T09:15:00+00:00"
      }
    },
    "request": {
      "method": "PUT",
      "url": "Procedure/ad5c575d-b779-462b-a574-df0e42904f31"
    }
  }, {
    "fullUrl": "https://madie.cms.gov/Organization/b2957d4b-484b-49ff-bd56-582b4e37a3c3",
    "resource": {
      "resourceType": "Organization",
      "id": "b2957d4b-484b-49ff-bd56-582b4e37a3c3",
      "meta": {
        "profile": [ "http://hl7.org/fhir/us/qicore/StructureDefinition/qicore-organization" ]
      },
      "identifier": [ {
        "use": "temp",
        "system": "urn:oid:2.16.840.1.113883.4.4",
        "value": "21-3259825"
      } ],
      "active": true,
      "type": [ {
        "coding": [ {
          "system": "http://terminology.hl7.org/CodeSystem/organization-type",
          "code": "pay",
          "display": "Payer"
        } ]
      } ],
      "name": "Blue Cross Blue Shield of Texas",
      "telecom": [ {
        "system": "phone",
        "value": "(+1) 972-766-6900"
      } ],
      "address": [ {
        "use": "billing",
        "type": "postal",
        "line": [ "P.O. Box 660044" ],
        "city": "Dallas",
        "state": "TX",
        "postalCode": "75266-0044",
        "country": "USA"
      } ]
    },
    "request": {
      "method": "PUT",
      "url": "Organization/b2957d4b-484b-49ff-bd56-582b4e37a3c3"
    }
  }, {
    "fullUrl": "https://madie.cms.gov/Practitioner/8e18055d-eb64-4bdd-9e92-fec13b0d1952",
    "resource": {
      "resourceType": "Practitioner",
      "id": "8e18055d-eb64-4bdd-9e92-fec13b0d1952",
      "identifier": [ {
        "system": "http://hl7.org/fhir/sid/us-npi",
        "value": "123456"
      } ],
      "name": [ {
        "family": "Evil",
        "prefix": [ "Dr" ]
      } ]
    },
    "request": {
      "method": "PUT",
      "url": "Practitioner/8e18055d-eb64-4bdd-9e92-fec13b0d1952"
    }
  }, {
    "fullUrl": "https://madie.cms.gov/MeasureReport/039b3d9b-a7f4-47ca-9f91-8de9b1b9feec",
    "resource": {
      "resourceType": "MeasureReport",
      "id": "039b3d9b-a7f4-47ca-9f91-8de9b1b9feec",
      "meta": {
        "profile": [ "http://hl7.org/fhir/us/cqfmeasures/StructureDefinition/test-case-cqfm" ]
      },
      "contained": [ {
        "resourceType": "Parameters",
        "id": "fb532841-d77e-4da0-b5a3-d5ee56ef2ca9-parameters",
        "parameter": [ {
          "name": "subject",
          "valueString": "afad0252-21ef-48ee-9a5a-33dab92d8709"
        } ]
      } ],
      "extension": [ {
        "url": "http://hl7.org/fhir/us/cqfmeasures/StructureDefinition/cqfm-inputParameters",
        "valueReference": {
          "reference": "#fb532841-d77e-4da0-b5a3-d5ee56ef2ca9-parameters"
        }
      }, {
        "url": "http://hl7.org/fhir/us/cqfmeasures/StructureDefinition/cqfm-testCaseDescription",
        "valueMarkdown": "CMO performed on the day of Anesthesia end day"
      } ],
      "modifierExtension": [ {
        "url": "http://hl7.org/fhir/us/cqfmeasures/StructureDefinition/cqfm-isTestCase",
        "valueBoolean": true
      } ],
      "status": "complete",
      "type": "individual",
      "measure": "https://madie.cms.gov/Measure/CMS108VTEProphylaxisFHIR",
      "period": {
        "start": "2026-01-01",
        "end": "2026-12-31"
      },
      "group": [ {
        "population": [ {
          "code": {
            "coding": [ {
              "system": "http://terminology.hl7.org/CodeSystem/measure-population",
              "code": "initial-population",
              "display": "Initial Population"
            } ]
          },
          "count": 1
        }, {
          "code": {
            "coding": [ {
              "system": "http://terminology.hl7.org/CodeSystem/measure-population",
              "code": "denominator",
              "display": "Denominator"
            } ]
          },
          "count": 1
        }, {
          "code": {
            "coding": [ {
              "system": "http://terminology.hl7.org/CodeSystem/measure-population",
              "code": "denominator-exclusion",
              "display": "Denominator Exclusion"
            } ]
          },
          "count": 1
        }, {
          "code": {
            "coding": [ {
              "system": "http://terminology.hl7.org/CodeSystem/measure-population",
              "code": "numerator",
              "display": "Numerator"
            } ]
          },
          "count": 0
        } ]
      } ],
      "evaluatedResource": [ {
        "reference": "Patient/afad0252-21ef-48ee-9a5a-33dab92d8709"
      }, {
        "reference": "Encounter/3d0049ce-19b1-4afe-b3b6-052301ace999"
      }, {
        "reference": "Procedure/74f43910-1ad4-416d-841e-cc91306d19aa"
      }, {
        "reference": "Coverage/04263609-9f78-4ca8-b6ef-6d84d65216d6"
      }, {
        "reference": "Procedure/ad5c575d-b779-462b-a574-df0e42904f31"
      }, {
        "reference": "Organization/b2957d4b-484b-49ff-bd56-582b4e37a3c3"
      }, {
        "reference": "Practitioner/8e18055d-eb64-4bdd-9e92-fec13b0d1952"
      } ]
    },
    "request": {
      "method": "PUT",
      "url": "MeasureReport/039b3d9b-a7f4-47ca-9f91-8de9b1b9feec"
    }
  } ]
}