{
  "resourceType": "Bundle",
  "id": "63598dd9c35f1c19df09adbd",
  "type": "transaction",
  "entry": [ {
    "fullUrl": "https://madie.cms.gov/Patient/9a1b3fbc-2a28-4872-a665-f1ecec49b2ae",
    "resource": {
      "resourceType": "Patient",
      "id": "9a1b3fbc-2a28-4872-a665-f1ecec49b2ae",
      "meta": {
        "profile": [ "http://hl7.org/fhir/us/qicore/StructureDefinition/qicore-patient" ]
      },
      "text": {
        "status": "generated",
        "div": "<div xmlns=\"http://www.w3.org/1999/xhtml\"><div class=\"hapiHeaderText\">RISKSBP24hours1MinB4EDOTTriageEnc <b>RISKFail </b></div><table class=\"hapiPropertyTable\"><tbody><tr><td>Date of birth</td><td><span>01 February 2004</span></td></tr></tbody></table></div>"
      },
      "extension": [ {
        "url": "http://hl7.org/fhir/us/core/StructureDefinition/us-core-race",
        "extension": [ {
          "url": "ombCategory",
          "valueCoding": {
            "system": "urn:oid:2.16.840.1.113883.6.238",
            "code": "1002-5",
            "display": "American Indian or Alaska Native",
            "userSelected": true
          }
        }, {
          "url": "text",
          "valueString": "American Indian or Alaska Native"
        } ]
      }, {
        "url": "http://hl7.org/fhir/us/core/StructureDefinition/us-core-ethnicity",
        "extension": [ {
          "url": "ombCategory",
          "valueCoding": {
            "system": "urn:oid:2.16.840.1.113883.6.238",
            "code": "2135-2",
            "display": "Hispanic or Latino",
            "userSelected": true
          }
        }, {
          "url": "text",
          "valueString": "Hispanic or Latino"
        } ]
      } ],
      "identifier": [ {
        "type": {
          "coding": [ {
            "system": "http://terminology.hl7.org/CodeSystem/v2-0203",
            "code": "MR"
          } ]
        },
        "system": "https://bonnie-fhir.healthit.gov/",
        "value": "63598dd9c35f1c19df09adbd"
      } ],
      "active": true,
      "name": [ {
        "use": "usual",
        "family": "RISKFail",
        "given": [ "RISKSBP24hours1MinB4EDOTTriageEnc" ]
      } ],
      "gender": "female",
      "birthDate": "2004-02-01"
    },
    "request": {
      "method": "PUT",
      "url": "Patient/9a1b3fbc-2a28-4872-a665-f1ecec49b2ae"
    }
  }, {
    "fullUrl": "https://madie.cms.gov/Observation/a9d21efb-11c4-447e-b48b-12161697f4da",
    "resource": {
      "resourceType": "Observation",
      "id": "a9d21efb-11c4-447e-b48b-12161697f4da",
      "meta": {
        "profile": [ "http://hl7.org/fhir/us/qicore/StructureDefinition/qicore-observation" ]
      },
      "status": "final",
      "category": [ {
        "coding": [ {
          "system": "http://terminology.hl7.org/CodeSystem/observation-category",
          "code": "exam",
          "display": "exam",
          "userSelected": true
        } ]
      } ],
      "code": {
        "coding": [ {
          "system": "http://loinc.org",
          "code": "93857-1"
        } ]
      },
      "subject": {
        "reference": "Patient/9a1b3fbc-2a28-4872-a665-f1ecec49b2ae"
      },
      "effectiveDateTime": "2025-02-01T08:00:00.000+00:00",
      "valueDateTime": "2025-02-01T08:00:00+00:00"
    },
    "request": {
      "method": "PUT",
      "url": "Observation/a9d21efb-11c4-447e-b48b-12161697f4da"
    }
  }, {
    "fullUrl": "https://madie.cms.gov/Observation/6d528517-efce-402b-bd76-833eeb2140ba",
    "resource": {
      "resourceType": "Observation",
      "id": "6d528517-efce-402b-bd76-833eeb2140ba",
      "meta": {
        "profile": [ "http://hl7.org/fhir/us/qicore/StructureDefinition/qicore-observation" ]
      },
      "status": "final",
      "category": [ {
        "coding": [ {
          "system": "http://terminology.hl7.org/CodeSystem/observation-category",
          "code": "exam",
          "display": "exam",
          "userSelected": true
        } ]
      } ],
      "code": {
        "coding": [ {
          "system": "http://loinc.org",
          "code": "11884-4"
        } ]
      },
      "subject": {
        "reference": "Patient/9a1b3fbc-2a28-4872-a665-f1ecec49b2ae"
      },
      "effectiveDateTime": "2025-02-01T08:00:00.000+00:00",
      "valueQuantity": {
        "value": 21,
        "system": "http://unitsofmeasure.org",
        "code": "wk"
      }
    },
    "request": {
      "method": "PUT",
      "url": "Observation/6d528517-efce-402b-bd76-833eeb2140ba"
    }
  }, {
    "fullUrl": "https://madie.cms.gov/Encounter/f4dfb93a-d27e-4b5c-948f-126377f9eb8f",
    "resource": {
      "resourceType": "Encounter",
      "id": "f4dfb93a-d27e-4b5c-948f-126377f9eb8f",
      "meta": {
        "profile": [ "http://hl7.org/fhir/us/qicore/StructureDefinition/qicore-encounter" ]
      },
      "status": "finished",
      "class": {
        "system": "http://terminology.hl7.org/CodeSystem/v3-ActCode",
        "code": "IMP",
        "display": "inpatient encounter"
      },
      "type": [ {
        "coding": [ {
          "system": "http://snomed.info/sct",
          "code": "183452005"
        } ]
      } ],
      "subject": {
        "reference": "Patient/9a1b3fbc-2a28-4872-a665-f1ecec49b2ae"
      },
      "period": {
        "start": "2025-02-01T08:00:00.000+00:00",
        "end": "2025-02-05T08:15:00.000+00:00"
      }
    },
    "request": {
      "method": "PUT",
      "url": "Encounter/f4dfb93a-d27e-4b5c-948f-126377f9eb8f"
    }
  }, {
    "fullUrl": "https://madie.cms.gov/Encounter/a4e9f16e-aec6-4811-81d8-3193df30d851",
    "resource": {
      "resourceType": "Encounter",
      "id": "a4e9f16e-aec6-4811-81d8-3193df30d851",
      "meta": {
        "profile": [ "http://hl7.org/fhir/us/qicore/StructureDefinition/qicore-encounter" ]
      },
      "status": "finished",
      "class": {
        "system": "http://terminology.hl7.org/CodeSystem/v3-ActCode",
        "code": "EMER",
        "display": "emergency"
      },
      "type": [ {
        "coding": [ {
          "system": "http://snomed.info/sct",
          "code": "4525004"
        } ]
      } ],
      "subject": {
        "reference": "Patient/9a1b3fbc-2a28-4872-a665-f1ecec49b2ae"
      },
      "period": {
        "start": "2025-02-01T07:00:00.000+00:00",
        "end": "2025-02-01T07:59:00.000+00:00"
      }
    },
    "request": {
      "method": "PUT",
      "url": "Encounter/a4e9f16e-aec6-4811-81d8-3193df30d851"
    }
  }, {
    "fullUrl": "https://madie.cms.gov/Procedure/73270305-6594-4e64-9cc4-5ac11b181707",
    "resource": {
      "resourceType": "Procedure",
      "id": "73270305-6594-4e64-9cc4-5ac11b181707",
      "meta": {
        "profile": [ "http://hl7.org/fhir/us/qicore/StructureDefinition/qicore-procedure" ]
      },
      "extension": [ {
        "url": "http://hl7.org/fhir/us/qicore/StructureDefinition/qicore-recorded",
        "valueDateTime": "2025-02-04T09:35:00-04:00"
      } ],
      "status": "completed",
      "code": {
        "coding": [ {
          "system": "http://snomed.info/sct",
          "code": "10745001"
        } ]
      },
      "subject": {
        "reference": "Patient/9a1b3fbc-2a28-4872-a665-f1ecec49b2ae"
      },
      "performedPeriod": {
        "start": "2025-02-01T08:00:00.000+00:00",
        "end": "2025-02-05T08:15:00.000+00:00"
      }
    },
    "request": {
      "method": "PUT",
      "url": "Procedure/73270305-6594-4e64-9cc4-5ac11b181707"
    }
  }, {
    "fullUrl": "https://madie.cms.gov/Observation/6d7d0c4f-2acf-4a44-af8a-a18cc6623c96",
    "resource": {
      "resourceType": "Observation",
      "id": "6d7d0c4f-2acf-4a44-af8a-a18cc6623c96",
      "meta": {
        "profile": [ "http://hl7.org/fhir/StructureDefinition/bp" ]
      },
      "status": "final",
      "category": [ {
        "coding": [ {
          "system": "http://terminology.hl7.org/CodeSystem/observation-category",
          "code": "vital-signs",
          "display": "vital-signs",
          "userSelected": true
        } ]
      } ],
      "code": {
        "coding": [ {
          "system": "http://loinc.org",
          "code": "85354-9",
          "display": "Blood pressure panel with all children optional"
        } ]
      },
      "subject": {
        "reference": "Patient/9a1b3fbc-2a28-4872-a665-f1ecec49b2ae"
      },
      "effectiveDateTime": "2025-01-31T06:59:00.000+00:00",
      "component": [ {
        "code": {
          "coding": [ {
            "system": "http://loinc.org",
            "code": "8480-6",
            "display": "Systolic blood pressure"
          } ]
        },
        "valueQuantity": {
          "value": 165,
          "unit": "mmHg",
          "system": "http://unitsofmeasure.org",
          "code": "mm[Hg]"
        }
      }, {
        "code": {
          "coding": [ {
            "system": "http://loinc.org",
            "code": "8462-4",
            "display": "Diastolic blood pressure"
          } ]
        },
        "valueQuantity": {
          "value": 85,
          "unit": "mmHg",
          "system": "http://unitsofmeasure.org",
          "code": "mm[Hg]"
        }
      } ]
    },
    "request": {
      "method": "PUT",
      "url": "Observation/6d7d0c4f-2acf-4a44-af8a-a18cc6623c96"
    }
  }, {
    "fullUrl": "https://madie.cms.gov/MeasureReport/9e707697-4cb2-470d-a535-21715ddc22b1",
    "resource": {
      "resourceType": "MeasureReport",
      "id": "9e707697-4cb2-470d-a535-21715ddc22b1",
      "meta": {
        "profile": [ "http://hl7.org/fhir/us/cqfmeasures/StructureDefinition/test-case-cqfm" ]
      },
      "contained": [ {
        "resourceType": "Parameters",
        "id": "a3160e97-1966-4707-97cd-5ba906bb6532-parameters",
        "parameter": [ {
          "name": "subject",
          "valueString": "9a1b3fbc-2a28-4872-a665-f1ecec49b2ae"
        } ]
      } ],
      "extension": [ {
        "url": "http://hl7.org/fhir/us/cqfmeasures/StructureDefinition/cqfm-inputParameters",
        "valueReference": {
          "reference": "#a3160e97-1966-4707-97cd-5ba906bb6532-parameters"
        }
      }, {
        "url": "http://hl7.org/fhir/us/cqfmeasures/StructureDefinition/cqfm-testCaseDescription",
        "valueMarkdown": "Patient with systolic blood pressure that starts 24 hours and 1 minute before ED OB Triage encounter.  \n"
      } ],
      "modifierExtension": [ {
        "url": "http://hl7.org/fhir/us/cqfmeasures/StructureDefinition/cqfm-isTestCase",
        "valueBoolean": true
      } ],
      "status": "complete",
      "type": "individual",
      "measure": "https://madie.cms.gov/Measure/CMS1028FHIRPCSevereOBComps",
      "period": {
        "start": "2025-01-01",
        "end": "2025-12-31"
      },
      "group": [ {
        "population": [ {
          "code": {
            "coding": [ {
              "system": "http://terminology.hl7.org/CodeSystem/measure-population",
              "code": "initial-population",
              "display": "Initial Population"
            } ]
          },
          "count": 1
        }, {
          "code": {
            "coding": [ {
              "system": "http://terminology.hl7.org/CodeSystem/measure-population",
              "code": "denominator",
              "display": "Denominator"
            } ]
          },
          "count": 1
        }, {
          "code": {
            "coding": [ {
              "system": "http://terminology.hl7.org/CodeSystem/measure-population",
              "code": "numerator",
              "display": "Numerator"
            } ]
          },
          "count": 0
        }, {
          "code": {
            "coding": [ {
              "system": "http://terminology.hl7.org/CodeSystem/measure-population",
              "code": "numerator-exclusion",
              "display": "Numerator Exclusion"
            } ]
          },
          "count": 0
        } ]
      }, {
        "population": [ {
          "code": {
            "coding": [ {
              "system": "http://terminology.hl7.org/CodeSystem/measure-population",
              "code": "initial-population",
              "display": "Initial Population"
            } ]
          },
          "count": 1
        }, {
          "code": {
            "coding": [ {
              "system": "http://terminology.hl7.org/CodeSystem/measure-population",
              "code": "denominator",
              "display": "Denominator"
            } ]
          },
          "count": 1
        }, {
          "code": {
            "coding": [ {
              "system": "http://terminology.hl7.org/CodeSystem/measure-population",
              "code": "numerator",
              "display": "Numerator"
            } ]
          },
          "count": 0
        }, {
          "code": {
            "coding": [ {
              "system": "http://terminology.hl7.org/CodeSystem/measure-population",
              "code": "numerator-exclusion",
              "display": "Numerator Exclusion"
            } ]
          },
          "count": 0
        } ]
      } ],
      "evaluatedResource": [ {
        "reference": "Patient/9a1b3fbc-2a28-4872-a665-f1ecec49b2ae"
      }, {
        "reference": "Observation/a9d21efb-11c4-447e-b48b-12161697f4da"
      }, {
        "reference": "Observation/6d528517-efce-402b-bd76-833eeb2140ba"
      }, {
        "reference": "Encounter/f4dfb93a-d27e-4b5c-948f-126377f9eb8f"
      }, {
        "reference": "Encounter/a4e9f16e-aec6-4811-81d8-3193df30d851"
      }, {
        "reference": "Procedure/73270305-6594-4e64-9cc4-5ac11b181707"
      }, {
        "reference": "Observation/6d7d0c4f-2acf-4a44-af8a-a18cc6623c96"
      } ]
    },
    "request": {
      "method": "PUT",
      "url": "MeasureReport/9e707697-4cb2-470d-a535-21715ddc22b1"
    }
  } ]
}