{"resourceType":"Bundle","id":"tests-ee2234da-c199-4845-a5f6-4e9d49581578-bundle","type":"transaction","entry":[{"fullUrl":"https://madie.cms.gov/Patient/ee2234da-c199-4845-a5f6-4e9d49581578","resource":{"resourceType":"Patient","id":"ee2234da-c199-4845-a5f6-4e9d49581578","meta":{"profile":["http://hl7.org/fhir/us/qicore/StructureDefinition/qicore-patient"]},"extension":[{"url":"http://hl7.org/fhir/us/core/StructureDefinition/us-core-race","extension":[{"url":"ombCategory","valueCoding":{"system":"urn:oid:2.16.840.1.113883.6.238","code":"1002-5","display":"American Indian or Alaska Native","userSelected":true}},{"url":"text","valueString":"American Indian or Alaska Native"}]},{"url":"http://hl7.org/fhir/us/core/StructureDefinition/us-core-ethnicity","extension":[{"url":"ombCategory","valueCoding":{"system":"urn:oid:2.16.840.1.113883.6.238","code":"2135-2","display":"Hispanic or Latino","userSelected":true}},{"url":"text","valueString":"Hispanic or Latino"}]}],"identifier":[{"type":{"coding":[{"system":"http://terminology.hl7.org/CodeSystem/v2-0203","code":"MR"}]},"system":"https://bonnie-fhir.healthit.gov/","value":"642713b678c9438489949adh"}],"name":[{"family":"NUMERPass","given":["Assessment1MinB4EncounterEdge"]}],"gender":"female","birthDate":"1978-01-02"},"request":{"method":"PUT","url":"Patient/ee2234da-c199-4845-a5f6-4e9d49581578"}},{"fullUrl":"https://madie.cms.gov/Condition/300230001","resource":{"resourceType":"Condition","id":"7be1d816-352c-4f9b-9743-d39c78210ba7","meta":{"profile":["http://hl7.org/fhir/us/qicore/StructureDefinition/qicore-condition"]},"clinicalStatus":{"coding":[{"system":"http://terminology.hl7.org/CodeSystem/condition-clinical","code":"active","display":"Active","userSelected":true}]},"verificationStatus":{"coding":[{"system":"http://terminology.hl7.org/CodeSystem/condition-ver-status","code":"confirmed","display":"Confirmed","userSelected":true}]},"category":[{"coding":[{"system":"http://terminology.hl7.org/CodeSystem/condition-category","code":"encounter-diagnosis","display":"Encounter Diagnosis","userSelected":true}]}],"code":{"coding":[{"system":"http://hl7.org/fhir/sid/icd-10-cm","version":"2023","code":"G31.83","userSelected":true}]},"subject":{"reference":"Patient/8a182f57-a9c7-4feb-a887-0de5975301a3"},"onsetPeriod":{"start":"2021-03-30T08:00:00.000+00:00"}},"request":{"method":"PUT","url":"Condition/7be1d816-352c-4f9b-9743-d39c78210ba7"}},{"fullUrl":"https://madie.cms.gov/Encounter/300230002","resource":{"resourceType":"Encounter","id":"9e1d9681-aa39-4670-b5de-17d0e2dab1b7","meta":{"profile":["http://hl7.org/fhir/us/qicore/StructureDefinition/qicore-encounter"]},"status":"finished","class":{"system":"http://terminology.hl7.org/CodeSystem/v3-ActCode","code":"AMB","display":"ambulatory","userSelected":true},"type":[{"coding":[{"system":"http://www.ama-assn.org/go/cpt","version":"2023","code":"99212","userSelected":true}]}],"subject":{"reference":"Patient/8a182f57-a9c7-4feb-a887-0de5975301a3"},"period":{"start":"2025-03-31T08:00:00.000+00:00","end":"2025-03-31T08:35:00.000+00:00"}},"request":{"method":"PUT","url":"Encounter/9e1d9681-aa39-4670-b5de-17d0e2dab1b7"}},{"fullUrl":"https://madie.cms.gov/Encounter/300230003","resource":{"resourceType":"Encounter","id":"d1c96235-3a95-4b17-962f-3b8106cb2074","meta":{"profile":["http://hl7.org/fhir/us/qicore/StructureDefinition/qicore-encounter"]},"status":"finished","class":{"system":"http://terminology.hl7.org/CodeSystem/v3-ActCode","code":"AMB","display":"ambulatory","userSelected":true},"type":[{"coding":[{"system":"http://snomed.info/sct","version":"http://snomed.info/sct/731000124108/version/202303","code":"185463005","display":"Visit out of hours (procedure)","userSelected":true}]}],"subject":{"reference":"Patient/8a182f57-a9c7-4feb-a887-0de5975301a3"},"period":{"start":"2025-08-31T08:00:00.000+00:00","end":"2025-08-31T08:35:00.000+00:00"}},"request":{"method":"PUT","url":"Encounter/d1c96235-3a95-4b17-962f-3b8106cb2074"}},{"fullUrl":"https://madie.cms.gov/Observation/300230004","resource":{"resourceType":"Observation","id":"0030d8cb-b383-4298-b596-d2b3147f7688","meta":{"profile":["http://hl7.org/fhir/us/qicore/StructureDefinition/qicore-observation"]},"status":"corrected","category":[{"coding":[{"system":"http://terminology.hl7.org/CodeSystem/observation-category","code":"survey","display":"Survey","userSelected":true}]}],"code":{"coding":[{"system":"http://snomed.info/sct","version":"http://snomed.info/sct/731000124108/version/202303","code":"113024001","display":"Assessment and interpretation of higher cerebral function, cognitive testing (procedure)","userSelected":true}]},"subject":{"reference":"Patient/8a182f57-a9c7-4feb-a887-0de5975301a3"},"effectiveDateTime":"2025-08-31T08:34:00.000+00:00","issued":"2025-08-31T08:34:00.000+00:00","valueInteger":26},"request":{"method":"PUT","url":"Observation/0030d8cb-b383-4298-b596-d2b3147f7688"}},{"fullUrl":"https://madie.cms.gov/Coverage/300230005","resource":{"resourceType":"Coverage","id":"a6c49c15-4c34-43af-a18d-eeac2385085a","meta":{"profile":["http://hl7.org/fhir/us/qicore/StructureDefinition/qicore-coverage"]},"status":"active","beneficiary":{"reference":"Patient/8a182f57-a9c7-4feb-a887-0de5975301a3"},"payor":[{"reference":"Organization/33ead57e-5e04-40e4-95ea-bc3cdbd58917"}]},"request":{"method":"PUT","url":"Coverage/a6c49c15-4c34-43af-a18d-eeac2385085a"}},{"fullUrl":"https://madie.cms.gov/Organization/123456","resource":{"resourceType":"Organization","id":"33ead57e-5e04-40e4-95ea-bc3cdbd58917","meta":{"profile":["http://hl7.org/fhir/us/qicore/StructureDefinition/qicore-organization"]},"identifier":[{"use":"temp","system":"urn:oid:2.16.840.1.113883.4.4","value":"21-3259825"}],"active":true,"type":[{"coding":[{"system":"http://terminology.hl7.org/CodeSystem/organization-type","code":"pay","display":"Payer"}]}],"name":"Blue Cross Blue Shield of Texas","telecom":[{"system":"phone","value":"(+1) 972-766-6900"}],"address":[{"use":"billing","type":"postal","line":["P.O. Box 660044"],"city":"Dallas","state":"TX","postalCode":"75266-0044","country":"USA"}]},"request":{"method":"PUT","url":"Organization/33ead57e-5e04-40e4-95ea-bc3cdbd58917"}},{"fullUrl":"https://madie.cms.gov/Practitioner/practitioner-123456","resource":{"resourceType":"Practitioner","id":"bc41591f-bc26-43d8-b72d-a252ca5c550e","identifier":[{"system":"http://hl7.org/fhir/sid/us-npi","value":"123456"}],"name":[{"family":"Evil","prefix":["Dr"]}]},"request":{"method":"PUT","url":"Practitioner/bc41591f-bc26-43d8-b72d-a252ca5c550e"}},{"fullUrl":"https://madie.cms.gov/MeasureReport/b6035db8-1ada-48ac-86e2-89b7db1f0ec7","resource":{"resourceType":"MeasureReport","id":"b6035db8-1ada-48ac-86e2-89b7db1f0ec7","meta":{"profile":["http://hl7.org/fhir/us/cqfmeasures/StructureDefinition/test-case-cqfm"]},"contained":[{"resourceType":"Parameters","id":"f753a052-9146-4c42-a575-9357a923aefa-parameters","parameter":[{"name":"subject","valueString":"ee2234da-c199-4845-a5f6-4e9d49581578"}]}],"extension":[{"url":"http://hl7.org/fhir/us/cqfmeasures/StructureDefinition/cqfm-inputParameters","valueReference":{"reference":"#f753a052-9146-4c42-a575-9357a923aefa-parameters"}},{"url":"http://hl7.org/fhir/us/cqfmeasures/StructureDefinition/cqfm-testCaseDescription","valueMarkdown":"Cognitive Assessment is performed in last minute before end of Visit"}],"modifierExtension":[{"url":"http://hl7.org/fhir/us/cqfmeasures/StructureDefinition/cqfm-isTestCase","valueBoolean":true}],"status":"complete","type":"individual","measure":"https://madie.cms.gov/Measure/DementiaCognitiveAssessmentFHIR","period":{"start":"2025-01-01","end":"2025-12-31"},"group":[{"population":[{"code":{"coding":[{"system":"http://terminology.hl7.org/CodeSystem/measure-population","code":"initial-population","display":"Initial Population"}]},"count":1},{"code":{"coding":[{"system":"http://terminology.hl7.org/CodeSystem/measure-population","code":"denominator","display":"Denominator"}]},"count":1},{"code":{"coding":[{"system":"http://terminology.hl7.org/CodeSystem/measure-population","code":"numerator","display":"Numerator"}]},"count":1},{"code":{"coding":[{"system":"http://terminology.hl7.org/CodeSystem/measure-population","code":"denominator-exception","display":"Denominator Exception"}]},"count":0}]}]},"request":{"method":"PUT","url":"MeasureReport/b6035db8-1ada-48ac-86e2-89b7db1f0ec7"}}]}