{"resourceType":"Bundle","id":"tests-ee2234da-c199-4845-a5f6-4e9d49581578-bundle","type":"transaction","entry":[{"fullUrl":"https://madie.cms.gov/Patient/ee2234da-c199-4845-a5f6-4e9d49581578","resource":{"resourceType":"Patient","id":"ee2234da-c199-4845-a5f6-4e9d49581578","meta":{"profile":["http://hl7.org/fhir/us/qicore/StructureDefinition/qicore-patient"]},"extension":[{"url":"http://hl7.org/fhir/us/core/StructureDefinition/us-core-race","extension":[{"url":"ombCategory","valueCoding":{"system":"urn:oid:2.16.840.1.113883.6.238","code":"1002-5","display":"American Indian or Alaska Native","userSelected":true}},{"url":"text","valueString":"American Indian or Alaska Native"}]},{"url":"http://hl7.org/fhir/us/core/StructureDefinition/us-core-ethnicity","extension":[{"url":"ombCategory","valueCoding":{"system":"urn:oid:2.16.840.1.113883.6.238","code":"2135-2","display":"Hispanic or Latino","userSelected":true}},{"url":"text","valueString":"Hispanic or Latino"}]}],"identifier":[{"type":{"coding":[{"system":"http://terminology.hl7.org/CodeSystem/v2-0203","code":"MR"}]},"system":"https://bonnie-fhir.healthit.gov/","value":"642713b678c9438489949adh"}],"name":[{"family":"NUMERPass","given":["Assessment1MinB4EncounterEdge"]}],"gender":"female","birthDate":"1978-01-02"},"request":{"method":"PUT","url":"Patient/ee2234da-c199-4845-a5f6-4e9d49581578"}},{"fullUrl":"https://madie.cms.gov/Condition/300230001","resource":{"resourceType":"Condition","id":"ec972189-c163-4a71-9911-d2c9b9641068","meta":{"profile":["http://hl7.org/fhir/us/qicore/StructureDefinition/qicore-condition"]},"clinicalStatus":{"coding":[{"system":"http://terminology.hl7.org/CodeSystem/condition-clinical","code":"active","display":"Active","userSelected":true}]},"verificationStatus":{"coding":[{"system":"http://terminology.hl7.org/CodeSystem/condition-ver-status","code":"confirmed","display":"Confirmed","userSelected":true}]},"category":[{"coding":[{"system":"http://terminology.hl7.org/CodeSystem/condition-category","code":"encounter-diagnosis","display":"Encounter Diagnosis","userSelected":true}]}],"code":{"coding":[{"system":"http://hl7.org/fhir/sid/icd-10-cm","version":"2023","code":"G31.83","userSelected":true}]},"subject":{"reference":"Patient/8a182f57-a9c7-4feb-a887-0de5975301a3"},"onsetPeriod":{"start":"2021-03-30T08:00:00.000+00:00"}},"request":{"method":"PUT","url":"Condition/ec972189-c163-4a71-9911-d2c9b9641068"}},{"fullUrl":"https://madie.cms.gov/Encounter/300230002","resource":{"resourceType":"Encounter","id":"d8e5ea06-7aa5-4a34-a699-3c610a523c99","meta":{"profile":["http://hl7.org/fhir/us/qicore/StructureDefinition/qicore-encounter"]},"status":"finished","class":{"system":"http://terminology.hl7.org/CodeSystem/v3-ActCode","code":"AMB","display":"ambulatory","userSelected":true},"type":[{"coding":[{"system":"http://www.ama-assn.org/go/cpt","version":"2023","code":"99212","userSelected":true}]}],"subject":{"reference":"Patient/8a182f57-a9c7-4feb-a887-0de5975301a3"},"period":{"start":"2025-03-31T08:00:00.000+00:00","end":"2025-03-31T08:35:00.000+00:00"}},"request":{"method":"PUT","url":"Encounter/d8e5ea06-7aa5-4a34-a699-3c610a523c99"}},{"fullUrl":"https://madie.cms.gov/Encounter/300230003","resource":{"resourceType":"Encounter","id":"1b88f4cd-92bc-48ed-8825-38a4d42ecd95","meta":{"profile":["http://hl7.org/fhir/us/qicore/StructureDefinition/qicore-encounter"]},"status":"finished","class":{"system":"http://terminology.hl7.org/CodeSystem/v3-ActCode","code":"AMB","display":"ambulatory","userSelected":true},"type":[{"coding":[{"system":"http://snomed.info/sct","version":"http://snomed.info/sct/731000124108/version/202303","code":"185463005","display":"Visit out of hours (procedure)","userSelected":true}]}],"subject":{"reference":"Patient/8a182f57-a9c7-4feb-a887-0de5975301a3"},"period":{"start":"2025-08-31T08:00:00.000+00:00","end":"2025-08-31T08:35:00.000+00:00"}},"request":{"method":"PUT","url":"Encounter/1b88f4cd-92bc-48ed-8825-38a4d42ecd95"}},{"fullUrl":"https://madie.cms.gov/Observation/300230004","resource":{"resourceType":"Observation","id":"34aeefa8-2367-41ea-a1f5-74b02aca381e","meta":{"profile":["http://hl7.org/fhir/us/qicore/StructureDefinition/qicore-observation"]},"status":"corrected","category":[{"coding":[{"system":"http://terminology.hl7.org/CodeSystem/observation-category","code":"survey","display":"Survey","userSelected":true}]}],"code":{"coding":[{"system":"http://snomed.info/sct","version":"http://snomed.info/sct/731000124108/version/202303","code":"113024001","display":"Assessment and interpretation of higher cerebral function, cognitive testing (procedure)","userSelected":true}]},"subject":{"reference":"Patient/8a182f57-a9c7-4feb-a887-0de5975301a3"},"effectiveDateTime":"2025-08-31T08:34:00.000+00:00","issued":"2025-08-31T08:34:00.000+00:00","valueInteger":26},"request":{"method":"PUT","url":"Observation/34aeefa8-2367-41ea-a1f5-74b02aca381e"}},{"fullUrl":"https://madie.cms.gov/Coverage/300230005","resource":{"resourceType":"Coverage","id":"f4e0776b-14cd-4e47-926f-2f82dc6b9c65","meta":{"profile":["http://hl7.org/fhir/us/qicore/StructureDefinition/qicore-coverage"]},"status":"active","beneficiary":{"reference":"Patient/8a182f57-a9c7-4feb-a887-0de5975301a3"},"payor":[{"reference":"Organization/77e4d06f-5e3c-436a-a598-80cefcca5028"}]},"request":{"method":"PUT","url":"Coverage/f4e0776b-14cd-4e47-926f-2f82dc6b9c65"}},{"fullUrl":"https://madie.cms.gov/Organization/123456","resource":{"resourceType":"Organization","id":"77e4d06f-5e3c-436a-a598-80cefcca5028","meta":{"profile":["http://hl7.org/fhir/us/qicore/StructureDefinition/qicore-organization"]},"identifier":[{"use":"temp","system":"urn:oid:2.16.840.1.113883.4.4","value":"21-3259825"}],"active":true,"type":[{"coding":[{"system":"http://terminology.hl7.org/CodeSystem/organization-type","code":"pay","display":"Payer"}]}],"name":"Blue Cross Blue Shield of Texas","telecom":[{"system":"phone","value":"(+1) 972-766-6900"}],"address":[{"use":"billing","type":"postal","line":["P.O. Box 660044"],"city":"Dallas","state":"TX","postalCode":"75266-0044","country":"USA"}]},"request":{"method":"PUT","url":"Organization/77e4d06f-5e3c-436a-a598-80cefcca5028"}},{"fullUrl":"https://madie.cms.gov/Practitioner/practitioner-123456","resource":{"resourceType":"Practitioner","id":"cecd780e-d5bc-4013-a3d4-60aacb9e7053","identifier":[{"system":"http://hl7.org/fhir/sid/us-npi","value":"123456"}],"name":[{"family":"Evil","prefix":["Dr"]}]},"request":{"method":"PUT","url":"Practitioner/cecd780e-d5bc-4013-a3d4-60aacb9e7053"}},{"fullUrl":"https://madie.cms.gov/MeasureReport/b6035db8-1ada-48ac-86e2-89b7db1f0ec7","resource":{"resourceType":"MeasureReport","id":"b6035db8-1ada-48ac-86e2-89b7db1f0ec7","meta":{"profile":["http://hl7.org/fhir/us/cqfmeasures/StructureDefinition/test-case-cqfm"]},"contained":[{"resourceType":"Parameters","id":"f753a052-9146-4c42-a575-9357a923aefa-parameters","parameter":[{"name":"subject","valueString":"ee2234da-c199-4845-a5f6-4e9d49581578"}]}],"extension":[{"url":"http://hl7.org/fhir/us/cqfmeasures/StructureDefinition/cqfm-inputParameters","valueReference":{"reference":"#f753a052-9146-4c42-a575-9357a923aefa-parameters"}},{"url":"http://hl7.org/fhir/us/cqfmeasures/StructureDefinition/cqfm-testCaseDescription","valueMarkdown":"Cognitive Assessment is performed in last minute before end of Visit"}],"modifierExtension":[{"url":"http://hl7.org/fhir/us/cqfmeasures/StructureDefinition/cqfm-isTestCase","valueBoolean":true}],"status":"complete","type":"individual","measure":"https://madie.cms.gov/Measure/DementiaCognitiveAssessmentFHIR","period":{"start":"2025-01-01","end":"2025-12-31"},"group":[{"population":[{"code":{"coding":[{"system":"http://terminology.hl7.org/CodeSystem/measure-population","code":"initial-population","display":"Initial Population"}]},"count":1},{"code":{"coding":[{"system":"http://terminology.hl7.org/CodeSystem/measure-population","code":"denominator","display":"Denominator"}]},"count":1},{"code":{"coding":[{"system":"http://terminology.hl7.org/CodeSystem/measure-population","code":"numerator","display":"Numerator"}]},"count":1},{"code":{"coding":[{"system":"http://terminology.hl7.org/CodeSystem/measure-population","code":"denominator-exception","display":"Denominator Exception"}]},"count":0}]}]},"request":{"method":"PUT","url":"MeasureReport/b6035db8-1ada-48ac-86e2-89b7db1f0ec7"}}]}