{"resourceType":"Bundle","id":"tests-97b034d3-87b0-4e89-b672-58389f8ebcb3-bundle","type":"transaction","entry":[{"fullUrl":"https://madie.cms.gov/Patient/97b034d3-87b0-4e89-b672-58389f8ebcb3","resource":{"resourceType":"Patient","id":"97b034d3-87b0-4e89-b672-58389f8ebcb3","meta":{"profile":["http://hl7.org/fhir/us/qicore/StructureDefinition/qicore-patient"]},"extension":[{"url":"http://hl7.org/fhir/us/core/StructureDefinition/us-core-race","extension":[{"url":"ombCategory","valueCoding":{"system":"urn:oid:2.16.840.1.113883.6.238","code":"2054-5","display":"Black or African American","userSelected":true}},{"url":"text","valueString":"Black or African American"}]},{"url":"http://hl7.org/fhir/us/core/StructureDefinition/us-core-ethnicity","extension":[{"url":"ombCategory","valueCoding":{"system":"urn:oid:2.16.840.1.113883.6.238","code":"2186-5","display":"Not Hispanic or Latino","userSelected":true}},{"url":"text","valueString":"Not Hispanic or Latino"}]}],"identifier":[{"type":{"coding":[{"system":"http://terminology.hl7.org/CodeSystem/v2-0203","code":"MR"}]},"system":"https://bonnie-fhir.healthit.gov/","value":"610d959d16b40ae2d2ca7d6f"}],"name":[{"family":"DenomEXCEPFail","given":["AssessmentIssuedB4Encounter"]}],"gender":"male","birthDate":"1968-08-28"},"request":{"method":"PUT","url":"Patient/97b034d3-87b0-4e89-b672-58389f8ebcb3"}},{"fullUrl":"https://madie.cms.gov/Encounter/300230005","resource":{"resourceType":"Encounter","id":"1ea4ebce-5d6e-4670-8556-ee1a10a4ba55","meta":{"profile":["http://hl7.org/fhir/us/qicore/StructureDefinition/qicore-encounter"]},"status":"finished","class":{"system":"http://terminology.hl7.org/CodeSystem/v3-ActCode","code":"AMB","display":"ambulatory","userSelected":true},"type":[{"coding":[{"system":"http://snomed.info/sct","version":"2020-09","code":"185460008","display":"Home visit request by patient (procedure)","userSelected":true}]}],"subject":{"reference":"Patient/97b034d3-87b0-4e89-b672-58389f8ebcb3"},"period":{"start":"2025-08-06T08:00:00.000+00:00","end":"2025-08-06T08:15:00.000+00:00"}},"request":{"method":"PUT","url":"Encounter/1ea4ebce-5d6e-4670-8556-ee1a10a4ba55"}},{"fullUrl":"https://madie.cms.gov/Condition/300230006b","resource":{"resourceType":"Condition","id":"7c1e31e3-6afc-482d-8877-0866a545a594","meta":{"profile":["http://hl7.org/fhir/us/qicore/StructureDefinition/qicore-condition"]},"clinicalStatus":{"coding":[{"system":"http://terminology.hl7.org/CodeSystem/condition-clinical","code":"active","display":"active","userSelected":true}]},"category":[{"coding":[{"system":"http://terminology.hl7.org/CodeSystem/condition-clinical","code":"active","display":"active","userSelected":true}]}],"code":{"coding":[{"system":"http://snomed.info/sct","version":"http://snomed.info/sct/731000124108/version/202303","code":"10349009","display":"Multi-infarct dementia with delirium (disorder)","userSelected":true}]},"subject":{"reference":"Patient/97b034d3-87b0-4e89-b672-58389f8ebcb3"},"onsetDateTime":"2025-08-06T08:00:00.000+00:00","recordedDate":"2025-08-09T08:00:00.000+00:00"},"request":{"method":"PUT","url":"Condition/7c1e31e3-6afc-482d-8877-0866a545a594"}},{"fullUrl":"https://madie.cms.gov/Encounter/300230007","resource":{"resourceType":"Encounter","id":"daf0de32-dba3-4110-b015-e69828c2b854","meta":{"profile":["http://hl7.org/fhir/us/qicore/StructureDefinition/qicore-encounter"]},"status":"finished","class":{"system":"http://terminology.hl7.org/CodeSystem/v3-ActCode","code":"AMB","display":"ambulatory","userSelected":true},"type":[{"coding":[{"system":"http://snomed.info/sct","version":"2020-09","code":"185316007","display":"Indirect encounter (procedure)","userSelected":true}]}],"subject":{"reference":"Patient/97b034d3-87b0-4e89-b672-58389f8ebcb3"},"period":{"start":"2025-08-06T08:00:00.000+00:00","end":"2025-08-06T08:15:00.000+00:00"}},"request":{"method":"PUT","url":"Encounter/daf0de32-dba3-4110-b015-e69828c2b854"}},{"fullUrl":"https://madie.cms.gov/Observation/300230009","resource":{"resourceType":"Observation","id":"46726c3c-98a5-424e-813b-39c05f0e01ea","extension":[{"url":"http://hl7.org/fhir/us/qicore/StructureDefinition/qicore-notDone","valueBoolean":true}],"status":"cancelled","code":{"coding":[{"system":"http://loinc.org","version":"2.69","code":"58151-2","display":"Prior assessment Brief Interview for Mental Status (BIMS) summary score [MDSv3]","userSelected":true}]},"issued":"2025-08-05T07:00:00.000+00:00"},"request":{"method":"PUT","url":"Observation/46726c3c-98a5-424e-813b-39c05f0e01ea"}},{"fullUrl":"https://madie.cms.gov/MeasureReport/ae791993-d1dc-46ab-a788-25b1d17d455c","resource":{"resourceType":"MeasureReport","id":"ae791993-d1dc-46ab-a788-25b1d17d455c","meta":{"profile":["http://hl7.org/fhir/us/cqfmeasures/StructureDefinition/test-case-cqfm"]},"contained":[{"resourceType":"Parameters","id":"d56ad624-fb08-4695-93db-f15de3f839e4-parameters","parameter":[{"name":"subject","valueString":"97b034d3-87b0-4e89-b672-58389f8ebcb3"}]}],"extension":[{"url":"http://hl7.org/fhir/us/cqfmeasures/StructureDefinition/cqfm-inputParameters","valueReference":{"reference":"#d56ad624-fb08-4695-93db-f15de3f839e4-parameters"}},{"url":"http://hl7.org/fhir/us/cqfmeasures/StructureDefinition/cqfm-testCaseDescription","valueMarkdown":"Documentation of patient reason for not performing assessment is outside of encounter period "}],"modifierExtension":[{"url":"http://hl7.org/fhir/us/cqfmeasures/StructureDefinition/cqfm-isTestCase","valueBoolean":true}],"status":"complete","type":"individual","measure":"https://madie.cms.gov/Measure/DementiaCognitiveAssessmentFHIR","period":{"start":"2025-01-01","end":"2025-12-31"},"group":[{"population":[{"code":{"coding":[{"system":"http://terminology.hl7.org/CodeSystem/measure-population","code":"initial-population","display":"Initial Population"}]},"count":1},{"code":{"coding":[{"system":"http://terminology.hl7.org/CodeSystem/measure-population","code":"denominator","display":"Denominator"}]},"count":1},{"code":{"coding":[{"system":"http://terminology.hl7.org/CodeSystem/measure-population","code":"numerator","display":"Numerator"}]},"count":0},{"code":{"coding":[{"system":"http://terminology.hl7.org/CodeSystem/measure-population","code":"denominator-exception","display":"Denominator Exception"}]},"count":0}]}]},"request":{"method":"PUT","url":"MeasureReport/ae791993-d1dc-46ab-a788-25b1d17d455c"}}]}