{"resourceType":"Bundle","id":"tests-8099c6e6-7687-47d0-a759-0e5958882a50-bundle","type":"transaction","entry":[{"fullUrl":"https://madie.cms.gov/Patient/8099c6e6-7687-47d0-a759-0e5958882a50","resource":{"resourceType":"Patient","id":"8099c6e6-7687-47d0-a759-0e5958882a50","meta":{"profile":["http://hl7.org/fhir/us/qicore/StructureDefinition/qicore-patient"]},"extension":[{"url":"http://hl7.org/fhir/us/core/StructureDefinition/us-core-race","extension":[{"url":"ombCategory","valueCoding":{"system":"urn:oid:2.16.840.1.113883.6.238","code":"1002-5","display":"American Indian or Alaska Native","userSelected":true}},{"url":"text","valueString":"American Indian or Alaska Native"}]},{"url":"http://hl7.org/fhir/us/core/StructureDefinition/us-core-ethnicity","extension":[{"url":"ombCategory","valueCoding":{"system":"urn:oid:2.16.840.1.113883.6.238","code":"2135-2","display":"Hispanic or Latino","userSelected":true}},{"url":"text","valueString":"Hispanic or Latino"}]}],"identifier":[{"type":{"coding":[{"system":"http://terminology.hl7.org/CodeSystem/v2-0203","code":"MR"}]},"system":"https://bonnie-fhir.healthit.gov/","value":"642713b678c9438489949adf"}],"name":[{"family":"NUMERFail","given":["AssessmentAfterEnc"]}],"gender":"female","birthDate":"1978-01-02"},"request":{"method":"PUT","url":"Patient/8099c6e6-7687-47d0-a759-0e5958882a50"}},{"fullUrl":"https://madie.cms.gov/Condition/300230001","resource":{"resourceType":"Condition","id":"3696c52c-0419-4bb9-9e10-68ada705b4a7","meta":{"profile":["http://hl7.org/fhir/us/qicore/StructureDefinition/qicore-condition"]},"clinicalStatus":{"coding":[{"system":"http://terminology.hl7.org/CodeSystem/condition-clinical","code":"active","display":"Active","userSelected":true}]},"verificationStatus":{"coding":[{"system":"http://terminology.hl7.org/CodeSystem/condition-ver-status","code":"confirmed","display":"Confirmed","userSelected":true}]},"category":[{"coding":[{"system":"http://terminology.hl7.org/CodeSystem/condition-category","code":"encounter-diagnosis","display":"Encounter Diagnosis","userSelected":true}]}],"code":{"coding":[{"system":"http://hl7.org/fhir/sid/icd-10-cm","version":"2023","code":"G31.83","userSelected":true}]},"subject":{"reference":"Patient/8099c6e6-7687-47d0-a759-0e5958882a50"},"onsetPeriod":{"start":"2021-03-30T08:00:00.000+00:00"}},"request":{"method":"PUT","url":"Condition/3696c52c-0419-4bb9-9e10-68ada705b4a7"}},{"fullUrl":"https://madie.cms.gov/Encounter/300230002","resource":{"resourceType":"Encounter","id":"87977f1c-fc85-414d-905e-9d1ea6994aa9","meta":{"profile":["http://hl7.org/fhir/us/qicore/StructureDefinition/qicore-encounter"]},"status":"finished","class":{"system":"http://terminology.hl7.org/CodeSystem/v3-ActCode","code":"AMB","display":"ambulatory","userSelected":true},"type":[{"coding":[{"system":"http://www.ama-assn.org/go/cpt","version":"2023","code":"99212","userSelected":true}]}],"subject":{"reference":"Patient/8099c6e6-7687-47d0-a759-0e5958882a50"},"period":{"start":"2025-03-31T08:00:00.000+00:00","end":"2025-03-31T08:35:00.000+00:00"}},"request":{"method":"PUT","url":"Encounter/87977f1c-fc85-414d-905e-9d1ea6994aa9"}},{"fullUrl":"https://madie.cms.gov/Encounter/300230003","resource":{"resourceType":"Encounter","id":"6f2cde0f-c9c0-4443-bb43-f26be30738fd","meta":{"profile":["http://hl7.org/fhir/us/qicore/StructureDefinition/qicore-encounter"]},"status":"finished","class":{"system":"http://terminology.hl7.org/CodeSystem/v3-ActCode","code":"AMB","display":"ambulatory","userSelected":true},"type":[{"coding":[{"system":"http://snomed.info/sct","version":"http://snomed.info/sct/731000124108/version/202303","code":"185463005","display":"Visit out of hours (procedure)","userSelected":true}]}],"subject":{"reference":"Patient/8099c6e6-7687-47d0-a759-0e5958882a50"},"period":{"start":"2025-08-31T08:00:00.000+00:00","end":"2025-08-31T08:35:00.000+00:00"}},"request":{"method":"PUT","url":"Encounter/6f2cde0f-c9c0-4443-bb43-f26be30738fd"}},{"fullUrl":"https://madie.cms.gov/Observation/300230004","resource":{"resourceType":"Observation","id":"1f666a55-b27c-40f8-9ac8-a94bede6b2cf","meta":{"profile":["http://hl7.org/fhir/us/qicore/StructureDefinition/qicore-observation"]},"status":"final","category":[{"coding":[{"system":"http://terminology.hl7.org/CodeSystem/observation-category","code":"survey","display":"Survey","userSelected":true}]}],"code":{"coding":[{"system":"http://loinc.org","version":"2.73","code":"58151-2","display":"Prior assessment Brief Interview for Mental Status (BIMS) summary score [MDSv3]","userSelected":true}]},"subject":{"reference":"Patient/8099c6e6-7687-47d0-a759-0e5958882a50"},"effectiveDateTime":"2025-10-31T08:00:00.000+00:00","issued":"2025-10-31T08:00:00.000+00:00","valueInteger":26},"request":{"method":"PUT","url":"Observation/1f666a55-b27c-40f8-9ac8-a94bede6b2cf"}},{"fullUrl":"https://madie.cms.gov/Coverage/300230005","resource":{"resourceType":"Coverage","id":"2034e114-6d9c-47fa-b181-dafa1770cc5c","meta":{"profile":["http://hl7.org/fhir/us/qicore/StructureDefinition/qicore-coverage"]},"status":"active","beneficiary":{"reference":"Patient/8099c6e6-7687-47d0-a759-0e5958882a50"},"payor":[{"reference":"Organization/3778262e-e084-4bb5-9a47-1a144735f786"}]},"request":{"method":"PUT","url":"Coverage/2034e114-6d9c-47fa-b181-dafa1770cc5c"}},{"fullUrl":"https://madie.cms.gov/Organization/123456","resource":{"resourceType":"Organization","id":"3778262e-e084-4bb5-9a47-1a144735f786","meta":{"profile":["http://hl7.org/fhir/us/qicore/StructureDefinition/qicore-organization"]},"identifier":[{"use":"temp","system":"urn:oid:2.16.840.1.113883.4.4","value":"21-3259825"}],"active":true,"type":[{"coding":[{"system":"http://terminology.hl7.org/CodeSystem/organization-type","code":"pay","display":"Payer"}]}],"name":"Blue Cross Blue Shield of Texas","telecom":[{"system":"phone","value":"(+1) 972-766-6900"}],"address":[{"use":"billing","type":"postal","line":["P.O. Box 660044"],"city":"Dallas","state":"TX","postalCode":"75266-0044","country":"USA"}]},"request":{"method":"PUT","url":"Organization/3778262e-e084-4bb5-9a47-1a144735f786"}},{"fullUrl":"https://madie.cms.gov/Practitioner/practitioner-123456","resource":{"resourceType":"Practitioner","id":"f7262c51-1466-4c76-84dd-d7c417b764aa","identifier":[{"system":"http://hl7.org/fhir/sid/us-npi","value":"123456"}],"name":[{"family":"Evil","prefix":["Dr"]}]},"request":{"method":"PUT","url":"Practitioner/f7262c51-1466-4c76-84dd-d7c417b764aa"}},{"fullUrl":"https://madie.cms.gov/MeasureReport/2215c712-a2ae-4542-ae9b-599c06f81466","resource":{"resourceType":"MeasureReport","id":"2215c712-a2ae-4542-ae9b-599c06f81466","meta":{"profile":["http://hl7.org/fhir/us/cqfmeasures/StructureDefinition/test-case-cqfm"]},"contained":[{"resourceType":"Parameters","id":"fbaac314-e9eb-4d03-8deb-63aee68f4d9e-parameters","parameter":[{"name":"subject","valueString":"8099c6e6-7687-47d0-a759-0e5958882a50"}]}],"extension":[{"url":"http://hl7.org/fhir/us/cqfmeasures/StructureDefinition/cqfm-inputParameters","valueReference":{"reference":"#fbaac314-e9eb-4d03-8deb-63aee68f4d9e-parameters"}},{"url":"http://hl7.org/fhir/us/cqfmeasures/StructureDefinition/cqfm-testCaseDescription","valueMarkdown":"Assessment issued after dementia encounter failing numerator window 12months through encounter"}],"modifierExtension":[{"url":"http://hl7.org/fhir/us/cqfmeasures/StructureDefinition/cqfm-isTestCase","valueBoolean":true}],"status":"complete","type":"individual","measure":"https://madie.cms.gov/Measure/DementiaCognitiveAssessmentFHIR","period":{"start":"2025-01-01","end":"2025-12-31"},"group":[{"population":[{"code":{"coding":[{"system":"http://terminology.hl7.org/CodeSystem/measure-population","code":"initial-population","display":"Initial Population"}]},"count":1},{"code":{"coding":[{"system":"http://terminology.hl7.org/CodeSystem/measure-population","code":"denominator","display":"Denominator"}]},"count":1},{"code":{"coding":[{"system":"http://terminology.hl7.org/CodeSystem/measure-population","code":"numerator","display":"Numerator"}]},"count":0},{"code":{"coding":[{"system":"http://terminology.hl7.org/CodeSystem/measure-population","code":"denominator-exception","display":"Denominator Exception"}]},"count":0}]}]},"request":{"method":"PUT","url":"MeasureReport/2215c712-a2ae-4542-ae9b-599c06f81466"}}]}