{"resourceType":"Bundle","id":"tests-c547ef66-e305-41b1-af22-721950fb2911-bundle","type":"transaction","entry":[{"fullUrl":"https://madie.cms.gov/Patient/c547ef66-e305-41b1-af22-721950fb2911","resource":{"resourceType":"Patient","id":"c547ef66-e305-41b1-af22-721950fb2911","meta":{"profile":["http://hl7.org/fhir/us/qicore/StructureDefinition/qicore-patient"]},"extension":[{"url":"http://hl7.org/fhir/us/core/StructureDefinition/us-core-race","extension":[{"url":"ombCategory","valueCoding":{"system":"urn:oid:2.16.840.1.113883.6.238","code":"2028-9","display":"Asian","userSelected":true}},{"url":"text","valueString":"Asian"}]},{"url":"http://hl7.org/fhir/us/core/StructureDefinition/us-core-ethnicity","extension":[{"url":"ombCategory","valueCoding":{"system":"urn:oid:2.16.840.1.113883.6.238","code":"2186-5","display":"Not Hispanic or Latino","userSelected":true}},{"url":"text","valueString":"Not Hispanic or Latino"}]}],"identifier":[{"type":{"coding":[{"system":"http://terminology.hl7.org/CodeSystem/v2-0203","code":"MR"}]},"system":"https://bonnie-fhir.healthit.gov/","value":"610d3a53be3d5dcbc43d6777"}],"name":[{"family":"IPPass","given":["QualEncountersWithDementia"]}],"gender":"female","birthDate":"1968-03-02"},"request":{"method":"PUT","url":"Patient/c547ef66-e305-41b1-af22-721950fb2911"}},{"fullUrl":"https://madie.cms.gov/Encounter/300320001","resource":{"resourceType":"Encounter","id":"54881382-5450-475f-8afa-a7a47a8c2ed5","meta":{"profile":["http://hl7.org/fhir/us/qicore/StructureDefinition/qicore-encounter"]},"status":"finished","class":{"system":"http://terminology.hl7.org/CodeSystem/v3-ActCode","code":"AMB","display":"ambulatory","userSelected":true},"type":[{"coding":[{"system":"http://snomed.info/sct","version":"http://snomed.info/sct/731000124108/version/202303","code":"185460008","display":"Home visit request by patient (procedure)","userSelected":true}]}],"subject":{"reference":"Patient/c547ef66-e305-41b1-af22-721950fb2911"},"period":{"start":"2025-08-06T08:00:00.000+00:00","end":"2025-08-10T08:15:00.000+00:00"}},"request":{"method":"PUT","url":"Encounter/54881382-5450-475f-8afa-a7a47a8c2ed5"}},{"fullUrl":"https://madie.cms.gov/Condition/300320002","resource":{"resourceType":"Condition","id":"07a99bc1-7033-482e-a3c7-e3b7dadd17b8","meta":{"profile":["http://hl7.org/fhir/us/qicore/StructureDefinition/qicore-condition"]},"clinicalStatus":{"coding":[{"system":"http://terminology.hl7.org/CodeSystem/condition-clinical","code":"active","display":"active","userSelected":true}]},"category":[{"coding":[{"system":"http://terminology.hl7.org/CodeSystem/condition-category","code":"problem-list-item","display":"Problem List Item"}]}],"code":{"coding":[{"system":"http://snomed.info/sct","version":"http://snomed.info/sct/731000124108/version/202303","code":"10349009","display":"Multi-infarct dementia with delirium (disorder)","userSelected":true}]},"subject":{"reference":"Patient/c547ef66-e305-41b1-af22-721950fb2911"},"onsetDateTime":"2025-08-06T08:00:00.000+00:00"},"request":{"method":"PUT","url":"Condition/07a99bc1-7033-482e-a3c7-e3b7dadd17b8"}},{"fullUrl":"https://madie.cms.gov/Encounter/300320003","resource":{"resourceType":"Encounter","id":"bdc606ba-d6ad-400d-8e3d-8df8830381f7","meta":{"profile":["http://hl7.org/fhir/us/qicore/StructureDefinition/qicore-encounter"]},"status":"finished","class":{"system":"http://terminology.hl7.org/CodeSystem/v3-ActCode","code":"AMB","display":"ambulatory","userSelected":true},"type":[{"coding":[{"system":"http://snomed.info/sct","version":"http://snomed.info/sct/731000124108/version/202303","code":"185316007","display":"Indirect encounter (procedure)","userSelected":true}]}],"subject":{"reference":"Patient/c547ef66-e305-41b1-af22-721950fb2911"},"period":{"start":"2025-08-06T08:00:00.000+00:00","end":"2025-08-10T08:15:00.000+00:00"},"diagnosis":[{"condition":{"reference":"Condition/dementia-mental-degenerations-5d61"}}]},"request":{"method":"PUT","url":"Encounter/bdc606ba-d6ad-400d-8e3d-8df8830381f7"}},{"fullUrl":"https://madie.cms.gov/Condition/300320004","resource":{"resourceType":"Condition","id":"87501391-35bb-4da3-baa7-0b060a4c45a3","category":[{"coding":[{"system":"http://terminology.hl7.org/CodeSystem/condition-category","code":"encounter-diagnosis","display":"Encounter Diagnosis"}]}],"code":{"coding":[{"system":"http://snomed.info/sct","version":"http://snomed.info/sct/731000124108/version/202303","code":"10349009","display":"Multi-infarct dementia with delirium (disorder)","userSelected":true}]},"subject":{"reference":"Patient/c547ef66-e305-41b1-af22-721950fb2911"},"onsetPeriod":{"start":"2023-08-05T08:00:00.000+00:00","end":"2023-08-11T08:15:00.000+00:00"}},"request":{"method":"PUT","url":"Condition/87501391-35bb-4da3-baa7-0b060a4c45a3"}},{"fullUrl":"https://madie.cms.gov/Coverage/300320005","resource":{"resourceType":"Coverage","id":"1751450c-6d67-44d3-be5e-d6b7fd109324","meta":{"profile":["http://hl7.org/fhir/us/qicore/StructureDefinition/qicore-coverage"]},"status":"active","beneficiary":{"reference":"Patient/c547ef66-e305-41b1-af22-721950fb2911"},"relationship":{"coding":[{"system":"http://terminology.hl7.org/CodeSystem/subscriber-relationship","code":"self"}]},"period":{"start":"2015-05-23","end":"2025-05-23"},"payor":[{"reference":"Organization/f4907415-83c5-4eae-ab0b-cb63a840880d"}]},"request":{"method":"PUT","url":"Coverage/1751450c-6d67-44d3-be5e-d6b7fd109324"}},{"fullUrl":"https://madie.cms.gov/Organization/123456","resource":{"resourceType":"Organization","id":"f4907415-83c5-4eae-ab0b-cb63a840880d","meta":{"profile":["http://hl7.org/fhir/us/qicore/StructureDefinition/qicore-organization"]},"identifier":[{"use":"temp","system":"urn:oid:2.16.840.1.113883.4.4","value":"21-3259825"}],"active":true,"type":[{"coding":[{"system":"http://terminology.hl7.org/CodeSystem/organization-type","code":"pay","display":"Payer"}]}],"name":"Blue Cross Blue Shield of Texas","telecom":[{"system":"phone","value":"(+1) 972-766-6900"}],"address":[{"use":"billing","type":"postal","line":["P.O. Box 660044"],"city":"Dallas","state":"TX","postalCode":"75266-0044","country":"USA"}]},"request":{"method":"PUT","url":"Organization/f4907415-83c5-4eae-ab0b-cb63a840880d"}},{"fullUrl":"https://madie.cms.gov/Practitioner/practitioner-123456","resource":{"resourceType":"Practitioner","id":"d37710ad-3587-43fa-b1ab-98d3c687a51d","identifier":[{"system":"http://hl7.org/fhir/sid/us-npi","value":"123456"}],"name":[{"family":"Evil","prefix":["Dr"]}]},"request":{"method":"PUT","url":"Practitioner/d37710ad-3587-43fa-b1ab-98d3c687a51d"}},{"fullUrl":"https://madie.cms.gov/MeasureReport/980bb66c-782f-425b-b4f0-3b317ec418dd","resource":{"resourceType":"MeasureReport","id":"980bb66c-782f-425b-b4f0-3b317ec418dd","meta":{"profile":["http://hl7.org/fhir/us/cqfmeasures/StructureDefinition/test-case-cqfm"]},"contained":[{"resourceType":"Parameters","id":"ae1e506f-4b53-46e3-89f1-a44b74c18ed7-parameters","parameter":[{"name":"subject","valueString":"c547ef66-e305-41b1-af22-721950fb2911"}]}],"extension":[{"url":"http://hl7.org/fhir/us/cqfmeasures/StructureDefinition/cqfm-inputParameters","valueReference":{"reference":"#ae1e506f-4b53-46e3-89f1-a44b74c18ed7-parameters"}},{"url":"http://hl7.org/fhir/us/cqfmeasures/StructureDefinition/cqfm-testCaseDescription","valueMarkdown":"Patient has two qualifying encounters and dementia diagnosis"}],"modifierExtension":[{"url":"http://hl7.org/fhir/us/cqfmeasures/StructureDefinition/cqfm-isTestCase","valueBoolean":true}],"status":"complete","type":"individual","measure":"https://madie.cms.gov/Measure/DementiaCognitiveAssessmentFHIR","period":{"start":"2025-01-01","end":"2025-12-31"},"group":[{"population":[{"code":{"coding":[{"system":"http://terminology.hl7.org/CodeSystem/measure-population","code":"initial-population","display":"Initial Population"}]},"count":1},{"code":{"coding":[{"system":"http://terminology.hl7.org/CodeSystem/measure-population","code":"denominator","display":"Denominator"}]},"count":1},{"code":{"coding":[{"system":"http://terminology.hl7.org/CodeSystem/measure-population","code":"numerator","display":"Numerator"}]},"count":0},{"code":{"coding":[{"system":"http://terminology.hl7.org/CodeSystem/measure-population","code":"denominator-exception","display":"Denominator Exception"}]},"count":0}]}]},"request":{"method":"PUT","url":"MeasureReport/980bb66c-782f-425b-b4f0-3b317ec418dd"}}]}