{
  "resourceType": "Bundle",
  "id": "tests-DENOMPass-RiskVariableASAClass-bundle",
  "type": "transaction",
  "entry": [ {
    "fullUrl": "https://madie.cms.gov/Encounter/08d09194-c106-4dd2-b19b-7a8e0f5f299a",
    "resource": {
      "resourceType": "Encounter",
      "id": "08d09194-c106-4dd2-b19b-7a8e0f5f299a",
      "meta": {
        "profile": [ "http://hl7.org/fhir/us/qicore/StructureDefinition/qicore-encounter" ]
      },
      "status": "finished",
      "class": {
        "system": "http://terminology.hl7.org/CodeSystem/v3-ActCode",
        "code": "IMP",
        "display": "inpatient encounter"
      },
      "type": [ {
        "coding": [ {
          "system": "http://snomed.info/sct",
          "code": "112689000",
          "display": "Hospital admission, elective, with complete pre-admission work-up"
        } ],
        "text": "Hospital admission, elective, with complete pre-admission work-up"
      } ],
      "priority": {
        "coding": [ {
          "system": "http://snomed.info/sct",
          "code": "103390000"
        } ]
      },
      "subject": {
        "reference": "Patient/165ecd09-8616-45dd-bdb6-78a883184d08"
      },
      "period": {
        "start": "2026-04-10T08:00:00+00:00",
        "end": "2026-04-14T08:15:00+00:00"
      },
      "diagnosis": [ {
        "condition": {
          "reference": "Procedure/d85d6387-f8c1-46c4-b959-1f695a7519dc"
        },
        "rank": 1
      } ]
    },
    "request": {
      "method": "PUT",
      "url": "Encounter/08d09194-c106-4dd2-b19b-7a8e0f5f299a"
    }
  }, {
    "fullUrl": "https://madie.cms.gov/Observation/e89afd4a-1ec5-40b8-b27f-c2e5dbe1e885",
    "resource": {
      "resourceType": "Observation",
      "id": "e89afd4a-1ec5-40b8-b27f-c2e5dbe1e885",
      "meta": {
        "profile": [ "http://hl7.org/fhir/us/qicore/StructureDefinition/qicore-observation" ]
      },
      "status": "final",
      "category": [ {
        "coding": [ {
          "system": "http://terminology.hl7.org/CodeSystem/observation-category",
          "code": "laboratory",
          "display": "Laboratory"
        } ],
        "text": "Laboratory"
      } ],
      "code": {
        "coding": [ {
          "system": "http://loinc.org",
          "code": "97816-3",
          "display": "American society of anesthesiologists morbidity state"
        } ],
        "text": "American society of anesthesiologists morbidity state"
      },
      "subject": {
        "reference": "Patient/165ecd09-8616-45dd-bdb6-78a883184d08"
      },
      "encounter": {
        "reference": "Encounter/08d09194-c106-4dd2-b19b-7a8e0f5f299a"
      },
      "effectiveDateTime": "2026-04-11T08:00:00+00:00",
      "valueCodeableConcept": {
        "coding": [ {
          "system": "http://snomed.info/sct",
          "code": "413499007",
          "display": "American Society of Anesthesiologists physical status class 5 (finding)"
        } ],
        "text": "American Society of Anesthesiologists physical status class 5 (finding)"
      }
    },
    "request": {
      "method": "PUT",
      "url": "Observation/e89afd4a-1ec5-40b8-b27f-c2e5dbe1e885"
    }
  }, {
    "fullUrl": "https://madie.cms.gov/Patient/165ecd09-8616-45dd-bdb6-78a883184d08",
    "resource": {
      "resourceType": "Patient",
      "id": "165ecd09-8616-45dd-bdb6-78a883184d08",
      "meta": {
        "profile": [ "http://hl7.org/fhir/us/qicore/StructureDefinition/qicore-patient" ]
      },
      "extension": [ {
        "url": "http://hl7.org/fhir/us/core/StructureDefinition/us-core-race",
        "extension": [ {
          "url": "ombCategory",
          "valueCoding": {
            "system": "urn:oid:2.16.840.1.113883.6.238",
            "code": "2054-5",
            "display": "Black or African American",
            "userSelected": true
          }
        }, {
          "url": "text",
          "valueString": "Black or African American"
        } ]
      }, {
        "url": "http://hl7.org/fhir/us/core/StructureDefinition/us-core-ethnicity",
        "extension": [ {
          "url": "ombCategory",
          "valueCoding": {
            "system": "urn:oid:2.16.840.1.113883.6.238",
            "code": "2186-5",
            "display": "Not Hispanic or Latino",
            "userSelected": true
          }
        }, {
          "url": "text",
          "valueString": "Not Hispanic or Latino"
        } ]
      } ],
      "identifier": [ {
        "type": {
          "coding": [ {
            "system": "http://terminology.hl7.org/CodeSystem/v2-0203",
            "code": "MR"
          } ]
        },
        "system": "https://bonnie-fhir.healthit.gov/",
        "value": "61152a3b98086b7a79cbd7c1"
      } ],
      "active": true,
      "name": [ {
        "use": "usual",
        "family": "DENOMPass",
        "given": [ "RiskVariableASAClass" ]
      } ],
      "gender": "female",
      "birthDate": "1966-07-12"
    },
    "request": {
      "method": "PUT",
      "url": "Patient/165ecd09-8616-45dd-bdb6-78a883184d08"
    }
  }, {
    "fullUrl": "https://madie.cms.gov/Procedure/d85d6387-f8c1-46c4-b959-1f695a7519dc",
    "resource": {
      "resourceType": "Procedure",
      "id": "d85d6387-f8c1-46c4-b959-1f695a7519dc",
      "meta": {
        "profile": [ "http://hl7.org/fhir/us/qicore/StructureDefinition/qicore-procedure" ]
      },
      "extension": [ {
        "url": "http://hl7.org/fhir/us/qicore/StructureDefinition/qicore-recorded",
        "valueDateTime": "2026-04-11T10:30:00+00:00"
      } ],
      "status": "completed",
      "category": {
        "coding": [ {
          "system": "http://snomed.info/sct",
          "code": "18286008",
          "display": "General or neuraxial anesthesia"
        } ]
      },
      "code": {
        "coding": [ {
          "system": "http://snomed.info/sct",
          "code": "112943005",
          "display": "Epidural injection of anesthetic substance, diagnostic, caudal, continuous"
        } ]
      },
      "subject": {
        "reference": "Patient/165ecd09-8616-45dd-bdb6-78a883184d08"
      },
      "performedPeriod": {
        "start": "2026-04-11T08:00:00+00:00",
        "end": "2026-04-11T10:15:00+00:00"
      }
    },
    "request": {
      "method": "PUT",
      "url": "Procedure/d85d6387-f8c1-46c4-b959-1f695a7519dc"
    }
  }, {
    "fullUrl": "https://madie.cms.gov/MeasureReport/a778b810-e647-4e65-8049-f5aedbd80e01",
    "resource": {
      "resourceType": "MeasureReport",
      "id": "a778b810-e647-4e65-8049-f5aedbd80e01",
      "meta": {
        "profile": [ "http://hl7.org/fhir/us/cqfmeasures/StructureDefinition/test-case-cqfm" ]
      },
      "contained": [ {
        "resourceType": "Parameters",
        "id": "d905ce36-74cb-4636-a93d-c70e6576f1da-parameters",
        "parameter": [ {
          "name": "subject",
          "valueString": "165ecd09-8616-45dd-bdb6-78a883184d08"
        } ]
      } ],
      "extension": [ {
        "url": "http://hl7.org/fhir/us/cqfmeasures/StructureDefinition/cqfm-inputParameters",
        "valueReference": {
          "reference": "#d905ce36-74cb-4636-a93d-c70e6576f1da-parameters"
        }
      }, {
        "url": "http://hl7.org/fhir/us/cqfmeasures/StructureDefinition/cqfm-testCaseDescription",
        "valueMarkdown": "Elective hospitalization with procedure (general anesthesia) within first 3 days of encounter. Meets IPP/Denom. RV test displays ASA class SNOMEDCT code 413499007as expected."
      } ],
      "modifierExtension": [ {
        "url": "http://hl7.org/fhir/us/cqfmeasures/StructureDefinition/cqfm-isTestCase",
        "valueBoolean": true
      } ],
      "status": "complete",
      "type": "individual",
      "measure": "https://madie.cms.gov/Measure/CMS1218HHRFFHIR",
      "period": {
        "start": "2026-01-01",
        "end": "2026-12-31"
      },
      "group": [ {
        "population": [ {
          "code": {
            "coding": [ {
              "system": "http://terminology.hl7.org/CodeSystem/measure-population",
              "code": "initial-population",
              "display": "Initial Population"
            } ]
          },
          "count": 1
        }, {
          "code": {
            "coding": [ {
              "system": "http://terminology.hl7.org/CodeSystem/measure-population",
              "code": "denominator",
              "display": "Denominator"
            } ]
          },
          "count": 1
        }, {
          "code": {
            "coding": [ {
              "system": "http://terminology.hl7.org/CodeSystem/measure-population",
              "code": "denominator-exclusion",
              "display": "Denominator Exclusion"
            } ]
          },
          "count": 0
        }, {
          "code": {
            "coding": [ {
              "system": "http://terminology.hl7.org/CodeSystem/measure-population",
              "code": "numerator",
              "display": "Numerator"
            } ]
          },
          "count": 0
        } ]
      } ],
      "evaluatedResource": [ {
        "reference": "Encounter/08d09194-c106-4dd2-b19b-7a8e0f5f299a"
      }, {
        "reference": "Observation/e89afd4a-1ec5-40b8-b27f-c2e5dbe1e885"
      }, {
        "reference": "Patient/165ecd09-8616-45dd-bdb6-78a883184d08"
      }, {
        "reference": "Procedure/d85d6387-f8c1-46c4-b959-1f695a7519dc"
      } ]
    },
    "request": {
      "method": "PUT",
      "url": "MeasureReport/a778b810-e647-4e65-8049-f5aedbd80e01"
    }
  } ]
}