{
  "resourceType": "Bundle",
  "id": "NUMERPass-InjuryDiagHasNoIndicator",
  "type": "transaction",
  "entry": [ {
    "fullUrl": "https://madie.cms.gov/Encounter/75d02940-9792-4f84-b5dd-24cdb3c0bf94",
    "resource": {
      "resourceType": "Encounter",
      "id": "75d02940-9792-4f84-b5dd-24cdb3c0bf94",
      "meta": {
        "profile": [ "http://hl7.org/fhir/us/qicore/StructureDefinition/qicore-encounter" ]
      },
      "status": "finished",
      "class": {
        "system": "http://terminology.hl7.org/CodeSystem/v3-ActCode",
        "code": "IMP",
        "display": "inpatient encounter"
      },
      "type": [ {
        "coding": [ {
          "system": "http://snomed.info/sct",
          "code": "183452005"
        } ]
      } ],
      "subject": {
        "reference": "Patient/e6d91b78-a66f-4fcc-a9a7-edb3d862803e"
      },
      "period": {
        "start": "2026-11-09T11:00:00+00:00",
        "end": "2026-11-12T08:15:00+00:00"
      },
      "diagnosis": [ {
        "condition": {
          "reference": "Condition/2dfeaba7-79d2-479f-a586-fca056cb1b19"
        }
      } ]
    },
    "request": {
      "method": "PUT",
      "url": "Encounter/75d02940-9792-4f84-b5dd-24cdb3c0bf94"
    }
  }, {
    "fullUrl": "https://madie.cms.gov/Encounter/59e7219b-6886-48d5-b691-385ebd648fd0",
    "resource": {
      "resourceType": "Encounter",
      "id": "59e7219b-6886-48d5-b691-385ebd648fd0",
      "meta": {
        "profile": [ "http://hl7.org/fhir/us/qicore/StructureDefinition/qicore-encounter" ]
      },
      "status": "finished",
      "class": {
        "system": "http://terminology.hl7.org/CodeSystem/v3-ActCode",
        "code": "IMP",
        "display": "inpatient encounter"
      },
      "type": [ {
        "coding": [ {
          "system": "http://snomed.info/sct",
          "code": "4525004"
        } ]
      } ],
      "subject": {
        "reference": "Patient/e6d91b78-a66f-4fcc-a9a7-edb3d862803e"
      },
      "period": {
        "start": "2026-11-09T08:00:00+00:00",
        "end": "2026-11-09T10:15:00+00:00"
      }
    },
    "request": {
      "method": "PUT",
      "url": "Encounter/59e7219b-6886-48d5-b691-385ebd648fd0"
    }
  }, {
    "fullUrl": "https://madie.cms.gov/Condition/2dfeaba7-79d2-479f-a586-fca056cb1b19",
    "resource": {
      "resourceType": "Condition",
      "id": "2dfeaba7-79d2-479f-a586-fca056cb1b19",
      "meta": {
        "profile": [ "http://hl7.org/fhir/us/qicore/StructureDefinition/qicore-condition" ]
      },
      "clinicalStatus": {
        "coding": [ {
          "system": "http://terminology.hl7.org/CodeSystem/condition-clinical",
          "code": "active"
        } ]
      },
      "verificationStatus": {
        "coding": [ {
          "system": "http://terminology.hl7.org/CodeSystem/condition-ver-status",
          "code": "confirmed"
        } ]
      },
      "category": [ {
        "coding": [ {
          "system": "http://terminology.hl7.org/CodeSystem/condition-category",
          "code": "encounter-diagnosis",
          "display": "Encounter Diagnosis"
        } ]
      } ],
      "code": {
        "coding": [ {
          "system": "http://hl7.org/fhir/sid/icd-10-cm",
          "code": "M80.00XA"
        } ]
      },
      "subject": {
        "reference": "Patient/e6d91b78-a66f-4fcc-a9a7-edb3d862803e"
      },
      "encounter": {
        "reference": "Encounter/75d02940-9792-4f84-b5dd-24cdb3c0bf94"
      }
    },
    "request": {
      "method": "PUT",
      "url": "Condition/2dfeaba7-79d2-479f-a586-fca056cb1b19"
    }
  }, {
    "fullUrl": "https://madie.cms.gov/Patient/e6d91b78-a66f-4fcc-a9a7-edb3d862803e",
    "resource": {
      "resourceType": "Patient",
      "id": "e6d91b78-a66f-4fcc-a9a7-edb3d862803e",
      "meta": {
        "profile": [ "http://hl7.org/fhir/us/qicore/StructureDefinition/qicore-patient" ]
      },
      "extension": [ {
        "url": "http://hl7.org/fhir/us/core/StructureDefinition/us-core-race",
        "extension": [ {
          "url": "ombCategory",
          "valueCoding": {
            "system": "urn:oid:2.16.840.1.113883.6.238",
            "code": "2054-5",
            "display": "Black or African American",
            "userSelected": true
          }
        }, {
          "url": "text",
          "valueString": "Black or African American"
        } ]
      }, {
        "url": "http://hl7.org/fhir/us/core/StructureDefinition/us-core-ethnicity",
        "extension": [ {
          "url": "ombCategory",
          "valueCoding": {
            "system": "urn:oid:2.16.840.1.113883.6.238",
            "code": "2186-5",
            "display": "Not Hispanic or Latino",
            "userSelected": true
          }
        }, {
          "url": "text",
          "valueString": "Not Hispanic or Latino"
        } ]
      } ],
      "identifier": [ {
        "type": {
          "coding": [ {
            "system": "http://terminology.hl7.org/CodeSystem/v2-0203",
            "code": "MR"
          } ]
        },
        "system": "https://bonnie-fhir.healthit.gov/",
        "value": "61152a3b98086b7a79cbd7c1"
      } ],
      "active": true,
      "name": [ {
        "use": "usual",
        "family": "NUMERPass",
        "given": [ "InjuryDiagHasNoIndicator" ]
      } ],
      "gender": "male",
      "birthDate": "1964-12-11"
    },
    "request": {
      "method": "PUT",
      "url": "Patient/e6d91b78-a66f-4fcc-a9a7-edb3d862803e"
    }
  }, {
    "fullUrl": "https://madie.cms.gov/AdverseEvent/ee8b56dc-8ab2-4391-bb49-102a69cbc6c8",
    "resource": {
      "resourceType": "AdverseEvent",
      "id": "ee8b56dc-8ab2-4391-bb49-102a69cbc6c8",
      "meta": {
        "profile": [ "http://hl7.org/fhir/us/qicore/StructureDefinition/qicore-adverseevent" ]
      },
      "actuality": "actual",
      "event": {
        "coding": [ {
          "system": "http://snomed.info/sct",
          "code": "14047009"
        } ]
      },
      "subject": {
        "reference": "Patient/e6d91b78-a66f-4fcc-a9a7-edb3d862803e"
      },
      "date": "2026-11-09T08:00:00+00:00"
    },
    "request": {
      "method": "PUT",
      "url": "AdverseEvent/ee8b56dc-8ab2-4391-bb49-102a69cbc6c8"
    }
  }, {
    "fullUrl": "https://madie.cms.gov/MeasureReport/73bc966f-5b16-47cc-a3a9-36889c2b691f",
    "resource": {
      "resourceType": "MeasureReport",
      "id": "73bc966f-5b16-47cc-a3a9-36889c2b691f",
      "meta": {
        "profile": [ "http://hl7.org/fhir/us/cqfmeasures/StructureDefinition/test-case-cqfm" ]
      },
      "contained": [ {
        "resourceType": "Parameters",
        "id": "59e24c22-e2c7-4bf7-9418-fa011390521c-parameters",
        "parameter": [ {
          "name": "subject",
          "valueString": "e6d91b78-a66f-4fcc-a9a7-edb3d862803e"
        } ]
      } ],
      "extension": [ {
        "url": "http://hl7.org/fhir/us/cqfmeasures/StructureDefinition/cqfm-inputParameters",
        "valueReference": {
          "reference": "#59e24c22-e2c7-4bf7-9418-fa011390521c-parameters"
        }
      }, {
        "url": "http://hl7.org/fhir/us/cqfmeasures/StructureDefinition/cqfm-testCaseDescription",
        "valueMarkdown": "Encounter with Adverse Event Fall. Encounter diag of injury, the present on admission indicator is null. Meets Numerator. "
      } ],
      "modifierExtension": [ {
        "url": "http://hl7.org/fhir/us/cqfmeasures/StructureDefinition/cqfm-isTestCase",
        "valueBoolean": true
      } ],
      "status": "complete",
      "type": "individual",
      "measure": "https://madie.cms.gov/Measure/FallsWithInjuryFHIR",
      "period": {
        "start": "2026-01-01",
        "end": "2026-12-31"
      },
      "group": [ {
        "population": [ {
          "code": {
            "coding": [ {
              "system": "http://terminology.hl7.org/CodeSystem/measure-population",
              "code": "initial-population",
              "display": "Initial Population"
            } ]
          },
          "count": 1
        }, {
          "code": {
            "coding": [ {
              "system": "http://terminology.hl7.org/CodeSystem/measure-population",
              "code": "denominator",
              "display": "Denominator"
            } ]
          },
          "count": 1
        }, {
          "code": {
            "coding": [ {
              "system": "http://terminology.hl7.org/CodeSystem/measure-population",
              "code": "denominator-exclusion",
              "display": "Denominator Exclusion"
            } ]
          },
          "count": 0
        }, {
          "code": {
            "coding": [ {
              "system": "http://terminology.hl7.org/CodeSystem/measure-population",
              "code": "numerator",
              "display": "Numerator"
            } ]
          },
          "count": 1
        }, {
          "code": {
            "coding": [ {
              "system": "http://terminology.hl7.org/CodeSystem/measure-population",
              "code": "numerator-exclusion",
              "display": "Numerator Exclusion"
            } ]
          },
          "count": 0
        }, {
          "code": {
            "coding": [ {
              "system": "http://terminology.hl7.org/CodeSystem/measure-population",
              "code": "denominator-observation",
              "display": "DenominatorObservation"
            } ]
          },
          "count": 3
        }, {
          "code": {
            "coding": [ {
              "system": "http://terminology.hl7.org/CodeSystem/measure-population",
              "code": "numerator-observation",
              "display": "Numerator Observation"
            } ]
          },
          "count": 1
        } ]
      } ],
      "evaluatedResource": [ {
        "reference": "Encounter/75d02940-9792-4f84-b5dd-24cdb3c0bf94"
      }, {
        "reference": "Encounter/59e7219b-6886-48d5-b691-385ebd648fd0"
      }, {
        "reference": "Condition/2dfeaba7-79d2-479f-a586-fca056cb1b19"
      }, {
        "reference": "Patient/e6d91b78-a66f-4fcc-a9a7-edb3d862803e"
      }, {
        "reference": "AdverseEvent/ee8b56dc-8ab2-4391-bb49-102a69cbc6c8"
      } ]
    },
    "request": {
      "method": "PUT",
      "url": "MeasureReport/73bc966f-5b16-47cc-a3a9-36889c2b691f"
    }
  } ]
}