{
  "resourceType": "Bundle",
  "id": "63594c7a6aee9629c82981df",
  "type": "transaction",
  "entry": [ {
    "fullUrl": "https://madie.cms.gov/Patient/ee015ae6-6dcb-4ae1-86e8-b8e22848879d",
    "resource": {
      "resourceType": "Patient",
      "id": "ee015ae6-6dcb-4ae1-86e8-b8e22848879d",
      "meta": {
        "profile": [ "http://hl7.org/fhir/us/qicore/StructureDefinition/qicore-patient" ]
      },
      "text": {
        "status": "generated",
        "div": "<div xmlns=\"http://www.w3.org/1999/xhtml\"><div class=\"hapiHeaderText\">Risk_MentalHealthDisorder<b>RISKPass </b></div><table class=\"hapiPropertyTable\"><tbody><tr><td>Date of birth</td><td><span>01 February 2004</span></td></tr></tbody></table></div>"
      },
      "extension": [ {
        "url": "http://hl7.org/fhir/us/core/StructureDefinition/us-core-race",
        "extension": [ {
          "url": "ombCategory",
          "valueCoding": {
            "system": "urn:oid:2.16.840.1.113883.6.238",
            "code": "1002-5",
            "display": "American Indian or Alaska Native",
            "userSelected": true
          }
        }, {
          "url": "text",
          "valueString": "American Indian or Alaska Native"
        } ]
      }, {
        "url": "http://hl7.org/fhir/us/core/StructureDefinition/us-core-ethnicity",
        "extension": [ {
          "url": "ombCategory",
          "valueCoding": {
            "system": "urn:oid:2.16.840.1.113883.6.238",
            "code": "2135-2",
            "display": "Hispanic or Latino",
            "userSelected": true
          }
        }, {
          "url": "text",
          "valueString": "Hispanic or Latino"
        } ]
      } ],
      "identifier": [ {
        "type": {
          "coding": [ {
            "system": "http://terminology.hl7.org/CodeSystem/v2-0203",
            "code": "MR"
          } ]
        },
        "system": "https://bonnie-fhir.healthit.gov/",
        "value": "63594c7a6aee9629c82981df"
      } ],
      "active": true,
      "name": [ {
        "use": "usual",
        "family": "RiskPass",
        "given": [ "Risk_MentalHealthDisorder" ]
      } ],
      "gender": "female",
      "birthDate": "2004-02-01"
    },
    "request": {
      "method": "PUT",
      "url": "Patient/ee015ae6-6dcb-4ae1-86e8-b8e22848879d"
    }
  }, {
    "fullUrl": "https://madie.cms.gov/Observation/d1893aac-08c1-4ba2-ab59-8ce1a29a4138",
    "resource": {
      "resourceType": "Observation",
      "id": "d1893aac-08c1-4ba2-ab59-8ce1a29a4138",
      "meta": {
        "profile": [ "http://hl7.org/fhir/us/qicore/StructureDefinition/qicore-observation" ]
      },
      "status": "final",
      "category": [ {
        "coding": [ {
          "system": "http://terminology.hl7.org/CodeSystem/observation-category",
          "code": "exam",
          "display": "exam",
          "userSelected": true
        } ]
      } ],
      "code": {
        "coding": [ {
          "system": "http://loinc.org",
          "code": "93857-1"
        } ]
      },
      "subject": {
        "reference": "Patient/ee015ae6-6dcb-4ae1-86e8-b8e22848879d"
      },
      "effectiveDateTime": "2025-02-01T08:00:00.000+00:00",
      "valueDateTime": "2025-02-01T08:00:00+00:00"
    },
    "request": {
      "method": "PUT",
      "url": "Observation/d1893aac-08c1-4ba2-ab59-8ce1a29a4138"
    }
  }, {
    "fullUrl": "https://madie.cms.gov/Observation/6d5613e3-b59c-4be1-85c2-5a0618a1ba16",
    "resource": {
      "resourceType": "Observation",
      "id": "6d5613e3-b59c-4be1-85c2-5a0618a1ba16",
      "meta": {
        "profile": [ "http://hl7.org/fhir/us/qicore/StructureDefinition/qicore-observation" ]
      },
      "status": "final",
      "category": [ {
        "coding": [ {
          "system": "http://terminology.hl7.org/CodeSystem/observation-category",
          "code": "exam",
          "display": "exam",
          "userSelected": true
        } ]
      } ],
      "code": {
        "coding": [ {
          "system": "http://loinc.org",
          "code": "11778-8"
        } ]
      },
      "subject": {
        "reference": "Patient/ee015ae6-6dcb-4ae1-86e8-b8e22848879d"
      },
      "effectiveDateTime": "2025-02-01T08:00:00.000+00:00",
      "valueDateTime": "2025-02-01T00:00:00.000+00:00"
    },
    "request": {
      "method": "PUT",
      "url": "Observation/6d5613e3-b59c-4be1-85c2-5a0618a1ba16"
    }
  }, {
    "fullUrl": "https://madie.cms.gov/Encounter/560207e0-5b89-47d6-be05-ca2d2d1883ea",
    "resource": {
      "resourceType": "Encounter",
      "id": "560207e0-5b89-47d6-be05-ca2d2d1883ea",
      "meta": {
        "profile": [ "http://hl7.org/fhir/us/qicore/StructureDefinition/qicore-encounter" ]
      },
      "status": "finished",
      "class": {
        "system": "http://terminology.hl7.org/CodeSystem/v3-ActCode",
        "code": "IMP",
        "display": "inpatient encounter"
      },
      "type": [ {
        "coding": [ {
          "system": "http://snomed.info/sct",
          "code": "183452005"
        } ]
      } ],
      "subject": {
        "reference": "Patient/ee015ae6-6dcb-4ae1-86e8-b8e22848879d"
      },
      "period": {
        "start": "2025-02-01T08:00:00.000Z",
        "end": "2025-02-05T08:15:00.000Z"
      },
      "diagnosis": [ {
        "extension": [ {
          "url": "http://hl7.org/fhir/us/qicore/StructureDefinition/qicore-encounter-diagnosisPresentOnAdmission",
          "valueCodeableConcept": {
            "coding": [ {
              "system": "https://www.cms.gov/Medicare/Medicare-Fee-for-Service-Payment/HospitalAcqCond/Coding",
              "code": "Y"
            } ]
          }
        } ],
        "condition": {
          "reference": "Condition/9e39265c-0a34-411e-8c1f-2396c40f3be4"
        }
      }, {
        "extension": [ {
          "url": "http://hl7.org/fhir/us/qicore/StructureDefinition/qicore-encounter-diagnosisPresentOnAdmission",
          "valueCodeableConcept": {
            "coding": [ {
              "system": "https://www.cms.gov/Medicare/Medicare-Fee-for-Service-Payment/HospitalAcqCond/Coding",
              "code": "N"
            } ]
          }
        } ],
        "condition": {
          "reference": "Condition/19c39b4e-5101-4038-ad59-7012b092acdb"
        }
      } ]
    },
    "request": {
      "method": "PUT",
      "url": "Encounter/560207e0-5b89-47d6-be05-ca2d2d1883ea"
    }
  }, {
    "fullUrl": "https://madie.cms.gov/Procedure/e2f8df1e-1c43-48e9-9811-e19db8311437",
    "resource": {
      "resourceType": "Procedure",
      "id": "e2f8df1e-1c43-48e9-9811-e19db8311437",
      "meta": {
        "profile": [ "http://hl7.org/fhir/us/qicore/StructureDefinition/qicore-procedure" ]
      },
      "extension": [ {
        "url": "http://hl7.org/fhir/us/qicore/StructureDefinition/qicore-recorded",
        "valueDateTime": "2013-04-05T09:35:00-04:00"
      } ],
      "status": "completed",
      "code": {
        "coding": [ {
          "system": "http://snomed.info/sct",
          "code": "10745001"
        } ]
      },
      "subject": {
        "reference": "Patient/ee015ae6-6dcb-4ae1-86e8-b8e22848879d"
      },
      "performedDateTime": "2025-02-01T08:00:00.000+00:00"
    },
    "request": {
      "method": "PUT",
      "url": "Procedure/e2f8df1e-1c43-48e9-9811-e19db8311437"
    }
  }, {
    "fullUrl": "https://madie.cms.gov/Condition/19c39b4e-5101-4038-ad59-7012b092acdb",
    "resource": {
      "resourceType": "Condition",
      "id": "19c39b4e-5101-4038-ad59-7012b092acdb",
      "meta": {
        "profile": [ "http://hl7.org/fhir/us/qicore/StructureDefinition/qicore-condition" ]
      },
      "category": [ {
        "coding": [ {
          "system": "http://terminology.hl7.org/CodeSystem/condition-category",
          "code": "encounter-diagnosis",
          "display": "Encounter Diagnosis"
        } ]
      } ],
      "code": {
        "coding": [ {
          "system": "http://hl7.org/fhir/sid/icd-10-cm",
          "version": "2023",
          "code": "A32.7",
          "display": "Listerial sepsis",
          "userSelected": true
        } ]
      },
      "subject": {
        "reference": "Patient/ee015ae6-6dcb-4ae1-86e8-b8e22848879d"
      },
      "recordedDate": "2025-10-26T08:00:00.000+00:00"
    },
    "request": {
      "method": "PUT",
      "url": "Condition/19c39b4e-5101-4038-ad59-7012b092acdb"
    }
  }, {
    "fullUrl": "https://madie.cms.gov/Condition/9e39265c-0a34-411e-8c1f-2396c40f3be4",
    "resource": {
      "resourceType": "Condition",
      "id": "9e39265c-0a34-411e-8c1f-2396c40f3be4",
      "meta": {
        "profile": [ "http://hl7.org/fhir/us/qicore/StructureDefinition/qicore-condition" ]
      },
      "category": [ {
        "coding": [ {
          "system": "http://terminology.hl7.org/CodeSystem/condition-category",
          "code": "encounter-diagnosis",
          "display": "Encounter Diagnosis"
        } ]
      } ],
      "code": {
        "coding": [ {
          "system": "http://hl7.org/fhir/sid/icd-10-cm",
          "version": "2023",
          "code": "F06.0",
          "display": "Mental Health Disorder",
          "userSelected": true
        } ]
      },
      "subject": {
        "reference": "Patient/ee015ae6-6dcb-4ae1-86e8-b8e22848879d"
      },
      "recordedDate": "2025-10-26T08:00:00.000+00:00"
    },
    "request": {
      "method": "PUT",
      "url": "Condition/9e39265c-0a34-411e-8c1f-2396c40f3be4"
    }
  }, {
    "fullUrl": "https://madie.cms.gov/MeasureReport/42f9b2e7-6311-4c3e-a0ea-6b08ef830348",
    "resource": {
      "resourceType": "MeasureReport",
      "id": "42f9b2e7-6311-4c3e-a0ea-6b08ef830348",
      "meta": {
        "profile": [ "http://hl7.org/fhir/us/cqfmeasures/StructureDefinition/test-case-cqfm" ]
      },
      "contained": [ {
        "resourceType": "Parameters",
        "id": "117f2aeb-4ea6-4bb6-9718-a62fffa2e108-parameters",
        "parameter": [ {
          "name": "subject",
          "valueString": "ee015ae6-6dcb-4ae1-86e8-b8e22848879d"
        } ]
      } ],
      "extension": [ {
        "url": "http://hl7.org/fhir/us/cqfmeasures/StructureDefinition/cqfm-inputParameters",
        "valueReference": {
          "reference": "#117f2aeb-4ea6-4bb6-9718-a62fffa2e108-parameters"
        }
      }, {
        "url": "http://hl7.org/fhir/us/cqfmeasures/StructureDefinition/cqfm-testCaseDescription",
        "valueMarkdown": "Risk variable of mental health disorder.\n\n"
      } ],
      "modifierExtension": [ {
        "url": "http://hl7.org/fhir/us/cqfmeasures/StructureDefinition/cqfm-isTestCase",
        "valueBoolean": true
      } ],
      "status": "complete",
      "type": "individual",
      "measure": "https://madie.cms.gov/Measure/CMS1028FHIRPCSevereOBComps",
      "period": {
        "start": "2025-01-01",
        "end": "2025-12-31"
      },
      "group": [ {
        "population": [ {
          "code": {
            "coding": [ {
              "system": "http://terminology.hl7.org/CodeSystem/measure-population",
              "code": "initial-population",
              "display": "Initial Population"
            } ]
          },
          "count": 1
        }, {
          "code": {
            "coding": [ {
              "system": "http://terminology.hl7.org/CodeSystem/measure-population",
              "code": "denominator",
              "display": "Denominator"
            } ]
          },
          "count": 1
        }, {
          "code": {
            "coding": [ {
              "system": "http://terminology.hl7.org/CodeSystem/measure-population",
              "code": "numerator",
              "display": "Numerator"
            } ]
          },
          "count": 1
        }, {
          "code": {
            "coding": [ {
              "system": "http://terminology.hl7.org/CodeSystem/measure-population",
              "code": "numerator-exclusion",
              "display": "Numerator Exclusion"
            } ]
          },
          "count": 0
        } ]
      }, {
        "population": [ {
          "code": {
            "coding": [ {
              "system": "http://terminology.hl7.org/CodeSystem/measure-population",
              "code": "initial-population",
              "display": "Initial Population"
            } ]
          },
          "count": 1
        }, {
          "code": {
            "coding": [ {
              "system": "http://terminology.hl7.org/CodeSystem/measure-population",
              "code": "denominator",
              "display": "Denominator"
            } ]
          },
          "count": 1
        }, {
          "code": {
            "coding": [ {
              "system": "http://terminology.hl7.org/CodeSystem/measure-population",
              "code": "numerator",
              "display": "Numerator"
            } ]
          },
          "count": 1
        }, {
          "code": {
            "coding": [ {
              "system": "http://terminology.hl7.org/CodeSystem/measure-population",
              "code": "numerator-exclusion",
              "display": "Numerator Exclusion"
            } ]
          },
          "count": 0
        } ]
      } ],
      "evaluatedResource": [ {
        "reference": "Patient/ee015ae6-6dcb-4ae1-86e8-b8e22848879d"
      }, {
        "reference": "Observation/d1893aac-08c1-4ba2-ab59-8ce1a29a4138"
      }, {
        "reference": "Observation/6d5613e3-b59c-4be1-85c2-5a0618a1ba16"
      }, {
        "reference": "Encounter/560207e0-5b89-47d6-be05-ca2d2d1883ea"
      }, {
        "reference": "Procedure/e2f8df1e-1c43-48e9-9811-e19db8311437"
      }, {
        "reference": "Condition/19c39b4e-5101-4038-ad59-7012b092acdb"
      }, {
        "reference": "Condition/9e39265c-0a34-411e-8c1f-2396c40f3be4"
      } ]
    },
    "request": {
      "method": "PUT",
      "url": "MeasureReport/42f9b2e7-6311-4c3e-a0ea-6b08ef830348"
    }
  } ]
}