{
  "resourceType": "Bundle",
  "id": "612e6ed702c62a011f2efc7f",
  "type": "transaction",
  "entry": [ {
    "fullUrl": "https://madie.cms.gov/Patient/6d493c85-9519-429b-88b2-c4a5db777949",
    "resource": {
      "resourceType": "Patient",
      "id": "6d493c85-9519-429b-88b2-c4a5db777949",
      "meta": {
        "profile": [ "http://hl7.org/fhir/us/qicore/StructureDefinition/qicore-patient" ]
      },
      "text": {
        "status": "generated",
        "div": "<div xmlns=\"http://www.w3.org/1999/xhtml\"><div class=\"hapiHeaderText\">KneeSurgeryNotPrin <b>DENEXFAIL </b></div><table class=\"hapiPropertyTable\"><tbody><tr><td>Identifier</td><td>592ed714443566b5253e56305d420dc0</td></tr><tr><td>Date of birth</td><td><span>03 March 1974</span></td></tr></tbody></table></div>"
      },
      "extension": [ {
        "url": "http://hl7.org/fhir/us/core/StructureDefinition/us-core-race",
        "extension": [ {
          "url": "ombCategory",
          "valueCoding": {
            "system": "urn:oid:2.16.840.1.113883.6.238",
            "code": "1002-5",
            "display": "American Indian or Alaska Native",
            "userSelected": true
          }
        }, {
          "url": "text",
          "valueString": "American Indian or Alaska Native"
        } ]
      }, {
        "url": "http://hl7.org/fhir/us/core/StructureDefinition/us-core-ethnicity",
        "extension": [ {
          "url": "ombCategory",
          "valueCoding": {
            "system": "urn:oid:2.16.840.1.113883.6.238",
            "code": "2135-2",
            "display": "Hispanic or Latino",
            "userSelected": true
          }
        }, {
          "url": "text",
          "valueString": "Hispanic or Latino"
        } ]
      } ],
      "identifier": [ {
        "type": {
          "coding": [ {
            "system": "http://terminology.hl7.org/CodeSystem/v2-0203",
            "code": "MR"
          } ]
        },
        "system": "https://bonnie-fhir.healthit.gov/",
        "value": "612e6ed702c62a011f2efc7f"
      } ],
      "active": true,
      "name": [ {
        "use": "usual",
        "family": "DENEXFail",
        "given": [ "KneeSurgeryNotPrin" ]
      } ],
      "gender": "female",
      "birthDate": "1975-03-03"
    },
    "request": {
      "method": "PUT",
      "url": "Patient/6d493c85-9519-429b-88b2-c4a5db777949"
    }
  }, {
    "fullUrl": "https://madie.cms.gov/Encounter/45ab9392-d2c6-4526-8c4f-5e3f0cef2778",
    "resource": {
      "resourceType": "Encounter",
      "id": "45ab9392-d2c6-4526-8c4f-5e3f0cef2778",
      "meta": {
        "profile": [ "http://hl7.org/fhir/us/qicore/StructureDefinition/qicore-encounter" ]
      },
      "status": "finished",
      "class": {
        "system": "http://terminology.hl7.org/CodeSystem/v3-ActCode",
        "code": "IMP",
        "display": "inpatient encounter"
      },
      "type": [ {
        "coding": [ {
          "system": "http://snomed.info/sct",
          "code": "8715000"
        } ]
      } ],
      "subject": {
        "reference": "Patient/6d493c85-9519-429b-88b2-c4a5db777949"
      },
      "period": {
        "start": "2026-12-04T08:00:00+00:00",
        "end": "2026-12-30T08:15:00+00:00"
      },
      "length": {
        "value": 26.0,
        "unit": "days"
      },
      "location": [ {
        "location": {
          "reference": "Location/cc2b2200-b7e3-4b9d-bd0e-4bc5f8eddf42"
        },
        "period": {
          "start": "2026-12-06T08:00:00.000+00:00",
          "end": "2026-12-08T08:15:00.000+00:00"
        }
      } ]
    },
    "request": {
      "method": "PUT",
      "url": "Encounter/45ab9392-d2c6-4526-8c4f-5e3f0cef2778"
    }
  }, {
    "fullUrl": "https://madie.cms.gov/Coverage/a10a5fb6-a513-4a64-a8db-1ca2e213b4ae",
    "resource": {
      "resourceType": "Coverage",
      "id": "a10a5fb6-a513-4a64-a8db-1ca2e213b4ae",
      "status": "active",
      "beneficiary": {
        "reference": "Patient/6d493c85-9519-429b-88b2-c4a5db777949"
      },
      "period": {
        "start": "1975-03-03T08:00:00+00:00"
      },
      "payor": [ {
        "reference": "Organization/f9b38ceb-5e83-4f1a-ad6e-9c3f73eabd4f"
      } ]
    },
    "request": {
      "method": "PUT",
      "url": "Coverage/a10a5fb6-a513-4a64-a8db-1ca2e213b4ae"
    }
  }, {
    "fullUrl": "https://madie.cms.gov/Procedure/17b2aef6-0540-4b72-93c8-e4f5918a06fb",
    "resource": {
      "resourceType": "Procedure",
      "id": "17b2aef6-0540-4b72-93c8-e4f5918a06fb",
      "meta": {
        "profile": [ "http://hl7.org/fhir/us/qicore/StructureDefinition/qicore-procedure" ]
      },
      "extension": [ {
        "url": "http://hl7.org/fhir/us/qicore/StructureDefinition/qicore-recorded",
        "valueDateTime": "2013-12-06T09:35:00-04:00"
      } ],
      "status": "completed",
      "code": {
        "coding": [ {
          "system": "http://snomed.info/sct",
          "code": "27748003"
        } ]
      },
      "subject": {
        "reference": "Patient/6d493c85-9519-429b-88b2-c4a5db777949"
      },
      "performedPeriod": {
        "start": "2026-12-04T05:00:00+00:00"
      }
    },
    "request": {
      "method": "PUT",
      "url": "Procedure/17b2aef6-0540-4b72-93c8-e4f5918a06fb"
    }
  }, {
    "fullUrl": "https://madie.cms.gov/Location/cc2b2200-b7e3-4b9d-bd0e-4bc5f8eddf42",
    "resource": {
      "resourceType": "Location",
      "id": "cc2b2200-b7e3-4b9d-bd0e-4bc5f8eddf42",
      "meta": {
        "profile": [ "http://hl7.org/fhir/us/qicore/StructureDefinition/qicore-location" ]
      },
      "identifier": [ {
        "use": "usual",
        "system": "http://exampleoflocation.com",
        "value": "B1-S.F2"
      } ],
      "name": "Medical Surgical East, first floor",
      "type": [ {
        "coding": [ {
          "system": "https://www.cdc.gov/nhsn/cdaportal/terminology/codesystem/hsloc.html",
          "code": "1025-6",
          "display": "Trauma Critical Care",
          "userSelected": true
        } ]
      } ]
    },
    "request": {
      "method": "PUT",
      "url": "Location/cc2b2200-b7e3-4b9d-bd0e-4bc5f8eddf42"
    }
  }, {
    "fullUrl": "https://madie.cms.gov/Organization/f9b38ceb-5e83-4f1a-ad6e-9c3f73eabd4f",
    "resource": {
      "resourceType": "Organization",
      "id": "f9b38ceb-5e83-4f1a-ad6e-9c3f73eabd4f",
      "meta": {
        "profile": [ "http://hl7.org/fhir/us/qicore/StructureDefinition/qicore-organization" ]
      },
      "identifier": [ {
        "use": "temp",
        "system": "urn:oid:2.16.840.1.113883.4.4",
        "value": "21-3259825"
      } ],
      "active": true,
      "type": [ {
        "coding": [ {
          "system": "http://terminology.hl7.org/CodeSystem/organization-type",
          "code": "pay",
          "display": "Payer"
        } ]
      } ],
      "name": "Blue Cross Blue Shield of Texas",
      "telecom": [ {
        "system": "phone",
        "value": "(+1) 972-766-6900"
      } ],
      "address": [ {
        "use": "billing",
        "type": "postal",
        "line": [ "P.O. Box 660044" ],
        "city": "Dallas",
        "state": "TX",
        "postalCode": "75266-0044",
        "country": "USA"
      } ]
    },
    "request": {
      "method": "PUT",
      "url": "Organization/f9b38ceb-5e83-4f1a-ad6e-9c3f73eabd4f"
    }
  }, {
    "fullUrl": "https://madie.cms.gov/Practitioner/cf2f3aa9-0780-4a26-8470-1801203bdf8b",
    "resource": {
      "resourceType": "Practitioner",
      "id": "cf2f3aa9-0780-4a26-8470-1801203bdf8b",
      "identifier": [ {
        "system": "http://hl7.org/fhir/sid/us-npi",
        "value": "123456"
      } ],
      "name": [ {
        "family": "Evil",
        "prefix": [ "Dr" ]
      } ]
    },
    "request": {
      "method": "PUT",
      "url": "Practitioner/cf2f3aa9-0780-4a26-8470-1801203bdf8b"
    }
  }, {
    "fullUrl": "https://madie.cms.gov/MeasureReport/006fc1a4-880f-435a-8fb4-c7dbb765777d",
    "resource": {
      "resourceType": "MeasureReport",
      "id": "006fc1a4-880f-435a-8fb4-c7dbb765777d",
      "meta": {
        "profile": [ "http://hl7.org/fhir/us/cqfmeasures/StructureDefinition/test-case-cqfm" ]
      },
      "contained": [ {
        "resourceType": "Parameters",
        "id": "c0025270-f2df-4f38-928e-daab32f9d849-parameters",
        "parameter": [ {
          "name": "subject",
          "valueString": "6d493c85-9519-429b-88b2-c4a5db777949"
        } ]
      } ],
      "extension": [ {
        "url": "http://hl7.org/fhir/us/cqfmeasures/StructureDefinition/cqfm-inputParameters",
        "valueReference": {
          "reference": "#c0025270-f2df-4f38-928e-daab32f9d849-parameters"
        }
      }, {
        "url": "http://hl7.org/fhir/us/cqfmeasures/StructureDefinition/cqfm-testCaseDescription",
        "valueMarkdown": "oral factor Xa administered after neuraxial anesthesia and during ICU stay\n"
      } ],
      "modifierExtension": [ {
        "url": "http://hl7.org/fhir/us/cqfmeasures/StructureDefinition/cqfm-isTestCase",
        "valueBoolean": true
      } ],
      "status": "complete",
      "type": "individual",
      "measure": "https://madie.cms.gov/Measure/CMS190VTEProphylaxisICUFHIR",
      "period": {
        "start": "2026-01-01",
        "end": "2026-12-31"
      },
      "group": [ {
        "population": [ {
          "code": {
            "coding": [ {
              "system": "http://terminology.hl7.org/CodeSystem/measure-population",
              "code": "initial-population",
              "display": "Initial Population"
            } ]
          },
          "count": 1
        }, {
          "code": {
            "coding": [ {
              "system": "http://terminology.hl7.org/CodeSystem/measure-population",
              "code": "denominator",
              "display": "Denominator"
            } ]
          },
          "count": 1
        }, {
          "code": {
            "coding": [ {
              "system": "http://terminology.hl7.org/CodeSystem/measure-population",
              "code": "denominator-exclusion",
              "display": "Denominator Exclusion"
            } ]
          },
          "count": 0
        }, {
          "code": {
            "coding": [ {
              "system": "http://terminology.hl7.org/CodeSystem/measure-population",
              "code": "numerator",
              "display": "Numerator"
            } ]
          },
          "count": 0
        }, {
          "code": {
            "coding": [ {
              "system": "http://terminology.hl7.org/CodeSystem/measure-population",
              "code": "denominator-exception",
              "display": "Denominator Exception"
            } ]
          },
          "count": 0
        } ]
      } ],
      "evaluatedResource": [ {
        "reference": "Patient/6d493c85-9519-429b-88b2-c4a5db777949"
      }, {
        "reference": "Encounter/45ab9392-d2c6-4526-8c4f-5e3f0cef2778"
      }, {
        "reference": "Coverage/a10a5fb6-a513-4a64-a8db-1ca2e213b4ae"
      }, {
        "reference": "Procedure/17b2aef6-0540-4b72-93c8-e4f5918a06fb"
      }, {
        "reference": "Location/cc2b2200-b7e3-4b9d-bd0e-4bc5f8eddf42"
      }, {
        "reference": "Organization/f9b38ceb-5e83-4f1a-ad6e-9c3f73eabd4f"
      }, {
        "reference": "Practitioner/cf2f3aa9-0780-4a26-8470-1801203bdf8b"
      } ]
    },
    "request": {
      "method": "PUT",
      "url": "MeasureReport/006fc1a4-880f-435a-8fb4-c7dbb765777d"
    }
  } ]
}