{
  "resourceType": "Bundle",
  "id": "612e6aec02c62a011f2ebc65",
  "type": "transaction",
  "entry": [ {
    "fullUrl": "https://madie.cms.gov/Patient/ea49dc35-7378-4436-aa37-53ec9f13b05d",
    "resource": {
      "resourceType": "Patient",
      "id": "ea49dc35-7378-4436-aa37-53ec9f13b05d",
      "meta": {
        "profile": [ "http://hl7.org/fhir/us/qicore/StructureDefinition/qicore-patient" ]
      },
      "text": {
        "status": "generated",
        "div": "<div xmlns=\"http://www.w3.org/1999/xhtml\"><div class=\"hapiHeaderText\">TestMultipleOccur_2inNum <b>NUMERPASS </b></div><table class=\"hapiPropertyTable\"><tbody><tr><td>Identifier</td><td>a426534591df58c75882b8cd079c574a27466a15aa34f3b521510f2fa1bc133b</td></tr><tr><td>Date of birth</td><td><span>02 January 1974</span></td></tr></tbody></table></div>"
      },
      "extension": [ {
        "url": "http://hl7.org/fhir/us/core/StructureDefinition/us-core-race",
        "extension": [ {
          "url": "ombCategory",
          "valueCoding": {
            "system": "urn:oid:2.16.840.1.113883.6.238",
            "code": "1002-5",
            "display": "American Indian or Alaska Native",
            "userSelected": true
          }
        }, {
          "url": "text",
          "valueString": "American Indian or Alaska Native"
        } ]
      }, {
        "url": "http://hl7.org/fhir/us/core/StructureDefinition/us-core-ethnicity",
        "extension": [ {
          "url": "ombCategory",
          "valueCoding": {
            "system": "urn:oid:2.16.840.1.113883.6.238",
            "code": "2135-2",
            "display": "Hispanic or Latino",
            "userSelected": true
          }
        }, {
          "url": "text",
          "valueString": "Hispanic or Latino"
        } ]
      } ],
      "identifier": [ {
        "type": {
          "coding": [ {
            "system": "http://terminology.hl7.org/CodeSystem/v2-0203",
            "code": "MR"
          } ]
        },
        "system": "https://bonnie-fhir.healthit.gov/",
        "value": "612e6aec02c62a011f2ebc65"
      } ],
      "active": true,
      "name": [ {
        "use": "usual",
        "family": "NUMERPass",
        "given": [ "TestMultipleOccur_2inNum" ]
      } ],
      "gender": "male",
      "birthDate": "1975-01-02"
    },
    "request": {
      "method": "PUT",
      "url": "Patient/ea49dc35-7378-4436-aa37-53ec9f13b05d"
    }
  }, {
    "fullUrl": "https://madie.cms.gov/Encounter/9af79a6a-7558-45cc-9e3a-0ba3652e32d3",
    "resource": {
      "resourceType": "Encounter",
      "id": "9af79a6a-7558-45cc-9e3a-0ba3652e32d3",
      "meta": {
        "profile": [ "http://hl7.org/fhir/us/qicore/StructureDefinition/qicore-encounter" ]
      },
      "status": "finished",
      "class": {
        "system": "http://terminology.hl7.org/CodeSystem/v3-ActCode",
        "code": "IMP",
        "display": "inpatient encounter"
      },
      "type": [ {
        "coding": [ {
          "system": "http://snomed.info/sct",
          "code": "183452005"
        } ]
      } ],
      "subject": {
        "reference": "Patient/ea49dc35-7378-4436-aa37-53ec9f13b05d"
      },
      "period": {
        "start": "2026-04-01T08:00:00+00:00",
        "end": "2026-04-05T08:15:00+00:00"
      },
      "length": {
        "value": 4.0,
        "unit": "days"
      }
    },
    "request": {
      "method": "PUT",
      "url": "Encounter/9af79a6a-7558-45cc-9e3a-0ba3652e32d3"
    }
  }, {
    "fullUrl": "https://madie.cms.gov/Encounter/7eeb3e5b-c3c2-4298-aa08-0cee8b52a48b",
    "resource": {
      "resourceType": "Encounter",
      "id": "7eeb3e5b-c3c2-4298-aa08-0cee8b52a48b",
      "meta": {
        "profile": [ "http://hl7.org/fhir/us/qicore/StructureDefinition/qicore-encounter" ]
      },
      "status": "finished",
      "class": {
        "system": "http://terminology.hl7.org/CodeSystem/v3-ActCode",
        "code": "IMP",
        "display": "inpatient encounter"
      },
      "type": [ {
        "coding": [ {
          "system": "http://snomed.info/sct",
          "code": "8715000"
        } ]
      } ],
      "subject": {
        "reference": "Patient/ea49dc35-7378-4436-aa37-53ec9f13b05d"
      },
      "period": {
        "start": "2026-11-01T08:00:00+00:00",
        "end": "2026-11-26T08:15:00+00:00"
      },
      "length": {
        "value": 25.0,
        "unit": "days"
      }
    },
    "request": {
      "method": "PUT",
      "url": "Encounter/7eeb3e5b-c3c2-4298-aa08-0cee8b52a48b"
    }
  }, {
    "fullUrl": "https://madie.cms.gov/Coverage/362a94ad-db61-4322-8b33-0fab89e8b56a",
    "resource": {
      "resourceType": "Coverage",
      "id": "362a94ad-db61-4322-8b33-0fab89e8b56a",
      "status": "active",
      "beneficiary": {
        "reference": "Patient/ea49dc35-7378-4436-aa37-53ec9f13b05d"
      },
      "period": {
        "start": "1975-01-02T08:00:00+00:00"
      },
      "payor": [ {
        "reference": "Organization/52c0b151-70d3-4757-baff-5870faee1968"
      } ]
    },
    "request": {
      "method": "PUT",
      "url": "Coverage/362a94ad-db61-4322-8b33-0fab89e8b56a"
    }
  }, {
    "fullUrl": "https://madie.cms.gov/MedicationAdministration/31bb74c4-1799-405e-8949-546ec0f6d710",
    "resource": {
      "resourceType": "MedicationAdministration",
      "id": "31bb74c4-1799-405e-8949-546ec0f6d710",
      "meta": {
        "profile": [ "http://hl7.org/fhir/us/qicore/StructureDefinition/qicore-medicationadministration" ]
      },
      "status": "completed",
      "medicationCodeableConcept": {
        "coding": [ {
          "system": "http://www.nlm.nih.gov/research/umls/rxnorm",
          "code": "200349"
        } ]
      },
      "subject": {
        "reference": "Patient/ea49dc35-7378-4436-aa37-53ec9f13b05d"
      },
      "effectivePeriod": {
        "start": "2026-11-01T07:00:00+00:00"
      }
    },
    "request": {
      "method": "PUT",
      "url": "MedicationAdministration/31bb74c4-1799-405e-8949-546ec0f6d710"
    }
  }, {
    "fullUrl": "https://madie.cms.gov/Procedure/dbf9382d-e80b-4ff1-9d94-7bcdbf87a7e4",
    "resource": {
      "resourceType": "Procedure",
      "id": "dbf9382d-e80b-4ff1-9d94-7bcdbf87a7e4",
      "meta": {
        "profile": [ "http://hl7.org/fhir/us/qicore/StructureDefinition/qicore-procedure" ]
      },
      "extension": [ {
        "url": "http://hl7.org/fhir/us/qicore/StructureDefinition/qicore-recorded",
        "valueDateTime": "2013-11-01T09:35:00-04:00"
      } ],
      "status": "completed",
      "code": {
        "coding": [ {
          "system": "http://snomed.info/sct",
          "code": "442410008",
          "display": "Application of venous foot pump (procedure)"
        } ]
      },
      "subject": {
        "reference": "Patient/ea49dc35-7378-4436-aa37-53ec9f13b05d"
      },
      "performedPeriod": {
        "start": "2026-04-01T08:00:00.000+00:00",
        "end": "2026-04-01T08:15:00.000+00:00"
      }
    },
    "request": {
      "method": "PUT",
      "url": "Procedure/dbf9382d-e80b-4ff1-9d94-7bcdbf87a7e4"
    }
  }, {
    "fullUrl": "https://madie.cms.gov/Organization/52c0b151-70d3-4757-baff-5870faee1968",
    "resource": {
      "resourceType": "Organization",
      "id": "52c0b151-70d3-4757-baff-5870faee1968",
      "meta": {
        "profile": [ "http://hl7.org/fhir/us/qicore/StructureDefinition/qicore-organization" ]
      },
      "identifier": [ {
        "use": "temp",
        "system": "urn:oid:2.16.840.1.113883.4.4",
        "value": "21-3259825"
      } ],
      "active": true,
      "type": [ {
        "coding": [ {
          "system": "http://terminology.hl7.org/CodeSystem/organization-type",
          "code": "pay",
          "display": "Payer"
        } ]
      } ],
      "name": "Blue Cross Blue Shield of Texas",
      "telecom": [ {
        "system": "phone",
        "value": "(+1) 972-766-6900"
      } ],
      "address": [ {
        "use": "billing",
        "type": "postal",
        "line": [ "P.O. Box 660044" ],
        "city": "Dallas",
        "state": "TX",
        "postalCode": "75266-0044",
        "country": "USA"
      } ]
    },
    "request": {
      "method": "PUT",
      "url": "Organization/52c0b151-70d3-4757-baff-5870faee1968"
    }
  }, {
    "fullUrl": "https://madie.cms.gov/Practitioner/ced2e1a7-2bca-40c0-9a30-0b447856bec7",
    "resource": {
      "resourceType": "Practitioner",
      "id": "ced2e1a7-2bca-40c0-9a30-0b447856bec7",
      "identifier": [ {
        "system": "http://hl7.org/fhir/sid/us-npi",
        "value": "123456"
      } ],
      "name": [ {
        "family": "Evil",
        "prefix": [ "Dr" ]
      } ]
    },
    "request": {
      "method": "PUT",
      "url": "Practitioner/ced2e1a7-2bca-40c0-9a30-0b447856bec7"
    }
  }, {
    "fullUrl": "https://madie.cms.gov/MeasureReport/88ca76ef-e92e-444b-b313-ca12a7d7b457",
    "resource": {
      "resourceType": "MeasureReport",
      "id": "88ca76ef-e92e-444b-b313-ca12a7d7b457",
      "meta": {
        "profile": [ "http://hl7.org/fhir/us/cqfmeasures/StructureDefinition/test-case-cqfm" ]
      },
      "contained": [ {
        "resourceType": "Parameters",
        "id": "2e9ef123-8e2a-4c90-8acf-bbf13ac902d9-parameters",
        "parameter": [ {
          "name": "subject",
          "valueString": "ea49dc35-7378-4436-aa37-53ec9f13b05d"
        } ]
      } ],
      "extension": [ {
        "url": "http://hl7.org/fhir/us/cqfmeasures/StructureDefinition/cqfm-inputParameters",
        "valueReference": {
          "reference": "#2e9ef123-8e2a-4c90-8acf-bbf13ac902d9-parameters"
        }
      }, {
        "url": "http://hl7.org/fhir/us/cqfmeasures/StructureDefinition/cqfm-testCaseDescription",
        "valueMarkdown": "TestMultipleOccur - 2 occurrences both pass NUMERATOR - even 2nd one Medication: Administered: Glycoprotein IIb/IIIa Inhibitors was prior to Adm but it still passes due to on the day of adm\n"
      } ],
      "modifierExtension": [ {
        "url": "http://hl7.org/fhir/us/cqfmeasures/StructureDefinition/cqfm-isTestCase",
        "valueBoolean": true
      } ],
      "status": "complete",
      "type": "individual",
      "measure": "https://madie.cms.gov/Measure/CMS108VTEProphylaxisFHIR",
      "period": {
        "start": "2026-01-01",
        "end": "2026-12-31"
      },
      "group": [ {
        "population": [ {
          "code": {
            "coding": [ {
              "system": "http://terminology.hl7.org/CodeSystem/measure-population",
              "code": "initial-population",
              "display": "Initial Population"
            } ]
          },
          "count": 2
        }, {
          "code": {
            "coding": [ {
              "system": "http://terminology.hl7.org/CodeSystem/measure-population",
              "code": "denominator",
              "display": "Denominator"
            } ]
          },
          "count": 2
        }, {
          "code": {
            "coding": [ {
              "system": "http://terminology.hl7.org/CodeSystem/measure-population",
              "code": "denominator-exclusion",
              "display": "Denominator Exclusion"
            } ]
          },
          "count": 0
        }, {
          "code": {
            "coding": [ {
              "system": "http://terminology.hl7.org/CodeSystem/measure-population",
              "code": "numerator",
              "display": "Numerator"
            } ]
          },
          "count": 2
        } ]
      } ],
      "evaluatedResource": [ {
        "reference": "Patient/ea49dc35-7378-4436-aa37-53ec9f13b05d"
      }, {
        "reference": "Encounter/9af79a6a-7558-45cc-9e3a-0ba3652e32d3"
      }, {
        "reference": "Encounter/7eeb3e5b-c3c2-4298-aa08-0cee8b52a48b"
      }, {
        "reference": "Coverage/362a94ad-db61-4322-8b33-0fab89e8b56a"
      }, {
        "reference": "MedicationAdministration/31bb74c4-1799-405e-8949-546ec0f6d710"
      }, {
        "reference": "Procedure/dbf9382d-e80b-4ff1-9d94-7bcdbf87a7e4"
      }, {
        "reference": "Organization/52c0b151-70d3-4757-baff-5870faee1968"
      }, {
        "reference": "Practitioner/ced2e1a7-2bca-40c0-9a30-0b447856bec7"
      } ]
    },
    "request": {
      "method": "PUT",
      "url": "MeasureReport/88ca76ef-e92e-444b-b313-ca12a7d7b457"
    }
  } ]
}