{"resourceType":"Bundle","id":"tests-f88d2aba-a8f5-41e8-a54e-4cfb1b791504-bundle","type":"transaction","entry":[{"resource":{"resourceType":"Bundle","id":"6109650598086b538055a0e7","type":"transaction","entry":[{"fullUrl":"https://madie.cms.gov/Patient/f88d2aba-a8f5-41e8-a54e-4cfb1b791504","resource":{"resourceType":"Patient","id":"f88d2aba-a8f5-41e8-a54e-4cfb1b791504","meta":{"profile":["http://hl7.org/fhir/us/qicore/StructureDefinition/qicore-patient"]},"text":{"status":"generated","div":"<div xmlns=\"http://www.w3.org/1999/xhtml\"><div class=\"hapiHeaderText\">RiskAssessAfterOVEnc <b>NUMERFAIL </b></div><table class=\"hapiPropertyTable\"><tbody><tr><td>Identifier</td><td>085ea57ea1243f2b4f6f7f7befc30e25</td></tr><tr><td>Date of birth</td><td><span>13 December 1995</span></td></tr></tbody></table></div>"},"extension":[{"url":"http://hl7.org/fhir/us/core/StructureDefinition/us-core-race","extension":[{"url":"ombCategory","valueCoding":{"system":"urn:oid:2.16.840.1.113883.6.238","code":"1002-5","display":"American Indian or Alaska Native","userSelected":true}},{"url":"text","valueString":"American Indian or Alaska Native"}]},{"url":"http://hl7.org/fhir/us/core/StructureDefinition/us-core-ethnicity","extension":[{"url":"ombCategory","valueCoding":{"system":"urn:oid:2.16.840.1.113883.6.238","code":"2135-2","display":"Hispanic or Latino","userSelected":true}},{"url":"text","valueString":"Hispanic or Latino"}]}],"identifier":[{"type":{"coding":[{"system":"http://terminology.hl7.org/CodeSystem/v2-0203","code":"MR"}]},"system":"https://bonnie-fhir.healthit.gov/","value":"6109650598086b538055a0e7"}],"active":true,"name":[{"use":"usual","family":"NUMFail","given":["SRAAfterEnc"]}],"gender":"female","birthDate":"2010-12-13"},"request":{"method":"POST","url":"Patient/f88d2aba-a8f5-41e8-a54e-4cfb1b791504"}},{"fullUrl":"https://madie.cms.gov/Encounter/5c98fd1ab848464ed33e9e7b","resource":{"resourceType":"Encounter","id":"5c98fd1ab848464ed33e9e7b","meta":{"profile":["http://hl7.org/fhir/us/qicore/StructureDefinition/qicore-encounter"]},"status":"finished","class":{"system":"http://terminology.hl7.org/CodeSystem/v3-ActCode","code":"AMB","display":"ambulatory","userSelected":true},"type":[{"coding":[{"system":"http://snomed.info/sct","code":"185463005"},{"system":"http://www.ama-assn.org/go/cpt","code":"99201"}]}],"subject":{"reference":"Patient/f88d2aba-a8f5-41e8-a54e-4cfb1b791504"},"period":{"start":"2025-02-11T08:00:00.000+00:00","end":"2025-02-11T08:15:00.000+00:00"},"length":{"value":0.0,"unit":"days"},"diagnosis":[{"condition":{"reference":"Condition/major-depressive-disorder-active-bee1"}}]},"request":{"method":"POST","url":"Encounter/5c98fd1ab848464ed33e9e7b"}},{"fullUrl":"https://madie.cms.gov/Procedure/5c98fd1ab848464ed33e9e7c","resource":{"resourceType":"Procedure","id":"5c98fd1ab848464ed33e9e7c","meta":{"profile":["http://hl7.org/fhir/us/qicore/StructureDefinition/qicore-procedure"]},"extension":[{"url":"http://hl7.org/fhir/us/qicore/StructureDefinition/qicore-recorded","valueDateTime":"2025-02-11T08:00:00.000Z"}],"status":"completed","code":{"coding":[{"system":"http://snomed.info/sct","code":"225337009"}]},"subject":{"reference":"Patient/f88d2aba-a8f5-41e8-a54e-4cfb1b791504"},"performedDateTime":"2025-02-12T08:00:00.000+00:00"},"request":{"method":"POST","url":"Procedure/5c98fd1ab848464ed33e9e7c"}},{"fullUrl":"https://madie.cms.gov/Condition/major-depressive-disorder-active-bee1","resource":{"resourceType":"Condition","id":"major-depressive-disorder-active-bee1","meta":{"profile":["http://hl7.org/fhir/us/qicore/StructureDefinition/qicore-condition"]},"clinicalStatus":{"coding":[{"system":"http://terminology.hl7.org/CodeSystem/condition-clinical","code":"active","display":"active","userSelected":true}]},"category":[{"coding":[{"system":"http://terminology.hl7.org/CodeSystem/condition-category","code":"encounter-diagnosis","display":"Encounter Diagnosis"}]}],"code":{"coding":[{"system":"http://snomed.info/sct","code":"10811161000119107","userSelected":true}]},"subject":{"reference":"Patient/f88d2aba-a8f5-41e8-a54e-4cfb1b791504"},"recordedDate":"2025-02-11T08:00:00.000+00:00"},"request":{"method":"POST","url":"Condition/major-depressive-disorder-active-bee1"}},{"fullUrl":"https://madie.cms.gov/Coverage/1","resource":{"resourceType":"Coverage","id":"1","meta":{"profile":["http://hl7.org/fhir/us/qicore/StructureDefinition/qicore-coverage"]},"status":"active","beneficiary":{"reference":"Patient/f88d2aba-a8f5-41e8-a54e-4cfb1b791504"},"payor":[{"reference":"Organization/123456"}]},"request":{"method":"POST","url":"Coverage/1"}},{"fullUrl":"https://madie.cms.gov/Organization/123456","resource":{"resourceType":"Organization","id":"123456","meta":{"profile":["http://hl7.org/fhir/us/qicore/StructureDefinition/qicore-organization"]},"identifier":[{"use":"temp","system":"urn:oid:2.16.840.1.113883.4.4","value":"21-3259825"}],"active":true,"type":[{"coding":[{"system":"http://terminology.hl7.org/CodeSystem/organization-type","code":"pay","display":"Payer"}]}],"name":"Blue Cross Blue Shield of Texas","telecom":[{"system":"phone","value":"(+1) 972-766-6900"}],"address":[{"use":"billing","type":"postal","line":["P.O. Box 660044"],"city":"Dallas","state":"TX","postalCode":"75266-0044","country":"USA"}]},"request":{"method":"POST","url":"Organization/123456"}},{"fullUrl":"https://madie.cms.gov/Practitioner/practitioner-123456","resource":{"resourceType":"Practitioner","id":"practitioner-123456","meta":{"profile":["http://hl7.org/fhir/us/qicore/StructureDefinition/qicore-practitioner"]},"identifier":[{"system":"http://hl7.org/fhir/sid/us-npi","value":"123456"}],"name":[{"family":"Evil","prefix":["Dr"]}]},"request":{"method":"POST","url":"Practitioner/practitioner-123456"}},{"fullUrl":"https://madie.cms.gov/MeasureReport/17c3623a-d0ad-4a04-ad04-5acd5891a364","resource":{"resourceType":"MeasureReport","id":"17c3623a-d0ad-4a04-ad04-5acd5891a364","meta":{"profile":["http://hl7.org/fhir/us/cqfmeasures/StructureDefinition/test-case-cqfm"]},"contained":[{"resourceType":"Parameters","id":"0bfb0e29-cf2d-4057-893f-57ac103dc4e8-parameters","parameter":[{"name":"subject","valueString":"f88d2aba-a8f5-41e8-a54e-4cfb1b791504"}]}],"extension":[{"url":"http://hl7.org/fhir/us/cqfmeasures/StructureDefinition/cqfm-inputParameters","valueReference":{"reference":"#0bfb0e29-cf2d-4057-893f-57ac103dc4e8-parameters"}},{"url":"http://hl7.org/fhir/us/cqfmeasures/StructureDefinition/cqfm-testCaseDescription","valueMarkdown":"Patient with depression diagnosis but suicide risk assessment is after encounter"}],"modifierExtension":[{"url":"http://hl7.org/fhir/us/cqfmeasures/StructureDefinition/cqfm-isTestCase","valueBoolean":true}],"status":"complete","type":"individual","measure":"https://madie.cms.gov/Measure/ChildandAdolescentMajorDepressiveDisorderMDDSuicideRiskAssessmentFHIR","period":{"start":"2025-01-01","end":"2025-12-31"},"group":[{"population":[{"code":{"coding":[{"system":"http://terminology.hl7.org/CodeSystem/measure-population","code":"initial-population","display":"Initial Population"}]},"count":1},{"code":{"coding":[{"system":"http://terminology.hl7.org/CodeSystem/measure-population","code":"denominator","display":"Denominator"}]},"count":1},{"code":{"coding":[{"system":"http://terminology.hl7.org/CodeSystem/measure-population","code":"numerator","display":"Numerator"}]},"count":0}]}],"evaluatedResource":[{"reference":"https://madie.cms.gov/Patient/f88d2aba-a8f5-41e8-a54e-4cfb1b791504"},{"reference":"https://madie.cms.gov/Encounter/5c98fd1ab848464ed33e9e7b"},{"reference":"https://madie.cms.gov/Procedure/5c98fd1ab848464ed33e9e7c"},{"reference":"https://madie.cms.gov/Condition/major-depressive-disorder-active-bee1"},{"reference":"https://madie.cms.gov/Coverage/1"},{"reference":"https://madie.cms.gov/Organization/123456"},{"reference":"https://madie.cms.gov/Practitioner/practitioner-123456"}]},"request":{"method":"POST","url":"MeasureReport/17c3623a-d0ad-4a04-ad04-5acd5891a364"}}]},"request":{"method":"PUT","url":"Bundle/6109650598086b538055a0e7"}}]}