{
  "resourceType": "Bundle",
  "id": "6109650598086b538055a111",
  "type": "transaction",
  "entry": [ {
    "fullUrl": "Patient/eea2e954-15f3-4b0c-8d0f-aefe787f8572",
    "resource": {
      "resourceType": "Patient",
      "id": "eea2e954-15f3-4b0c-8d0f-aefe787f8572",
      "meta": {
        "profile": [ "http://hl7.org/fhir/us/qicore/StructureDefinition/qicore-patient" ]
      },
      "text": {
        "status": "generated",
        "div": "<div xmlns=\"http://www.w3.org/1999/xhtml\"><div class=\"hapiHeaderText\">SRAInvalidCode <b>NUMERFAIL </b></div><table class=\"hapiPropertyTable\"><tbody><tr><td>Date of birth</td><td><span>06 May 2004</span></td></tr></tbody></table></div>"
      },
      "extension": [ {
        "url": "http://hl7.org/fhir/us/core/StructureDefinition/us-core-race",
        "extension": [ {
          "url": "ombCategory",
          "valueCoding": {
            "system": "urn:oid:2.16.840.1.113883.6.238",
            "code": "2076-8",
            "display": "Native Hawaiian or Other Pacific Islander",
            "userSelected": true
          }
        }, {
          "url": "text",
          "valueString": "Native Hawaiian or Other Pacific Islander"
        } ]
      }, {
        "url": "http://hl7.org/fhir/us/core/StructureDefinition/us-core-ethnicity",
        "extension": [ {
          "url": "ombCategory",
          "valueCoding": {
            "system": "urn:oid:2.16.840.1.113883.6.238",
            "code": "2186-5",
            "display": "Not Hispanic or Latino",
            "userSelected": true
          }
        }, {
          "url": "text",
          "valueString": "Not Hispanic or Latino"
        } ]
      } ],
      "identifier": [ {
        "type": {
          "coding": [ {
            "system": "http://terminology.hl7.org/CodeSystem/v2-0203",
            "code": "MR"
          } ]
        },
        "system": "https://bonnie-fhir.healthit.gov/",
        "value": "6109650598086b538055a111"
      } ],
      "active": true,
      "name": [ {
        "use": "usual",
        "family": "NUMFail",
        "given": [ "SRAInvalidCode" ]
      } ],
      "gender": "male",
      "birthDate": "2016-05-06"
    },
    "request": {
      "method": "PUT",
      "url": "Patient/eea2e954-15f3-4b0c-8d0f-aefe787f8572"
    }
  }, {
    "fullUrl": "Encounter/5e4af3eabd36f900007c88d6",
    "resource": {
      "resourceType": "Encounter",
      "id": "5e4af3eabd36f900007c88d6",
      "meta": {
        "profile": [ "http://hl7.org/fhir/us/qicore/StructureDefinition/qicore-encounter" ]
      },
      "status": "finished",
      "class": {
        "system": "http://terminology.hl7.org/CodeSystem/v3-ActCode",
        "code": "AMB",
        "display": "ambulatory",
        "userSelected": true
      },
      "type": [ {
        "coding": [ {
          "system": "http://www.ama-assn.org/go/cpt",
          "code": "90834"
        } ]
      } ],
      "subject": {
        "reference": "Patient/eea2e954-15f3-4b0c-8d0f-aefe787f8572"
      },
      "period": {
        "start": "2025-04-10T08:00:00.000+00:00",
        "end": "2025-04-10T08:15:00.000+00:00"
      },
      "reasonCode": [ {
        "coding": [ {
          "system": "http://snomed.info/sct",
          "version": "2022-09",
          "code": "10811161000119107",
          "display": "Major depressive disorder in mother complicating pregnancy (disorder)",
          "userSelected": true
        } ]
      } ],
      "diagnosis": [ {
        "condition": {
          "reference": "Condition/major-depressive-disorder-active-3990"
        },
        "use": {
          "coding": [ {
            "system": "http://snomed.info/sct",
            "version": "2022-09",
            "code": "10811161000119107",
            "display": "Major depressive disorder in mother complicating pregnancy (disorder)",
            "userSelected": true
          } ]
        }
      } ]
    },
    "request": {
      "method": "PUT",
      "url": "Encounter/5e4af3eabd36f900007c88d6"
    }
  }, {
    "fullUrl": "Procedure/5e4af418bd36f900007c8964",
    "resource": {
      "resourceType": "Procedure",
      "id": "5e4af418bd36f900007c8964",
      "meta": {
        "profile": [ "http://hl7.org/fhir/us/qicore/StructureDefinition/qicore-procedure" ]
      },
      "extension": [ {
        "url": "http://hl7.org/fhir/us/qicore/StructureDefinition/qicore-recorded",
        "valueDateTime": "2025-04-10T08:00:00.000Z"
      } ],
      "status": "completed",
      "code": {
        "coding": [ {
          "system": "http://custom",
          "code": "1234",
          "userSelected": true
        } ]
      },
      "subject": {
        "reference": "Patient/eea2e954-15f3-4b0c-8d0f-aefe787f8572"
      },
      "performedDateTime": "2025-04-10T08:00:00.000+00:00"
    },
    "request": {
      "method": "PUT",
      "url": "Procedure/5e4af418bd36f900007c8964"
    }
  }, {
    "fullUrl": "Condition/major-depressive-disorder-active-3990",
    "resource": {
      "resourceType": "Condition",
      "id": "major-depressive-disorder-active-3990",
      "meta": {
        "profile": [ "http://hl7.org/fhir/us/qicore/StructureDefinition/qicore-condition" ]
      },
      "category": [ {
        "coding": [ {
          "system": "http://terminology.hl7.org/CodeSystem/condition-category",
          "code": "encounter-diagnosis",
          "display": "Encounter Diagnosis"
        } ]
      } ],
      "code": {
        "coding": [ {
          "system": "http://snomed.info/sct",
          "version": "2022-09",
          "code": "10811121000119102",
          "display": "Major depressive disorder in mother complicating childbirth (disorder)",
          "userSelected": true
        } ]
      },
      "subject": {
        "reference": "Patient/eea2e954-15f3-4b0c-8d0f-aefe787f8572"
      },
      "recordedDate": "2025-04-10T08:00:00.000+00:00"
    },
    "request": {
      "method": "PUT",
      "url": "Condition/major-depressive-disorder-active-3990"
    }
  }, {
    "fullUrl": "Coverage/Coverage-1",
    "resource": {
      "resourceType": "Coverage",
      "id": "Coverage-1",
      "meta": {
        "profile": [ "http://hl7.org/fhir/us/qicore/StructureDefinition/qicore-coverage" ]
      },
      "status": "active",
      "beneficiary": {
        "reference": "Patient/eea2e954-15f3-4b0c-8d0f-aefe787f8572"
      },
      "payor": [ {
        "reference": "Organization/Org-123456"
      } ]
    },
    "request": {
      "method": "PUT",
      "url": "Coverage/Coverage-1"
    }
  }, {
    "fullUrl": "Organization/Org-123456",
    "resource": {
      "resourceType": "Organization",
      "id": "Org-123456",
      "meta": {
        "profile": [ "http://hl7.org/fhir/us/qicore/StructureDefinition/qicore-organization" ]
      },
      "identifier": [ {
        "use": "temp",
        "system": "urn:oid:2.16.840.1.113883.4.4",
        "value": "21-3259825"
      } ],
      "active": true,
      "type": [ {
        "coding": [ {
          "system": "http://terminology.hl7.org/CodeSystem/organization-type",
          "code": "pay",
          "display": "Payer"
        } ]
      } ],
      "name": "Blue Cross Blue Shield of Texas",
      "telecom": [ {
        "system": "phone",
        "value": "(+1) 972-766-6900"
      } ],
      "address": [ {
        "use": "billing",
        "type": "postal",
        "line": [ "P.O. Box 660044" ],
        "city": "Dallas",
        "state": "TX",
        "postalCode": "75266-0044",
        "country": "USA"
      } ]
    },
    "request": {
      "method": "PUT",
      "url": "Organization/Org-123456"
    }
  }, {
    "fullUrl": "Practitioner/practitioner-123456",
    "resource": {
      "resourceType": "Practitioner",
      "id": "practitioner-123456",
      "meta": {
        "profile": [ "http://hl7.org/fhir/us/qicore/StructureDefinition/qicore-practitioner" ]
      },
      "identifier": [ {
        "system": "http://hl7.org/fhir/sid/us-npi",
        "value": "123456"
      } ],
      "name": [ {
        "family": "Evil",
        "prefix": [ "Dr" ]
      } ]
    },
    "request": {
      "method": "PUT",
      "url": "Practitioner/practitioner-123456"
    }
  }, {
    "fullUrl": "MeasureReport/f3690af0-0c6a-44d2-8f19-3f152b8c6a55",
    "resource": {
      "resourceType": "MeasureReport",
      "id": "f3690af0-0c6a-44d2-8f19-3f152b8c6a55",
      "meta": {
        "profile": [ "http://hl7.org/fhir/us/cqfmeasures/StructureDefinition/test-case-cqfm" ]
      },
      "contained": [ {
        "resourceType": "Parameters",
        "id": "edcd7fc2-bdc0-4e77-bd9c-de5acf0d6c84-parameters",
        "parameter": [ {
          "name": "subject",
          "valueString": "eea2e954-15f3-4b0c-8d0f-aefe787f8572"
        } ]
      } ],
      "extension": [ {
        "url": "http://hl7.org/fhir/us/cqfmeasures/StructureDefinition/cqfm-inputParameters",
        "valueReference": {
          "reference": "#edcd7fc2-bdc0-4e77-bd9c-de5acf0d6c84-parameters"
        }
      }, {
        "url": "http://hl7.org/fhir/us/cqfmeasures/StructureDefinition/cqfm-testCaseDescription",
        "valueMarkdown": "Patient seen for psychotherapy visit for MDD and SRA is performed using invalid code. "
      } ],
      "modifierExtension": [ {
        "url": "http://hl7.org/fhir/us/cqfmeasures/StructureDefinition/cqfm-isTestCase",
        "valueBoolean": true
      } ],
      "status": "complete",
      "type": "individual",
      "measure": "Measure/ChildandAdolescentMajorDepressiveDisorderMDDSuicideRiskAssessmentFHIR",
      "period": {
        "start": "2025-01-01",
        "end": "2025-12-31"
      },
      "group": [ {
        "population": [ {
          "code": {
            "coding": [ {
              "system": "http://terminology.hl7.org/CodeSystem/measure-population",
              "code": "initial-population",
              "display": "Initial Population"
            } ]
          },
          "count": 1
        }, {
          "code": {
            "coding": [ {
              "system": "http://terminology.hl7.org/CodeSystem/measure-population",
              "code": "denominator",
              "display": "Denominator"
            } ]
          },
          "count": 1
        }, {
          "code": {
            "coding": [ {
              "system": "http://terminology.hl7.org/CodeSystem/measure-population",
              "code": "numerator",
              "display": "Numerator"
            } ]
          },
          "count": 0
        } ]
      } ],
      "evaluatedResource": [ {
        "reference": "Patient/eea2e954-15f3-4b0c-8d0f-aefe787f8572"
      }, {
        "reference": "Encounter/5e4af3eabd36f900007c88d6"
      }, {
        "reference": "Procedure/5e4af418bd36f900007c8964"
      }, {
        "reference": "Condition/major-depressive-disorder-active-3990"
      }, {
        "reference": "Coverage/Coverage-1"
      }, {
        "reference": "Organization/Org-123456"
      }, {
        "reference": "Practitioner/practitioner-123456"
      } ]
    },
    "request": {
      "method": "PUT",
      "url": "MeasureReport/f3690af0-0c6a-44d2-8f19-3f152b8c6a55"
    }
  } ]
}
