{
  "resourceType": "Bundle",
  "id": "6109650598086b538055a109",
  "type": "transaction",
  "entry": [ {
    "fullUrl": "Patient/d5a179b4-ad8e-4ac8-86be-f196beddd105",
    "resource": {
      "resourceType": "Patient",
      "id": "d5a179b4-ad8e-4ac8-86be-f196beddd105",
      "meta": {
        "profile": [ "http://hl7.org/fhir/us/qicore/StructureDefinition/qicore-patient" ]
      },
      "text": {
        "status": "generated",
        "div": "<div xmlns=\"http://www.w3.org/1999/xhtml\"><div class=\"hapiHeaderText\">DxNotMDD <b>IPPFAIL </b></div><table class=\"hapiPropertyTable\"><tbody><tr><td>Identifier</td><td>d1453b77778379cfd153e4f4edcb19436f4cb6e451c10cba529cfda045fb2716</td></tr><tr><td>Date of birth</td><td><span>20 November 2005</span></td></tr></tbody></table></div>"
      },
      "extension": [ {
        "url": "http://hl7.org/fhir/us/core/StructureDefinition/us-core-race",
        "extension": [ {
          "url": "ombCategory",
          "valueCoding": {
            "system": "urn:oid:2.16.840.1.113883.6.238",
            "code": "2028-9",
            "display": "Asian",
            "userSelected": true
          }
        }, {
          "url": "text",
          "valueString": "Asian"
        } ]
      }, {
        "url": "http://hl7.org/fhir/us/core/StructureDefinition/us-core-ethnicity",
        "extension": [ {
          "url": "ombCategory",
          "valueCoding": {
            "system": "urn:oid:2.16.840.1.113883.6.238",
            "code": "2186-5",
            "display": "Not Hispanic or Latino",
            "userSelected": true
          }
        }, {
          "url": "text",
          "valueString": "Not Hispanic or Latino"
        } ]
      } ],
      "identifier": [ {
        "type": {
          "coding": [ {
            "system": "http://terminology.hl7.org/CodeSystem/v2-0203",
            "code": "MR"
          } ]
        },
        "system": "https://bonnie-fhir.healthit.gov/",
        "value": "6109650598086b538055a109"
      } ],
      "active": true,
      "name": [ {
        "use": "usual",
        "family": "IPFail",
        "given": [ "DxNotMDD" ]
      } ],
      "gender": "male",
      "birthDate": "2017-11-20"
    },
    "request": {
      "method": "PUT",
      "url": "Patient/d5a179b4-ad8e-4ac8-86be-f196beddd105"
    }
  }, {
    "fullUrl": "Encounter/5c98fd1ab848464ed33e9eaf",
    "resource": {
      "resourceType": "Encounter",
      "id": "5c98fd1ab848464ed33e9eaf",
      "meta": {
        "profile": [ "http://hl7.org/fhir/us/qicore/StructureDefinition/qicore-encounter" ]
      },
      "status": "finished",
      "class": {
        "system": "http://terminology.hl7.org/CodeSystem/v3-ActCode",
        "code": "AMB",
        "display": "ambulatory",
        "userSelected": true
      },
      "type": [ {
        "coding": [ {
          "system": "http://www.ama-assn.org/go/cpt",
          "code": "90853"
        } ]
      } ],
      "subject": {
        "reference": "Patient/d5a179b4-ad8e-4ac8-86be-f196beddd105"
      },
      "period": {
        "start": "2025-05-09T08:30:00.000+00:00",
        "end": "2025-05-09T09:00:00.000+00:00"
      },
      "diagnosis": [ {
        "condition": {
          "reference": "Condition/psychoanalysis-c3a6"
        },
        "use": {
          "coding": [ {
            "system": "http://snomed.info/sct",
            "code": "28988002",
            "display": "Psychoanalysis in depth (procedure)",
            "userSelected": true
          } ]
        }
      } ]
    },
    "request": {
      "method": "PUT",
      "url": "Encounter/5c98fd1ab848464ed33e9eaf"
    }
  }, {
    "fullUrl": "Procedure/5c98fd1ab848464ed33e9eb0",
    "resource": {
      "resourceType": "Procedure",
      "id": "5c98fd1ab848464ed33e9eb0",
      "meta": {
        "profile": [ "http://hl7.org/fhir/us/qicore/StructureDefinition/qicore-procedure" ]
      },
      "extension": [ {
        "url": "http://hl7.org/fhir/us/qicore/StructureDefinition/qicore-recorded",
        "valueDateTime": "2025-05-09T08:30:00.000Z"
      } ],
      "status": "completed",
      "code": {
        "coding": [ {
          "system": "http://snomed.info/sct",
          "code": "225337009"
        } ]
      },
      "subject": {
        "reference": "Patient/d5a179b4-ad8e-4ac8-86be-f196beddd105"
      },
      "performedPeriod": {
        "start": "2025-05-09T08:30:00.000+00:00",
        "end": "2025-05-09T09:00:00.000+00:00"
      }
    },
    "request": {
      "method": "PUT",
      "url": "Procedure/5c98fd1ab848464ed33e9eb0"
    }
  }, {
    "fullUrl": "Condition/psychoanalysis-c3a6",
    "resource": {
      "resourceType": "Condition",
      "id": "psychoanalysis-c3a6",
      "meta": {
        "profile": [ "http://hl7.org/fhir/us/qicore/StructureDefinition/qicore-condition" ]
      },
      "category": [ {
        "coding": [ {
          "system": "http://terminology.hl7.org/CodeSystem/condition-category",
          "code": "encounter-diagnosis",
          "display": "Encounter Diagnosis"
        } ]
      } ],
      "code": {
        "coding": [ {
          "system": "http://snomed.info/sct",
          "version": "2022-09",
          "code": "28988002",
          "display": "Psychoanalysis in depth (procedure)",
          "userSelected": true
        } ]
      },
      "subject": {
        "reference": "Patient/d5a179b4-ad8e-4ac8-86be-f196beddd105"
      },
      "recordedDate": "2025-05-09T08:30:00.000+00:00"
    },
    "request": {
      "method": "PUT",
      "url": "Condition/psychoanalysis-c3a6"
    }
  }, {
    "fullUrl": "Coverage/Coverage-1",
    "resource": {
      "resourceType": "Coverage",
      "id": "Coverage-1",
      "meta": {
        "profile": [ "http://hl7.org/fhir/us/qicore/StructureDefinition/qicore-coverage" ]
      },
      "status": "active",
      "beneficiary": {
        "reference": "Patient/d5a179b4-ad8e-4ac8-86be-f196beddd105"
      },
      "payor": [ {
        "reference": "Organization/Org-123456"
      } ]
    },
    "request": {
      "method": "PUT",
      "url": "Coverage/Coverage-1"
    }
  }, {
    "fullUrl": "Organization/Org-123456",
    "resource": {
      "resourceType": "Organization",
      "id": "Org-123456",
      "meta": {
        "profile": [ "http://hl7.org/fhir/us/qicore/StructureDefinition/qicore-organization" ]
      },
      "identifier": [ {
        "use": "temp",
        "system": "urn:oid:2.16.840.1.113883.4.4",
        "value": "21-3259825"
      } ],
      "active": true,
      "type": [ {
        "coding": [ {
          "system": "http://terminology.hl7.org/CodeSystem/organization-type",
          "code": "pay",
          "display": "Payer"
        } ]
      } ],
      "name": "Blue Cross Blue Shield of Texas",
      "telecom": [ {
        "system": "phone",
        "value": "(+1) 972-766-6900"
      } ],
      "address": [ {
        "use": "billing",
        "type": "postal",
        "line": [ "P.O. Box 660044" ],
        "city": "Dallas",
        "state": "TX",
        "postalCode": "75266-0044",
        "country": "USA"
      } ]
    },
    "request": {
      "method": "PUT",
      "url": "Organization/Org-123456"
    }
  }, {
    "fullUrl": "Practitioner/practitioner-123456",
    "resource": {
      "resourceType": "Practitioner",
      "id": "practitioner-123456",
      "meta": {
        "profile": [ "http://hl7.org/fhir/us/qicore/StructureDefinition/qicore-practitioner" ]
      },
      "identifier": [ {
        "system": "http://hl7.org/fhir/sid/us-npi",
        "value": "123456"
      } ],
      "name": [ {
        "family": "Evil",
        "prefix": [ "Dr" ]
      } ]
    },
    "request": {
      "method": "PUT",
      "url": "Practitioner/practitioner-123456"
    }
  }, {
    "fullUrl": "MeasureReport/430b0f1f-ceb2-4ff7-9f62-8d85e46606c4",
    "resource": {
      "resourceType": "MeasureReport",
      "id": "430b0f1f-ceb2-4ff7-9f62-8d85e46606c4",
      "meta": {
        "profile": [ "http://hl7.org/fhir/us/cqfmeasures/StructureDefinition/test-case-cqfm" ]
      },
      "contained": [ {
        "resourceType": "Parameters",
        "id": "cb91a13e-699a-4efd-9324-7ad7d038bda5-parameters",
        "parameter": [ {
          "name": "subject",
          "valueString": "d5a179b4-ad8e-4ac8-86be-f196beddd105"
        } ]
      } ],
      "extension": [ {
        "url": "http://hl7.org/fhir/us/cqfmeasures/StructureDefinition/cqfm-inputParameters",
        "valueReference": {
          "reference": "#cb91a13e-699a-4efd-9324-7ad7d038bda5-parameters"
        }
      }, {
        "url": "http://hl7.org/fhir/us/cqfmeasures/StructureDefinition/cqfm-testCaseDescription",
        "valueMarkdown": "Patient with group psychotherapy encounter but no active MDD diagnosis.  Suicide Risk Assessment completed during encounter"
      } ],
      "modifierExtension": [ {
        "url": "http://hl7.org/fhir/us/cqfmeasures/StructureDefinition/cqfm-isTestCase",
        "valueBoolean": true
      } ],
      "status": "complete",
      "type": "individual",
      "measure": "Measure/ChildandAdolescentMajorDepressiveDisorderMDDSuicideRiskAssessmentFHIR",
      "period": {
        "start": "2025-01-01",
        "end": "2025-12-31"
      },
      "group": [ {
        "population": [ {
          "code": {
            "coding": [ {
              "system": "http://terminology.hl7.org/CodeSystem/measure-population",
              "code": "initial-population",
              "display": "Initial Population"
            } ]
          },
          "count": 0
        }, {
          "code": {
            "coding": [ {
              "system": "http://terminology.hl7.org/CodeSystem/measure-population",
              "code": "denominator",
              "display": "Denominator"
            } ]
          },
          "count": 0
        }, {
          "code": {
            "coding": [ {
              "system": "http://terminology.hl7.org/CodeSystem/measure-population",
              "code": "numerator",
              "display": "Numerator"
            } ]
          },
          "count": 0
        } ]
      } ],
      "evaluatedResource": [ {
        "reference": "Patient/d5a179b4-ad8e-4ac8-86be-f196beddd105"
      }, {
        "reference": "Encounter/5c98fd1ab848464ed33e9eaf"
      }, {
        "reference": "Procedure/5c98fd1ab848464ed33e9eb0"
      }, {
        "reference": "Condition/psychoanalysis-c3a6"
      }, {
        "reference": "Coverage/Coverage-1"
      }, {
        "reference": "Organization/Org-123456"
      }, {
        "reference": "Practitioner/practitioner-123456"
      } ]
    },
    "request": {
      "method": "PUT",
      "url": "MeasureReport/430b0f1f-ceb2-4ff7-9f62-8d85e46606c4"
    }
  } ]
}
