{"resourceType":"Bundle","id":"tests-62e63186-10d6-4d51-96a4-a698ecb75ab1-bundle","type":"transaction","entry":[{"fullUrl":"https://madie.cms.gov/Patient/62e63186-10d6-4d51-96a4-a698ecb75ab1","resource":{"resourceType":"Patient","id":"62e63186-10d6-4d51-96a4-a698ecb75ab1","meta":{"profile":["http://hl7.org/fhir/us/qicore/StructureDefinition/qicore-patient"]},"text":{"status":"generated","div":"<div xmlns=\"http://www.w3.org/1999/xhtml\"><div class=\"hapiHeaderText\">Age6AfterMP <b>IPPFAIL </b></div><table class=\"hapiPropertyTable\"><tbody><tr><td>Identifier</td><td>b019f48474eaf180a54102214f1c1c371596f305e81efba54422f6d95eac8f78</td></tr><tr><td>Date of birth</td><td><span>02 January 2006</span></td></tr></tbody></table></div>"},"extension":[{"url":"http://hl7.org/fhir/us/core/StructureDefinition/us-core-race","extension":[{"url":"ombCategory","valueCoding":{"system":"urn:oid:2.16.840.1.113883.6.238","code":"2028-9","display":"Asian","userSelected":true}},{"url":"text","valueString":"Asian"}]},{"url":"http://hl7.org/fhir/us/core/StructureDefinition/us-core-ethnicity","extension":[{"url":"ombCategory","valueCoding":{"system":"urn:oid:2.16.840.1.113883.6.238","code":"2186-5","display":"Not Hispanic or Latino","userSelected":true}},{"url":"text","valueString":"Not Hispanic or Latino"}]}],"identifier":[{"type":{"coding":[{"system":"http://terminology.hl7.org/CodeSystem/v2-0203","code":"MR"}]},"system":"https://bonnie-fhir.healthit.gov/","value":"6109650598086b538055a106"}],"active":true,"name":[{"use":"usual","family":"IPFail","given":["Age6AfterMP"]}],"gender":"male","birthDate":"2020-01-02"},"request":{"method":"PUT","url":"Patient/62e63186-10d6-4d51-96a4-a698ecb75ab1"}},{"fullUrl":"https://madie.cms.gov/Encounter/5c98fd1ab848464ed33e9ea9","resource":{"resourceType":"Encounter","id":"df0de38e-9ae7-4c01-b2b2-9131d299a283","status":"finished","class":{"system":"http://terminology.hl7.org/CodeSystem/v3-ActCode","code":"AMB","display":"ambulatory","userSelected":true},"type":[{"coding":[{"system":"http://www.ama-assn.org/go/cpt","code":"90832"}]}],"subject":{"reference":"Patient/62e63186-10d6-4d51-96a4-a698ecb75ab1"},"period":{"start":"2026-07-12T11:45:00.000+00:00","end":"2026-07-12T12:15:00.000+00:00"},"reasonCode":[{"coding":[{"system":"http://snomed.info/sct","version":"2020-09","code":"10811161000119107","display":"Major depressive disorder in mother complicating pregnancy (disorder)","userSelected":true}]}],"diagnosis":[{"condition":{"reference":"Condition/major-depressive-disorder-active-20d8"},"use":{"coding":[{"system":"http://snomed.info/sct","version":"2022-09","code":"10811161000119107","display":"Major depressive disorder in mother complicating pregnancy (disorder)","userSelected":true}]}}]},"request":{"method":"PUT","url":"Encounter/df0de38e-9ae7-4c01-b2b2-9131d299a283"}},{"fullUrl":"https://madie.cms.gov/Procedure/5c98fd1ab848464ed33e9eaa","resource":{"resourceType":"Procedure","id":"d1eae4b4-16a8-4bf0-a047-7c8f55972948","status":"completed","code":{"coding":[{"system":"http://snomed.info/sct","code":"225337009"}]},"subject":{"reference":"Patient/62e63186-10d6-4d51-96a4-a698ecb75ab1"},"performedPeriod":{"start":"2026-07-12T11:50:00.000+00:00","end":"2026-07-12T12:00:00.000+00:00"}},"request":{"method":"PUT","url":"Procedure/d1eae4b4-16a8-4bf0-a047-7c8f55972948"}},{"fullUrl":"https://madie.cms.gov/Condition/major-depressive-disorder-active-20d8","resource":{"resourceType":"Condition","id":"a076888d-939d-465e-b7e1-ca5cfabf75fc","category":[{"coding":[{"system":"http://terminology.hl7.org/CodeSystem/condition-category","code":"encounter-diagnosis","display":"encounter-diagnosis","userSelected":true}]}],"code":{"coding":[{"system":"http://snomed.info/sct","version":"2022-09","code":"10811121000119102","display":"Major depressive disorder in mother complicating childbirth (disorder)","userSelected":true}]},"subject":{"reference":"Patient/62e63186-10d6-4d51-96a4-a698ecb75ab1"},"recordedDate":"2026-07-12T11:45:00.000+00:00"},"request":{"method":"PUT","url":"Condition/a076888d-939d-465e-b7e1-ca5cfabf75fc"}},{"fullUrl":"https://madie.cms.gov/Coverage/1","resource":{"resourceType":"Coverage","id":"810f4dfc-7011-4cb7-895e-d45a4b62cb65","meta":{"profile":["http://hl7.org/fhir/us/qicore/StructureDefinition/qicore-coverage"]},"status":"active","beneficiary":{"reference":"Patient/62e63186-10d6-4d51-96a4-a698ecb75ab1"},"payor":[{"reference":"Organization/80e3e0d1-b2aa-43a6-b1d2-00bfa3164a0f"}]},"request":{"method":"PUT","url":"Coverage/810f4dfc-7011-4cb7-895e-d45a4b62cb65"}},{"fullUrl":"https://madie.cms.gov/Organization/123456","resource":{"resourceType":"Organization","id":"80e3e0d1-b2aa-43a6-b1d2-00bfa3164a0f","meta":{"profile":["http://hl7.org/fhir/us/qicore/StructureDefinition/qicore-organization"]},"identifier":[{"use":"temp","system":"urn:oid:2.16.840.1.113883.4.4","value":"21-3259825"}],"active":true,"type":[{"coding":[{"system":"http://terminology.hl7.org/CodeSystem/organization-type","code":"pay","display":"Payer"}]}],"name":"Blue Cross Blue Shield of Texas","telecom":[{"system":"phone","value":"(+1) 972-766-6900"}],"address":[{"use":"billing","type":"postal","line":["P.O. Box 660044"],"city":"Dallas","state":"TX","postalCode":"75266-0044","country":"USA"}]},"request":{"method":"PUT","url":"Organization/80e3e0d1-b2aa-43a6-b1d2-00bfa3164a0f"}},{"fullUrl":"https://madie.cms.gov/Practitioner/practitioner-123456","resource":{"resourceType":"Practitioner","id":"cfbef207-0749-4ff5-9171-7bda2c8d47c1","identifier":[{"system":"http://hl7.org/fhir/sid/us-npi","value":"123456"}],"name":[{"family":"Evil","prefix":["Dr"]}]},"request":{"method":"PUT","url":"Practitioner/cfbef207-0749-4ff5-9171-7bda2c8d47c1"}},{"fullUrl":"https://madie.cms.gov/MeasureReport/8107b300-f138-43c7-a358-b0bc79eb7922","resource":{"resourceType":"MeasureReport","id":"8107b300-f138-43c7-a358-b0bc79eb7922","meta":{"profile":["http://hl7.org/fhir/us/cqfmeasures/StructureDefinition/test-case-cqfm"]},"contained":[{"resourceType":"Parameters","id":"afecc18c-54be-4ce7-b2b1-feb3003b7e94-parameters","parameter":[{"name":"subject","valueString":"62e63186-10d6-4d51-96a4-a698ecb75ab1"}]}],"extension":[{"url":"http://hl7.org/fhir/us/cqfmeasures/StructureDefinition/cqfm-inputParameters","valueReference":{"reference":"#afecc18c-54be-4ce7-b2b1-feb3003b7e94-parameters"}},{"url":"http://hl7.org/fhir/us/cqfmeasures/StructureDefinition/cqfm-testCaseDescription","valueMarkdown":"Patient turns 6 one day after the start of the MP with depression and suicide risk assessment during psychotherapy encounter"}],"modifierExtension":[{"url":"http://hl7.org/fhir/us/cqfmeasures/StructureDefinition/cqfm-isTestCase","valueBoolean":true}],"status":"complete","type":"individual","measure":"https://madie.cms.gov/Measure/ChildandAdolescentMajorDepressiveDisorderMDDSuicideRiskAssessmentFHIR","period":{"start":"2025-01-01","end":"2025-12-31"},"group":[{"population":[{"code":{"coding":[{"system":"http://terminology.hl7.org/CodeSystem/measure-population","code":"initial-population","display":"Initial Population"}]},"count":0},{"code":{"coding":[{"system":"http://terminology.hl7.org/CodeSystem/measure-population","code":"denominator","display":"Denominator"}]},"count":0},{"code":{"coding":[{"system":"http://terminology.hl7.org/CodeSystem/measure-population","code":"numerator","display":"Numerator"}]},"count":0}]}]},"request":{"method":"PUT","url":"MeasureReport/8107b300-f138-43c7-a358-b0bc79eb7922"}}]}