{"resourceType":"Bundle","id":"tests-fd5099ab-c975-42f4-a9c1-0298b9aed153-bundle","type":"transaction","entry":[{"fullUrl":"https://madie.cms.gov/Patient/fd5099ab-c975-42f4-a9c1-0298b9aed153","resource":{"resourceType":"Patient","id":"fd5099ab-c975-42f4-a9c1-0298b9aed153","meta":{"profile":["http://hl7.org/fhir/us/qicore/StructureDefinition/qicore-patient"]},"text":{"status":"generated","div":"<div xmlns=\"http://www.w3.org/1999/xhtml\"><div class=\"hapiHeaderText\">RiskAssessPsychFamilyEnc <b>NUMERPASS </b></div><table class=\"hapiPropertyTable\"><tbody><tr><td>Identifier</td><td>611d7229559c821433393e98d4ad09de</td></tr><tr><td>Date of birth</td><td><span>01 January 1996</span></td></tr></tbody></table></div>"},"extension":[{"url":"http://hl7.org/fhir/us/core/StructureDefinition/us-core-race","extension":[{"url":"ombCategory","valueCoding":{"system":"urn:oid:2.16.840.1.113883.6.238","code":"1002-5","display":"American Indian or Alaska Native","userSelected":true}},{"url":"text","valueString":"American Indian or Alaska Native"}]},{"url":"http://hl7.org/fhir/us/core/StructureDefinition/us-core-ethnicity","extension":[{"url":"ombCategory","valueCoding":{"system":"urn:oid:2.16.840.1.113883.6.238","code":"2135-2","display":"Hispanic or Latino","userSelected":true}},{"url":"text","valueString":"Hispanic or Latino"}]}],"identifier":[{"type":{"coding":[{"system":"http://terminology.hl7.org/CodeSystem/v2-0203","code":"MR"}]},"system":"https://bonnie-fhir.healthit.gov/","value":"6109650498086b538055a0d8"}],"active":true,"name":[{"use":"usual","family":"NUMPass","given":["RiskAssessPsychotherEnc"]}],"gender":"unknown","birthDate":"2015-01-01"},"request":{"method":"PUT","url":"Patient/fd5099ab-c975-42f4-a9c1-0298b9aed153"}},{"fullUrl":"https://madie.cms.gov/Encounter/5c98fd1ab848464ed33e9e76","resource":{"resourceType":"Encounter","id":"16b81ae0-90bf-43cc-8a98-e1d5dfab3f19","meta":{"profile":["http://hl7.org/fhir/us/qicore/StructureDefinition/qicore-encounter"]},"status":"finished","class":{"system":"http://terminology.hl7.org/CodeSystem/v3-ActCode","code":"AMB","display":"ambulatory","userSelected":true},"type":[{"coding":[{"system":"http://www.ama-assn.org/go/cpt","code":"90853"}]}],"subject":{"reference":"Patient/fd5099ab-c975-42f4-a9c1-0298b9aed153"},"period":{"start":"2025-04-18T11:00:00.000+00:00","end":"2025-04-18T11:30:00.000+00:00"},"length":{"value":0.0,"unit":"days"},"diagnosis":[{"condition":{"reference":"Condition/major-depressive-disorder-active-4fa6"},"use":{"coding":[{"system":"http://snomed.info/sct","code":"10811161000119107","display":"Major Depressive Disorder-Active"}]}}]},"request":{"method":"PUT","url":"Encounter/16b81ae0-90bf-43cc-8a98-e1d5dfab3f19"}},{"fullUrl":"https://madie.cms.gov/Condition/major-depressive-disorder-active-4fa6","resource":{"resourceType":"Condition","id":"b4d35a5b-f663-4f0d-9d28-1d386f5666d0","meta":{"profile":["http://hl7.org/fhir/us/qicore/StructureDefinition/qicore-condition"]},"clinicalStatus":{"coding":[{"system":"http://terminology.hl7.org/CodeSystem/condition-clinical","code":"active","display":"Active","userSelected":true}]},"verificationStatus":{"coding":[{"system":"http://terminology.hl7.org/CodeSystem/condition-ver-status","code":"confirmed","display":"Confirmed","userSelected":true}]},"category":[{"coding":[{"system":"http://terminology.hl7.org/CodeSystem/condition-category","code":"encounter-diagnosis","display":"Encounter Diagnosis"}]}],"code":{"coding":[{"system":"http://snomed.info/sct","code":"2618002","userSelected":true}]},"subject":{"reference":"Patient/fd5099ab-c975-42f4-a9c1-0298b9aed153"},"recordedDate":"2025-04-18T08:00:00.000+00:00"},"request":{"method":"PUT","url":"Condition/b4d35a5b-f663-4f0d-9d28-1d386f5666d0"}},{"fullUrl":"https://madie.cms.gov/Procedure/suicide-risk-assessment-procedure-ea15","resource":{"resourceType":"Procedure","id":"ea440b03-6534-4a6b-80ea-2ae7068d2c6e","meta":{"profile":["http://hl7.org/fhir/us/qicore/StructureDefinition/qicore-procedure"]},"extension":[{"url":"http://hl7.org/fhir/us/qicore/StructureDefinition/qicore-recorded","valueDateTime":"2025-04-18T11:01:00.000+00:00"}],"status":"completed","code":{"coding":[{"system":"http://snomed.info/sct","code":"225337009","display":"Suicide risk assessment (procedure)","userSelected":true}]},"subject":{"reference":"Patient/fd5099ab-c975-42f4-a9c1-0298b9aed153"},"performedDateTime":"2025-04-18T11:01:00.000+00:00"},"request":{"method":"PUT","url":"Procedure/ea440b03-6534-4a6b-80ea-2ae7068d2c6e"}},{"fullUrl":"https://madie.cms.gov/Coverage/payer-624c","resource":{"resourceType":"Coverage","id":"f26348ad-0294-42e0-a0d4-c125dbcf513a","meta":{"profile":["http://hl7.org/fhir/us/qicore/StructureDefinition/qicore-coverage"]},"status":"active","type":{"coding":[{"system":"https://nahdo.org/sopt","code":"113","userSelected":true}]},"beneficiary":{"reference":"Patient/fd5099ab-c975-42f4-a9c1-0298b9aed153"},"period":{"start":"2025-04-18T11:00:00.000+00:00","end":"2025-04-18T11:30:00.000+00:00"},"payor":[{"reference":"Organization/f4907415-83c5-4eae-ab0b-cb63a840880d"}]},"request":{"method":"PUT","url":"Coverage/f26348ad-0294-42e0-a0d4-c125dbcf513a"}},{"fullUrl":"https://madie.cms.gov/Organization/123456","resource":{"resourceType":"Organization","id":"f4907415-83c5-4eae-ab0b-cb63a840880d","meta":{"profile":["http://hl7.org/fhir/us/qicore/StructureDefinition/qicore-organization"]},"identifier":[{"use":"temp","system":"urn:oid:2.16.840.1.113883.4.4","value":"21-3259825"}],"active":true,"type":[{"coding":[{"system":"http://terminology.hl7.org/CodeSystem/organization-type","code":"pay","display":"Payer"}]}],"name":"Blue Cross Blue Shield of Texas","telecom":[{"system":"phone","value":"(+1) 972-766-6900"}],"address":[{"use":"billing","type":"postal","line":["P.O. Box 660044"],"city":"Dallas","state":"TX","postalCode":"75266-0044","country":"USA"}]},"request":{"method":"PUT","url":"Organization/f4907415-83c5-4eae-ab0b-cb63a840880d"}},{"fullUrl":"https://madie.cms.gov/Practitioner/practitioner-123456","resource":{"resourceType":"Practitioner","id":"77cf33c3-14e6-4e82-ac33-02647920e6d6","meta":{"profile":["http://hl7.org/fhir/us/qicore/StructureDefinition/qicore-practitioner"]},"identifier":[{"system":"http://hl7.org/fhir/sid/us-npi","value":"123456"}],"name":[{"family":"Evil","prefix":["Dr"]}]},"request":{"method":"PUT","url":"Practitioner/77cf33c3-14e6-4e82-ac33-02647920e6d6"}},{"fullUrl":"https://madie.cms.gov/MeasureReport/c457f68c-1c47-4694-9bdd-0628f41a169c","resource":{"resourceType":"MeasureReport","id":"c457f68c-1c47-4694-9bdd-0628f41a169c","meta":{"profile":["http://hl7.org/fhir/us/cqfmeasures/StructureDefinition/test-case-cqfm"]},"contained":[{"resourceType":"Parameters","id":"910b3951-1c88-47b5-bb6e-9f80dd2bef78-parameters","parameter":[{"name":"subject","valueString":"fd5099ab-c975-42f4-a9c1-0298b9aed153"}]}],"extension":[{"url":"http://hl7.org/fhir/us/cqfmeasures/StructureDefinition/cqfm-inputParameters","valueReference":{"reference":"#910b3951-1c88-47b5-bb6e-9f80dd2bef78-parameters"}},{"url":"http://hl7.org/fhir/us/cqfmeasures/StructureDefinition/cqfm-testCaseDescription","valueMarkdown":"Patient completes suicide risk assessment during psychotherapy appointment in MP"}],"modifierExtension":[{"url":"http://hl7.org/fhir/us/cqfmeasures/StructureDefinition/cqfm-isTestCase","valueBoolean":true}],"status":"complete","type":"individual","measure":"https://madie.cms.gov/Measure/ChildandAdolescentMajorDepressiveDisorderMDDSuicideRiskAssessmentFHIR","period":{"start":"2025-01-01","end":"2025-12-31"},"group":[{"population":[{"code":{"coding":[{"system":"http://terminology.hl7.org/CodeSystem/measure-population","code":"initial-population","display":"Initial Population"}]},"count":1},{"code":{"coding":[{"system":"http://terminology.hl7.org/CodeSystem/measure-population","code":"denominator","display":"Denominator"}]},"count":1},{"code":{"coding":[{"system":"http://terminology.hl7.org/CodeSystem/measure-population","code":"numerator","display":"Numerator"}]},"count":1}]}]},"request":{"method":"PUT","url":"MeasureReport/c457f68c-1c47-4694-9bdd-0628f41a169c"}}]}