{"resourceType":"Bundle","id":"tests-970a0429-b9e6-4295-a831-24bce2bf813f-bundle","type":"transaction","entry":[{"fullUrl":"https://madie.cms.gov/Patient/970a0429-b9e6-4295-a831-24bce2bf813f","resource":{"resourceType":"Patient","id":"970a0429-b9e6-4295-a831-24bce2bf813f","meta":{"profile":["http://hl7.org/fhir/us/qicore/StructureDefinition/qicore-patient"]},"text":{"status":"generated","div":"<div xmlns=\"http://www.w3.org/1999/xhtml\"><div class=\"hapiHeaderText\">Age17AtStartMP <b>IPPFAIL </b></div><table class=\"hapiPropertyTable\"><tbody><tr><td>Identifier</td><td>313ec60f1f411a43b176d65c99f547504942224148394584268af437cb1ae473</td></tr><tr><td>Date of birth</td><td><span>01 January 1995</span></td></tr></tbody></table></div>"},"extension":[{"url":"http://hl7.org/fhir/us/core/StructureDefinition/us-core-race","extension":[{"url":"ombCategory","valueCoding":{"system":"urn:oid:2.16.840.1.113883.6.238","code":"2054-5","display":"Black or African American","userSelected":true}},{"url":"text","valueString":"Black or African American"}]},{"url":"http://hl7.org/fhir/us/core/StructureDefinition/us-core-ethnicity","extension":[{"url":"ombCategory","valueCoding":{"system":"urn:oid:2.16.840.1.113883.6.238","code":"2186-5","display":"Not Hispanic or Latino","userSelected":true}},{"url":"text","valueString":"Not Hispanic or Latino"}]}],"identifier":[{"type":{"coding":[{"system":"http://terminology.hl7.org/CodeSystem/v2-0203","code":"MR"}]},"system":"https://bonnie-fhir.healthit.gov/","value":"6109650598086b538055a108"}],"active":true,"name":[{"use":"usual","family":"IPFail","given":["Age6YrAtStartMP"]}],"gender":"male","birthDate":"2020-09-01"},"request":{"method":"PUT","url":"Patient/970a0429-b9e6-4295-a831-24bce2bf813f"}},{"fullUrl":"https://madie.cms.gov/Encounter/5c98fd1ab848464ed33e9ead","resource":{"resourceType":"Encounter","id":"55ea26d1-4592-402b-90d2-5793ecde5092","status":"finished","class":{"system":"http://terminology.hl7.org/CodeSystem/v3-ActCode","code":"AMB","display":"ambulatory","userSelected":true},"type":[{"coding":[{"system":"http://www.ama-assn.org/go/cpt","code":"90832"}]}],"subject":{"reference":"Patient/970a0429-b9e6-4295-a831-24bce2bf813f"},"period":{"start":"2026-07-12T11:45:00.000+00:00","end":"2026-07-12T11:45:00.000+00:00"},"length":{"value":0.0,"unit":"days"},"diagnosis":[{"condition":{"reference":"Condition/major-depressive-disorder-active-7d40"},"use":{"coding":[{"system":"http://snomed.info/sct","code":"10811161000119107","display":"Major Depressive Disorder-Active"}]}}]},"request":{"method":"PUT","url":"Encounter/55ea26d1-4592-402b-90d2-5793ecde5092"}},{"fullUrl":"https://madie.cms.gov/Procedure/5c98fd1ab848464ed33e9eae","resource":{"resourceType":"Procedure","id":"c98ef509-ff40-4b9b-96ef-16c44ce01840","status":"completed","code":{"coding":[{"system":"http://snomed.info/sct","code":"225337009"}]},"subject":{"reference":"Patient/970a0429-b9e6-4295-a831-24bce2bf813f"},"performedPeriod":{"start":"2026-07-12T11:46:00.000+00:00","end":"2026-07-12T11:49:00.000+00:00"}},"request":{"method":"PUT","url":"Procedure/c98ef509-ff40-4b9b-96ef-16c44ce01840"}},{"fullUrl":"https://madie.cms.gov/Condition/major-depressive-disorder-active-7d40","resource":{"resourceType":"Condition","id":"95297245-2dc5-49e1-8e22-d0ec6b9a34eb","category":[{"coding":[{"system":"http://terminology.hl7.org/CodeSystem/condition-category","code":"encounter-diagnosis","display":"encounter-diagnosis","userSelected":true}]}],"code":{"coding":[{"system":"http://snomed.info/sct","code":"10811161000119107","userSelected":true}]},"subject":{"reference":"Patient/970a0429-b9e6-4295-a831-24bce2bf813f"},"recordedDate":"2026-08-17T08:00:00.000+00:00"},"request":{"method":"PUT","url":"Condition/95297245-2dc5-49e1-8e22-d0ec6b9a34eb"}},{"fullUrl":"https://madie.cms.gov/Coverage/payer-6181","resource":{"resourceType":"Coverage","id":"e01dbf9c-8696-416a-b37f-c3ced28268eb","status":"active","type":{"coding":[{"system":"http://www.nlm.nih.gov/research/umls/sop","code":"141","userSelected":true}]},"beneficiary":{"reference":"Patient/970a0429-b9e6-4295-a831-24bce2bf813f"},"period":{"start":"2026-03-29T08:00:00.000+00:00","end":"2026-11-29T08:15:00.000+00:00"},"payor":[{"reference":"Organization/806b0255-13cb-4f2b-9412-571554dd2169"}]},"request":{"method":"PUT","url":"Coverage/e01dbf9c-8696-416a-b37f-c3ced28268eb"}},{"fullUrl":"https://madie.cms.gov/Organization/123456","resource":{"resourceType":"Organization","id":"806b0255-13cb-4f2b-9412-571554dd2169","meta":{"profile":["http://hl7.org/fhir/us/qicore/StructureDefinition/qicore-organization"]},"identifier":[{"use":"temp","system":"urn:oid:2.16.840.1.113883.4.4","value":"21-3259825"}],"active":true,"type":[{"coding":[{"system":"http://terminology.hl7.org/CodeSystem/organization-type","code":"pay","display":"Payer"}]}],"name":"Blue Cross Blue Shield of Texas","telecom":[{"system":"phone","value":"(+1) 972-766-6900"}],"address":[{"use":"billing","type":"postal","line":["P.O. Box 660044"],"city":"Dallas","state":"TX","postalCode":"75266-0044","country":"USA"}]},"request":{"method":"PUT","url":"Organization/806b0255-13cb-4f2b-9412-571554dd2169"}},{"fullUrl":"https://madie.cms.gov/Practitioner/practitioner-123456","resource":{"resourceType":"Practitioner","id":"44b28b44-ac67-42ca-8232-7d13a92ffda8","identifier":[{"system":"http://hl7.org/fhir/sid/us-npi","value":"123456"}],"name":[{"family":"Evil","prefix":["Dr"]}]},"request":{"method":"PUT","url":"Practitioner/44b28b44-ac67-42ca-8232-7d13a92ffda8"}},{"fullUrl":"https://madie.cms.gov/MeasureReport/a4980b29-30de-4401-8243-301e80a9a2a7","resource":{"resourceType":"MeasureReport","id":"a4980b29-30de-4401-8243-301e80a9a2a7","meta":{"profile":["http://hl7.org/fhir/us/cqfmeasures/StructureDefinition/test-case-cqfm"]},"contained":[{"resourceType":"Parameters","id":"aa785152-5018-4525-b9aa-811a7a18939c-parameters","parameter":[{"name":"subject","valueString":"970a0429-b9e6-4295-a831-24bce2bf813f"}]}],"extension":[{"url":"http://hl7.org/fhir/us/cqfmeasures/StructureDefinition/cqfm-inputParameters","valueReference":{"reference":"#aa785152-5018-4525-b9aa-811a7a18939c-parameters"}},{"url":"http://hl7.org/fhir/us/cqfmeasures/StructureDefinition/cqfm-testCaseDescription","valueMarkdown":"Patient is 6 years, 4 months at start of MP with  Psychoanalysis encounter and Depression Diagnosis recorded during MP"}],"modifierExtension":[{"url":"http://hl7.org/fhir/us/cqfmeasures/StructureDefinition/cqfm-isTestCase","valueBoolean":true}],"status":"complete","type":"individual","measure":"https://madie.cms.gov/Measure/ChildandAdolescentMajorDepressiveDisorderMDDSuicideRiskAssessmentFHIR","period":{"start":"2025-01-01","end":"2025-12-31"},"group":[{"population":[{"code":{"coding":[{"system":"http://terminology.hl7.org/CodeSystem/measure-population","code":"initial-population","display":"Initial Population"}]},"count":0},{"code":{"coding":[{"system":"http://terminology.hl7.org/CodeSystem/measure-population","code":"denominator","display":"Denominator"}]},"count":0},{"code":{"coding":[{"system":"http://terminology.hl7.org/CodeSystem/measure-population","code":"numerator","display":"Numerator"}]},"count":0}]}]},"request":{"method":"PUT","url":"MeasureReport/a4980b29-30de-4401-8243-301e80a9a2a7"}}]}