{"resourceType":"Bundle","id":"tests-5a4bb939-9a6a-4574-93c8-102c64af65f8-bundle","type":"transaction","entry":[{"fullUrl":"Patient/5a4bb939-9a6a-4574-93c8-102c64af65f8","resource":{"resourceType":"Patient","id":"5a4bb939-9a6a-4574-93c8-102c64af65f8","meta":{"profile":["http://hl7.org/fhir/us/qicore/StructureDefinition/qicore-patient"]},"text":{"status":"generated","div":"<div xmlns=\"http://www.w3.org/1999/xhtml\"><div class=\"hapiHeaderText\">SRA1MinAfterEnc <b>NUMERFAIL </b></div><table class=\"hapiPropertyTable\"><tbody><tr><td>Date of birth</td><td><span>02 March 2001</span></td></tr></tbody></table></div>"},"extension":[{"url":"http://hl7.org/fhir/us/core/StructureDefinition/us-core-race","extension":[{"url":"ombCategory","valueCoding":{"system":"urn:oid:2.16.840.1.113883.6.238","code":"2054-5","display":"Black or African American","userSelected":true}},{"url":"text","valueString":"Black or African American"}]},{"url":"http://hl7.org/fhir/us/core/StructureDefinition/us-core-ethnicity","extension":[{"url":"ombCategory","valueCoding":{"system":"urn:oid:2.16.840.1.113883.6.238","code":"2186-5","display":"Not Hispanic or Latino","userSelected":true}},{"url":"text","valueString":"Not Hispanic or Latino"}]}],"identifier":[{"type":{"coding":[{"system":"http://terminology.hl7.org/CodeSystem/v2-0203","code":"MR"}]},"system":"https://bonnie-fhir.healthit.gov/","value":"6109650598086b538055a10e"}],"active":true,"name":[{"use":"usual","family":"NUMFail","given":["RiskAssmt1MinAfterEnc"]}],"gender":"female","birthDate":"2013-03-02"},"request":{"method":"PUT","url":"Patient/5a4bb939-9a6a-4574-93c8-102c64af65f8"}},{"fullUrl":"Encounter/5e4af1fbbd36f900007c8628","resource":{"resourceType":"Encounter","id":"5e4af1fbbd36f900007c8628","meta":{"profile":["http://hl7.org/fhir/us/qicore/StructureDefinition/qicore-encounter"]},"status":"finished","class":{"system":"http://terminology.hl7.org/CodeSystem/v3-ActCode","code":"AMB","display":"ambulatory","userSelected":true},"type":[{"coding":[{"system":"http://www.ama-assn.org/go/cpt","code":"99214"}]}],"subject":{"reference":"Patient/5a4bb939-9a6a-4574-93c8-102c64af65f8"},"period":{"start":"2025-11-17T08:00:00.000+00:00","end":"2025-11-17T08:15:00.000+00:00"},"reasonCode":[{"coding":[{"system":"http://snomed.info/sct","version":"2020-09","code":"20250007","display":"Severe major depression, single episode, with psychotic features, mood-incongruent (disorder)","userSelected":true}]}],"diagnosis":[{"condition":{"reference":"Condition/major-depressive-disorder-active-398e"},"use":{"coding":[{"system":"http://snomed.info/sct","version":"2022-09","code":"20250007","display":"Severe major depression, single episode, with psychotic features, mood-incongruent (disorder)","userSelected":true}]}}]},"request":{"method":"PUT","url":"Encounter/5e4af1fbbd36f900007c8628"}},{"fullUrl":"Procedure/5e4af21bbd36f900007c8690","resource":{"resourceType":"Procedure","id":"5e4af21bbd36f900007c8690","meta":{"profile":["http://hl7.org/fhir/us/qicore/StructureDefinition/qicore-procedure"]},"extension":[{"url":"http://hl7.org/fhir/us/qicore/StructureDefinition/qicore-recorded","valueDateTime":"2025-11-17T08:00:00.000Z"}],"status":"completed","code":{"coding":[{"system":"http://snomed.info/sct","code":"225337009"}]},"subject":{"reference":"Patient/5a4bb939-9a6a-4574-93c8-102c64af65f8"},"performedDateTime":"2025-11-17T08:16:00.000+00:00"},"request":{"method":"PUT","url":"Procedure/5e4af21bbd36f900007c8690"}},{"fullUrl":"Condition/major-depressive-disorder-active-398e","resource":{"resourceType":"Condition","id":"major-depressive-disorder-active-398e","meta":{"profile":["http://hl7.org/fhir/us/qicore/StructureDefinition/qicore-condition"]},"category":[{"coding":[{"system":"http://terminology.hl7.org/CodeSystem/condition-category","code":"encounter-diagnosis","display":"Encounter Diagnosis"}]}],"code":{"coding":[{"system":"http://snomed.info/sct","version":"2022-09","code":"10811121000119102","display":"Major depressive disorder in mother complicating childbirth (disorder)","userSelected":true}]},"subject":{"reference":"Patient/5a4bb939-9a6a-4574-93c8-102c64af65f8"},"recordedDate":"2025-11-17T08:00:00.000+00:00"},"request":{"method":"PUT","url":"Condition/major-depressive-disorder-active-398e"}},{"fullUrl":"Coverage/Coverage-1","resource":{"resourceType":"Coverage","id":"Coverage-1","meta":{"profile":["http://hl7.org/fhir/us/qicore/StructureDefinition/qicore-coverage"]},"status":"active","beneficiary":{"reference":"Patient/5a4bb939-9a6a-4574-93c8-102c64af65f8"},"payor":[{"reference":"Organization/Org-123456"}]},"request":{"method":"PUT","url":"Coverage/Coverage-1"}},{"fullUrl":"Organization/Org-123456","resource":{"resourceType":"Organization","id":"Org-123456","meta":{"profile":["http://hl7.org/fhir/us/qicore/StructureDefinition/qicore-organization"]},"identifier":[{"use":"temp","system":"urn:oid:2.16.840.1.113883.4.4","value":"21-3259825"}],"active":true,"type":[{"coding":[{"system":"http://terminology.hl7.org/CodeSystem/organization-type","code":"pay","display":"Payer"}]}],"name":"Blue Cross Blue Shield of Texas","telecom":[{"system":"phone","value":"(+1) 972-766-6900"}],"address":[{"use":"billing","type":"postal","line":["P.O. Box 660044"],"city":"Dallas","state":"TX","postalCode":"75266-0044","country":"USA"}]},"request":{"method":"PUT","url":"Organization/Org-123456"}},{"fullUrl":"Practitioner/practitioner-123456","resource":{"resourceType":"Practitioner","id":"practitioner-123456","meta":{"profile":["http://hl7.org/fhir/us/qicore/StructureDefinition/qicore-practitioner"]},"identifier":[{"system":"http://hl7.org/fhir/sid/us-npi","value":"123456"}],"name":[{"family":"Evil","prefix":["Dr"]}]},"request":{"method":"PUT","url":"Practitioner/practitioner-123456"}},{"fullUrl":"MeasureReport/67f1fa15-bf2a-4bf6-925b-8c910a0cc9da","resource":{"resourceType":"MeasureReport","id":"67f1fa15-bf2a-4bf6-925b-8c910a0cc9da","meta":{"profile":["http://hl7.org/fhir/us/cqfmeasures/StructureDefinition/test-case-cqfm"]},"contained":[{"resourceType":"Parameters","id":"034b94cd-5e9b-4663-8b71-48141bbe9950-parameters","parameter":[{"name":"subject","valueString":"5a4bb939-9a6a-4574-93c8-102c64af65f8"}]}],"extension":[{"url":"http://hl7.org/fhir/us/cqfmeasures/StructureDefinition/cqfm-inputParameters","valueReference":{"reference":"#034b94cd-5e9b-4663-8b71-48141bbe9950-parameters"}},{"url":"http://hl7.org/fhir/us/cqfmeasures/StructureDefinition/cqfm-testCaseDescription","valueMarkdown":"Patient has office visit for MDD but SRA is performed 1 minute after encounter ends."}],"modifierExtension":[{"url":"http://hl7.org/fhir/us/cqfmeasures/StructureDefinition/cqfm-isTestCase","valueBoolean":true}],"status":"complete","type":"individual","measure":"Measure/ChildandAdolescentMajorDepressiveDisorderMDDSuicideRiskAssessmentFHIR","period":{"start":"2025-01-01","end":"2025-12-31"},"group":[{"population":[{"code":{"coding":[{"system":"http://terminology.hl7.org/CodeSystem/measure-population","code":"initial-population","display":"Initial Population"}]},"count":1},{"code":{"coding":[{"system":"http://terminology.hl7.org/CodeSystem/measure-population","code":"denominator","display":"Denominator"}]},"count":1},{"code":{"coding":[{"system":"http://terminology.hl7.org/CodeSystem/measure-population","code":"numerator","display":"Numerator"}]},"count":0}]}],"evaluatedResource":[{"reference":"Patient/5a4bb939-9a6a-4574-93c8-102c64af65f8"},{"reference":"Encounter/5e4af1fbbd36f900007c8628"},{"reference":"Procedure/5e4af21bbd36f900007c8690"},{"reference":"Condition/major-depressive-disorder-active-398e"},{"reference":"Coverage/Coverage-1"},{"reference":"Organization/Org-123456"},{"reference":"Practitioner/practitioner-123456"}]},"request":{"method":"PUT","url":"MeasureReport/67f1fa15-bf2a-4bf6-925b-8c910a0cc9da"}}]}