{"resourceType":"Bundle","id":"tests-3f4922e2-57b0-4e2f-97d6-7c1edf156f56-bundle","type":"transaction","entry":[{"fullUrl":"https://madie.cms.gov/Patient/3f4922e2-57b0-4e2f-97d6-7c1edf156f56","resource":{"resourceType":"Patient","id":"3f4922e2-57b0-4e2f-97d6-7c1edf156f56","meta":{"profile":["http://hl7.org/fhir/us/qicore/StructureDefinition/qicore-patient"]},"text":{"status":"generated","div":"<div xmlns=\"http://www.w3.org/1999/xhtml\"><div class=\"hapiHeaderText\">RiskAssessMultOVEncrelevantDatetime <b>NUMERPASS </b></div><table class=\"hapiPropertyTable\"><tbody><tr><td>Identifier</td><td>4acdd1ab2ce8b6b5853988f06278aa61</td></tr><tr><td>Date of birth</td><td><span>25 April 2000</span></td></tr></tbody></table></div>"},"extension":[{"url":"http://hl7.org/fhir/us/core/StructureDefinition/us-core-race","extension":[{"url":"ombCategory","valueCoding":{"system":"urn:oid:2.16.840.1.113883.6.238","code":"1002-5","display":"American Indian or Alaska Native","userSelected":true}},{"url":"text","valueString":"American Indian or Alaska Native"}]},{"url":"http://hl7.org/fhir/us/core/StructureDefinition/us-core-ethnicity","extension":[{"url":"ombCategory","valueCoding":{"system":"urn:oid:2.16.840.1.113883.6.238","code":"2186-5","display":"Not Hispanic or Latino","userSelected":true}},{"url":"text","valueString":"Not Hispanic or Latino"}]}],"identifier":[{"type":{"coding":[{"system":"http://terminology.hl7.org/CodeSystem/v2-0203","code":"MR"}]},"system":"https://bonnie-fhir.healthit.gov/","value":"6109650598086b538055a0dd"}],"active":true,"name":[{"use":"usual","family":"NUMPass","given":["RiskAssmtMultEncrelevantDatetime"]}],"gender":"female","birthDate":"2014-04-25"},"request":{"method":"PUT","url":"Patient/3f4922e2-57b0-4e2f-97d6-7c1edf156f56"}},{"fullUrl":"https://madie.cms.gov/Encounter/5c98fd1ab848464ed33e9e8f","resource":{"resourceType":"Encounter","id":"dacb6eb7-f9db-4ea7-9a71-7989ca451889","meta":{"profile":["http://hl7.org/fhir/us/qicore/StructureDefinition/qicore-encounter"]},"status":"finished","class":{"system":"http://terminology.hl7.org/CodeSystem/v3-ActCode","code":"AMB","display":"ambulatory","userSelected":true},"type":[{"coding":[{"system":"http://www.ama-assn.org/go/cpt","code":"99213"}]}],"subject":{"reference":"Patient/3f4922e2-57b0-4e2f-97d6-7c1edf156f56"},"period":{"start":"2025-03-27T14:30:00.000+00:00","end":"2025-03-27T15:00:00.000+00:00"},"length":{"value":0.0,"unit":"days"},"reasonCode":[{"coding":[{"system":"http://hl7.org/fhir/sid/icd-10-cm","version":"2021","code":"F32.2","display":"Major depressive disorder, single episode, severe without psychotic features","userSelected":true}]}],"diagnosis":[{"condition":{"reference":"Condition/major-depressive-disorder-active-a49c"},"use":{"coding":[{"system":"http://snomed.info/sct","version":"2023-09","code":"10811161000119107","display":"Major depressive disorder in mother complicating pregnancy (disorder)","userSelected":true}]}}]},"request":{"method":"PUT","url":"Encounter/dacb6eb7-f9db-4ea7-9a71-7989ca451889"}},{"fullUrl":"https://madie.cms.gov/Encounter/5c98fd1ab848464ed33e9e90","resource":{"resourceType":"Encounter","id":"18244f97-cb17-4448-8008-eb248e93c438","meta":{"profile":["http://hl7.org/fhir/us/qicore/StructureDefinition/qicore-encounter"]},"status":"finished","class":{"system":"http://terminology.hl7.org/CodeSystem/v3-ActCode","code":"AMB","display":"ambulatory","userSelected":true},"type":[{"coding":[{"system":"http://www.ama-assn.org/go/cpt","code":"99212"}]}],"subject":{"reference":"Patient/3f4922e2-57b0-4e2f-97d6-7c1edf156f56"},"period":{"start":"2025-05-15T11:30:00.000+00:00","end":"2025-05-15T12:00:00.000+00:00"},"length":{"value":0.0,"unit":"days"}},"request":{"method":"PUT","url":"Encounter/18244f97-cb17-4448-8008-eb248e93c438"}},{"fullUrl":"https://madie.cms.gov/Encounter/5c98fd1ab848464ed33e9e91","resource":{"resourceType":"Encounter","id":"d9ae8a6f-700c-4eaa-8124-b26ee8737798","meta":{"profile":["http://hl7.org/fhir/us/qicore/StructureDefinition/qicore-encounter"]},"status":"finished","class":{"system":"http://terminology.hl7.org/CodeSystem/v3-ActCode","code":"AMB","display":"ambulatory","userSelected":true},"type":[{"coding":[{"system":"http://www.ama-assn.org/go/cpt","code":"99212"}]}],"subject":{"reference":"Patient/3f4922e2-57b0-4e2f-97d6-7c1edf156f56"},"period":{"start":"2025-07-12T11:30:00.000+00:00","end":"2025-07-12T12:00:00.000+00:00"},"length":{"value":0.0,"unit":"days"},"reasonCode":[{"coding":[{"system":"http://snomed.info/sct","version":"2020-09","code":"10811161000119107","display":"Major depressive disorder in mother complicating pregnancy (disorder)","userSelected":true}]}],"diagnosis":[{"condition":{"reference":"Condition/major-depressive-disorder-active-a49d"},"use":{"coding":[{"system":"http://snomed.info/sct","version":"2023-09","code":"10811161000119107","display":"Major depressive disorder in mother complicating pregnancy (disorder)","userSelected":true}]}}]},"request":{"method":"PUT","url":"Encounter/d9ae8a6f-700c-4eaa-8124-b26ee8737798"}},{"fullUrl":"https://madie.cms.gov/Encounter/5c98fd1ab848464ed33e9e92","resource":{"resourceType":"Encounter","id":"cdbb472d-2ee6-4ab7-82e1-173085c5060d","meta":{"profile":["http://hl7.org/fhir/us/qicore/StructureDefinition/qicore-encounter"]},"status":"finished","class":{"system":"http://terminology.hl7.org/CodeSystem/v3-ActCode","code":"AMB","display":"ambulatory","userSelected":true},"type":[{"coding":[{"system":"http://www.ama-assn.org/go/cpt","code":"99212"}]}],"subject":{"reference":"Patient/3f4922e2-57b0-4e2f-97d6-7c1edf156f56"},"period":{"start":"2025-12-30T09:30:00.000+00:00","end":"2025-12-30T10:00:00.000+00:00"},"length":{"value":0.0,"unit":"days"}},"request":{"method":"PUT","url":"Encounter/cdbb472d-2ee6-4ab7-82e1-173085c5060d"}},{"fullUrl":"https://madie.cms.gov/Procedure/5c98fd1ab848464ed33e9e93","resource":{"resourceType":"Procedure","id":"badca7a3-da66-4796-89b3-dd80fdb5aa19","meta":{"profile":["http://hl7.org/fhir/us/qicore/StructureDefinition/qicore-procedure"]},"extension":[{"url":"http://hl7.org/fhir/us/qicore/StructureDefinition/qicore-recorded","valueDateTime":"2025-03-27T14:45:00.000+00:00"}],"status":"completed","code":{"coding":[{"system":"http://snomed.info/sct","code":"225337009"}]},"subject":{"reference":"Patient/3f4922e2-57b0-4e2f-97d6-7c1edf156f56"},"performedDateTime":"2025-03-27T14:45:00.000+00:00"},"request":{"method":"PUT","url":"Procedure/badca7a3-da66-4796-89b3-dd80fdb5aa19"}},{"fullUrl":"https://madie.cms.gov/Procedure/5c98fd1ab848464ed33e9e94","resource":{"resourceType":"Procedure","id":"c6e9e6de-6601-415a-b4cd-4522abfb8471","meta":{"profile":["http://hl7.org/fhir/us/qicore/StructureDefinition/qicore-procedure"]},"extension":[{"url":"http://hl7.org/fhir/us/qicore/StructureDefinition/qicore-recorded","valueDateTime":"2025-07-12T11:45:00.000+00:00"}],"status":"completed","code":{"coding":[{"system":"http://snomed.info/sct","code":"225337009"}]},"subject":{"reference":"Patient/3f4922e2-57b0-4e2f-97d6-7c1edf156f56"},"performedDateTime":"2025-07-12T11:45:00.000+00:00"},"request":{"method":"PUT","url":"Procedure/c6e9e6de-6601-415a-b4cd-4522abfb8471"}},{"fullUrl":"https://madie.cms.gov/Condition/major-depressive-disorder-active-a49c","resource":{"resourceType":"Condition","id":"2e3e643a-391a-4bde-b975-e4234ba9ce78","meta":{"profile":["http://hl7.org/fhir/us/qicore/StructureDefinition/qicore-condition"]},"category":[{"coding":[{"system":"http://terminology.hl7.org/CodeSystem/condition-category","code":"encounter-diagnosis","display":"encounter-diagnosis","userSelected":true}]}],"code":{"coding":[{"system":"http://snomed.info/sct","version":"2023-09","code":"10811121000119102","display":"Major depressive disorder in mother complicating childbirth (disorder)","userSelected":true}]},"subject":{"reference":"Patient/3f4922e2-57b0-4e2f-97d6-7c1edf156f56"},"recordedDate":"2025-03-27T14:30:00.000+00:00"},"request":{"method":"PUT","url":"Condition/2e3e643a-391a-4bde-b975-e4234ba9ce78"}},{"fullUrl":"https://madie.cms.gov/Condition/major-depressive-disorder-active-a49d","resource":{"resourceType":"Condition","id":"fd3a12eb-7128-4848-ad22-c92248f5a9fb","meta":{"profile":["http://hl7.org/fhir/us/qicore/StructureDefinition/qicore-condition"]},"category":[{"coding":[{"system":"http://terminology.hl7.org/CodeSystem/condition-category","code":"encounter-diagnosis","display":"encounter-diagnosis","userSelected":true}]}],"code":{"coding":[{"system":"http://snomed.info/sct","version":"2023-09","code":"10811121000119102","display":"Major depressive disorder in mother complicating childbirth (disorder)","userSelected":true}]},"subject":{"reference":"Patient/3f4922e2-57b0-4e2f-97d6-7c1edf156f56"},"recordedDate":"2025-07-12T11:30:00.000+00:00"},"request":{"method":"PUT","url":"Condition/fd3a12eb-7128-4848-ad22-c92248f5a9fb"}},{"fullUrl":"https://madie.cms.gov/Coverage/payer-f7a7","resource":{"resourceType":"Coverage","id":"1f14c8c6-1217-49a5-a4ba-92fbae3367f7","meta":{"profile":["http://hl7.org/fhir/us/qicore/StructureDefinition/qicore-coverage"]},"identifier":[{"system":"http://benefitsinc.com/certificate","value":"12345"}],"status":"active","type":{"coding":[{"system":"https://nahdo.org/sopt","code":"14","userSelected":true}]},"beneficiary":{"reference":"Patient/3f4922e2-57b0-4e2f-97d6-7c1edf156f56"},"period":{"start":"2025-01-01T08:00:00.000+00:00","end":"2025-12-31T11:59:00.000+00:00"},"payor":[{"reference":"Organization/80e3e0d1-b2aa-43a6-b1d2-00bfa3164a0f"}]},"request":{"method":"PUT","url":"Coverage/1f14c8c6-1217-49a5-a4ba-92fbae3367f7"}},{"fullUrl":"https://madie.cms.gov/Organization/123456","resource":{"resourceType":"Organization","id":"80e3e0d1-b2aa-43a6-b1d2-00bfa3164a0f","meta":{"profile":["http://hl7.org/fhir/us/qicore/StructureDefinition/qicore-organization"]},"identifier":[{"use":"temp","system":"urn:oid:2.16.840.1.113883.4.4","value":"21-3259825"}],"active":true,"type":[{"coding":[{"system":"http://terminology.hl7.org/CodeSystem/organization-type","code":"pay","display":"Payer"}]}],"name":"Blue Cross Blue Shield of Texas","telecom":[{"system":"phone","value":"(+1) 972-766-6900"}],"address":[{"use":"billing","type":"postal","line":["P.O. Box 660044"],"city":"Dallas","state":"TX","postalCode":"75266-0044","country":"USA"}]},"request":{"method":"PUT","url":"Organization/80e3e0d1-b2aa-43a6-b1d2-00bfa3164a0f"}},{"fullUrl":"https://madie.cms.gov/Practitioner/practitioner-123456","resource":{"resourceType":"Practitioner","id":"569711e5-a1d9-4717-a86a-22cf18b94921","meta":{"profile":["http://hl7.org/fhir/us/qicore/StructureDefinition/qicore-practitioner"]},"identifier":[{"system":"http://hl7.org/fhir/sid/us-npi","value":"123456"}],"name":[{"family":"Evil","prefix":["Dr"]}]},"request":{"method":"PUT","url":"Practitioner/569711e5-a1d9-4717-a86a-22cf18b94921"}},{"fullUrl":"https://madie.cms.gov/MeasureReport/5c80364c-5a59-4d9b-b2b0-2586887a7d43","resource":{"resourceType":"MeasureReport","id":"5c80364c-5a59-4d9b-b2b0-2586887a7d43","meta":{"profile":["http://hl7.org/fhir/us/cqfmeasures/StructureDefinition/test-case-cqfm"]},"contained":[{"resourceType":"Parameters","id":"a11c667d-53fa-4a7f-97b4-7940fdbad6ed-parameters","parameter":[{"name":"subject","valueString":"3f4922e2-57b0-4e2f-97d6-7c1edf156f56"}]}],"extension":[{"url":"http://hl7.org/fhir/us/cqfmeasures/StructureDefinition/cqfm-inputParameters","valueReference":{"reference":"#a11c667d-53fa-4a7f-97b4-7940fdbad6ed-parameters"}},{"url":"http://hl7.org/fhir/us/cqfmeasures/StructureDefinition/cqfm-testCaseDescription","valueMarkdown":"Patient with depression and suicide risk assessment during multiple office visit encounter using relevantDatetime"}],"modifierExtension":[{"url":"http://hl7.org/fhir/us/cqfmeasures/StructureDefinition/cqfm-isTestCase","valueBoolean":true}],"status":"complete","type":"individual","measure":"https://madie.cms.gov/Measure/ChildandAdolescentMajorDepressiveDisorderMDDSuicideRiskAssessmentFHIR","period":{"start":"2025-01-01","end":"2025-12-31"},"group":[{"population":[{"code":{"coding":[{"system":"http://terminology.hl7.org/CodeSystem/measure-population","code":"initial-population","display":"Initial Population"}]},"count":2},{"code":{"coding":[{"system":"http://terminology.hl7.org/CodeSystem/measure-population","code":"denominator","display":"Denominator"}]},"count":2},{"code":{"coding":[{"system":"http://terminology.hl7.org/CodeSystem/measure-population","code":"numerator","display":"Numerator"}]},"count":2}]}]},"request":{"method":"PUT","url":"MeasureReport/5c80364c-5a59-4d9b-b2b0-2586887a7d43"}}]}