{"resourceType":"Bundle","id":"tests-12ae11c5-84f6-41f8-8fcc-1e10a0dc74f2-bundle","type":"transaction","entry":[{"fullUrl":"Patient/12ae11c5-84f6-41f8-8fcc-1e10a0dc74f2","resource":{"resourceType":"Patient","id":"12ae11c5-84f6-41f8-8fcc-1e10a0dc74f2","meta":{"profile":["http://hl7.org/fhir/us/qicore/StructureDefinition/qicore-patient"]},"text":{"status":"generated","div":"<div xmlns=\"http://www.w3.org/1999/xhtml\"><div class=\"hapiHeaderText\">PsychoanalysisEncB4MP <b>IPPFAIL </b></div><table class=\"hapiPropertyTable\"><tbody><tr><td>Identifier</td><td>588ba77e42a7e60343a4ab3297f14a40</td></tr><tr><td>Date of birth</td><td><span>13 December 2003</span></td></tr></tbody></table></div>"},"extension":[{"url":"http://hl7.org/fhir/us/core/StructureDefinition/us-core-race","extension":[{"url":"ombCategory","valueCoding":{"system":"urn:oid:2.16.840.1.113883.6.238","code":"1002-5","display":"American Indian or Alaska Native","userSelected":true}},{"url":"text","valueString":"American Indian or Alaska Native"},{"url":"detailed","valueCoding":{"system":"urn:oid:2.16.840.1.113883.6.238","code":"1653-5","display":"Tohono O'Odham"}}]},{"url":"http://hl7.org/fhir/us/core/StructureDefinition/us-core-ethnicity","extension":[{"url":"ombCategory","valueCoding":{"system":"urn:oid:2.16.840.1.113883.6.238","code":"2135-2","display":"Hispanic or Latino","userSelected":true}},{"url":"text","valueString":"Not Hispanic or Latino"},{"url":"detailed","valueCoding":{"system":"urn:oid:2.16.840.1.113883.6.238","code":"2153-5","display":"Mexican American Indian"}}]}],"identifier":[{"type":{"coding":[{"system":"http://terminology.hl7.org/CodeSystem/v2-0203","code":"MR"}]},"system":"https://bonnie-fhir.healthit.gov/","value":"641d85ece79ed5094e9c4613"}],"active":true,"name":[{"use":"usual","family":"IPFail","given":["EncB4MP"]}],"gender":"unknown","birthDate":"2011-12-13"},"request":{"method":"PUT","url":"Patient/12ae11c5-84f6-41f8-8fcc-1e10a0dc74f2"}},{"fullUrl":"Encounter/5c98fd1ab848464ed33e9e99","resource":{"resourceType":"Encounter","id":"5c98fd1ab848464ed33e9e99","meta":{"profile":["http://hl7.org/fhir/us/qicore/StructureDefinition/qicore-encounter"]},"status":"finished","class":{"system":"http://terminology.hl7.org/CodeSystem/v3-ActCode","code":"AMB","display":"ambulatory","userSelected":true},"type":[{"coding":[{"system":"http://www.ama-assn.org/go/cpt","code":"90845"}]}],"subject":{"reference":"Patient/12ae11c5-84f6-41f8-8fcc-1e10a0dc74f2"},"period":{"start":"2023-02-11T08:00:00.000+00:00","end":"2023-02-11T08:15:00.000+00:00"},"length":{"value":0,"unit":"days"},"reasonCode":[{"coding":[{"system":"http://snomed.info/sct","version":"2022-09","code":"10811161000119107","display":"Major depressive disorder in mother complicating pregnancy (disorder)","userSelected":true}]}],"diagnosis":[{"condition":{"reference":"Condition/major-depressive-disorder-active-c3aa"},"use":{"coding":[{"system":"http://snomed.info/sct","version":"2022-09","code":"10811161000119107","display":"Major depressive disorder in mother complicating pregnancy (disorder)","userSelected":true}]}}]},"request":{"method":"PUT","url":"Encounter/5c98fd1ab848464ed33e9e99"}},{"fullUrl":"Condition/major-depressive-disorder-active-c3aa","resource":{"resourceType":"Condition","id":"major-depressive-disorder-active-c3aa","meta":{"profile":["http://hl7.org/fhir/us/qicore/StructureDefinition/qicore-condition"]},"category":[{"coding":[{"system":"http://terminology.hl7.org/CodeSystem/condition-category","code":"encounter-diagnosis","display":"Encounter Diagnosis"}]}],"code":{"coding":[{"system":"http://snomed.info/sct","version":"2022-09","code":"10811121000119102","display":"Major depressive disorder in mother complicating childbirth (disorder)","userSelected":true}]},"subject":{"reference":"Patient/12ae11c5-84f6-41f8-8fcc-1e10a0dc74f2"},"recordedDate":"2023-02-11T08:00:00.000+00:00"},"request":{"method":"PUT","url":"Condition/major-depressive-disorder-active-c3aa"}},{"fullUrl":"Procedure/suicide-risk-assessment-procedure-c3ab","resource":{"resourceType":"Procedure","id":"suicide-risk-assessment-procedure-c3ab","meta":{"profile":["http://hl7.org/fhir/us/qicore/StructureDefinition/qicore-procedure"]},"extension":[{"url":"http://hl7.org/fhir/us/qicore/StructureDefinition/qicore-recorded","valueDateTime":"2023-02-11T08:00:00.000Z"}],"status":"completed","code":{"coding":[{"system":"http://snomed.info/sct","code":"225337009","display":"Suicide risk assessment (procedure)","userSelected":true}]},"subject":{"reference":"Patient/12ae11c5-84f6-41f8-8fcc-1e10a0dc74f2"},"performedPeriod":{"start":"2025-02-10T08:00:00.000+00:00","end":"2025-02-10T08:15:00.000+00:00"}},"request":{"method":"PUT","url":"Procedure/suicide-risk-assessment-procedure-c3ab"}},{"fullUrl":"Coverage/Coverage-1","resource":{"resourceType":"Coverage","id":"Coverage-1","meta":{"profile":["http://hl7.org/fhir/us/qicore/StructureDefinition/qicore-coverage"]},"status":"active","beneficiary":{"reference":"Patient/12ae11c5-84f6-41f8-8fcc-1e10a0dc74f2"},"payor":[{"reference":"Organization/Org-123456"}]},"request":{"method":"PUT","url":"Coverage/Coverage-1"}},{"fullUrl":"Organization/Org-123456","resource":{"resourceType":"Organization","id":"Org-123456","meta":{"profile":["http://hl7.org/fhir/us/qicore/StructureDefinition/qicore-organization"]},"identifier":[{"use":"temp","system":"urn:oid:2.16.840.1.113883.4.4","value":"21-3259825"}],"active":true,"type":[{"coding":[{"system":"http://terminology.hl7.org/CodeSystem/organization-type","code":"pay","display":"Payer"}]}],"name":"Blue Cross Blue Shield of Texas","telecom":[{"system":"phone","value":"(+1) 972-766-6900"}],"address":[{"use":"billing","type":"postal","line":["P.O. Box 660044"],"city":"Dallas","state":"TX","postalCode":"75266-0044","country":"USA"}]},"request":{"method":"PUT","url":"Organization/Org-123456"}},{"fullUrl":"Practitioner/practitioner-123456","resource":{"resourceType":"Practitioner","id":"practitioner-123456","meta":{"profile":["http://hl7.org/fhir/us/qicore/StructureDefinition/qicore-practitioner"]},"identifier":[{"system":"http://hl7.org/fhir/sid/us-npi","value":"123456"}],"name":[{"family":"Evil","prefix":["Dr"]}]},"request":{"method":"PUT","url":"Practitioner/practitioner-123456"}},{"fullUrl":"MeasureReport/e80448cc-1b9a-4938-b51d-7d70b1ca402a","resource":{"resourceType":"MeasureReport","id":"e80448cc-1b9a-4938-b51d-7d70b1ca402a","meta":{"profile":["http://hl7.org/fhir/us/cqfmeasures/StructureDefinition/test-case-cqfm"]},"contained":[{"resourceType":"Parameters","id":"3b86ccee-44ea-46bb-b984-02c9b7f38e34-parameters","parameter":[{"name":"subject","valueString":"12ae11c5-84f6-41f8-8fcc-1e10a0dc74f2"}]}],"extension":[{"url":"http://hl7.org/fhir/us/cqfmeasures/StructureDefinition/cqfm-inputParameters","valueReference":{"reference":"#3b86ccee-44ea-46bb-b984-02c9b7f38e34-parameters"}},{"url":"http://hl7.org/fhir/us/cqfmeasures/StructureDefinition/cqfm-testCaseDescription","valueMarkdown":"Patient with psychotherapy encounter before measurement period."}],"modifierExtension":[{"url":"http://hl7.org/fhir/us/cqfmeasures/StructureDefinition/cqfm-isTestCase","valueBoolean":true}],"status":"complete","type":"individual","measure":"Measure/ChildandAdolescentMajorDepressiveDisorderMDDSuicideRiskAssessmentFHIR","period":{"start":"2025-01-01","end":"2025-12-31"},"group":[{"population":[{"code":{"coding":[{"system":"http://terminology.hl7.org/CodeSystem/measure-population","code":"initial-population","display":"Initial Population"}]},"count":0},{"code":{"coding":[{"system":"http://terminology.hl7.org/CodeSystem/measure-population","code":"denominator","display":"Denominator"}]},"count":0},{"code":{"coding":[{"system":"http://terminology.hl7.org/CodeSystem/measure-population","code":"numerator","display":"Numerator"}]},"count":0}]}],"evaluatedResource":[{"reference":"Patient/12ae11c5-84f6-41f8-8fcc-1e10a0dc74f2"},{"reference":"Encounter/5c98fd1ab848464ed33e9e99"},{"reference":"Condition/major-depressive-disorder-active-c3aa"},{"reference":"Procedure/suicide-risk-assessment-procedure-c3ab"},{"reference":"Coverage/Coverage-1"},{"reference":"Organization/Org-123456"},{"reference":"Practitioner/practitioner-123456"}]},"request":{"method":"PUT","url":"MeasureReport/e80448cc-1b9a-4938-b51d-7d70b1ca402a"}}]}