{"resourceType":"Bundle","id":"tests-a4f7a37c-6c3e-499f-b474-56598165dee8-bundle","type":"transaction","entry":[{"fullUrl":"https://madie.cms.gov/Patient/a4f7a37c-6c3e-499f-b474-56598165dee8","resource":{"resourceType":"Patient","id":"a4f7a37c-6c3e-499f-b474-56598165dee8","meta":{"profile":["http://hl7.org/fhir/us/qicore/StructureDefinition/qicore-patient"]},"extension":[{"url":"http://hl7.org/fhir/us/core/StructureDefinition/us-core-race","extension":[{"url":"ombCategory","valueCoding":{"system":"urn:oid:2.16.840.1.113883.6.238","code":"1002-5","display":"American Indian or Alaska Native","userSelected":true}},{"url":"text","valueString":"American Indian or Alaska Native"}]},{"url":"http://hl7.org/fhir/us/core/StructureDefinition/us-core-ethnicity","extension":[{"url":"ombCategory","valueCoding":{"system":"urn:oid:2.16.840.1.113883.6.238","code":"2135-2","display":"Hispanic or Latino","userSelected":true}},{"url":"text","valueString":"Hispanic or Latino"}]}],"identifier":[{"type":{"coding":[{"system":"http://terminology.hl7.org/CodeSystem/v2-0203","code":"MR"}]},"system":"https://bonnie-fhir.healthit.gov/","value":"64d1169b1252352a0771c3af"}],"name":[{"family":"DENOMPass","given":["Age6Yr1Day onJan1Edge"]}],"gender":"male","birthDate":"2019-12-31"},"request":{"method":"PUT","url":"Patient/a4f7a37c-6c3e-499f-b474-56598165dee8"}},{"fullUrl":"https://madie.cms.gov/Encounter/outpatient-consultation-c3b0","resource":{"resourceType":"Encounter","id":"d3f855e4-6fcb-442e-8c51-66eb9fc97bcc","status":"finished","class":{"system":"http://terminology.hl7.org/CodeSystem/v3-ActCode","code":"AMB","display":"ambulatory","userSelected":true},"type":[{"coding":[{"system":"http://snomed.info/sct","version":"2022-09","code":"281036007","display":"Follow-up consultation (procedure)","userSelected":true}]}],"subject":{"reference":"Patient/a4f7a37c-6c3e-499f-b474-56598165dee8"},"period":{"start":"2026-02-17T08:00:00.000+00:00","end":"2026-02-17T08:15:00.000+00:00"},"reasonCode":[{"coding":[{"system":"http://snomed.info/sct","version":"2022-09","code":"10811161000119107","display":"Major depressive disorder in mother complicating pregnancy (disorder)","userSelected":true}]}],"diagnosis":[{"condition":{"reference":"Condition/major-depressive-disorder-active-c3b1"},"use":{"coding":[{"system":"http://snomed.info/sct","version":"2022-09","code":"10811161000119107","display":"Major depressive disorder in mother complicating pregnancy (disorder)","userSelected":true}]}}]},"request":{"method":"PUT","url":"Encounter/d3f855e4-6fcb-442e-8c51-66eb9fc97bcc"}},{"fullUrl":"https://madie.cms.gov/Condition/major-depressive-disorder-active-c3b1","resource":{"resourceType":"Condition","id":"8a53f077-3bdf-4aa9-9f78-cb86a9f8342b","category":[{"coding":[{"system":"http://terminology.hl7.org/CodeSystem/condition-category","code":"encounter-diagnosis","display":"encounter-diagnosis","userSelected":true}]}],"code":{"coding":[{"system":"http://snomed.info/sct","version":"2022-09","code":"10811121000119102","display":"Major depressive disorder in mother complicating childbirth (disorder)","userSelected":true}]},"subject":{"reference":"Patient/a4f7a37c-6c3e-499f-b474-56598165dee8"},"recordedDate":"2026-02-17T08:00:00.000+00:00"},"request":{"method":"PUT","url":"Condition/8a53f077-3bdf-4aa9-9f78-cb86a9f8342b"}},{"fullUrl":"https://madie.cms.gov/Coverage/payer-617e","resource":{"resourceType":"Coverage","id":"b2c8ca7f-b8ec-4527-80d1-60e250346ed6","status":"active","type":{"coding":[{"system":"http://www.nlm.nih.gov/research/umls/sop","version":"9.2","code":"1","display":"MEDICARE","userSelected":true}]},"beneficiary":{"reference":"Patient/a4f7a37c-6c3e-499f-b474-56598165dee8"},"period":{"start":"2026-01-01T08:00:00.000+00:00","end":"2026-03-29T08:15:00.000+00:00"},"payor":[{"reference":"Organization/5224cb12-ed64-4d6d-ab28-40a64f0800f1"}]},"request":{"method":"PUT","url":"Coverage/b2c8ca7f-b8ec-4527-80d1-60e250346ed6"}},{"fullUrl":"https://madie.cms.gov/Organization/123456","resource":{"resourceType":"Organization","id":"5224cb12-ed64-4d6d-ab28-40a64f0800f1","meta":{"profile":["http://hl7.org/fhir/us/qicore/StructureDefinition/qicore-organization"]},"identifier":[{"use":"temp","system":"urn:oid:2.16.840.1.113883.4.4","value":"21-3259825"}],"active":true,"type":[{"coding":[{"system":"http://terminology.hl7.org/CodeSystem/organization-type","code":"pay","display":"Payer"}]}],"name":"Blue Cross Blue Shield of Texas","telecom":[{"system":"phone","value":"(+1) 972-766-6900"}],"address":[{"use":"billing","type":"postal","line":["P.O. Box 660044"],"city":"Dallas","state":"TX","postalCode":"75266-0044","country":"USA"}]},"request":{"method":"PUT","url":"Organization/5224cb12-ed64-4d6d-ab28-40a64f0800f1"}},{"fullUrl":"https://madie.cms.gov/Practitioner/practitioner-123456","resource":{"resourceType":"Practitioner","id":"39574898-a7dd-4a9f-b0cc-e88ef02d4e9f","identifier":[{"system":"http://hl7.org/fhir/sid/us-npi","value":"123456"}],"name":[{"family":"Evil","prefix":["Dr"]}]},"request":{"method":"PUT","url":"Practitioner/39574898-a7dd-4a9f-b0cc-e88ef02d4e9f"}},{"fullUrl":"https://madie.cms.gov/MeasureReport/1e05a0f8-6bb9-45ee-ae5f-a412bbf0574d","resource":{"resourceType":"MeasureReport","id":"1e05a0f8-6bb9-45ee-ae5f-a412bbf0574d","meta":{"profile":["http://hl7.org/fhir/us/cqfmeasures/StructureDefinition/test-case-cqfm"]},"contained":[{"resourceType":"Parameters","id":"a700bfec-d802-4d32-8e58-27726da56a7d-parameters","parameter":[{"name":"subject","valueString":"a4f7a37c-6c3e-499f-b474-56598165dee8"}]}],"extension":[{"url":"http://hl7.org/fhir/us/cqfmeasures/StructureDefinition/cqfm-inputParameters","valueReference":{"reference":"#a700bfec-d802-4d32-8e58-27726da56a7d-parameters"}},{"url":"http://hl7.org/fhir/us/cqfmeasures/StructureDefinition/cqfm-testCaseDescription","valueMarkdown":"Patient is 6 years and 1 day on Jan 1 at start of MP"}],"modifierExtension":[{"url":"http://hl7.org/fhir/us/cqfmeasures/StructureDefinition/cqfm-isTestCase","valueBoolean":true}],"status":"complete","type":"individual","measure":"https://madie.cms.gov/Measure/ChildandAdolescentMajorDepressiveDisorderMDDSuicideRiskAssessmentFHIR","period":{"start":"2025-01-01","end":"2025-12-31"},"group":[{"population":[{"code":{"coding":[{"system":"http://terminology.hl7.org/CodeSystem/measure-population","code":"initial-population","display":"Initial Population"}]},"count":0},{"code":{"coding":[{"system":"http://terminology.hl7.org/CodeSystem/measure-population","code":"denominator","display":"Denominator"}]},"count":0},{"code":{"coding":[{"system":"http://terminology.hl7.org/CodeSystem/measure-population","code":"numerator","display":"Numerator"}]},"count":0}]}]},"request":{"method":"PUT","url":"MeasureReport/1e05a0f8-6bb9-45ee-ae5f-a412bbf0574d"}}]}