{"resourceType":"Bundle","id":"tests-970a0429-b9e6-4295-a831-24bce2bf813f-bundle","type":"transaction","entry":[{"fullUrl":"https://madie.cms.gov/Patient/970a0429-b9e6-4295-a831-24bce2bf813f","resource":{"resourceType":"Patient","id":"970a0429-b9e6-4295-a831-24bce2bf813f","meta":{"profile":["http://hl7.org/fhir/us/qicore/StructureDefinition/qicore-patient"]},"text":{"status":"generated","div":"<div xmlns=\"http://www.w3.org/1999/xhtml\"><div class=\"hapiHeaderText\">Age17AtStartMP <b>IPPFAIL </b></div><table class=\"hapiPropertyTable\"><tbody><tr><td>Identifier</td><td>313ec60f1f411a43b176d65c99f547504942224148394584268af437cb1ae473</td></tr><tr><td>Date of birth</td><td><span>01 January 1995</span></td></tr></tbody></table></div>"},"extension":[{"url":"http://hl7.org/fhir/us/core/StructureDefinition/us-core-race","extension":[{"url":"ombCategory","valueCoding":{"system":"urn:oid:2.16.840.1.113883.6.238","code":"2054-5","display":"Black or African American","userSelected":true}},{"url":"text","valueString":"Black or African American"}]},{"url":"http://hl7.org/fhir/us/core/StructureDefinition/us-core-ethnicity","extension":[{"url":"ombCategory","valueCoding":{"system":"urn:oid:2.16.840.1.113883.6.238","code":"2186-5","display":"Not Hispanic or Latino","userSelected":true}},{"url":"text","valueString":"Not Hispanic or Latino"}]}],"identifier":[{"type":{"coding":[{"system":"http://terminology.hl7.org/CodeSystem/v2-0203","code":"MR"}]},"system":"https://bonnie-fhir.healthit.gov/","value":"6109650598086b538055a108"}],"active":true,"name":[{"use":"usual","family":"IPFail","given":["Age6YrAtStartMP"]}],"gender":"male","birthDate":"2020-09-01"},"request":{"method":"PUT","url":"Patient/970a0429-b9e6-4295-a831-24bce2bf813f"}},{"fullUrl":"https://madie.cms.gov/Encounter/5c98fd1ab848464ed33e9ead","resource":{"resourceType":"Encounter","id":"c4b45598-5381-4304-ac05-f52eec081204","status":"finished","class":{"system":"http://terminology.hl7.org/CodeSystem/v3-ActCode","code":"AMB","display":"ambulatory","userSelected":true},"type":[{"coding":[{"system":"http://www.ama-assn.org/go/cpt","code":"90832"}]}],"subject":{"reference":"Patient/970a0429-b9e6-4295-a831-24bce2bf813f"},"period":{"start":"2026-07-12T11:45:00.000+00:00","end":"2026-07-12T11:45:00.000+00:00"},"length":{"value":0.0,"unit":"days"},"diagnosis":[{"condition":{"reference":"Condition/major-depressive-disorder-active-7d40"},"use":{"coding":[{"system":"http://snomed.info/sct","code":"10811161000119107","display":"Major Depressive Disorder-Active"}]}}]},"request":{"method":"PUT","url":"Encounter/c4b45598-5381-4304-ac05-f52eec081204"}},{"fullUrl":"https://madie.cms.gov/Procedure/5c98fd1ab848464ed33e9eae","resource":{"resourceType":"Procedure","id":"8937a7ea-ee89-4fc2-a001-95bca28fd540","status":"completed","code":{"coding":[{"system":"http://snomed.info/sct","code":"225337009"}]},"subject":{"reference":"Patient/970a0429-b9e6-4295-a831-24bce2bf813f"},"performedPeriod":{"start":"2026-07-12T11:46:00.000+00:00","end":"2026-07-12T11:49:00.000+00:00"}},"request":{"method":"PUT","url":"Procedure/8937a7ea-ee89-4fc2-a001-95bca28fd540"}},{"fullUrl":"https://madie.cms.gov/Condition/major-depressive-disorder-active-7d40","resource":{"resourceType":"Condition","id":"8ea9fc02-34c0-4b52-bdbc-e1e2e91352ab","category":[{"coding":[{"system":"http://terminology.hl7.org/CodeSystem/condition-category","code":"encounter-diagnosis","display":"encounter-diagnosis","userSelected":true}]}],"code":{"coding":[{"system":"http://snomed.info/sct","code":"10811161000119107","userSelected":true}]},"subject":{"reference":"Patient/970a0429-b9e6-4295-a831-24bce2bf813f"},"recordedDate":"2026-08-17T08:00:00.000+00:00"},"request":{"method":"PUT","url":"Condition/8ea9fc02-34c0-4b52-bdbc-e1e2e91352ab"}},{"fullUrl":"https://madie.cms.gov/Coverage/payer-6181","resource":{"resourceType":"Coverage","id":"ed509353-0dc8-4f37-8db0-fea9df43185a","status":"active","type":{"coding":[{"system":"http://www.nlm.nih.gov/research/umls/sop","code":"141","userSelected":true}]},"beneficiary":{"reference":"Patient/970a0429-b9e6-4295-a831-24bce2bf813f"},"period":{"start":"2026-03-29T08:00:00.000+00:00","end":"2026-11-29T08:15:00.000+00:00"},"payor":[{"reference":"Organization/4d7da20f-8773-4347-8f6b-80adcdcee1f4"}]},"request":{"method":"PUT","url":"Coverage/ed509353-0dc8-4f37-8db0-fea9df43185a"}},{"fullUrl":"https://madie.cms.gov/Organization/123456","resource":{"resourceType":"Organization","id":"4d7da20f-8773-4347-8f6b-80adcdcee1f4","meta":{"profile":["http://hl7.org/fhir/us/qicore/StructureDefinition/qicore-organization"]},"identifier":[{"use":"temp","system":"urn:oid:2.16.840.1.113883.4.4","value":"21-3259825"}],"active":true,"type":[{"coding":[{"system":"http://terminology.hl7.org/CodeSystem/organization-type","code":"pay","display":"Payer"}]}],"name":"Blue Cross Blue Shield of Texas","telecom":[{"system":"phone","value":"(+1) 972-766-6900"}],"address":[{"use":"billing","type":"postal","line":["P.O. Box 660044"],"city":"Dallas","state":"TX","postalCode":"75266-0044","country":"USA"}]},"request":{"method":"PUT","url":"Organization/4d7da20f-8773-4347-8f6b-80adcdcee1f4"}},{"fullUrl":"https://madie.cms.gov/Practitioner/practitioner-123456","resource":{"resourceType":"Practitioner","id":"5fb8f160-af4a-4220-a81e-313e5d9c26e4","identifier":[{"system":"http://hl7.org/fhir/sid/us-npi","value":"123456"}],"name":[{"family":"Evil","prefix":["Dr"]}]},"request":{"method":"PUT","url":"Practitioner/5fb8f160-af4a-4220-a81e-313e5d9c26e4"}},{"fullUrl":"https://madie.cms.gov/MeasureReport/a4980b29-30de-4401-8243-301e80a9a2a7","resource":{"resourceType":"MeasureReport","id":"a4980b29-30de-4401-8243-301e80a9a2a7","meta":{"profile":["http://hl7.org/fhir/us/cqfmeasures/StructureDefinition/test-case-cqfm"]},"contained":[{"resourceType":"Parameters","id":"aa785152-5018-4525-b9aa-811a7a18939c-parameters","parameter":[{"name":"subject","valueString":"970a0429-b9e6-4295-a831-24bce2bf813f"}]}],"extension":[{"url":"http://hl7.org/fhir/us/cqfmeasures/StructureDefinition/cqfm-inputParameters","valueReference":{"reference":"#aa785152-5018-4525-b9aa-811a7a18939c-parameters"}},{"url":"http://hl7.org/fhir/us/cqfmeasures/StructureDefinition/cqfm-testCaseDescription","valueMarkdown":"Patient is 6 years, 4 months at start of MP with  Psychoanalysis encounter and Depression Diagnosis recorded during MP"}],"modifierExtension":[{"url":"http://hl7.org/fhir/us/cqfmeasures/StructureDefinition/cqfm-isTestCase","valueBoolean":true}],"status":"complete","type":"individual","measure":"https://madie.cms.gov/Measure/ChildandAdolescentMajorDepressiveDisorderMDDSuicideRiskAssessmentFHIR","period":{"start":"2025-01-01","end":"2025-12-31"},"group":[{"population":[{"code":{"coding":[{"system":"http://terminology.hl7.org/CodeSystem/measure-population","code":"initial-population","display":"Initial Population"}]},"count":0},{"code":{"coding":[{"system":"http://terminology.hl7.org/CodeSystem/measure-population","code":"denominator","display":"Denominator"}]},"count":0},{"code":{"coding":[{"system":"http://terminology.hl7.org/CodeSystem/measure-population","code":"numerator","display":"Numerator"}]},"count":0}]}]},"request":{"method":"PUT","url":"MeasureReport/a4980b29-30de-4401-8243-301e80a9a2a7"}}]}