{"resourceType":"Bundle","id":"tests-4540ff15-1dbd-4335-8e7e-5123f8c31325-bundle","type":"transaction","entry":[{"fullUrl":"https://madie.cms.gov/Patient/4540ff15-1dbd-4335-8e7e-5123f8c31325","resource":{"resourceType":"Patient","id":"4540ff15-1dbd-4335-8e7e-5123f8c31325","meta":{"profile":["http://hl7.org/fhir/us/qicore/StructureDefinition/qicore-patient"]},"text":{"status":"generated","div":"<div xmlns=\"http://www.w3.org/1999/xhtml\"><div class=\"hapiHeaderText\">AgeOver17OneDayb4EncOV <b>IPPFAIL </b></div><table class=\"hapiPropertyTable\"><tbody><tr><td>Identifier</td><td>ecb7400db0285610789093dec8549617</td></tr><tr><td>Date of birth</td><td><span>31 December 1994</span></td></tr></tbody></table></div>"},"extension":[{"url":"http://hl7.org/fhir/us/core/StructureDefinition/us-core-race","extension":[{"url":"ombCategory","valueCoding":{"system":"urn:oid:2.16.840.1.113883.6.238","code":"1002-5","display":"American Indian or Alaska Native","userSelected":true}},{"url":"text","valueString":"American Indian or Alaska Native"}]},{"url":"http://hl7.org/fhir/us/core/StructureDefinition/us-core-ethnicity","extension":[{"url":"ombCategory","valueCoding":{"system":"urn:oid:2.16.840.1.113883.6.238","code":"2186-5","display":"Not Hispanic or Latino","userSelected":true}},{"url":"text","valueString":"Not Hispanic or Latino"}]}],"identifier":[{"type":{"coding":[{"system":"http://terminology.hl7.org/CodeSystem/v2-0203","code":"MR"}]},"system":"https://bonnie-fhir.healthit.gov/","value":"6109650598086b538055a0e5"}],"active":true,"name":[{"use":"usual","family":"IPFail","given":["AgeOver17OneDayb4EncOV"]}],"gender":"male","birthDate":"2007-12-31"},"request":{"method":"PUT","url":"Patient/4540ff15-1dbd-4335-8e7e-5123f8c31325"}},{"fullUrl":"https://madie.cms.gov/Encounter/5c98fd1bb848464ed33e9eb3","resource":{"resourceType":"Encounter","id":"502f1ef5-3775-46b9-a548-bc83140842c4","status":"finished","class":{"system":"http://terminology.hl7.org/CodeSystem/v3-ActCode","code":"AMB","display":"ambulatory","userSelected":true},"type":[{"coding":[{"system":"http://www.ama-assn.org/go/cpt","code":"99205","userSelected":true}]}],"subject":{"reference":"Patient/4540ff15-1dbd-4335-8e7e-5123f8c31325"},"period":{"start":"2026-01-01T08:59:00.000+00:00","end":"2026-01-01T09:59:00.000+00:00"},"length":{"value":0.0,"unit":"days"},"diagnosis":[{"condition":{"reference":"Condition/major-depressive-disorder-active-c3a3"},"use":{"coding":[{"system":"http://snomed.info/sct","version":"2022-09","code":"16264821000119108","display":"Recurrent severe major depressive disorder co-occurrent with anxiety (disorder)","userSelected":true}]}}]},"request":{"method":"PUT","url":"Encounter/502f1ef5-3775-46b9-a548-bc83140842c4"}},{"fullUrl":"https://madie.cms.gov/Condition/major-depressive-disorder-active-c3a3","resource":{"resourceType":"Condition","id":"65c8c82a-d2c6-4db3-b3f9-91b9023726f7","category":[{"coding":[{"system":"http://terminology.hl7.org/CodeSystem/condition-category","code":"encounter-diagnosis","display":"encounter-diagnosis","userSelected":true}]}],"code":{"coding":[{"system":"http://snomed.info/sct","version":"2022-09","code":"10811121000119102","display":"Major depressive disorder in mother complicating childbirth (disorder)","userSelected":true}]},"subject":{"reference":"Patient/4540ff15-1dbd-4335-8e7e-5123f8c31325"},"recordedDate":"2026-01-01T09:00:00.000+00:00"},"request":{"method":"PUT","url":"Condition/65c8c82a-d2c6-4db3-b3f9-91b9023726f7"}},{"fullUrl":"https://madie.cms.gov/Coverage/payer-6186","resource":{"resourceType":"Coverage","id":"c877315c-3055-47f8-bd94-27b38a9050f3","status":"active","type":{"coding":[{"system":"http://www.nlm.nih.gov/research/umls/sop","version":"9.2","code":"1","display":"MEDICARE","userSelected":true}]},"beneficiary":{"reference":"Patient/4540ff15-1dbd-4335-8e7e-5123f8c31325"},"period":{"start":"2026-01-01T08:00:00.000+00:00","end":"2026-03-29T08:15:00.000+00:00"},"payor":[{"reference":"Organization/a6c3e6fa-301e-4714-9d04-3dde9a7e7c49"}]},"request":{"method":"PUT","url":"Coverage/c877315c-3055-47f8-bd94-27b38a9050f3"}},{"fullUrl":"https://madie.cms.gov/Organization/123456","resource":{"resourceType":"Organization","id":"a6c3e6fa-301e-4714-9d04-3dde9a7e7c49","meta":{"profile":["http://hl7.org/fhir/us/qicore/StructureDefinition/qicore-organization"]},"identifier":[{"use":"temp","system":"urn:oid:2.16.840.1.113883.4.4","value":"21-3259825"}],"active":true,"type":[{"coding":[{"system":"http://terminology.hl7.org/CodeSystem/organization-type","code":"pay","display":"Payer"}]}],"name":"Blue Cross Blue Shield of Texas","telecom":[{"system":"phone","value":"(+1) 972-766-6900"}],"address":[{"use":"billing","type":"postal","line":["P.O. Box 660044"],"city":"Dallas","state":"TX","postalCode":"75266-0044","country":"USA"}]},"request":{"method":"PUT","url":"Organization/a6c3e6fa-301e-4714-9d04-3dde9a7e7c49"}},{"fullUrl":"https://madie.cms.gov/Practitioner/practitioner-123456","resource":{"resourceType":"Practitioner","id":"649f1bfb-47eb-46cd-a3f4-523bd7f2c78d","identifier":[{"system":"http://hl7.org/fhir/sid/us-npi","value":"123456"}],"name":[{"family":"Evil","prefix":["Dr"]}]},"request":{"method":"PUT","url":"Practitioner/649f1bfb-47eb-46cd-a3f4-523bd7f2c78d"}},{"fullUrl":"https://madie.cms.gov/MeasureReport/26c4a09e-a99d-4b53-a9b0-fd595121609e","resource":{"resourceType":"MeasureReport","id":"26c4a09e-a99d-4b53-a9b0-fd595121609e","meta":{"profile":["http://hl7.org/fhir/us/cqfmeasures/StructureDefinition/test-case-cqfm"]},"contained":[{"resourceType":"Parameters","id":"28e39b4d-5b27-475c-9377-dc075b620343-parameters","parameter":[{"name":"subject","valueString":"4540ff15-1dbd-4335-8e7e-5123f8c31325"}]}],"extension":[{"url":"http://hl7.org/fhir/us/cqfmeasures/StructureDefinition/cqfm-inputParameters","valueReference":{"reference":"#28e39b4d-5b27-475c-9377-dc075b620343-parameters"}},{"url":"http://hl7.org/fhir/us/cqfmeasures/StructureDefinition/cqfm-testCaseDescription","valueMarkdown":"Patient is 17 years 1 day on Dec 31 and completed an Office Visit during the MP"}],"modifierExtension":[{"url":"http://hl7.org/fhir/us/cqfmeasures/StructureDefinition/cqfm-isTestCase","valueBoolean":true}],"status":"complete","type":"individual","measure":"https://madie.cms.gov/Measure/ChildandAdolescentMajorDepressiveDisorderMDDSuicideRiskAssessmentFHIR","period":{"start":"2025-01-01","end":"2025-12-31"},"group":[{"population":[{"code":{"coding":[{"system":"http://terminology.hl7.org/CodeSystem/measure-population","code":"initial-population","display":"Initial Population"}]},"count":0},{"code":{"coding":[{"system":"http://terminology.hl7.org/CodeSystem/measure-population","code":"denominator","display":"Denominator"}]},"count":0},{"code":{"coding":[{"system":"http://terminology.hl7.org/CodeSystem/measure-population","code":"numerator","display":"Numerator"}]},"count":0}]}]},"request":{"method":"PUT","url":"MeasureReport/26c4a09e-a99d-4b53-a9b0-fd595121609e"}}]}