{"resourceType":"Bundle","id":"tests-680126f3-1c0b-4b3a-af0d-aca37e1fc979-bundle","type":"transaction","entry":[{"fullUrl":"https://madie.cms.gov/Patient/680126f3-1c0b-4b3a-af0d-aca37e1fc979","resource":{"resourceType":"Patient","id":"680126f3-1c0b-4b3a-af0d-aca37e1fc979","meta":{"profile":["http://hl7.org/fhir/us/qicore/StructureDefinition/qicore-patient"]},"extension":[{"url":"http://hl7.org/fhir/us/core/StructureDefinition/us-core-race","extension":[{"url":"ombCategory","valueCoding":{"system":"urn:oid:2.16.840.1.113883.6.238","code":"2054-5","display":"Black or African American","userSelected":true}},{"url":"text","valueString":"Black or African American"}]},{"url":"http://hl7.org/fhir/us/core/StructureDefinition/us-core-ethnicity","extension":[{"url":"ombCategory","valueCoding":{"system":"urn:oid:2.16.840.1.113883.6.238","code":"2186-5","display":"Not Hispanic or Latino","userSelected":true}},{"url":"text","valueString":"Not Hispanic or Latino"}]}],"identifier":[{"type":{"coding":[{"system":"http://terminology.hl7.org/CodeSystem/v2-0203","code":"MR"}]},"system":"https://bonnie-fhir.healthit.gov/","value":"64d118d91252352a0771c3b9"}],"name":[{"family":"DENOMPass","given":["EncDuringMP"]}],"gender":"male","birthDate":"2018-08-15"},"request":{"method":"PUT","url":"Patient/680126f3-1c0b-4b3a-af0d-aca37e1fc979"}},{"fullUrl":"https://madie.cms.gov/Encounter/psychoanalysis-c3ba","resource":{"resourceType":"Encounter","id":"c46b3c5b-9fd0-4590-bffd-caaa4b33c812","meta":{"profile":["http://hl7.org/fhir/us/qicore/StructureDefinition/qicore-encounter"]},"status":"finished","class":{"system":"http://terminology.hl7.org/CodeSystem/v3-ActCode","code":"AMB","display":"ambulatory","userSelected":true},"type":[{"coding":[{"system":"http://www.ama-assn.org/go/cpt","code":"90845","userSelected":true}]}],"subject":{"reference":"Patient/680126f3-1c0b-4b3a-af0d-aca37e1fc979"},"period":{"start":"2025-02-26T08:00:00.000+00:00","end":"2025-02-26T08:15:00.000+00:00"},"diagnosis":[{"condition":{"reference":"Condition/major-depressive-disorder-active-c3bb"},"use":{"coding":[{"system":"http://snomed.info/sct","version":"2023-09","code":"10811161000119107","display":"Major depressive disorder in mother complicating pregnancy (disorder)","userSelected":true}]}}]},"request":{"method":"PUT","url":"Encounter/c46b3c5b-9fd0-4590-bffd-caaa4b33c812"}},{"fullUrl":"https://madie.cms.gov/Condition/major-depressive-disorder-active-c3bb","resource":{"resourceType":"Condition","id":"dc3c6afc-75c2-4b84-be53-e2efe846410b","meta":{"profile":["http://hl7.org/fhir/us/qicore/StructureDefinition/qicore-condition"]},"clinicalStatus":{"coding":[{"system":"http://terminology.hl7.org/CodeSystem/condition-clinical","code":"active"}]},"verificationStatus":{"coding":[{"system":"http://terminology.hl7.org/CodeSystem/condition-ver-status","code":"confirmed"}]},"category":[{"coding":[{"system":"http://terminology.hl7.org/CodeSystem/condition-category","code":"encounter-diagnosis","display":"Encounter Diagnosis"}]}],"code":{"coding":[{"system":"http://snomed.info/sct","version":"2023-09","code":"10811121000119102","display":"Major depressive disorder in mother complicating childbirth (disorder)","userSelected":true}]},"subject":{"reference":"Patient/680126f3-1c0b-4b3a-af0d-aca37e1fc979"},"recordedDate":"2025-02-26T08:00:00.000+00:00"},"request":{"method":"PUT","url":"Condition/dc3c6afc-75c2-4b84-be53-e2efe846410b"}},{"fullUrl":"https://madie.cms.gov/Coverage/1","resource":{"resourceType":"Coverage","id":"6239024f-1e63-457e-9698-5fd8b2fe5b8e","meta":{"profile":["http://hl7.org/fhir/us/qicore/StructureDefinition/qicore-coverage"]},"identifier":[{"system":"http://benefitsinc.com/certificate","value":"12345"}],"status":"active","type":{"coding":[{"system":"https://nahdo.org/sopt","code":"59","display":"Other Private Insurance"}]},"beneficiary":{"reference":"Patient/680126f3-1c0b-4b3a-af0d-aca37e1fc979"},"payor":[{"reference":"Organization/3e899f33-84eb-4634-a770-a5a0bd7a80e7"}]},"request":{"method":"PUT","url":"Coverage/6239024f-1e63-457e-9698-5fd8b2fe5b8e"}},{"fullUrl":"https://madie.cms.gov/Organization/123456","resource":{"resourceType":"Organization","id":"3e899f33-84eb-4634-a770-a5a0bd7a80e7","meta":{"profile":["http://hl7.org/fhir/us/qicore/StructureDefinition/qicore-organization"]},"identifier":[{"use":"temp","system":"urn:oid:2.16.840.1.113883.4.4","value":"21-3259825"}],"active":true,"type":[{"coding":[{"system":"http://terminology.hl7.org/CodeSystem/organization-type","code":"pay","display":"Payer"}]}],"name":"Blue Cross Blue Shield of Texas","telecom":[{"system":"phone","value":"(+1) 972-766-6900"}],"address":[{"use":"billing","type":"postal","line":["P.O. Box 660044"],"city":"Dallas","state":"TX","postalCode":"75266-0044","country":"USA"}]},"request":{"method":"PUT","url":"Organization/3e899f33-84eb-4634-a770-a5a0bd7a80e7"}},{"fullUrl":"https://madie.cms.gov/Practitioner/practitioner-123456","resource":{"resourceType":"Practitioner","id":"e95892d9-04b6-4750-9124-28f24cb741da","meta":{"profile":["http://hl7.org/fhir/us/qicore/StructureDefinition/qicore-practitioner"]},"identifier":[{"system":"http://hl7.org/fhir/sid/us-npi","value":"123456"}],"name":[{"family":"Evil","prefix":["Dr"]}]},"request":{"method":"PUT","url":"Practitioner/e95892d9-04b6-4750-9124-28f24cb741da"}},{"fullUrl":"https://madie.cms.gov/MeasureReport/281332cd-5800-4d4f-bfa9-53d9c782c5ac","resource":{"resourceType":"MeasureReport","id":"281332cd-5800-4d4f-bfa9-53d9c782c5ac","meta":{"profile":["http://hl7.org/fhir/us/cqfmeasures/StructureDefinition/test-case-cqfm"]},"contained":[{"resourceType":"Parameters","id":"7f022d0a-8d7f-418f-b2ad-1c68f1849512-parameters","parameter":[{"name":"subject","valueString":"680126f3-1c0b-4b3a-af0d-aca37e1fc979"}]}],"extension":[{"url":"http://hl7.org/fhir/us/cqfmeasures/StructureDefinition/cqfm-inputParameters","valueReference":{"reference":"#7f022d0a-8d7f-418f-b2ad-1c68f1849512-parameters"}},{"url":"http://hl7.org/fhir/us/cqfmeasures/StructureDefinition/cqfm-testCaseDescription","valueMarkdown":"Psychoanalysis encounter with Depression Diagnosis recorded in MP"}],"modifierExtension":[{"url":"http://hl7.org/fhir/us/cqfmeasures/StructureDefinition/cqfm-isTestCase","valueBoolean":true}],"status":"complete","type":"individual","measure":"https://madie.cms.gov/Measure/ChildandAdolescentMajorDepressiveDisorderMDDSuicideRiskAssessmentFHIR","period":{"start":"2025-01-01","end":"2025-12-31"},"group":[{"population":[{"code":{"coding":[{"system":"http://terminology.hl7.org/CodeSystem/measure-population","code":"initial-population","display":"Initial Population"}]},"count":1},{"code":{"coding":[{"system":"http://terminology.hl7.org/CodeSystem/measure-population","code":"denominator","display":"Denominator"}]},"count":1},{"code":{"coding":[{"system":"http://terminology.hl7.org/CodeSystem/measure-population","code":"numerator","display":"Numerator"}]},"count":0}]}]},"request":{"method":"PUT","url":"MeasureReport/281332cd-5800-4d4f-bfa9-53d9c782c5ac"}}]}