{"resourceType":"Bundle","id":"tests-87807ec9-f348-4c7c-8ee2-281e8c4ce03c-bundle","type":"transaction","entry":[{"fullUrl":"https://madie.cms.gov/Patient/87807ec9-f348-4c7c-8ee2-281e8c4ce03c","resource":{"resourceType":"Patient","id":"87807ec9-f348-4c7c-8ee2-281e8c4ce03c","meta":{"profile":["http://hl7.org/fhir/us/qicore/StructureDefinition/qicore-patient"]},"text":{"status":"generated","div":"<div xmlns=\"http://www.w3.org/1999/xhtml\"><div class=\"hapiHeaderText\">EncOPConsInvalidCode <b>IPPFAIL </b></div><table class=\"hapiPropertyTable\"><tbody><tr><td>Identifier</td><td>d7ff671e155f36019ce0822b8b7b433f</td></tr><tr><td>Date of birth</td><td><span>13 December 1995</span></td></tr></tbody></table></div>"},"extension":[{"url":"http://hl7.org/fhir/us/core/StructureDefinition/us-core-race","extension":[{"url":"ombCategory","valueCoding":{"system":"urn:oid:2.16.840.1.113883.6.238","code":"2106-3","display":"White","userSelected":true}},{"url":"text","valueString":"White"}]},{"url":"http://hl7.org/fhir/us/core/StructureDefinition/us-core-ethnicity","extension":[{"url":"ombCategory","valueCoding":{"system":"urn:oid:2.16.840.1.113883.6.238","code":"2135-2","display":"Hispanic or Latino","userSelected":true}},{"url":"text","valueString":"Hispanic or Latino"}]}],"identifier":[{"type":{"coding":[{"system":"http://terminology.hl7.org/CodeSystem/v2-0203","code":"MR"}]},"system":"https://bonnie-fhir.healthit.gov/","value":"6109650598086b538055a0ff"}],"active":true,"name":[{"use":"usual","family":"IPFail","given":["EncInvalidCode"]}],"gender":"female","birthDate":"2011-12-13"},"request":{"method":"PUT","url":"Patient/87807ec9-f348-4c7c-8ee2-281e8c4ce03c"}},{"fullUrl":"https://madie.cms.gov/Encounter/5c98fd1ab848464ed33e9e6c","resource":{"resourceType":"Encounter","id":"ee0bd944-d2e5-4bcf-85b0-60a388b09437","meta":{"profile":["http://hl7.org/fhir/us/qicore/StructureDefinition/qicore-encounter"]},"status":"finished","class":{"system":"http://terminology.hl7.org/CodeSystem/v3-ActCode","code":"AMB","display":"ambulatory","userSelected":true},"type":[{"coding":[{"system":"http://www.ama-assn.org/go/cpt","code":"09214","userSelected":true}]}],"subject":{"reference":"Patient/87807ec9-f348-4c7c-8ee2-281e8c4ce03c"},"period":{"start":"2025-02-11T08:00:00.000+00:00","end":"2025-02-11T08:15:00.000+00:00"},"length":{"value":0.0,"unit":"days"},"reasonCode":[{"coding":[{"system":"http://snomed.info/sct","version":"2023-09","code":"10811161000119107","display":"Major depressive disorder in mother complicating pregnancy (disorder)","userSelected":true}]}],"diagnosis":[{"condition":{"reference":"Condition/major-depressive-disorder-active-c3ac"},"use":{"coding":[{"system":"http://snomed.info/sct","version":"2023-09","code":"10811161000119107","display":"Major depressive disorder in mother complicating pregnancy (disorder)","userSelected":true}]}}]},"request":{"method":"PUT","url":"Encounter/ee0bd944-d2e5-4bcf-85b0-60a388b09437"}},{"fullUrl":"https://madie.cms.gov/Procedure/5c98fd1ab848464ed33e9e6d","resource":{"resourceType":"Procedure","id":"1c8459f0-69d5-44c9-be82-66b0948e5c01","meta":{"profile":["http://hl7.org/fhir/us/qicore/StructureDefinition/qicore-procedure"]},"extension":[{"url":"http://hl7.org/fhir/us/qicore/StructureDefinition/qicore-recorded","valueDateTime":"2025-02-10T08:05:00.000Z"}],"status":"completed","code":{"coding":[{"system":"http://snomed.info/sct","code":"225337009"}]},"subject":{"reference":"Patient/87807ec9-f348-4c7c-8ee2-281e8c4ce03c"},"performedPeriod":{"start":"2025-02-10T08:05:00.000+00:00","end":"2025-02-10T08:10:00.000+00:00"}},"request":{"method":"PUT","url":"Procedure/1c8459f0-69d5-44c9-be82-66b0948e5c01"}},{"fullUrl":"https://madie.cms.gov/Condition/major-depressive-disorder-active-c3ac","resource":{"resourceType":"Condition","id":"902eaeeb-201d-4329-8a46-41f5da10d994","meta":{"profile":["http://hl7.org/fhir/us/qicore/StructureDefinition/qicore-condition"]},"category":[{"coding":[{"system":"http://terminology.hl7.org/CodeSystem/condition-category","code":"encounter-diagnosis","display":"encounter-diagnosis","userSelected":true}]}],"code":{"coding":[{"system":"http://snomed.info/sct","version":"2023-09","code":"10811121000119102","display":"Major depressive disorder in mother complicating childbirth (disorder)","userSelected":true}]},"subject":{"reference":"Patient/87807ec9-f348-4c7c-8ee2-281e8c4ce03c"},"recordedDate":"2025-02-11T08:00:00.000+00:00"},"request":{"method":"PUT","url":"Condition/902eaeeb-201d-4329-8a46-41f5da10d994"}},{"fullUrl":"https://madie.cms.gov/Coverage/payer-618b","resource":{"resourceType":"Coverage","id":"e82aef5e-07fd-4e11-b70e-a575d0e59612","meta":{"profile":["http://hl7.org/fhir/us/qicore/StructureDefinition/qicore-coverage"]},"identifier":[{"system":"http://benefitsinc.com/certificate","value":"12345"}],"status":"active","type":{"coding":[{"system":"https://nahdo.org/sopt","code":"2","userSelected":true}]},"beneficiary":{"reference":"Patient/87807ec9-f348-4c7c-8ee2-281e8c4ce03c"},"period":{"start":"2025-01-29T08:00:00.000+00:00","end":"2025-03-29T08:15:00.000+00:00"},"payor":[{"reference":"Organization/18ca435c-cae6-4c34-8033-af717477f9fc"}]},"request":{"method":"PUT","url":"Coverage/e82aef5e-07fd-4e11-b70e-a575d0e59612"}},{"fullUrl":"https://madie.cms.gov/Organization/123456","resource":{"resourceType":"Organization","id":"18ca435c-cae6-4c34-8033-af717477f9fc","meta":{"profile":["http://hl7.org/fhir/us/qicore/StructureDefinition/qicore-organization"]},"identifier":[{"use":"temp","system":"urn:oid:2.16.840.1.113883.4.4","value":"21-3259825"}],"active":true,"type":[{"coding":[{"system":"http://terminology.hl7.org/CodeSystem/organization-type","code":"pay","display":"Payer"}]}],"name":"Blue Cross Blue Shield of Texas","telecom":[{"system":"phone","value":"(+1) 972-766-6900"}],"address":[{"use":"billing","type":"postal","line":["P.O. Box 660044"],"city":"Dallas","state":"TX","postalCode":"75266-0044","country":"USA"}]},"request":{"method":"PUT","url":"Organization/18ca435c-cae6-4c34-8033-af717477f9fc"}},{"fullUrl":"https://madie.cms.gov/Practitioner/practitioner-123456","resource":{"resourceType":"Practitioner","id":"ca32e438-b776-4c65-94fe-d0ec32a8d103","meta":{"profile":["http://hl7.org/fhir/us/qicore/StructureDefinition/qicore-practitioner"]},"identifier":[{"system":"http://hl7.org/fhir/sid/us-npi","value":"123456"}],"name":[{"family":"Evil","prefix":["Dr"]}]},"request":{"method":"PUT","url":"Practitioner/ca32e438-b776-4c65-94fe-d0ec32a8d103"}},{"fullUrl":"https://madie.cms.gov/MeasureReport/c89173d9-4549-4e71-a092-2a417056a0d6","resource":{"resourceType":"MeasureReport","id":"c89173d9-4549-4e71-a092-2a417056a0d6","meta":{"profile":["http://hl7.org/fhir/us/cqfmeasures/StructureDefinition/test-case-cqfm"]},"contained":[{"resourceType":"Parameters","id":"3567e704-1d26-490a-a876-191ab1f316ee-parameters","parameter":[{"name":"subject","valueString":"87807ec9-f348-4c7c-8ee2-281e8c4ce03c"}]}],"extension":[{"url":"http://hl7.org/fhir/us/cqfmeasures/StructureDefinition/cqfm-inputParameters","valueReference":{"reference":"#3567e704-1d26-490a-a876-191ab1f316ee-parameters"}},{"url":"http://hl7.org/fhir/us/cqfmeasures/StructureDefinition/cqfm-testCaseDescription","valueMarkdown":"Patient correct age with Outpatient Consultation using Invalid Code and includes Depressive Disorder during MP"}],"modifierExtension":[{"url":"http://hl7.org/fhir/us/cqfmeasures/StructureDefinition/cqfm-isTestCase","valueBoolean":true}],"status":"complete","type":"individual","measure":"https://madie.cms.gov/Measure/ChildandAdolescentMajorDepressiveDisorderMDDSuicideRiskAssessmentFHIR","period":{"start":"2025-01-01","end":"2025-12-31"},"group":[{"population":[{"code":{"coding":[{"system":"http://terminology.hl7.org/CodeSystem/measure-population","code":"initial-population","display":"Initial Population"}]},"count":0},{"code":{"coding":[{"system":"http://terminology.hl7.org/CodeSystem/measure-population","code":"denominator","display":"Denominator"}]},"count":0},{"code":{"coding":[{"system":"http://terminology.hl7.org/CodeSystem/measure-population","code":"numerator","display":"Numerator"}]},"count":0}]}]},"request":{"method":"PUT","url":"MeasureReport/c89173d9-4549-4e71-a092-2a417056a0d6"}}]}