{"resourceType":"Bundle","id":"tests-a040523e-7499-4848-9e1b-7b93e94a34d7-bundle","type":"transaction","entry":[{"fullUrl":"Patient/a040523e-7499-4848-9e1b-7b93e94a34d7","resource":{"resourceType":"Patient","id":"a040523e-7499-4848-9e1b-7b93e94a34d7","meta":{"profile":["http://hl7.org/fhir/us/qicore/StructureDefinition/qicore-patient"]},"text":{"status":"generated","div":"<div xmlns=\"http://www.w3.org/1999/xhtml\"><div class=\"hapiHeaderText\">RiskAssessPsychDxEnc <b>NUMERPASS </b></div><table class=\"hapiPropertyTable\"><tbody><tr><td>Identifier</td><td>4e6181bb4445033e5ddd36c8dfd95c57</td></tr><tr><td>Date of birth</td><td><span>18 September 1996</span></td></tr></tbody></table></div>"},"extension":[{"url":"http://hl7.org/fhir/us/core/StructureDefinition/us-core-race","extension":[{"url":"ombCategory","valueCoding":{"system":"urn:oid:2.16.840.1.113883.6.238","code":"2028-9","display":"Asian","userSelected":true}},{"url":"text","valueString":"Asian"}]},{"url":"http://hl7.org/fhir/us/core/StructureDefinition/us-core-ethnicity","extension":[{"url":"ombCategory","valueCoding":{"system":"urn:oid:2.16.840.1.113883.6.238","code":"2186-5","display":"Not Hispanic or Latino","userSelected":true}},{"url":"text","valueString":"Not Hispanic or Latino"}]}],"identifier":[{"type":{"coding":[{"system":"http://terminology.hl7.org/CodeSystem/v2-0203","code":"MR"}]},"system":"https://bonnie-fhir.healthit.gov/","value":"6109650498086b538055a0d7"}],"active":true,"name":[{"use":"usual","family":"NUMPass","given":["RiskAssessPsychDxEnc"]}],"gender":"male","birthDate":"2014-09-18"},"request":{"method":"PUT","url":"Patient/a040523e-7499-4848-9e1b-7b93e94a34d7"}},{"fullUrl":"Encounter/5c98fd1ab848464ed33e9e88","resource":{"resourceType":"Encounter","id":"5c98fd1ab848464ed33e9e88","meta":{"profile":["http://hl7.org/fhir/us/qicore/StructureDefinition/qicore-encounter"]},"status":"finished","class":{"system":"http://terminology.hl7.org/CodeSystem/v3-ActCode","code":"AMB","display":"ambulatory","userSelected":true},"type":[{"coding":[{"system":"http://www.ama-assn.org/go/cpt","code":"90791"}]}],"subject":{"reference":"Patient/a040523e-7499-4848-9e1b-7b93e94a34d7"},"period":{"start":"2025-08-01T08:00:00.000+00:00","end":"2025-08-01T10:30:00.000+00:00"},"reasonCode":[{"coding":[{"system":"http://hl7.org/fhir/sid/icd-10-cm","version":"2021","code":"F32.89","display":"Other specified depressive episodes","userSelected":true}]}],"diagnosis":[{"condition":{"reference":"Condition/major-depressive-disorder-active-a498"},"use":{"coding":[{"system":"http://hl7.org/fhir/sid/icd-10-cm","version":"2023","code":"F32.89","display":"Other specified depressive episodes","userSelected":true}]}}]},"request":{"method":"PUT","url":"Encounter/5c98fd1ab848464ed33e9e88"}},{"fullUrl":"Procedure/5c98fd1ab848464ed33e9e89","resource":{"resourceType":"Procedure","id":"5c98fd1ab848464ed33e9e89","meta":{"profile":["http://hl7.org/fhir/us/qicore/StructureDefinition/qicore-procedure"]},"extension":[{"url":"http://hl7.org/fhir/us/qicore/StructureDefinition/qicore-recorded","valueDateTime":"2025-08-01T08:00:00.000Z"}],"status":"completed","code":{"coding":[{"system":"http://snomed.info/sct","code":"225337009"}]},"subject":{"reference":"Patient/a040523e-7499-4848-9e1b-7b93e94a34d7"},"performedDateTime":"2025-08-01T10:30:00.000+00:00"},"request":{"method":"PUT","url":"Procedure/5c98fd1ab848464ed33e9e89"}},{"fullUrl":"Condition/major-depressive-disorder-active-a498","resource":{"resourceType":"Condition","id":"major-depressive-disorder-active-a498","meta":{"profile":["http://hl7.org/fhir/us/qicore/StructureDefinition/qicore-condition"]},"category":[{"coding":[{"system":"http://terminology.hl7.org/CodeSystem/condition-category","code":"encounter-diagnosis","display":"Encounter Diagnosis"}]}],"code":{"coding":[{"system":"http://snomed.info/sct","version":"2022-09","code":"10811121000119102","display":"Major depressive disorder in mother complicating childbirth (disorder)","userSelected":true}]},"subject":{"reference":"Patient/a040523e-7499-4848-9e1b-7b93e94a34d7"},"recordedDate":"2025-08-01T08:00:00.000+00:00"},"request":{"method":"PUT","url":"Condition/major-depressive-disorder-active-a498"}},{"fullUrl":"Coverage/Coverage-1","resource":{"resourceType":"Coverage","id":"Coverage-1","meta":{"profile":["http://hl7.org/fhir/us/qicore/StructureDefinition/qicore-coverage"]},"status":"active","beneficiary":{"reference":"Patient/a040523e-7499-4848-9e1b-7b93e94a34d7"},"payor":[{"reference":"Organization/Org-123456"}]},"request":{"method":"PUT","url":"Coverage/Coverage-1"}},{"fullUrl":"Organization/Org-123456","resource":{"resourceType":"Organization","id":"Org-123456","meta":{"profile":["http://hl7.org/fhir/us/qicore/StructureDefinition/qicore-organization"]},"identifier":[{"use":"temp","system":"urn:oid:2.16.840.1.113883.4.4","value":"21-3259825"}],"active":true,"type":[{"coding":[{"system":"http://terminology.hl7.org/CodeSystem/organization-type","code":"pay","display":"Payer"}]}],"name":"Blue Cross Blue Shield of Texas","telecom":[{"system":"phone","value":"(+1) 972-766-6900"}],"address":[{"use":"billing","type":"postal","line":["P.O. Box 660044"],"city":"Dallas","state":"TX","postalCode":"75266-0044","country":"USA"}]},"request":{"method":"PUT","url":"Organization/Org-123456"}},{"fullUrl":"Practitioner/practitioner-123456","resource":{"resourceType":"Practitioner","id":"practitioner-123456","meta":{"profile":["http://hl7.org/fhir/us/qicore/StructureDefinition/qicore-practitioner"]},"identifier":[{"system":"http://hl7.org/fhir/sid/us-npi","value":"123456"}],"name":[{"family":"Evil","prefix":["Dr"]}]},"request":{"method":"PUT","url":"Practitioner/practitioner-123456"}},{"fullUrl":"MeasureReport/5f531922-17eb-478d-94c7-1ba369654f64","resource":{"resourceType":"MeasureReport","id":"5f531922-17eb-478d-94c7-1ba369654f64","meta":{"profile":["http://hl7.org/fhir/us/cqfmeasures/StructureDefinition/test-case-cqfm"]},"contained":[{"resourceType":"Parameters","id":"1a699375-7f8c-4fe0-a2f1-5b74a6754ca2-parameters","parameter":[{"name":"subject","valueString":"a040523e-7499-4848-9e1b-7b93e94a34d7"}]}],"extension":[{"url":"http://hl7.org/fhir/us/cqfmeasures/StructureDefinition/cqfm-inputParameters","valueReference":{"reference":"#1a699375-7f8c-4fe0-a2f1-5b74a6754ca2-parameters"}},{"url":"http://hl7.org/fhir/us/cqfmeasures/StructureDefinition/cqfm-testCaseDescription","valueMarkdown":"Patient with depression and suicide risk assessment during psych diagnostic encounter. "}],"modifierExtension":[{"url":"http://hl7.org/fhir/us/cqfmeasures/StructureDefinition/cqfm-isTestCase","valueBoolean":true}],"status":"complete","type":"individual","measure":"Measure/ChildandAdolescentMajorDepressiveDisorderMDDSuicideRiskAssessmentFHIR","period":{"start":"2025-01-01","end":"2025-12-31"},"group":[{"population":[{"code":{"coding":[{"system":"http://terminology.hl7.org/CodeSystem/measure-population","code":"initial-population","display":"Initial Population"}]},"count":1},{"code":{"coding":[{"system":"http://terminology.hl7.org/CodeSystem/measure-population","code":"denominator","display":"Denominator"}]},"count":1},{"code":{"coding":[{"system":"http://terminology.hl7.org/CodeSystem/measure-population","code":"numerator","display":"Numerator"}]},"count":1}]}],"evaluatedResource":[{"reference":"Patient/a040523e-7499-4848-9e1b-7b93e94a34d7"},{"reference":"Encounter/5c98fd1ab848464ed33e9e88"},{"reference":"Procedure/5c98fd1ab848464ed33e9e89"},{"reference":"Condition/major-depressive-disorder-active-a498"},{"reference":"Coverage/Coverage-1"},{"reference":"Organization/Org-123456"},{"reference":"Practitioner/practitioner-123456"}]},"request":{"method":"PUT","url":"MeasureReport/5f531922-17eb-478d-94c7-1ba369654f64"}}]}