{"resourceType":"Bundle","id":"tests-305b7ed0-25c0-4fdf-96aa-a872a74f17e3-bundle","type":"transaction","entry":[{"fullUrl":"https://madie.cms.gov/Patient/305b7ed0-25c0-4fdf-96aa-a872a74f17e3","resource":{"resourceType":"Patient","id":"305b7ed0-25c0-4fdf-96aa-a872a74f17e3","meta":{"profile":["http://hl7.org/fhir/us/qicore/StructureDefinition/qicore-patient"]},"extension":[{"url":"http://hl7.org/fhir/us/core/StructureDefinition/us-core-race","extension":[{"url":"ombCategory","valueCoding":{"system":"urn:oid:2.16.840.1.113883.6.238","code":"1002-5","display":"American Indian or Alaska Native","userSelected":true}},{"url":"text","valueString":"American Indian or Alaska Native"}]},{"url":"http://hl7.org/fhir/us/core/StructureDefinition/us-core-ethnicity","extension":[{"url":"ombCategory","valueCoding":{"system":"urn:oid:2.16.840.1.113883.6.238","code":"2186-5","display":"Not Hispanic or Latino","userSelected":true}},{"url":"text","valueString":"Not Hispanic or Latino"}]}],"identifier":[{"type":{"coding":[{"system":"http://terminology.hl7.org/CodeSystem/v2-0203","code":"MR"}]},"system":"https://bonnie-fhir.healthit.gov/","value":"64d121e71252352a0771c3c4"}],"name":[{"family":"IPFail","given":["Age5Yr11MoOnJan2Edge"]}],"gender":"male","birthDate":"2019-01-02"},"request":{"method":"PUT","url":"Patient/305b7ed0-25c0-4fdf-96aa-a872a74f17e3"}},{"fullUrl":"https://madie.cms.gov/Encounter/psych-visit-psychotherapy-c3c5","resource":{"resourceType":"Encounter","id":"f308d8bc-b844-40f5-aff3-d04333e5a805","meta":{"profile":["http://hl7.org/fhir/us/qicore/StructureDefinition/qicore-encounter"]},"status":"finished","class":{"system":"http://terminology.hl7.org/CodeSystem/v3-ActCode","code":"AMB","display":"ambulatory","userSelected":true},"type":[{"coding":[{"system":"http://www.ama-assn.org/go/cpt","code":"90832","userSelected":true}]}],"subject":{"reference":"Patient/305b7ed0-25c0-4fdf-96aa-a872a74f17e3"},"period":{"start":"2025-07-12T11:45:00.000+00:00","end":"2025-07-12T11:45:00.000+00:00"},"diagnosis":[{"condition":{"reference":"Condition/major-depressive-disorder-active-c3c6"},"use":{"coding":[{"system":"http://snomed.info/sct","version":"2023-09","code":"10811161000119107","display":"Major depressive disorder in mother complicating pregnancy (disorder)","userSelected":true}]}}]},"request":{"method":"PUT","url":"Encounter/f308d8bc-b844-40f5-aff3-d04333e5a805"}},{"fullUrl":"https://madie.cms.gov/Condition/major-depressive-disorder-active-c3c6","resource":{"resourceType":"Condition","id":"01538990-c658-4479-ac2f-da5a1373c15b","meta":{"profile":["http://hl7.org/fhir/us/qicore/StructureDefinition/qicore-condition"]},"category":[{"coding":[{"system":"http://terminology.hl7.org/CodeSystem/condition-category","code":"encounter-diagnosis","display":"Encounter Diagnosis"}]}],"code":{"coding":[{"system":"http://snomed.info/sct","version":"2023-09","code":"10811121000119102","display":"Major depressive disorder in mother complicating childbirth (disorder)","userSelected":true}]},"subject":{"reference":"Patient/305b7ed0-25c0-4fdf-96aa-a872a74f17e3"},"recordedDate":"2025-07-12T11:45:00.000+00:00"},"request":{"method":"PUT","url":"Condition/01538990-c658-4479-ac2f-da5a1373c15b"}},{"fullUrl":"https://madie.cms.gov/Procedure/suicide-risk-assessment-procedure-c3c7","resource":{"resourceType":"Procedure","id":"899456b8-fcb5-4216-9bdf-7cd5ef23ae52","meta":{"profile":["http://hl7.org/fhir/us/qicore/StructureDefinition/qicore-procedure"]},"extension":[{"url":"http://hl7.org/fhir/us/qicore/StructureDefinition/qicore-recorded","valueDateTime":"2025-07-12T11:45:00.000Z"}],"status":"completed","code":{"coding":[{"system":"http://snomed.info/sct","code":"225337009","display":"Suicide risk assessment (procedure)","userSelected":true}]},"subject":{"reference":"Patient/305b7ed0-25c0-4fdf-96aa-a872a74f17e3"},"performedPeriod":{"start":"2025-07-12T11:45:00.000+00:00","end":"2025-07-12T11:45:00.000+00:00"}},"request":{"method":"PUT","url":"Procedure/899456b8-fcb5-4216-9bdf-7cd5ef23ae52"}},{"fullUrl":"https://madie.cms.gov/Coverage/Coverage-1","resource":{"resourceType":"Coverage","id":"a5278e70-5688-48b3-b189-24a028d87c88","meta":{"profile":["http://hl7.org/fhir/us/qicore/StructureDefinition/qicore-coverage"]},"identifier":[{"system":"http://benefitsinc.com/certificate","value":"12345"}],"status":"active","type":{"coding":[{"system":"https://nahdo.org/sopt","version":"9.2","code":"1","display":"MEDICARE","userSelected":true}]},"beneficiary":{"reference":"Patient/305b7ed0-25c0-4fdf-96aa-a872a74f17e3"},"period":{"start":"2025-01-28T08:00:00.000+00:00","end":"2025-08-28T00:15:00.000+00:00"},"payor":[{"reference":"Organization/3778262e-e084-4bb5-9a47-1a144735f786"}]},"request":{"method":"PUT","url":"Coverage/a5278e70-5688-48b3-b189-24a028d87c88"}},{"fullUrl":"https://madie.cms.gov/MeasureReport/4752eecd-662e-4d51-8671-0e3839a94d61","resource":{"resourceType":"MeasureReport","id":"4752eecd-662e-4d51-8671-0e3839a94d61","meta":{"profile":["http://hl7.org/fhir/us/cqfmeasures/StructureDefinition/test-case-cqfm"]},"contained":[{"resourceType":"Parameters","id":"36c22fa0-9659-48fa-9ea1-998c537363aa-parameters","parameter":[{"name":"subject","valueString":"305b7ed0-25c0-4fdf-96aa-a872a74f17e3"}]}],"extension":[{"url":"http://hl7.org/fhir/us/cqfmeasures/StructureDefinition/cqfm-inputParameters","valueReference":{"reference":"#36c22fa0-9659-48fa-9ea1-998c537363aa-parameters"}},{"url":"http://hl7.org/fhir/us/cqfmeasures/StructureDefinition/cqfm-testCaseDescription","valueMarkdown":"Patient is 5 years 11 months 30 days at the start of the MP with depression and suicide risk assessment during psychotherapy encounter. "}],"modifierExtension":[{"url":"http://hl7.org/fhir/us/cqfmeasures/StructureDefinition/cqfm-isTestCase","valueBoolean":true}],"status":"complete","type":"individual","measure":"https://madie.cms.gov/Measure/ChildandAdolescentMajorDepressiveDisorderMDDSuicideRiskAssessmentFHIR","period":{"start":"2025-01-01","end":"2025-12-31"},"group":[{"population":[{"code":{"coding":[{"system":"http://terminology.hl7.org/CodeSystem/measure-population","code":"initial-population","display":"Initial Population"}]},"count":0},{"code":{"coding":[{"system":"http://terminology.hl7.org/CodeSystem/measure-population","code":"denominator","display":"Denominator"}]},"count":0},{"code":{"coding":[{"system":"http://terminology.hl7.org/CodeSystem/measure-population","code":"numerator","display":"Numerator"}]},"count":0}]}]},"request":{"method":"PUT","url":"MeasureReport/4752eecd-662e-4d51-8671-0e3839a94d61"}}]}