{"resourceType":"Bundle","id":"tests-3f4922e2-57b0-4e2f-97d6-7c1edf156f56-bundle","type":"transaction","entry":[{"fullUrl":"https://madie.cms.gov/Patient/3f4922e2-57b0-4e2f-97d6-7c1edf156f56","resource":{"resourceType":"Patient","id":"3f4922e2-57b0-4e2f-97d6-7c1edf156f56","meta":{"profile":["http://hl7.org/fhir/us/qicore/StructureDefinition/qicore-patient"]},"text":{"status":"generated","div":"<div xmlns=\"http://www.w3.org/1999/xhtml\"><div class=\"hapiHeaderText\">RiskAssessMultOVEncrelevantDatetime <b>NUMERPASS </b></div><table class=\"hapiPropertyTable\"><tbody><tr><td>Identifier</td><td>4acdd1ab2ce8b6b5853988f06278aa61</td></tr><tr><td>Date of birth</td><td><span>25 April 2000</span></td></tr></tbody></table></div>"},"extension":[{"url":"http://hl7.org/fhir/us/core/StructureDefinition/us-core-race","extension":[{"url":"ombCategory","valueCoding":{"system":"urn:oid:2.16.840.1.113883.6.238","code":"1002-5","display":"American Indian or Alaska Native","userSelected":true}},{"url":"text","valueString":"American Indian or Alaska Native"}]},{"url":"http://hl7.org/fhir/us/core/StructureDefinition/us-core-ethnicity","extension":[{"url":"ombCategory","valueCoding":{"system":"urn:oid:2.16.840.1.113883.6.238","code":"2186-5","display":"Not Hispanic or Latino","userSelected":true}},{"url":"text","valueString":"Not Hispanic or Latino"}]}],"identifier":[{"type":{"coding":[{"system":"http://terminology.hl7.org/CodeSystem/v2-0203","code":"MR"}]},"system":"https://bonnie-fhir.healthit.gov/","value":"6109650598086b538055a0dd"}],"active":true,"name":[{"use":"usual","family":"NUMPass","given":["RiskAssmtMultEncrelevantDatetime"]}],"gender":"female","birthDate":"2014-04-25"},"request":{"method":"PUT","url":"Patient/3f4922e2-57b0-4e2f-97d6-7c1edf156f56"}},{"fullUrl":"https://madie.cms.gov/Encounter/5c98fd1ab848464ed33e9e8f","resource":{"resourceType":"Encounter","id":"c7741410-fcdb-48c1-bb2b-ac1f8d1d6453","meta":{"profile":["http://hl7.org/fhir/us/qicore/StructureDefinition/qicore-encounter"]},"status":"finished","class":{"system":"http://terminology.hl7.org/CodeSystem/v3-ActCode","code":"AMB","display":"ambulatory","userSelected":true},"type":[{"coding":[{"system":"http://www.ama-assn.org/go/cpt","code":"99213"}]}],"subject":{"reference":"Patient/3f4922e2-57b0-4e2f-97d6-7c1edf156f56"},"period":{"start":"2025-03-27T14:30:00.000+00:00","end":"2025-03-27T15:00:00.000+00:00"},"length":{"value":0.0,"unit":"days"},"reasonCode":[{"coding":[{"system":"http://hl7.org/fhir/sid/icd-10-cm","version":"2021","code":"F32.2","display":"Major depressive disorder, single episode, severe without psychotic features","userSelected":true}]}],"diagnosis":[{"condition":{"reference":"Condition/major-depressive-disorder-active-a49c"},"use":{"coding":[{"system":"http://snomed.info/sct","version":"2023-09","code":"10811161000119107","display":"Major depressive disorder in mother complicating pregnancy (disorder)","userSelected":true}]}}]},"request":{"method":"PUT","url":"Encounter/c7741410-fcdb-48c1-bb2b-ac1f8d1d6453"}},{"fullUrl":"https://madie.cms.gov/Encounter/5c98fd1ab848464ed33e9e90","resource":{"resourceType":"Encounter","id":"271b62e5-a549-4d57-9b3d-fa48240f6b52","meta":{"profile":["http://hl7.org/fhir/us/qicore/StructureDefinition/qicore-encounter"]},"status":"finished","class":{"system":"http://terminology.hl7.org/CodeSystem/v3-ActCode","code":"AMB","display":"ambulatory","userSelected":true},"type":[{"coding":[{"system":"http://www.ama-assn.org/go/cpt","code":"99212"}]}],"subject":{"reference":"Patient/3f4922e2-57b0-4e2f-97d6-7c1edf156f56"},"period":{"start":"2025-05-15T11:30:00.000+00:00","end":"2025-05-15T12:00:00.000+00:00"},"length":{"value":0.0,"unit":"days"}},"request":{"method":"PUT","url":"Encounter/271b62e5-a549-4d57-9b3d-fa48240f6b52"}},{"fullUrl":"https://madie.cms.gov/Encounter/5c98fd1ab848464ed33e9e91","resource":{"resourceType":"Encounter","id":"6724ab26-de8c-4bc8-ba40-bd0569f59d47","meta":{"profile":["http://hl7.org/fhir/us/qicore/StructureDefinition/qicore-encounter"]},"status":"finished","class":{"system":"http://terminology.hl7.org/CodeSystem/v3-ActCode","code":"AMB","display":"ambulatory","userSelected":true},"type":[{"coding":[{"system":"http://www.ama-assn.org/go/cpt","code":"99212"}]}],"subject":{"reference":"Patient/3f4922e2-57b0-4e2f-97d6-7c1edf156f56"},"period":{"start":"2025-07-12T11:30:00.000+00:00","end":"2025-07-12T12:00:00.000+00:00"},"length":{"value":0.0,"unit":"days"},"reasonCode":[{"coding":[{"system":"http://snomed.info/sct","version":"2020-09","code":"10811161000119107","display":"Major depressive disorder in mother complicating pregnancy (disorder)","userSelected":true}]}],"diagnosis":[{"condition":{"reference":"Condition/major-depressive-disorder-active-a49d"},"use":{"coding":[{"system":"http://snomed.info/sct","version":"2023-09","code":"10811161000119107","display":"Major depressive disorder in mother complicating pregnancy (disorder)","userSelected":true}]}}]},"request":{"method":"PUT","url":"Encounter/6724ab26-de8c-4bc8-ba40-bd0569f59d47"}},{"fullUrl":"https://madie.cms.gov/Encounter/5c98fd1ab848464ed33e9e92","resource":{"resourceType":"Encounter","id":"f98490dc-2ffb-4f0b-a36a-7fcee0e1a8c2","meta":{"profile":["http://hl7.org/fhir/us/qicore/StructureDefinition/qicore-encounter"]},"status":"finished","class":{"system":"http://terminology.hl7.org/CodeSystem/v3-ActCode","code":"AMB","display":"ambulatory","userSelected":true},"type":[{"coding":[{"system":"http://www.ama-assn.org/go/cpt","code":"99212"}]}],"subject":{"reference":"Patient/3f4922e2-57b0-4e2f-97d6-7c1edf156f56"},"period":{"start":"2025-12-30T09:30:00.000+00:00","end":"2025-12-30T10:00:00.000+00:00"},"length":{"value":0.0,"unit":"days"}},"request":{"method":"PUT","url":"Encounter/f98490dc-2ffb-4f0b-a36a-7fcee0e1a8c2"}},{"fullUrl":"https://madie.cms.gov/Procedure/5c98fd1ab848464ed33e9e93","resource":{"resourceType":"Procedure","id":"95871c33-3d09-46fa-a2d8-93cef73cbcfa","meta":{"profile":["http://hl7.org/fhir/us/qicore/StructureDefinition/qicore-procedure"]},"extension":[{"url":"http://hl7.org/fhir/us/qicore/StructureDefinition/qicore-recorded","valueDateTime":"2025-03-27T14:45:00.000+00:00"}],"status":"completed","code":{"coding":[{"system":"http://snomed.info/sct","code":"225337009"}]},"subject":{"reference":"Patient/3f4922e2-57b0-4e2f-97d6-7c1edf156f56"},"performedDateTime":"2025-03-27T14:45:00.000+00:00"},"request":{"method":"PUT","url":"Procedure/95871c33-3d09-46fa-a2d8-93cef73cbcfa"}},{"fullUrl":"https://madie.cms.gov/Procedure/5c98fd1ab848464ed33e9e94","resource":{"resourceType":"Procedure","id":"c2cce64d-38db-4259-b134-5e00ab1d5a48","meta":{"profile":["http://hl7.org/fhir/us/qicore/StructureDefinition/qicore-procedure"]},"extension":[{"url":"http://hl7.org/fhir/us/qicore/StructureDefinition/qicore-recorded","valueDateTime":"2025-07-12T11:45:00.000+00:00"}],"status":"completed","code":{"coding":[{"system":"http://snomed.info/sct","code":"225337009"}]},"subject":{"reference":"Patient/3f4922e2-57b0-4e2f-97d6-7c1edf156f56"},"performedDateTime":"2025-07-12T11:45:00.000+00:00"},"request":{"method":"PUT","url":"Procedure/c2cce64d-38db-4259-b134-5e00ab1d5a48"}},{"fullUrl":"https://madie.cms.gov/Condition/major-depressive-disorder-active-a49c","resource":{"resourceType":"Condition","id":"91fb3bd2-012b-41e2-8d19-ed179f7e232c","meta":{"profile":["http://hl7.org/fhir/us/qicore/StructureDefinition/qicore-condition"]},"category":[{"coding":[{"system":"http://terminology.hl7.org/CodeSystem/condition-category","code":"encounter-diagnosis","display":"encounter-diagnosis","userSelected":true}]}],"code":{"coding":[{"system":"http://snomed.info/sct","version":"2023-09","code":"10811121000119102","display":"Major depressive disorder in mother complicating childbirth (disorder)","userSelected":true}]},"subject":{"reference":"Patient/3f4922e2-57b0-4e2f-97d6-7c1edf156f56"},"recordedDate":"2025-03-27T14:30:00.000+00:00"},"request":{"method":"PUT","url":"Condition/91fb3bd2-012b-41e2-8d19-ed179f7e232c"}},{"fullUrl":"https://madie.cms.gov/Condition/major-depressive-disorder-active-a49d","resource":{"resourceType":"Condition","id":"6c4d9aea-b3df-4c5a-8d9b-378d1a5bed94","meta":{"profile":["http://hl7.org/fhir/us/qicore/StructureDefinition/qicore-condition"]},"category":[{"coding":[{"system":"http://terminology.hl7.org/CodeSystem/condition-category","code":"encounter-diagnosis","display":"encounter-diagnosis","userSelected":true}]}],"code":{"coding":[{"system":"http://snomed.info/sct","version":"2023-09","code":"10811121000119102","display":"Major depressive disorder in mother complicating childbirth (disorder)","userSelected":true}]},"subject":{"reference":"Patient/3f4922e2-57b0-4e2f-97d6-7c1edf156f56"},"recordedDate":"2025-07-12T11:30:00.000+00:00"},"request":{"method":"PUT","url":"Condition/6c4d9aea-b3df-4c5a-8d9b-378d1a5bed94"}},{"fullUrl":"https://madie.cms.gov/Coverage/payer-f7a7","resource":{"resourceType":"Coverage","id":"cd726671-f951-4b91-bfce-10c21d332225","meta":{"profile":["http://hl7.org/fhir/us/qicore/StructureDefinition/qicore-coverage"]},"identifier":[{"system":"http://benefitsinc.com/certificate","value":"12345"}],"status":"active","type":{"coding":[{"system":"https://nahdo.org/sopt","code":"14","userSelected":true}]},"beneficiary":{"reference":"Patient/3f4922e2-57b0-4e2f-97d6-7c1edf156f56"},"period":{"start":"2025-01-01T08:00:00.000+00:00","end":"2025-12-31T11:59:00.000+00:00"},"payor":[{"reference":"Organization/ec8cac12-7dd8-4c6e-8c44-d6c645085c80"}]},"request":{"method":"PUT","url":"Coverage/cd726671-f951-4b91-bfce-10c21d332225"}},{"fullUrl":"https://madie.cms.gov/Organization/123456","resource":{"resourceType":"Organization","id":"ec8cac12-7dd8-4c6e-8c44-d6c645085c80","meta":{"profile":["http://hl7.org/fhir/us/qicore/StructureDefinition/qicore-organization"]},"identifier":[{"use":"temp","system":"urn:oid:2.16.840.1.113883.4.4","value":"21-3259825"}],"active":true,"type":[{"coding":[{"system":"http://terminology.hl7.org/CodeSystem/organization-type","code":"pay","display":"Payer"}]}],"name":"Blue Cross Blue Shield of Texas","telecom":[{"system":"phone","value":"(+1) 972-766-6900"}],"address":[{"use":"billing","type":"postal","line":["P.O. Box 660044"],"city":"Dallas","state":"TX","postalCode":"75266-0044","country":"USA"}]},"request":{"method":"PUT","url":"Organization/ec8cac12-7dd8-4c6e-8c44-d6c645085c80"}},{"fullUrl":"https://madie.cms.gov/Practitioner/practitioner-123456","resource":{"resourceType":"Practitioner","id":"96631481-a715-430e-aff8-a56693c97380","meta":{"profile":["http://hl7.org/fhir/us/qicore/StructureDefinition/qicore-practitioner"]},"identifier":[{"system":"http://hl7.org/fhir/sid/us-npi","value":"123456"}],"name":[{"family":"Evil","prefix":["Dr"]}]},"request":{"method":"PUT","url":"Practitioner/96631481-a715-430e-aff8-a56693c97380"}},{"fullUrl":"https://madie.cms.gov/MeasureReport/5c80364c-5a59-4d9b-b2b0-2586887a7d43","resource":{"resourceType":"MeasureReport","id":"5c80364c-5a59-4d9b-b2b0-2586887a7d43","meta":{"profile":["http://hl7.org/fhir/us/cqfmeasures/StructureDefinition/test-case-cqfm"]},"contained":[{"resourceType":"Parameters","id":"a11c667d-53fa-4a7f-97b4-7940fdbad6ed-parameters","parameter":[{"name":"subject","valueString":"3f4922e2-57b0-4e2f-97d6-7c1edf156f56"}]}],"extension":[{"url":"http://hl7.org/fhir/us/cqfmeasures/StructureDefinition/cqfm-inputParameters","valueReference":{"reference":"#a11c667d-53fa-4a7f-97b4-7940fdbad6ed-parameters"}},{"url":"http://hl7.org/fhir/us/cqfmeasures/StructureDefinition/cqfm-testCaseDescription","valueMarkdown":"Patient with depression and suicide risk assessment during multiple office visit encounter using relevantDatetime"}],"modifierExtension":[{"url":"http://hl7.org/fhir/us/cqfmeasures/StructureDefinition/cqfm-isTestCase","valueBoolean":true}],"status":"complete","type":"individual","measure":"https://madie.cms.gov/Measure/ChildandAdolescentMajorDepressiveDisorderMDDSuicideRiskAssessmentFHIR","period":{"start":"2025-01-01","end":"2025-12-31"},"group":[{"population":[{"code":{"coding":[{"system":"http://terminology.hl7.org/CodeSystem/measure-population","code":"initial-population","display":"Initial Population"}]},"count":2},{"code":{"coding":[{"system":"http://terminology.hl7.org/CodeSystem/measure-population","code":"denominator","display":"Denominator"}]},"count":2},{"code":{"coding":[{"system":"http://terminology.hl7.org/CodeSystem/measure-population","code":"numerator","display":"Numerator"}]},"count":2}]}]},"request":{"method":"PUT","url":"MeasureReport/5c80364c-5a59-4d9b-b2b0-2586887a7d43"}}]}