{"resourceType":"Bundle","id":"tests-d2626497-195f-4d2c-afe6-4a733c9080e4-bundle","type":"transaction","entry":[{"fullUrl":"Patient/d2626497-195f-4d2c-afe6-4a733c9080e4","resource":{"resourceType":"Patient","id":"d2626497-195f-4d2c-afe6-4a733c9080e4","meta":{"profile":["http://hl7.org/fhir/us/qicore/StructureDefinition/qicore-patient"]},"text":{"status":"generated","div":"<div xmlns=\"http://www.w3.org/1999/xhtml\"><div class=\"hapiHeaderText\">PtCorrAgePsychEncInMP <b>DENOMPASS </b></div><table class=\"hapiPropertyTable\"><tbody><tr><td>Identifier</td><td>c34c15ef31b4519b6a53c4ac4209803a</td></tr><tr><td>Date of birth</td><td><span>15 August 2005</span></td></tr></tbody></table></div>"},"extension":[{"url":"http://hl7.org/fhir/us/core/StructureDefinition/us-core-race","extension":[{"url":"ombCategory","valueCoding":{"system":"urn:oid:2.16.840.1.113883.6.238","code":"2054-5","display":"Black or African American","userSelected":true}},{"url":"text","valueString":"Black or African American"}]},{"url":"http://hl7.org/fhir/us/core/StructureDefinition/us-core-ethnicity","extension":[{"url":"ombCategory","valueCoding":{"system":"urn:oid:2.16.840.1.113883.6.238","code":"2186-5","display":"Not Hispanic or Latino","userSelected":true}},{"url":"text","valueString":"Not Hispanic or Latino"}]}],"identifier":[{"type":{"coding":[{"system":"http://terminology.hl7.org/CodeSystem/v2-0203","code":"MR"}]},"system":"https://bonnie-fhir.healthit.gov/","value":"6109650498086b538055a0d2"}],"active":true,"name":[{"use":"usual","family":"IPPass","given":["AgeCorrectMDDInPsychEncInMP"]}],"gender":"male","birthDate":"2017-08-15"},"request":{"method":"PUT","url":"Patient/d2626497-195f-4d2c-afe6-4a733c9080e4"}},{"fullUrl":"Encounter/5c98fd1ab848464ed33e9e6e","resource":{"resourceType":"Encounter","id":"5c98fd1ab848464ed33e9e6e","meta":{"profile":["http://hl7.org/fhir/us/qicore/StructureDefinition/qicore-encounter"]},"status":"finished","class":{"system":"http://terminology.hl7.org/CodeSystem/v3-ActCode","code":"AMB","display":"ambulatory","userSelected":true},"type":[{"coding":[{"system":"http://www.ama-assn.org/go/cpt","code":"90845"}]}],"subject":{"reference":"Patient/d2626497-195f-4d2c-afe6-4a733c9080e4"},"period":{"start":"2025-02-26T08:00:00.000+00:00","end":"2025-02-26T08:15:00.000+00:00"},"length":{"value":0.0,"unit":"days"},"diagnosis":[{"condition":{"reference":"Condition/major-depressive-disorder-active-7d3f"},"use":{"coding":[{"system":"http://snomed.info/sct","code":"10811161000119107","display":"Major Depressive Disorder-Active"}]}}]},"request":{"method":"PUT","url":"Encounter/5c98fd1ab848464ed33e9e6e"}},{"fullUrl":"Condition/major-depressive-disorder-active-7d3f","resource":{"resourceType":"Condition","id":"major-depressive-disorder-active-7d3f","meta":{"profile":["http://hl7.org/fhir/us/qicore/StructureDefinition/qicore-condition"]},"clinicalStatus":{"coding":[{"system":"http://terminology.hl7.org/CodeSystem/condition-clinical","code":"active","display":"Active","userSelected":true}]},"verificationStatus":{"coding":[{"system":"http://terminology.hl7.org/CodeSystem/condition-ver-status","code":"confirmed","display":"Confirmed","userSelected":true}]},"category":[{"coding":[{"system":"http://terminology.hl7.org/CodeSystem/condition-category","code":"encounter-diagnosis","display":"Encounter Diagnosis","userSelected":true}]}],"code":{"coding":[{"system":"http://snomed.info/sct","code":"10811161000119107","userSelected":true}]},"subject":{"reference":"Patient/d2626497-195f-4d2c-afe6-4a733c9080e4"},"onsetDateTime":"2025-02-26T08:00:00.000+00:00"},"request":{"method":"PUT","url":"Condition/major-depressive-disorder-active-7d3f"}},{"fullUrl":"Coverage/Coverage-1","resource":{"resourceType":"Coverage","id":"Coverage-1","meta":{"profile":["http://hl7.org/fhir/us/qicore/StructureDefinition/qicore-coverage"]},"status":"active","beneficiary":{"reference":"Patient/d2626497-195f-4d2c-afe6-4a733c9080e4"},"payor":[{"reference":"Organization/Org-123456"}]},"request":{"method":"PUT","url":"Coverage/Coverage-1"}},{"fullUrl":"Organization/Org-123456","resource":{"resourceType":"Organization","id":"Org-123456","meta":{"profile":["http://hl7.org/fhir/us/qicore/StructureDefinition/qicore-organization"]},"identifier":[{"use":"temp","system":"urn:oid:2.16.840.1.113883.4.4","value":"21-3259825"}],"active":true,"type":[{"coding":[{"system":"http://terminology.hl7.org/CodeSystem/organization-type","code":"pay","display":"Payer"}]}],"name":"Blue Cross Blue Shield of Texas","telecom":[{"system":"phone","value":"(+1) 972-766-6900"}],"address":[{"use":"billing","type":"postal","line":["P.O. Box 660044"],"city":"Dallas","state":"TX","postalCode":"75266-0044","country":"USA"}]},"request":{"method":"PUT","url":"Organization/Org-123456"}},{"fullUrl":"Practitioner/practitioner-123456","resource":{"resourceType":"Practitioner","id":"practitioner-123456","meta":{"profile":["http://hl7.org/fhir/us/qicore/StructureDefinition/qicore-practitioner"]},"identifier":[{"system":"http://hl7.org/fhir/sid/us-npi","value":"123456"}],"name":[{"family":"Evil","prefix":["Dr"]}]},"request":{"method":"PUT","url":"Practitioner/practitioner-123456"}},{"fullUrl":"MeasureReport/0b472531-d7aa-43ea-b639-395c52054422","resource":{"resourceType":"MeasureReport","id":"0b472531-d7aa-43ea-b639-395c52054422","meta":{"profile":["http://hl7.org/fhir/us/cqfmeasures/StructureDefinition/test-case-cqfm"]},"contained":[{"resourceType":"Parameters","id":"a1dd501c-1538-4a6e-85b8-aa1a6b519e86-parameters","parameter":[{"name":"subject","valueString":"d2626497-195f-4d2c-afe6-4a733c9080e4"}]}],"extension":[{"url":"http://hl7.org/fhir/us/cqfmeasures/StructureDefinition/cqfm-inputParameters","valueReference":{"reference":"#a1dd501c-1538-4a6e-85b8-aa1a6b519e86-parameters"}},{"url":"http://hl7.org/fhir/us/cqfmeasures/StructureDefinition/cqfm-testCaseDescription","valueMarkdown":"Patient 6 years, 4 months at Start of MP.  Psychoanalysis encounter with Depression Diagnosis recorded in MP"}],"modifierExtension":[{"url":"http://hl7.org/fhir/us/cqfmeasures/StructureDefinition/cqfm-isTestCase","valueBoolean":true}],"status":"complete","type":"individual","measure":"Measure/ChildandAdolescentMajorDepressiveDisorderMDDSuicideRiskAssessmentFHIR","period":{"start":"2025-01-01","end":"2025-12-31"},"group":[{"population":[{"code":{"coding":[{"system":"http://terminology.hl7.org/CodeSystem/measure-population","code":"initial-population","display":"Initial Population"}]},"count":1},{"code":{"coding":[{"system":"http://terminology.hl7.org/CodeSystem/measure-population","code":"denominator","display":"Denominator"}]},"count":1},{"code":{"coding":[{"system":"http://terminology.hl7.org/CodeSystem/measure-population","code":"numerator","display":"Numerator"}]},"count":0}]}],"evaluatedResource":[{"reference":"Patient/d2626497-195f-4d2c-afe6-4a733c9080e4"},{"reference":"Encounter/5c98fd1ab848464ed33e9e6e"},{"reference":"Condition/major-depressive-disorder-active-7d3f"},{"reference":"Coverage/Coverage-1"},{"reference":"Organization/Org-123456"},{"reference":"Practitioner/practitioner-123456"}]},"request":{"method":"PUT","url":"MeasureReport/0b472531-d7aa-43ea-b639-395c52054422"}}]}