{"resourceType":"Bundle","id":"tests-913619cb-66f0-407e-ae78-de8faca176fb-bundle","type":"transaction","entry":[{"fullUrl":"https://madie.cms.gov/Patient/913619cb-66f0-407e-ae78-de8faca176fb","resource":{"resourceType":"Patient","id":"913619cb-66f0-407e-ae78-de8faca176fb","meta":{"profile":["http://hl7.org/fhir/us/qicore/StructureDefinition/qicore-patient"]},"extension":[{"url":"http://hl7.org/fhir/us/core/StructureDefinition/us-core-race","extension":[{"url":"ombCategory","valueCoding":{"system":"urn:oid:2.16.840.1.113883.6.238","code":"2028-9","display":"Asian"}},{"url":"text","valueString":"Asian"}]},{"url":"http://hl7.org/fhir/us/core/StructureDefinition/us-core-ethnicity","extension":[{"url":"ombCategory","valueCoding":{"system":"urn:oid:2.16.840.1.113883.6.238","code":"2135-2","display":"Hispanic or Latino"}},{"url":"text","valueString":"Hispanic or Latino"}]}],"identifier":[{"system":"http://hospital.smarthealthit.org","value":"999999995"}],"name":[{"family":"Bertha","given":["Betty"]}],"gender":"female","birthDate":"1979-12-31"},"request":{"method":"PUT","url":"Patient/913619cb-66f0-407e-ae78-de8faca176fb"}},{"fullUrl":"https://madie.cms.gov/MeasureReport/426b9f25-b0ea-4c89-8c77-4b6256046dd4","resource":{"resourceType":"MeasureReport","id":"426b9f25-b0ea-4c89-8c77-4b6256046dd4","meta":{"profile":["http://hl7.org/fhir/us/cqfmeasures/StructureDefinition/test-case-cqfm"]},"contained":[{"resourceType":"Parameters","id":"9842e4c4-e87b-4afe-96ee-7822ce0193a8-parameters","parameter":[{"name":"subject","valueString":"913619cb-66f0-407e-ae78-de8faca176fb"}]}],"extension":[{"url":"http://hl7.org/fhir/us/cqfmeasures/StructureDefinition/cqfm-inputParameters","valueReference":{"reference":"#9842e4c4-e87b-4afe-96ee-7822ce0193a8-parameters"}},{"url":"http://hl7.org/fhir/us/cqfmeasures/StructureDefinition/cqfm-testCaseDescription","valueMarkdown":"Patient is exactly 46 years old with a missing qualifying encounter during the measurement period."}],"modifierExtension":[{"url":"http://hl7.org/fhir/us/cqfmeasures/StructureDefinition/cqfm-isTestCase","valueBoolean":true}],"status":"complete","type":"individual","measure":"https://madie.cms.gov/Measure/ColonCancerScreeningFHIR","period":{"start":"2025-01-01","end":"2025-12-31"},"group":[{"population":[{"code":{"coding":[{"system":"http://terminology.hl7.org/CodeSystem/measure-population","code":"initial-population","display":"Initial Population"}]},"count":0},{"code":{"coding":[{"system":"http://terminology.hl7.org/CodeSystem/measure-population","code":"denominator","display":"Denominator"}]},"count":0},{"code":{"coding":[{"system":"http://terminology.hl7.org/CodeSystem/measure-population","code":"denominator-exclusion","display":"Denominator Exclusion"}]},"count":0},{"code":{"coding":[{"system":"http://terminology.hl7.org/CodeSystem/measure-population","code":"numerator","display":"Numerator"}]},"count":0}]}],"evaluatedResource":[{"reference":"Patient/913619cb-66f0-407e-ae78-de8faca176fb"}]},"request":{"method":"PUT","url":"MeasureReport/426b9f25-b0ea-4c89-8c77-4b6256046dd4"}}]}