{"resourceType":"Bundle","id":"tests-c7035ded-8d7b-4813-9a64-b8c59cc7f0d6-bundle","type":"transaction","entry":[{"fullUrl":"https://madie.cms.gov/Patient/c7035ded-8d7b-4813-9a64-b8c59cc7f0d6","resource":{"resourceType":"Patient","id":"c7035ded-8d7b-4813-9a64-b8c59cc7f0d6","meta":{"profile":["http://hl7.org/fhir/us/qicore/StructureDefinition/qicore-patient"]},"extension":[{"url":"http://hl7.org/fhir/us/core/StructureDefinition/us-core-race","extension":[{"url":"ombCategory","valueCoding":{"system":"urn:oid:2.16.840.1.113883.6.238","code":"1002-5","display":"American Indian or Alaska Native"}},{"url":"text","valueString":"American Indian or Alaska Native"}]},{"url":"http://hl7.org/fhir/us/core/StructureDefinition/us-core-ethnicity","extension":[{"url":"ombCategory","valueCoding":{"system":"urn:oid:2.16.840.1.113883.6.238","code":"2135-2","display":"Hispanic or Latino"}},{"url":"text","valueString":"Hispanic or Latino"}]}],"identifier":[{"type":{"coding":[{"system":"http://terminology.hl7.org/CodeSystem/v2-0203","code":"MR"}]},"system":"https://bonnie-fhir.healthit.gov/","value":"46456313461313"}],"name":[{"family":"DENEXPass","given":["LVADCndtnPriortoEnctr"]}],"gender":"female","birthDate":"1982-07-27"},"request":{"method":"PUT","url":"Patient/c7035ded-8d7b-4813-9a64-b8c59cc7f0d6"}},{"fullUrl":"https://madie.cms.gov/Encounter/7464631313135","resource":{"resourceType":"Encounter","id":"a1ae0e1c-d584-4937-a2f7-56ecd0f72097","meta":{"profile":["http://hl7.org/fhir/us/qicore/StructureDefinition/qicore-encounter"]},"status":"finished","class":{"system":"http://terminology.hl7.org/CodeSystem/v3-ActCode","code":"AMB","display":"ambulatory"},"type":[{"coding":[{"system":"http://snomed.info/sct","version":"http://snomed.info/sct/731000124108/version/20230301","code":"77406008","display":"Confirmatory medical consultation (procedure)"}]}],"subject":{"reference":"Patient/c7035ded-8d7b-4813-9a64-b8c59cc7f0d6"},"period":{"start":"2025-02-27T08:00:00.000+00:00","end":"2025-02-27T08:15:00.000+00:00"}},"request":{"method":"PUT","url":"Encounter/a1ae0e1c-d584-4937-a2f7-56ecd0f72097"}},{"fullUrl":"https://madie.cms.gov/Encounter/7464613163","resource":{"resourceType":"Encounter","id":"a6a871c8-9c09-4a82-b193-c67cb538fc3e","meta":{"profile":["http://hl7.org/fhir/us/qicore/StructureDefinition/qicore-encounter"]},"status":"finished","class":{"system":"http://terminology.hl7.org/CodeSystem/v3-ActCode","code":"AMB","display":"ambulatory"},"type":[{"coding":[{"system":"http://snomed.info/sct","version":"http://snomed.info/sct/731000124108/version/20240301","code":"185463005","display":"Visit out of hours (procedure)"}]}],"subject":{"reference":"Patient/c7035ded-8d7b-4813-9a64-b8c59cc7f0d6"},"period":{"start":"2025-06-12T08:00:00.000+00:00","end":"2025-06-12T08:15:00.000+00:00"}},"request":{"method":"PUT","url":"Encounter/a6a871c8-9c09-4a82-b193-c67cb538fc3e"}},{"fullUrl":"https://madie.cms.gov/Condition/461313313564","resource":{"resourceType":"Condition","id":"3cbe3cca-91a3-4505-9c60-57193069a8e8","meta":{"profile":["http://hl7.org/fhir/us/qicore/StructureDefinition/qicore-condition"]},"clinicalStatus":{"coding":[{"system":"http://terminology.hl7.org/CodeSystem/condition-clinical","code":"active","display":"Active"}]},"verificationStatus":{"coding":[{"system":"http://terminology.hl7.org/CodeSystem/condition-ver-status","code":"confirmed","display":"Confirmed"}]},"category":[{"coding":[{"system":"http://terminology.hl7.org/CodeSystem/condition-category","code":"problem-list-item","display":"problem list item"}]}],"severity":{"coding":[{"system":"http://snomed.info/sct","version":"http://snomed.info/sct/731000124108/version/20240301","code":"24484000","display":"Severe (severity modifier) (qualifier value)"}]},"code":{"coding":[{"system":"http://snomed.info/sct","version":"http://snomed.info/sct/731000124108/version/20240301","code":"134401001","display":"Left ventricular systolic dysfunction (disorder)"}]},"subject":{"reference":"Patient/c7035ded-8d7b-4813-9a64-b8c59cc7f0d6"},"onsetPeriod":{"start":"2025-02-18T08:00:00.000+00:00","end":"2025-02-18T08:15:00.000+00:00"}},"request":{"method":"PUT","url":"Condition/3cbe3cca-91a3-4505-9c60-57193069a8e8"}},{"fullUrl":"https://madie.cms.gov/Condition/546413131631","resource":{"resourceType":"Condition","id":"e2a1a53a-c153-4691-8852-814b154f145b","meta":{"profile":["http://hl7.org/fhir/us/qicore/StructureDefinition/qicore-condition"]},"clinicalStatus":{"coding":[{"system":"http://terminology.hl7.org/CodeSystem/condition-clinical","code":"active","display":"Active"}]},"verificationStatus":{"coding":[{"system":"http://terminology.hl7.org/CodeSystem/condition-ver-status","code":"confirmed","display":"Confirmed"}]},"category":[{"coding":[{"system":"http://terminology.hl7.org/CodeSystem/condition-category","code":"problem-list-item","display":"problem list item"}]}],"code":{"coding":[{"system":"http://snomed.info/sct","version":"http://snomed.info/sct/731000124108/version/20240301","code":"10091002","display":"High output heart failure (disorder)"}]},"subject":{"reference":"Patient/c7035ded-8d7b-4813-9a64-b8c59cc7f0d6"},"onsetPeriod":{"start":"2025-02-22T08:00:00.000+00:00"}},"request":{"method":"PUT","url":"Condition/e2a1a53a-c153-4691-8852-814b154f145b"}},{"fullUrl":"https://madie.cms.gov/Procedure/710320012","resource":{"resourceType":"Procedure","id":"72580480-a1a9-47dc-998f-313a86c2c5d4","meta":{"profile":["http://hl7.org/fhir/us/qicore/StructureDefinition/qicore-procedure"]},"extension":[{"url":"http://hl7.org/fhir/us/qicore/StructureDefinition/qicore-recorded","valueDateTime":"2025-01-31T08:00:00.000+00:00"}],"status":"completed","code":{"coding":[{"system":"http://snomed.info/sct","version":"http://snomed.info/sct/731000124108/version/20240301","code":"232967006","display":"Implantation of left ventricular assist device (procedure)"}]},"subject":{"reference":"Patient/c7035ded-8d7b-4813-9a64-b8c59cc7f0d6"},"performedPeriod":{"start":"2025-01-31T08:00:00.000+00:00"}},"request":{"method":"PUT","url":"Procedure/72580480-a1a9-47dc-998f-313a86c2c5d4"}},{"fullUrl":"https://madie.cms.gov/MeasureReport/346e53d2-05b1-4dd3-9c3d-c37fb330ece7","resource":{"resourceType":"MeasureReport","id":"346e53d2-05b1-4dd3-9c3d-c37fb330ece7","meta":{"profile":["http://hl7.org/fhir/us/cqfmeasures/StructureDefinition/test-case-cqfm"]},"contained":[{"resourceType":"Parameters","id":"cfd6bce7-ef29-4d76-901f-453f79a73aa8-parameters","parameter":[{"name":"subject","valueString":"c7035ded-8d7b-4813-9a64-b8c59cc7f0d6"}]}],"extension":[{"url":"http://hl7.org/fhir/us/cqfmeasures/StructureDefinition/cqfm-inputParameters","valueReference":{"reference":"#cfd6bce7-ef29-4d76-901f-453f79a73aa8-parameters"}},{"url":"http://hl7.org/fhir/us/cqfmeasures/StructureDefinition/cqfm-testCaseDescription","valueMarkdown":"Patient with LVAD related condition prior to encounter. Patient excluded due to documentation of LVAD during encounter."}],"modifierExtension":[{"url":"http://hl7.org/fhir/us/cqfmeasures/StructureDefinition/cqfm-isTestCase","valueBoolean":true}],"status":"complete","type":"individual","measure":"https://madie.cms.gov/Measure/HFBetaBlockerTherapyforLVSDFHIR","period":{"start":"2025-01-01","end":"2025-12-31"},"group":[{"population":[{"code":{"coding":[{"system":"http://terminology.hl7.org/CodeSystem/measure-population","code":"initial-population","display":"Initial Population"}]},"count":1},{"code":{"coding":[{"system":"http://terminology.hl7.org/CodeSystem/measure-population","code":"denominator","display":"Denominator"}]},"count":1},{"code":{"coding":[{"system":"http://terminology.hl7.org/CodeSystem/measure-population","code":"denominator-exclusion","display":"Denominator Exclusion"}]},"count":1},{"code":{"coding":[{"system":"http://terminology.hl7.org/CodeSystem/measure-population","code":"numerator","display":"Numerator"}]},"count":0},{"code":{"coding":[{"system":"http://terminology.hl7.org/CodeSystem/measure-population","code":"denominator-exception","display":"Denominator Exception"}]},"count":0}]}]},"request":{"method":"PUT","url":"MeasureReport/346e53d2-05b1-4dd3-9c3d-c37fb330ece7"}}]}