{"resourceType":"Bundle","id":"tests-2a0174db-bc4a-4974-82d8-cb1b4eee3f8f-bundle","type":"transaction","entry":[{"fullUrl":"https://madie.cms.gov/Patient/2a0174db-bc4a-4974-82d8-cb1b4eee3f8f","resource":{"resourceType":"Patient","id":"2a0174db-bc4a-4974-82d8-cb1b4eee3f8f","meta":{"profile":["http://hl7.org/fhir/us/qicore/StructureDefinition/qicore-patient"]},"extension":[{"url":"http://hl7.org/fhir/us/core/StructureDefinition/us-core-race","extension":[{"url":"ombCategory","valueCoding":{"system":"urn:oid:2.16.840.1.113883.6.238","code":"2076-8","display":"Native Hawaiian or Other Pacific Islander"}},{"url":"text","valueString":"Native Hawaiian or Other Pacific Islander"}]},{"url":"http://hl7.org/fhir/us/core/StructureDefinition/us-core-ethnicity","extension":[{"url":"ombCategory","valueCoding":{"system":"urn:oid:2.16.840.1.113883.6.238","code":"2186-5","display":"Not Hispanic or Latino"}},{"url":"text","valueString":"Not Hispanic or Latino"}]}],"identifier":[{"type":{"coding":[{"system":"http://terminology.hl7.org/CodeSystem/v2-0203","code":"MR"}]},"system":"https://bonnie-fhir.healthit.gov/","value":"46431231346541"}],"active":true,"name":[{"use":"usual","family":"DENOMEXCEPPass","given":["AsthmaDxBeforeLastEnc"]}],"gender":"male","birthDate":"1971-12-30"},"request":{"method":"PUT","url":"Patient/2a0174db-bc4a-4974-82d8-cb1b4eee3f8f"}},{"fullUrl":"https://madie.cms.gov/Encounter/5c954de8b848462de0ae7670","resource":{"resourceType":"Encounter","id":"4b1ba4cb-0539-4c40-865f-671d03e562e3","meta":{"profile":["http://hl7.org/fhir/us/qicore/StructureDefinition/qicore-encounter"]},"status":"finished","class":{"system":"http://terminology.hl7.org/CodeSystem/v3-ActCode","code":"AMB","display":"ambulatory"},"type":[{"coding":[{"system":"http://www.ama-assn.org/go/cpt","version":"2024","code":"99213"}]}],"subject":{"reference":"Patient/2a0174db-bc4a-4974-82d8-cb1b4eee3f8f"},"period":{"start":"2025-04-14T14:40:00.000+00:00","end":"2025-04-14T14:50:00.000+00:00"},"length":{"value":0,"unit":"days"}},"request":{"method":"PUT","url":"Encounter/4b1ba4cb-0539-4c40-865f-671d03e562e3"}},{"fullUrl":"https://madie.cms.gov/Encounter/5c954de8b848462de0ae7671","resource":{"resourceType":"Encounter","id":"064d3871-5f74-415d-aa58-6a4137c45311","meta":{"profile":["http://hl7.org/fhir/us/qicore/StructureDefinition/qicore-encounter"]},"status":"finished","class":{"system":"http://terminology.hl7.org/CodeSystem/v3-ActCode","code":"AMB","display":"ambulatory"},"type":[{"coding":[{"system":"http://www.ama-assn.org/go/cpt","version":"2024","code":"99212"}]}],"subject":{"reference":"Patient/2a0174db-bc4a-4974-82d8-cb1b4eee3f8f"},"period":{"start":"2025-07-20T11:50:00+00:00","end":"2025-07-20T11:50:00+00:00"},"length":{"value":0,"unit":"days"}},"request":{"method":"PUT","url":"Encounter/064d3871-5f74-415d-aa58-6a4137c45311"}},{"fullUrl":"https://madie.cms.gov/Condition/5c954de8b848462de0ae766e","resource":{"resourceType":"Condition","id":"7dba6d6e-a00b-4e2e-b406-61e113a7cd66","meta":{"profile":["http://hl7.org/fhir/us/qicore/StructureDefinition/qicore-condition"]},"clinicalStatus":{"coding":[{"system":"http://terminology.hl7.org/CodeSystem/condition-clinical","code":"active","display":"Active"}]},"verificationStatus":{"coding":[{"system":"http://terminology.hl7.org/CodeSystem/condition-ver-status","code":"confirmed","display":"Confirmed"}]},"category":[{"coding":[{"system":"http://terminology.hl7.org/CodeSystem/condition-category","code":"problem-list-item","display":"Problem List Item"}]}],"code":{"coding":[{"system":"http://hl7.org/fhir/sid/icd-10-cm","version":"2024","code":"I11.0"}]},"subject":{"reference":"Patient/2a0174db-bc4a-4974-82d8-cb1b4eee3f8f"},"onsetPeriod":{"start":"2025-04-11T10:00:00+00:00"}},"request":{"method":"PUT","url":"Condition/7dba6d6e-a00b-4e2e-b406-61e113a7cd66"}},{"fullUrl":"https://madie.cms.gov/Condition/8975400021","resource":{"resourceType":"Condition","id":"8bd2428d-9302-41cc-b544-eb181447a8a5","meta":{"profile":["http://hl7.org/fhir/us/qicore/StructureDefinition/qicore-condition"]},"clinicalStatus":{"coding":[{"system":"http://terminology.hl7.org/CodeSystem/condition-clinical","code":"active","display":"Active"}]},"verificationStatus":{"coding":[{"system":"http://terminology.hl7.org/CodeSystem/condition-ver-status","code":"confirmed","display":"Confirmed"}]},"category":[{"coding":[{"system":"http://terminology.hl7.org/CodeSystem/condition-category","code":"problem-list-item","display":"Problem List Item"}]}],"severity":{"coding":[{"system":"http://snomed.info/sct","version":"http://snomed.info/sct/731000124108/version/20240301","code":"24484000","display":"Severe (severity modifier) (qualifier value)"}]},"code":{"coding":[{"system":"http://snomed.info/sct","version":"http://snomed.info/sct/731000124108/version/20240301","code":"134401001","display":"Left ventricular systolic dysfunction (disorder)"}]},"subject":{"reference":"Patient/2a0174db-bc4a-4974-82d8-cb1b4eee3f8f"},"onsetPeriod":{"start":"2025-04-14T14:41:00.000+00:00"}},"request":{"method":"PUT","url":"Condition/8bd2428d-9302-41cc-b544-eb181447a8a5"}},{"fullUrl":"https://madie.cms.gov/Condition/420007705","resource":{"resourceType":"Condition","id":"2901a411-ee9b-4479-9256-b94f34673596","meta":{"profile":["http://hl7.org/fhir/us/qicore/StructureDefinition/qicore-condition"]},"clinicalStatus":{"coding":[{"system":"http://terminology.hl7.org/CodeSystem/condition-clinical","code":"active","display":"Active"}]},"verificationStatus":{"coding":[{"system":"http://terminology.hl7.org/CodeSystem/condition-ver-status","code":"confirmed","display":"Confirmed"}]},"category":[{"coding":[{"system":"http://terminology.hl7.org/CodeSystem/condition-category","code":"problem-list-item","display":"Problem List Item"}]}],"code":{"coding":[{"system":"http://snomed.info/sct","version":"http://snomed.info/sct/731000124108/version/20240301","code":"233679003","display":"Late onset asthma (disorder)"}]},"subject":{"reference":"Patient/2a0174db-bc4a-4974-82d8-cb1b4eee3f8f"},"onsetPeriod":{"start":"2025-01-20T14:32:00.000+00:00"}},"request":{"method":"PUT","url":"Condition/2901a411-ee9b-4479-9256-b94f34673596"}},{"fullUrl":"https://madie.cms.gov/MeasureReport/80f0a98a-5466-4723-ace3-932588d25280","resource":{"resourceType":"MeasureReport","id":"80f0a98a-5466-4723-ace3-932588d25280","meta":{"profile":["http://hl7.org/fhir/us/cqfmeasures/StructureDefinition/test-case-cqfm"]},"contained":[{"resourceType":"Parameters","id":"c4569b8f-61e7-472f-a6a0-a527e3c2d7f6-parameters","parameter":[{"name":"subject","valueString":"2a0174db-bc4a-4974-82d8-cb1b4eee3f8f"}]}],"extension":[{"url":"http://hl7.org/fhir/us/cqfmeasures/StructureDefinition/cqfm-inputParameters","valueReference":{"reference":"#c4569b8f-61e7-472f-a6a0-a527e3c2d7f6-parameters"}},{"url":"http://hl7.org/fhir/us/cqfmeasures/StructureDefinition/cqfm-testCaseDescription","valueMarkdown":"Patient qualifies for Denom Exception d/t Asthma diagnosis before Last Encounter"}],"modifierExtension":[{"url":"http://hl7.org/fhir/us/cqfmeasures/StructureDefinition/cqfm-isTestCase","valueBoolean":true}],"status":"complete","type":"individual","measure":"https://madie.cms.gov/Measure/HFBetaBlockerTherapyforLVSDFHIR","period":{"start":"2025-01-01","end":"2025-12-31"},"group":[{"population":[{"code":{"coding":[{"system":"http://terminology.hl7.org/CodeSystem/measure-population","code":"initial-population","display":"Initial Population"}]},"count":1},{"code":{"coding":[{"system":"http://terminology.hl7.org/CodeSystem/measure-population","code":"denominator","display":"Denominator"}]},"count":1},{"code":{"coding":[{"system":"http://terminology.hl7.org/CodeSystem/measure-population","code":"denominator-exclusion","display":"Denominator Exclusion"}]},"count":0},{"code":{"coding":[{"system":"http://terminology.hl7.org/CodeSystem/measure-population","code":"numerator","display":"Numerator"}]},"count":0},{"code":{"coding":[{"system":"http://terminology.hl7.org/CodeSystem/measure-population","code":"denominator-exception","display":"Denominator Exception"}]},"count":1}]}]},"request":{"method":"PUT","url":"MeasureReport/80f0a98a-5466-4723-ace3-932588d25280"}}]}