{"resourceType":"Bundle","id":"tests-851513e6-9e1f-496e-b8bb-33f140b20d5b-bundle","type":"transaction","entry":[{"fullUrl":"https://madie.cms.gov/Patient/851513e6-9e1f-496e-b8bb-33f140b20d5b","resource":{"resourceType":"Patient","id":"851513e6-9e1f-496e-b8bb-33f140b20d5b","meta":{"profile":["http://hl7.org/fhir/us/qicore/StructureDefinition/qicore-patient"]},"extension":[{"url":"http://hl7.org/fhir/us/core/StructureDefinition/us-core-race","extension":[{"url":"ombCategory","valueCoding":{"system":"http://terminology.hl7.org/CodeSystem/v3-NullFlavor","code":"UNK","display":"unknown"}},{"url":"text","valueString":"unknown"}]},{"url":"http://hl7.org/fhir/us/core/StructureDefinition/us-core-ethnicity","extension":[{"url":"ombCategory","valueCoding":{"system":"urn:oid:2.16.840.1.113883.6.238","code":"2186-5","display":"Not Hispanic or Latino"}},{"url":"text","valueString":"Not Hispanic or Latino"}]}],"identifier":[{"type":{"coding":[{"system":"http://terminology.hl7.org/CodeSystem/v2-0203","code":"MR"}]},"system":"https://bonnie-fhir.healthit.gov/","value":"6543131313"}],"active":true,"name":[{"use":"usual","family":"NUMERPass","given":["PtHasActiveBetaBlocker"]}],"gender":"female","birthDate":"1982-07-27"},"request":{"method":"PUT","url":"Patient/851513e6-9e1f-496e-b8bb-33f140b20d5b"}},{"fullUrl":"https://madie.cms.gov/Encounter/64131313124162","resource":{"resourceType":"Encounter","id":"2b03edbf-26f2-43e1-85bc-37b35e96d17f","meta":{"profile":["http://hl7.org/fhir/us/qicore/StructureDefinition/qicore-encounter"]},"status":"finished","class":{"system":"http://terminology.hl7.org/CodeSystem/v3-ActCode","code":"AMB","display":"ambulatory"},"type":[{"coding":[{"system":"http://www.ama-assn.org/go/cpt","version":"2024","code":"99213","display":"Established patient office or other outpatient visit, 20-29 minutes"}]}],"subject":{"reference":"Patient/851513e6-9e1f-496e-b8bb-33f140b20d5b"},"period":{"start":"2025-02-27T14:40:00.000+00:00","end":"2025-02-27T14:55:00.000+00:00"},"length":{"value":0,"unit":"days"}},"request":{"method":"PUT","url":"Encounter/2b03edbf-26f2-43e1-85bc-37b35e96d17f"}},{"fullUrl":"https://madie.cms.gov/Encounter/35431313154","resource":{"resourceType":"Encounter","id":"357f4a9a-9573-4f35-a49f-541de79075b9","meta":{"profile":["http://hl7.org/fhir/us/qicore/StructureDefinition/qicore-encounter"]},"status":"finished","class":{"system":"http://terminology.hl7.org/CodeSystem/v3-ActCode","code":"AMB","display":"ambulatory"},"type":[{"coding":[{"system":"http://www.ama-assn.org/go/cpt","version":"2024","code":"99212"}]}],"subject":{"reference":"Patient/851513e6-9e1f-496e-b8bb-33f140b20d5b"},"period":{"start":"2025-06-12T11:50:00+00:00","end":"2025-06-12T12:00:00+00:00"},"length":{"value":0,"unit":"days"}},"request":{"method":"PUT","url":"Encounter/357f4a9a-9573-4f35-a49f-541de79075b9"}},{"fullUrl":"https://madie.cms.gov/Condition/986123131351","resource":{"resourceType":"Condition","id":"01249292-9689-4ca4-9d2d-db99cdc2b262","meta":{"profile":["http://hl7.org/fhir/us/qicore/StructureDefinition/qicore-condition"]},"clinicalStatus":{"coding":[{"system":"http://terminology.hl7.org/CodeSystem/condition-clinical","code":"active","display":"Active"}]},"verificationStatus":{"coding":[{"system":"http://terminology.hl7.org/CodeSystem/condition-ver-status","code":"confirmed","display":"Confirmed"}]},"category":[{"coding":[{"system":"http://terminology.hl7.org/CodeSystem/condition-category","code":"problem-list-item","display":"problem list item"}]}],"code":{"coding":[{"system":"http://hl7.org/fhir/sid/icd-10-cm","version":"2024","code":"I11.0","display":"Hypertensive heart disease with heart failure"}]},"subject":{"reference":"Patient/851513e6-9e1f-496e-b8bb-33f140b20d5b"},"onsetPeriod":{"start":"2025-02-22T14:40:00+00:00"}},"request":{"method":"PUT","url":"Condition/01249292-9689-4ca4-9d2d-db99cdc2b262"}},{"fullUrl":"https://madie.cms.gov/Practitioner/63431313131","resource":{"resourceType":"Practitioner","id":"7ba5613a-e161-4542-9896-0c79c2abe991","meta":{"profile":["http://hl7.org/fhir/us/qicore/StructureDefinition/qicore-practitioner"]},"identifier":[{"use":"temp","system":"urn:oid:2.16.840.1.113883.4.336","value":"Practitioner-23"}],"active":true,"name":[{"family":"Careful","given":["Adam"],"prefix":["Dr"]}],"address":[{"use":"home","line":["534 Erewhon St"],"city":"PleasantVille","state":"UT","postalCode":"84414"}],"qualification":[{"identifier":[{"system":"http://example.org/UniversityIdentifier","value":"12345"}],"code":{"coding":[{"system":"http://terminology.hl7.org/CodeSystem/v2-0360","code":"BS","display":"Bachelor of Science"}],"text":"Bachelor of Science"},"period":{"start":"1995"},"issuer":{"display":"Example University"}}]},"request":{"method":"PUT","url":"Practitioner/7ba5613a-e161-4542-9896-0c79c2abe991"}},{"fullUrl":"https://madie.cms.gov/MedicationRequest/54631313131","resource":{"resourceType":"MedicationRequest","id":"61e41826-290c-424f-b073-77d8e511c9c5","meta":{"profile":["http://hl7.org/fhir/us/qicore/StructureDefinition/qicore-medicationrequest"]},"status":"completed","intent":"order","medicationCodeableConcept":{"coding":[{"system":"http://www.nlm.nih.gov/research/umls/rxnorm","version":"04012024","code":"200031"}]},"subject":{"reference":"Patient/851513e6-9e1f-496e-b8bb-33f140b20d5b"},"authoredOn":"2025-06-12T14:57:00.000+00:00","requester":{"reference":"Practitioner/63431313131"},"dosageInstruction":[{"timing":{"event":["2025-02-27T11:45:00+00:00"],"repeat":{"boundsPeriod":{"start":"2025-02-27"},"frequency":1,"period":1,"periodUnit":"d"},"code":{"coding":[{"system":"http://terminology.hl7.org/CodeSystem/v3-GTSAbbreviation","code":"QD"}]}},"route":{"coding":[{"system":"http://snomed.info/sct","code":"26643006","display":"Oral use"}]},"doseAndRate":[{"doseQuantity":{"value":4,"unit":"mg","system":"http://unitsofmeasure.org","code":"mg"}}]}]},"request":{"method":"PUT","url":"MedicationRequest/61e41826-290c-424f-b073-77d8e511c9c5"}},{"fullUrl":"https://madie.cms.gov/Observation/64643131351","resource":{"resourceType":"Observation","id":"6a9b3c1a-1351-43a9-a460-16cd544c27c5","meta":{"profile":["http://hl7.org/fhir/StructureDefinition/heartrate"]},"status":"final","category":[{"coding":[{"system":"http://terminology.hl7.org/CodeSystem/observation-category","code":"vital-signs","display":"Vital Signs"}]}],"code":{"coding":[{"system":"http://loinc.org","version":"2.76","code":"8867-4"}]},"subject":{"reference":"Patient/851513e6-9e1f-496e-b8bb-33f140b20d5b"},"effectiveDateTime":"2025-02-27T11:52:00+00:00","valueQuantity":{"value":45,"unit":"/min","system":"http://unitsofmeasure.org","code":"/min"}},"request":{"method":"PUT","url":"Observation/6a9b3c1a-1351-43a9-a460-16cd544c27c5"}},{"fullUrl":"https://madie.cms.gov/Observation/68413131351341","resource":{"resourceType":"Observation","id":"9d8b3760-afbd-4c95-9c90-1f84e810eb9b","meta":{"profile":["http://hl7.org/fhir/StructureDefinition/heartrate"]},"status":"final","category":[{"coding":[{"system":"http://terminology.hl7.org/CodeSystem/observation-category","code":"vital-signs","display":"Vital Signs"}]}],"code":{"coding":[{"system":"http://loinc.org","version":"2.76","code":"8867-4"}]},"subject":{"reference":"Patient/851513e6-9e1f-496e-b8bb-33f140b20d5b"},"effectiveDateTime":"2025-02-27T14:45:00.000+00:00","valueQuantity":{"value":45,"unit":"/min","system":"http://unitsofmeasure.org","code":"/min"}},"request":{"method":"PUT","url":"Observation/9d8b3760-afbd-4c95-9c90-1f84e810eb9b"}},{"fullUrl":"https://madie.cms.gov/Condition/9687641313131","resource":{"resourceType":"Condition","id":"3591b384-9e5f-4ee4-9efa-bdae2c120214","meta":{"profile":["http://hl7.org/fhir/us/qicore/StructureDefinition/qicore-condition"]},"clinicalStatus":{"coding":[{"system":"http://terminology.hl7.org/CodeSystem/condition-clinical","code":"active","display":"Active"}]},"verificationStatus":{"coding":[{"system":"http://terminology.hl7.org/CodeSystem/condition-ver-status","code":"confirmed","display":"Confirmed"}]},"category":[{"coding":[{"system":"http://terminology.hl7.org/CodeSystem/condition-category","code":"problem-list-item","display":"problem list item"}]}],"severity":{"coding":[{"system":"http://snomed.info/sct","version":"http://snomed.info/sct/731000124108/version/20240301","code":"24484000","display":"Severe (severity modifier) (qualifier value)"}]},"code":{"coding":[{"system":"http://snomed.info/sct","version":"http://snomed.info/sct/731000124108/version/20240301","code":"134401001","display":"Left ventricular systolic dysfunction (disorder)"}]},"subject":{"reference":"Patient/851513e6-9e1f-496e-b8bb-33f140b20d5b"},"onsetPeriod":{"start":"2025-02-18T14:40:00.000+00:00","end":"2025-02-18T14:55:00.000+00:00"}},"request":{"method":"PUT","url":"Condition/3591b384-9e5f-4ee4-9efa-bdae2c120214"}},{"fullUrl":"https://madie.cms.gov/MeasureReport/88eeeffc-2c67-4fdb-b110-191643cd82a1","resource":{"resourceType":"MeasureReport","id":"88eeeffc-2c67-4fdb-b110-191643cd82a1","meta":{"profile":["http://hl7.org/fhir/us/cqfmeasures/StructureDefinition/test-case-cqfm"]},"contained":[{"resourceType":"Parameters","id":"c095ff74-9f55-444a-a3e6-8fc70ca3df2d-parameters","parameter":[{"name":"subject","valueString":"851513e6-9e1f-496e-b8bb-33f140b20d5b"}]}],"extension":[{"url":"http://hl7.org/fhir/us/cqfmeasures/StructureDefinition/cqfm-inputParameters","valueReference":{"reference":"#c095ff74-9f55-444a-a3e6-8fc70ca3df2d-parameters"}},{"url":"http://hl7.org/fhir/us/cqfmeasures/StructureDefinition/cqfm-testCaseDescription","valueMarkdown":"Patient is currently taking a beta blocker and falls into numerator"}],"modifierExtension":[{"url":"http://hl7.org/fhir/us/cqfmeasures/StructureDefinition/cqfm-isTestCase","valueBoolean":true}],"status":"complete","type":"individual","measure":"https://madie.cms.gov/Measure/HFBetaBlockerTherapyforLVSDFHIR","period":{"start":"2025-01-01","end":"2025-12-31"},"group":[{"population":[{"code":{"coding":[{"system":"http://terminology.hl7.org/CodeSystem/measure-population","code":"initial-population","display":"Initial Population"}]},"count":1},{"code":{"coding":[{"system":"http://terminology.hl7.org/CodeSystem/measure-population","code":"denominator","display":"Denominator"}]},"count":1},{"code":{"coding":[{"system":"http://terminology.hl7.org/CodeSystem/measure-population","code":"denominator-exclusion","display":"Denominator Exclusion"}]},"count":0},{"code":{"coding":[{"system":"http://terminology.hl7.org/CodeSystem/measure-population","code":"numerator","display":"Numerator"}]},"count":1},{"code":{"coding":[{"system":"http://terminology.hl7.org/CodeSystem/measure-population","code":"denominator-exception","display":"Denominator Exception"}]},"count":0}]}]},"request":{"method":"PUT","url":"MeasureReport/88eeeffc-2c67-4fdb-b110-191643cd82a1"}}]}