{"resourceType":"Bundle","id":"tests-bd8a7977-c265-4a3e-8a52-7818bac292fe-bundle","type":"transaction","entry":[{"fullUrl":"https://madie.cms.gov/Patient/bd8a7977-c265-4a3e-8a52-7818bac292fe","resource":{"resourceType":"Patient","id":"bd8a7977-c265-4a3e-8a52-7818bac292fe","meta":{"profile":["http://hl7.org/fhir/us/qicore/StructureDefinition/qicore-patient"]},"extension":[{"url":"http://hl7.org/fhir/us/core/StructureDefinition/us-core-race","extension":[{"url":"ombCategory","valueCoding":{"system":"urn:oid:2.16.840.1.113883.6.238","code":"2076-8","display":"Native Hawaiian or Other Pacific Islander"}},{"url":"text","valueString":"Native Hawaiian or Other Pacific Islander"}]},{"url":"http://hl7.org/fhir/us/core/StructureDefinition/us-core-ethnicity","extension":[{"url":"ombCategory","valueCoding":{"system":"urn:oid:2.16.840.1.113883.6.238","code":"2186-5","display":"Not Hispanic or Latino"}},{"url":"text","valueString":"Not Hispanic or Latino"}]}],"identifier":[{"type":{"coding":[{"system":"http://terminology.hl7.org/CodeSystem/v2-0203","code":"MR"}]},"system":"https://bonnie-fhir.healthit.gov/","value":"6845635684131"}],"active":true,"name":[{"use":"usual","family":"DENOMEXCEPPass","given":["IntoleranceToBetaBlockerBeforeLastEnc"]}],"gender":"male","birthDate":"1971-12-30"},"request":{"method":"PUT","url":"Patient/bd8a7977-c265-4a3e-8a52-7818bac292fe"}},{"fullUrl":"https://madie.cms.gov/Encounter/65461316asdf1351303d45","resource":{"resourceType":"Encounter","id":"9602bd87-5403-46e9-bbc1-c0815eab1e9d","meta":{"profile":["http://hl7.org/fhir/us/qicore/StructureDefinition/qicore-encounter"]},"status":"finished","class":{"system":"http://terminology.hl7.org/CodeSystem/v3-ActCode","code":"AMB","display":"ambulatory"},"type":[{"coding":[{"system":"http://www.ama-assn.org/go/cpt","version":"2024","code":"99213"}]}],"subject":{"reference":"Patient/bd8a7977-c265-4a3e-8a52-7818bac292fe"},"period":{"start":"2025-04-14T14:40:00.000+00:00","end":"2025-04-14T14:50:00.000+00:00"},"length":{"value":0,"unit":"days"}},"request":{"method":"PUT","url":"Encounter/9602bd87-5403-46e9-bbc1-c0815eab1e9d"}},{"fullUrl":"https://madie.cms.gov/Encounter/684561af51a3s51f63130","resource":{"resourceType":"Encounter","id":"606c241e-ef8a-4e05-8331-b4e53a343f19","meta":{"profile":["http://hl7.org/fhir/us/qicore/StructureDefinition/qicore-encounter"]},"status":"finished","class":{"system":"http://terminology.hl7.org/CodeSystem/v3-ActCode","code":"NONAC","display":"inpatient non-acute"},"type":[{"coding":[{"system":"http://snomed.info/sct","version":"http://snomed.info/sct/731000124108/version/20230901","code":"207195004","display":"History and physical examination with evaluation and management of nursing facility patient (procedure)"}]}],"subject":{"reference":"Patient/bd8a7977-c265-4a3e-8a52-7818bac292fe"},"period":{"start":"2025-07-20T11:50:00+00:00","end":"2025-07-20T11:50:00+00:00"},"length":{"value":0,"unit":"days"}},"request":{"method":"PUT","url":"Encounter/606c241e-ef8a-4e05-8331-b4e53a343f19"}},{"fullUrl":"https://madie.cms.gov/Condition/6465a1f3546as13546fa5135","resource":{"resourceType":"Condition","id":"79fd6c4f-2b5c-4060-909d-2cabf806865a","meta":{"profile":["http://hl7.org/fhir/us/qicore/StructureDefinition/qicore-condition"]},"clinicalStatus":{"coding":[{"system":"http://terminology.hl7.org/CodeSystem/condition-clinical","code":"active","display":"Active"}]},"verificationStatus":{"coding":[{"system":"http://terminology.hl7.org/CodeSystem/condition-ver-status","code":"confirmed","display":"Confirmed"}]},"category":[{"coding":[{"system":"http://terminology.hl7.org/CodeSystem/condition-category","code":"problem-list-item","display":"Problem List Item"}]}],"code":{"coding":[{"system":"http://hl7.org/fhir/sid/icd-10-cm","version":"2024","code":"I11.0"}]},"subject":{"reference":"Patient/bd8a7977-c265-4a3e-8a52-7818bac292fe"},"onsetPeriod":{"start":"2025-04-11T10:00:00+00:00"}},"request":{"method":"PUT","url":"Condition/79fd6c4f-2b5c-4060-909d-2cabf806865a"}},{"fullUrl":"https://madie.cms.gov/Condition/561354as68463516133154","resource":{"resourceType":"Condition","id":"83e8a858-832d-4833-a26f-78be6e35c8d8","meta":{"profile":["http://hl7.org/fhir/us/qicore/StructureDefinition/qicore-condition"]},"clinicalStatus":{"coding":[{"system":"http://terminology.hl7.org/CodeSystem/condition-clinical","code":"active","display":"Active"}]},"verificationStatus":{"coding":[{"system":"http://terminology.hl7.org/CodeSystem/condition-ver-status","code":"confirmed","display":"Confirmed"}]},"category":[{"coding":[{"system":"http://terminology.hl7.org/CodeSystem/condition-category","code":"problem-list-item","display":"Problem List Item"}]}],"severity":{"coding":[{"system":"http://snomed.info/sct","version":"http://snomed.info/sct/731000124108/version/20240301","code":"24484000","display":"Severe (severity modifier) (qualifier value)"}]},"code":{"coding":[{"system":"http://snomed.info/sct","version":"http://snomed.info/sct/731000124108/version/20240301","code":"134401001","display":"Left ventricular systolic dysfunction (disorder)"}]},"subject":{"reference":"Patient/bd8a7977-c265-4a3e-8a52-7818bac292fe"},"onsetPeriod":{"start":"2025-04-14T14:41:00.000+00:00"}},"request":{"method":"PUT","url":"Condition/83e8a858-832d-4833-a26f-78be6e35c8d8"}},{"fullUrl":"https://madie.cms.gov/Condition/6dfs8dsf1631sd351351","resource":{"resourceType":"Condition","id":"74ffb5d6-6bcf-4a1f-ba89-03ff2b1d5892","meta":{"profile":["http://hl7.org/fhir/us/qicore/StructureDefinition/qicore-condition"]},"clinicalStatus":{"coding":[{"system":"http://terminology.hl7.org/CodeSystem/condition-clinical","code":"active","display":"Active"}]},"verificationStatus":{"coding":[{"system":"http://terminology.hl7.org/CodeSystem/condition-ver-status","code":"confirmed","display":"Confirmed"}]},"category":[{"coding":[{"system":"http://terminology.hl7.org/CodeSystem/condition-category","code":"problem-list-item","display":"Problem List Item"}]}],"code":{"coding":[{"system":"http://snomed.info/sct","version":"http://snomed.info/sct/731000124108/version/20230901","code":"292428006","display":"Metoprolol adverse reaction (disorder)"}]},"subject":{"reference":"Patient/bd8a7977-c265-4a3e-8a52-7818bac292fe"},"onsetPeriod":{"start":"2025-01-20T14:32:00.000+00:00"}},"request":{"method":"PUT","url":"Condition/74ffb5d6-6bcf-4a1f-ba89-03ff2b1d5892"}},{"fullUrl":"https://madie.cms.gov/MeasureReport/9bf60cd4-9eae-49d8-99f9-1d54723c2344","resource":{"resourceType":"MeasureReport","id":"9bf60cd4-9eae-49d8-99f9-1d54723c2344","meta":{"profile":["http://hl7.org/fhir/us/cqfmeasures/StructureDefinition/test-case-cqfm"]},"contained":[{"resourceType":"Parameters","id":"c8013ea6-cf6c-4d1b-b124-9f24a2fe9750-parameters","parameter":[{"name":"subject","valueString":"bd8a7977-c265-4a3e-8a52-7818bac292fe"}]}],"extension":[{"url":"http://hl7.org/fhir/us/cqfmeasures/StructureDefinition/cqfm-inputParameters","valueReference":{"reference":"#c8013ea6-cf6c-4d1b-b124-9f24a2fe9750-parameters"}},{"url":"http://hl7.org/fhir/us/cqfmeasures/StructureDefinition/cqfm-testCaseDescription","valueMarkdown":"Patient falls into denominator exception due to intolerance to metoprolol diagnosed before last encounter. Nursing home patient during part of the year."}],"modifierExtension":[{"url":"http://hl7.org/fhir/us/cqfmeasures/StructureDefinition/cqfm-isTestCase","valueBoolean":true}],"status":"complete","type":"individual","measure":"https://madie.cms.gov/Measure/HFBetaBlockerTherapyforLVSDFHIR","period":{"start":"2025-01-01","end":"2025-12-31"},"group":[{"population":[{"code":{"coding":[{"system":"http://terminology.hl7.org/CodeSystem/measure-population","code":"initial-population","display":"Initial Population"}]},"count":1},{"code":{"coding":[{"system":"http://terminology.hl7.org/CodeSystem/measure-population","code":"denominator","display":"Denominator"}]},"count":1},{"code":{"coding":[{"system":"http://terminology.hl7.org/CodeSystem/measure-population","code":"denominator-exclusion","display":"Denominator Exclusion"}]},"count":0},{"code":{"coding":[{"system":"http://terminology.hl7.org/CodeSystem/measure-population","code":"numerator","display":"Numerator"}]},"count":0},{"code":{"coding":[{"system":"http://terminology.hl7.org/CodeSystem/measure-population","code":"denominator-exception","display":"Denominator Exception"}]},"count":1}]}]},"request":{"method":"PUT","url":"MeasureReport/9bf60cd4-9eae-49d8-99f9-1d54723c2344"}}]}