{"resourceType":"Bundle","id":"tests-18f63379-7018-44b8-bbe2-a30de2250348-bundle","type":"transaction","entry":[{"fullUrl":"https://madie.cms.gov/Patient/18f63379-7018-44b8-bbe2-a30de2250348","resource":{"resourceType":"Patient","id":"18f63379-7018-44b8-bbe2-a30de2250348","meta":{"profile":["http://hl7.org/fhir/us/qicore/StructureDefinition/qicore-patient"]},"extension":[{"url":"http://hl7.org/fhir/us/core/StructureDefinition/us-core-race","extension":[{"url":"ombCategory","valueCoding":{"system":"urn:oid:2.16.840.1.113883.6.238","code":"2106-3","display":"White"}},{"url":"text","valueString":"White"}]},{"url":"http://hl7.org/fhir/us/core/StructureDefinition/us-core-ethnicity","extension":[{"url":"ombCategory","valueCoding":{"system":"urn:oid:2.16.840.1.113883.6.238","code":"2186-5","display":"Not Hispanic or Latino"}},{"url":"text","valueString":"Not Hispanic or Latino"}]}],"identifier":[{"type":{"coding":[{"system":"http://terminology.hl7.org/CodeSystem/v2-0203","code":"MR"}]},"system":"https://bonnie-fhir.healthit.gov/","value":"46431231346541"}],"active":true,"name":[{"use":"usual","family":"DENOMEXCEPFail","given":["BradycardiaDx1DayafterHFEncEdge"]}],"gender":"male","birthDate":"1971-12-30"},"request":{"method":"PUT","url":"Patient/18f63379-7018-44b8-bbe2-a30de2250348"}},{"fullUrl":"https://madie.cms.gov/Encounter/5c954de8b848462de0ae7670","resource":{"resourceType":"Encounter","id":"2a04d09b-7aa7-4325-986e-a4456a1a283a","meta":{"profile":["http://hl7.org/fhir/us/qicore/StructureDefinition/qicore-encounter"]},"status":"finished","class":{"system":"http://terminology.hl7.org/CodeSystem/v3-ActCode","code":"AMB","display":"ambulatory"},"type":[{"coding":[{"system":"http://www.ama-assn.org/go/cpt","version":"2024","code":"99213"}]}],"subject":{"reference":"Patient/18f63379-7018-44b8-bbe2-a30de2250348"},"period":{"start":"2025-04-14T14:40:00.000+00:00","end":"2025-04-14T14:50:00.000+00:00"},"length":{"value":0,"unit":"days"}},"request":{"method":"PUT","url":"Encounter/2a04d09b-7aa7-4325-986e-a4456a1a283a"}},{"fullUrl":"https://madie.cms.gov/Encounter/5c954de8b848462de0ae7671","resource":{"resourceType":"Encounter","id":"b2bd238d-87ed-42b3-ab97-9e2cf9444e76","meta":{"profile":["http://hl7.org/fhir/us/qicore/StructureDefinition/qicore-encounter"]},"status":"finished","class":{"system":"http://terminology.hl7.org/CodeSystem/v3-ActCode","code":"AMB","display":"ambulatory"},"type":[{"coding":[{"system":"http://www.ama-assn.org/go/cpt","version":"2024","code":"99212"}]}],"subject":{"reference":"Patient/18f63379-7018-44b8-bbe2-a30de2250348"},"period":{"start":"2025-07-20T11:50:00+00:00","end":"2025-07-20T11:50:00+00:00"},"length":{"value":0,"unit":"days"}},"request":{"method":"PUT","url":"Encounter/b2bd238d-87ed-42b3-ab97-9e2cf9444e76"}},{"fullUrl":"https://madie.cms.gov/Condition/5c954de8b848462de0ae766e","resource":{"resourceType":"Condition","id":"26ec102b-c353-4abb-8b71-21cfb56a5d99","meta":{"profile":["http://hl7.org/fhir/us/qicore/StructureDefinition/qicore-condition"]},"clinicalStatus":{"coding":[{"system":"http://terminology.hl7.org/CodeSystem/condition-clinical","code":"active","display":"Active"}]},"verificationStatus":{"coding":[{"system":"http://terminology.hl7.org/CodeSystem/condition-ver-status","code":"confirmed","display":"Confirmed"}]},"category":[{"coding":[{"system":"http://terminology.hl7.org/CodeSystem/condition-category","code":"problem-list-item","display":"Problem List Item"}]}],"code":{"coding":[{"system":"http://hl7.org/fhir/sid/icd-10-cm","version":"2024","code":"I11.0"}]},"subject":{"reference":"Patient/18f63379-7018-44b8-bbe2-a30de2250348"},"onsetPeriod":{"start":"2025-04-11T10:00:00+00:00"}},"request":{"method":"PUT","url":"Condition/26ec102b-c353-4abb-8b71-21cfb56a5d99"}},{"fullUrl":"https://madie.cms.gov/Condition/330150002","resource":{"resourceType":"Condition","id":"91ba2968-0cc0-4a82-934c-6f16badeeac2","meta":{"profile":["http://hl7.org/fhir/us/qicore/StructureDefinition/qicore-condition"]},"clinicalStatus":{"coding":[{"system":"http://terminology.hl7.org/CodeSystem/condition-clinical","code":"active","display":"Active"}]},"verificationStatus":{"coding":[{"system":"http://terminology.hl7.org/CodeSystem/condition-ver-status","code":"confirmed","display":"Confirmed"}]},"category":[{"coding":[{"system":"http://terminology.hl7.org/CodeSystem/condition-category","code":"problem-list-item","display":"Problem List Item"}]}],"severity":{"coding":[{"system":"http://snomed.info/sct","version":"http://snomed.info/sct/731000124108/version/20240301","code":"24484000","display":"Severe (severity modifier) (qualifier value)"}]},"code":{"coding":[{"system":"http://snomed.info/sct","version":"http://snomed.info/sct/731000124108/version/20240301","code":"134401001","display":"Left ventricular systolic dysfunction (disorder)"}]},"subject":{"reference":"Patient/18f63379-7018-44b8-bbe2-a30de2250348"},"onsetPeriod":{"start":"2025-04-14T14:41:00.000+00:00"}},"request":{"method":"PUT","url":"Condition/91ba2968-0cc0-4a82-934c-6f16badeeac2"}},{"fullUrl":"https://madie.cms.gov/Condition/293970004","resource":{"resourceType":"Condition","id":"11003ef8-34f9-491a-99e2-bbc19e89b1b0","meta":{"profile":["http://hl7.org/fhir/us/qicore/StructureDefinition/qicore-condition"]},"clinicalStatus":{"coding":[{"system":"http://terminology.hl7.org/CodeSystem/condition-clinical","code":"active","display":"Active"}]},"verificationStatus":{"coding":[{"system":"http://terminology.hl7.org/CodeSystem/condition-ver-status","code":"confirmed","display":"Confirmed"}]},"category":[{"coding":[{"system":"http://terminology.hl7.org/CodeSystem/condition-category","code":"problem-list-item","display":"Problem List Item"}]}],"code":{"coding":[{"system":"http://snomed.info/sct","version":"http://snomed.info/sct/731000124108/version/20240301","code":"49710005","display":"Sinus bradycardia (disorder)"}]},"subject":{"reference":"Patient/18f63379-7018-44b8-bbe2-a30de2250348"},"onsetPeriod":{"start":"2025-07-21T11:50:00+00:00"}},"request":{"method":"PUT","url":"Condition/11003ef8-34f9-491a-99e2-bbc19e89b1b0"}},{"fullUrl":"https://madie.cms.gov/MeasureReport/af78d1c5-069e-49dc-ad3c-3d82447c5c3e","resource":{"resourceType":"MeasureReport","id":"af78d1c5-069e-49dc-ad3c-3d82447c5c3e","meta":{"profile":["http://hl7.org/fhir/us/cqfmeasures/StructureDefinition/test-case-cqfm"]},"contained":[{"resourceType":"Parameters","id":"48d0a82b-fadf-4df7-a608-8c3855d4e192-parameters","parameter":[{"name":"subject","valueString":"18f63379-7018-44b8-bbe2-a30de2250348"}]}],"extension":[{"url":"http://hl7.org/fhir/us/cqfmeasures/StructureDefinition/cqfm-inputParameters","valueReference":{"reference":"#48d0a82b-fadf-4df7-a608-8c3855d4e192-parameters"}},{"url":"http://hl7.org/fhir/us/cqfmeasures/StructureDefinition/cqfm-testCaseDescription","valueMarkdown":"Patient with Bradycardia dx but fails Denominator Exception given onset is 1 day after Encounter Edge"}],"modifierExtension":[{"url":"http://hl7.org/fhir/us/cqfmeasures/StructureDefinition/cqfm-isTestCase","valueBoolean":true}],"status":"complete","type":"individual","measure":"https://madie.cms.gov/Measure/HFBetaBlockerTherapyforLVSDFHIR","period":{"start":"2025-01-01","end":"2025-12-31"},"group":[{"population":[{"code":{"coding":[{"system":"http://terminology.hl7.org/CodeSystem/measure-population","code":"initial-population","display":"Initial Population"}]},"count":1},{"code":{"coding":[{"system":"http://terminology.hl7.org/CodeSystem/measure-population","code":"denominator","display":"Denominator"}]},"count":1},{"code":{"coding":[{"system":"http://terminology.hl7.org/CodeSystem/measure-population","code":"denominator-exclusion","display":"Denominator Exclusion"}]},"count":0},{"code":{"coding":[{"system":"http://terminology.hl7.org/CodeSystem/measure-population","code":"numerator","display":"Numerator"}]},"count":0},{"code":{"coding":[{"system":"http://terminology.hl7.org/CodeSystem/measure-population","code":"denominator-exception","display":"Denominator Exception"}]},"count":0}]}]},"request":{"method":"PUT","url":"MeasureReport/af78d1c5-069e-49dc-ad3c-3d82447c5c3e"}}]}