{"resourceType":"Bundle","id":"tests-c27d8bc0-1d78-4321-a25b-0a202318ffb2-bundle","type":"transaction","entry":[{"fullUrl":"https://madie.cms.gov/Patient/c27d8bc0-1d78-4321-a25b-0a202318ffb2","resource":{"resourceType":"Patient","id":"c27d8bc0-1d78-4321-a25b-0a202318ffb2","meta":{"profile":["http://hl7.org/fhir/us/qicore/StructureDefinition/qicore-patient"]},"extension":[{"url":"http://hl7.org/fhir/us/core/StructureDefinition/us-core-race","extension":[{"url":"ombCategory","valueCoding":{"system":"urn:oid:2.16.840.1.113883.6.238","code":"1002-5","display":"American Indian or Alaska Native"}},{"url":"text","valueString":"American Indian or Alaska Native"}]},{"url":"http://hl7.org/fhir/us/core/StructureDefinition/us-core-ethnicity","extension":[{"url":"ombCategory","valueCoding":{"system":"urn:oid:2.16.840.1.113883.6.238","code":"2135-2","display":"Hispanic or Latino"}},{"url":"text","valueString":"Hispanic or Latino"}]}],"identifier":[{"type":{"coding":[{"system":"http://terminology.hl7.org/CodeSystem/v2-0203","code":"MR"}]},"system":"https://bonnie-fhir.healthit.gov/","value":"645646313131"}],"name":[{"family":"DENEXFail","given":["LVADCndtnAfterEnctr"]}],"gender":"female","birthDate":"1982-07-27"},"request":{"method":"PUT","url":"Patient/c27d8bc0-1d78-4321-a25b-0a202318ffb2"}},{"fullUrl":"https://madie.cms.gov/Encounter/51313134131","resource":{"resourceType":"Encounter","id":"2f690da1-cbdd-4353-818b-b02edf0483c6","meta":{"profile":["http://hl7.org/fhir/us/qicore/StructureDefinition/qicore-encounter"]},"status":"finished","class":{"system":"http://terminology.hl7.org/CodeSystem/v3-ActCode","code":"AMB","display":"ambulatory"},"type":[{"coding":[{"system":"http://snomed.info/sct","version":"http://snomed.info/sct/731000124108/version/20240301","code":"185463005","display":"Visit out of hours (procedure)"}]}],"subject":{"reference":"Patient/c27d8bc0-1d78-4321-a25b-0a202318ffb2"},"period":{"start":"2025-02-27T08:00:00.000+00:00","end":"2025-02-27T08:15:00.000+00:00"}},"request":{"method":"PUT","url":"Encounter/2f690da1-cbdd-4353-818b-b02edf0483c6"}},{"fullUrl":"https://madie.cms.gov/Encounter/4163513131","resource":{"resourceType":"Encounter","id":"7f2f18d3-ec5b-4623-8d3e-400b33037dbf","meta":{"profile":["http://hl7.org/fhir/us/qicore/StructureDefinition/qicore-encounter"]},"status":"finished","class":{"system":"http://terminology.hl7.org/CodeSystem/v3-ActCode","code":"AMB","display":"ambulatory"},"type":[{"coding":[{"system":"http://snomed.info/sct","version":"http://snomed.info/sct/731000124108/version/20240301","code":"185463005","display":"Visit out of hours (procedure)"}]}],"subject":{"reference":"Patient/c27d8bc0-1d78-4321-a25b-0a202318ffb2"},"period":{"start":"2025-06-12T08:00:00.000+00:00","end":"2025-06-12T08:15:00.000+00:00"}},"request":{"method":"PUT","url":"Encounter/7f2f18d3-ec5b-4623-8d3e-400b33037dbf"}},{"fullUrl":"https://madie.cms.gov/Condition/78431354","resource":{"resourceType":"Condition","id":"fb198c2d-c3ea-4960-a709-eb4a6b895038","meta":{"profile":["http://hl7.org/fhir/us/qicore/StructureDefinition/qicore-condition"]},"clinicalStatus":{"coding":[{"system":"http://terminology.hl7.org/CodeSystem/condition-clinical","code":"active","display":"Active"}]},"verificationStatus":{"coding":[{"system":"http://terminology.hl7.org/CodeSystem/condition-ver-status","code":"confirmed","display":"Confirmed"}]},"category":[{"coding":[{"system":"http://terminology.hl7.org/CodeSystem/condition-category","code":"problem-list-item","display":"problem list item"}]}],"severity":{"coding":[{"system":"http://snomed.info/sct","version":"http://snomed.info/sct/731000124108/version/20240301","code":"24484000","display":"Severe (severity modifier) (qualifier value)"}]},"code":{"coding":[{"system":"http://snomed.info/sct","version":"http://snomed.info/sct/731000124108/version/20240301","code":"134401001","display":"Left ventricular systolic dysfunction (disorder)"}]},"subject":{"reference":"Patient/c27d8bc0-1d78-4321-a25b-0a202318ffb2"},"onsetPeriod":{"start":"2025-02-18T08:00:00.000+00:00","end":"2025-02-18T08:15:00.000+00:00"}},"request":{"method":"PUT","url":"Condition/fb198c2d-c3ea-4960-a709-eb4a6b895038"}},{"fullUrl":"https://madie.cms.gov/Condition/5431313131","resource":{"resourceType":"Condition","id":"2ffe451a-d507-4ea3-bb90-6a2448a5019f","meta":{"profile":["http://hl7.org/fhir/us/qicore/StructureDefinition/qicore-condition"]},"clinicalStatus":{"coding":[{"system":"http://terminology.hl7.org/CodeSystem/condition-clinical","code":"active","display":"Active"}]},"verificationStatus":{"coding":[{"system":"http://terminology.hl7.org/CodeSystem/condition-ver-status","code":"confirmed","display":"Confirmed"}]},"category":[{"coding":[{"system":"http://terminology.hl7.org/CodeSystem/condition-category","code":"problem-list-item","display":"problem list item"}]}],"code":{"coding":[{"system":"http://snomed.info/sct","version":"http://snomed.info/sct/731000124108/version/20240301","code":"10091002","display":"High output heart failure (disorder)"}]},"subject":{"reference":"Patient/c27d8bc0-1d78-4321-a25b-0a202318ffb2"},"onsetPeriod":{"start":"2025-02-22T08:00:00.000+00:00"}},"request":{"method":"PUT","url":"Condition/2ffe451a-d507-4ea3-bb90-6a2448a5019f"}},{"fullUrl":"https://madie.cms.gov/Procedure/746413123485","resource":{"resourceType":"Procedure","id":"e86a856b-7cac-42ac-a7e3-8e6b90004ae8","meta":{"profile":["http://hl7.org/fhir/us/qicore/StructureDefinition/qicore-procedure"]},"extension":[{"url":"http://hl7.org/fhir/us/qicore/StructureDefinition/qicore-recorded","valueDateTime":"2025-01-31T08:00:00.000+00:00"}],"status":"completed","code":{"coding":[{"system":"http://snomed.info/sct","version":"http://snomed.info/sct/731000124108/version/20240301","code":"232967006","display":"Implantation of left ventricular assist device (procedure)"}]},"subject":{"reference":"Patient/c27d8bc0-1d78-4321-a25b-0a202318ffb2"},"performedPeriod":{"start":"2025-09-30T08:00:00.000+00:00"}},"request":{"method":"PUT","url":"Procedure/e86a856b-7cac-42ac-a7e3-8e6b90004ae8"}},{"fullUrl":"https://madie.cms.gov/MeasureReport/61710700-08da-4b6a-b0d7-d902be276652","resource":{"resourceType":"MeasureReport","id":"61710700-08da-4b6a-b0d7-d902be276652","meta":{"profile":["http://hl7.org/fhir/us/cqfmeasures/StructureDefinition/test-case-cqfm"]},"contained":[{"resourceType":"Parameters","id":"9839bb02-39e7-4c00-a4a6-0b9baa220ae3-parameters","parameter":[{"name":"subject","valueString":"c27d8bc0-1d78-4321-a25b-0a202318ffb2"}]}],"extension":[{"url":"http://hl7.org/fhir/us/cqfmeasures/StructureDefinition/cqfm-inputParameters","valueReference":{"reference":"#9839bb02-39e7-4c00-a4a6-0b9baa220ae3-parameters"}},{"url":"http://hl7.org/fhir/us/cqfmeasures/StructureDefinition/cqfm-testCaseDescription","valueMarkdown":"Patient with LVAD related condition after encounter. Patient included due to documentation of LVAD after encounter."}],"modifierExtension":[{"url":"http://hl7.org/fhir/us/cqfmeasures/StructureDefinition/cqfm-isTestCase","valueBoolean":true}],"status":"complete","type":"individual","measure":"https://madie.cms.gov/Measure/HFBetaBlockerTherapyforLVSDFHIR","period":{"start":"2025-01-01","end":"2025-12-31"},"group":[{"population":[{"code":{"coding":[{"system":"http://terminology.hl7.org/CodeSystem/measure-population","code":"initial-population","display":"Initial Population"}]},"count":1},{"code":{"coding":[{"system":"http://terminology.hl7.org/CodeSystem/measure-population","code":"denominator","display":"Denominator"}]},"count":1},{"code":{"coding":[{"system":"http://terminology.hl7.org/CodeSystem/measure-population","code":"denominator-exclusion","display":"Denominator Exclusion"}]},"count":0},{"code":{"coding":[{"system":"http://terminology.hl7.org/CodeSystem/measure-population","code":"numerator","display":"Numerator"}]},"count":0},{"code":{"coding":[{"system":"http://terminology.hl7.org/CodeSystem/measure-population","code":"denominator-exception","display":"Denominator Exception"}]},"count":0}]}]},"request":{"method":"PUT","url":"MeasureReport/61710700-08da-4b6a-b0d7-d902be276652"}}]}