{"resourceType":"Bundle","id":"tests-23e5040b-3043-4801-b5cd-2a595fcdd665-bundle","type":"transaction","entry":[{"fullUrl":"https://madie.cms.gov/Patient/23e5040b-3043-4801-b5cd-2a595fcdd665","resource":{"resourceType":"Patient","id":"23e5040b-3043-4801-b5cd-2a595fcdd665","meta":{"profile":["http://hl7.org/fhir/us/qicore/StructureDefinition/qicore-patient"]},"extension":[{"url":"http://hl7.org/fhir/us/core/StructureDefinition/us-core-race","extension":[{"url":"ombCategory","valueCoding":{"system":"urn:oid:2.16.840.1.113883.6.238","code":"2054-5","display":"Black or African American"}},{"url":"text","valueString":"Black or African American"}]},{"url":"http://hl7.org/fhir/us/core/StructureDefinition/us-core-ethnicity","extension":[{"url":"ombCategory","valueCoding":{"system":"urn:oid:2.16.840.1.113883.6.238","code":"2186-5","display":"Not Hispanic or Latino"}},{"url":"text","valueString":"Not Hispanic or Latino"}]}],"identifier":[{"type":{"coding":[{"system":"http://terminology.hl7.org/CodeSystem/v2-0203","code":"MR"}]},"system":"https://bonnie-fhir.healthit.gov/","value":"1351313131"}],"active":true,"name":[{"use":"usual","family":"DENEXCEPPass","given":["ArrhythmiaDxBeforeLastEnc"]}],"gender":"male","birthDate":"1947-02-03"},"request":{"method":"PUT","url":"Patient/23e5040b-3043-4801-b5cd-2a595fcdd665"}},{"fullUrl":"https://madie.cms.gov/Encounter/4643513434","resource":{"resourceType":"Encounter","id":"b2ccdcaf-31d6-4fa6-b013-719bb985c025","meta":{"profile":["http://hl7.org/fhir/us/qicore/StructureDefinition/qicore-encounter"]},"status":"finished","class":{"system":"http://terminology.hl7.org/CodeSystem/v3-ActCode","code":"AMB","display":"ambulatory"},"type":[{"coding":[{"system":"http://www.ama-assn.org/go/cpt","version":"2024","code":"99213"}]}],"subject":{"reference":"Patient/23e5040b-3043-4801-b5cd-2a595fcdd665"},"period":{"start":"2025-05-25T14:20:00.000+00:00","end":"2025-05-25T14:40:00.000+00:00"}},"request":{"method":"PUT","url":"Encounter/b2ccdcaf-31d6-4fa6-b013-719bb985c025"}},{"fullUrl":"https://madie.cms.gov/Encounter/546313131631","resource":{"resourceType":"Encounter","id":"acac3f45-9a07-4f7e-82ab-66abc1c35e56","meta":{"profile":["http://hl7.org/fhir/us/qicore/StructureDefinition/qicore-encounter"]},"status":"finished","class":{"system":"http://terminology.hl7.org/CodeSystem/v3-ActCode","code":"AMB","display":"ambulatory"},"type":[{"coding":[{"system":"http://www.ama-assn.org/go/cpt","version":"2024","code":"99212"}]}],"subject":{"reference":"Patient/23e5040b-3043-4801-b5cd-2a595fcdd665"},"period":{"start":"2025-09-05T15:30:00.000+00:00","end":"2025-09-05T15:50:00.000+00:00"}},"request":{"method":"PUT","url":"Encounter/acac3f45-9a07-4f7e-82ab-66abc1c35e56"}},{"fullUrl":"https://madie.cms.gov/Condition/1316343131","resource":{"resourceType":"Condition","id":"a15aba25-f6cd-475b-b9a2-d56382ab9a59","meta":{"profile":["http://hl7.org/fhir/us/qicore/StructureDefinition/qicore-condition"]},"clinicalStatus":{"coding":[{"system":"http://terminology.hl7.org/CodeSystem/condition-clinical","code":"active","display":"active"}]},"verificationStatus":{"coding":[{"system":"http://terminology.hl7.org/CodeSystem/condition-ver-status","code":"confirmed","display":"Confirmed"}]},"category":[{"coding":[{"system":"http://terminology.hl7.org/CodeSystem/condition-category","code":"problem-list-item","display":"problem list item"}]}],"code":{"coding":[{"system":"http://snomed.info/sct","version":"http://snomed.info/sct/731000124108/version/20240301","code":"364006"}]},"subject":{"reference":"Patient/23e5040b-3043-4801-b5cd-2a595fcdd665"},"onsetPeriod":{"start":"2025-06-27T10:00:00.000+00:00"}},"request":{"method":"PUT","url":"Condition/a15aba25-f6cd-475b-b9a2-d56382ab9a59"}},{"fullUrl":"https://madie.cms.gov/Condition/9873131313","resource":{"resourceType":"Condition","id":"5e45e0c7-38bf-47d4-8679-74be9804cd10","meta":{"profile":["http://hl7.org/fhir/us/qicore/StructureDefinition/qicore-condition"]},"clinicalStatus":{"coding":[{"system":"http://terminology.hl7.org/CodeSystem/condition-clinical","code":"active","display":"active"}]},"verificationStatus":{"coding":[{"system":"http://terminology.hl7.org/CodeSystem/condition-ver-status","code":"confirmed","display":"Confirmed"}]},"category":[{"coding":[{"system":"http://terminology.hl7.org/CodeSystem/condition-category","code":"problem-list-item","display":"problem list item"}]}],"severity":{"coding":[{"system":"http://snomed.info/sct","version":"http://snomed.info/sct/731000124108/version/20240301","code":"24484000","display":"Severe (severity modifier) (qualifier value)"}]},"code":{"coding":[{"system":"http://snomed.info/sct","version":"http://snomed.info/sct/731000124108/version/20240301","code":"134401001","display":"Left ventricular systolic dysfunction (disorder)"}]},"subject":{"reference":"Patient/23e5040b-3043-4801-b5cd-2a595fcdd665"},"onsetPeriod":{"start":"2025-08-11T23:50:00+00:00"}},"request":{"method":"PUT","url":"Condition/5e45e0c7-38bf-47d4-8679-74be9804cd10"}},{"fullUrl":"https://madie.cms.gov/Observation/5463131313","resource":{"resourceType":"Observation","id":"e04143fb-d1e9-462e-815e-aade15589d66","meta":{"profile":["http://hl7.org/fhir/StructureDefinition/heartrate"]},"status":"final","category":[{"coding":[{"system":"http://terminology.hl7.org/CodeSystem/observation-category","code":"imaging","display":"Imaging"}]},{"coding":[{"system":"http://terminology.hl7.org/CodeSystem/observation-category","code":"vital-signs","display":"Vital signs"}]}],"code":{"coding":[{"system":"http://loinc.org","version":"2.76","code":"8867-4"}]},"subject":{"reference":"Patient/23e5040b-3043-4801-b5cd-2a595fcdd665"},"effectiveDateTime":"2025-09-05T15:40:00.000+00:00","valueQuantity":{"value":30,"unit":"/min","system":"http://unitsofmeasure.org","code":"/min"}},"request":{"method":"PUT","url":"Observation/e04143fb-d1e9-462e-815e-aade15589d66"}},{"fullUrl":"https://madie.cms.gov/Condition/1316345000","resource":{"resourceType":"Condition","id":"bc8318b4-915b-4b3d-9252-bd182af98c18","meta":{"profile":["http://hl7.org/fhir/us/qicore/StructureDefinition/qicore-condition"]},"clinicalStatus":{"coding":[{"system":"http://terminology.hl7.org/CodeSystem/condition-clinical","code":"active","display":"active"}]},"verificationStatus":{"coding":[{"system":"http://terminology.hl7.org/CodeSystem/condition-ver-status","code":"confirmed","display":"Confirmed"}]},"category":[{"coding":[{"system":"http://terminology.hl7.org/CodeSystem/condition-category","code":"problem-list-item","display":"problem list item"}]}],"code":{"coding":[{"system":"http://snomed.info/sct","version":"http://snomed.info/sct/731000124108/version/20240301","code":"11849007","display":"Atrioventricular junctional rhythm (disorder)"}]},"subject":{"reference":"Patient/23e5040b-3043-4801-b5cd-2a595fcdd665"},"onsetPeriod":{"start":"2025-06-27T10:00:00.000+00:00"}},"request":{"method":"PUT","url":"Condition/bc8318b4-915b-4b3d-9252-bd182af98c18"}},{"fullUrl":"https://madie.cms.gov/Observation/5413131313","resource":{"resourceType":"Observation","id":"558b314c-7506-448b-9209-070e745b5724","meta":{"profile":["http://hl7.org/fhir/StructureDefinition/heartrate"]},"status":"final","category":[{"coding":[{"system":"http://terminology.hl7.org/CodeSystem/observation-category","code":"imaging","display":"Imaging"}]},{"coding":[{"system":"http://terminology.hl7.org/CodeSystem/observation-category","code":"vital-signs","display":"Vital signs"}]}],"code":{"coding":[{"system":"http://loinc.org","version":"2.76","code":"8867-4"}]},"subject":{"reference":"Patient/23e5040b-3043-4801-b5cd-2a595fcdd665"},"effectiveDateTime":"2025-09-05T15:35:00.000+00:00","valueQuantity":{"value":30,"unit":"/min","system":"http://unitsofmeasure.org","code":"/min"}},"request":{"method":"PUT","url":"Observation/558b314c-7506-448b-9209-070e745b5724"}},{"fullUrl":"https://madie.cms.gov/MeasureReport/98ed0885-20c5-484c-a5c4-abd1aead77b1","resource":{"resourceType":"MeasureReport","id":"98ed0885-20c5-484c-a5c4-abd1aead77b1","meta":{"profile":["http://hl7.org/fhir/us/cqfmeasures/StructureDefinition/test-case-cqfm"]},"contained":[{"resourceType":"Parameters","id":"6d412116-057f-470a-8d29-2ca8a4f36df2-parameters","parameter":[{"name":"subject","valueString":"23e5040b-3043-4801-b5cd-2a595fcdd665"}]}],"extension":[{"url":"http://hl7.org/fhir/us/cqfmeasures/StructureDefinition/cqfm-inputParameters","valueReference":{"reference":"#6d412116-057f-470a-8d29-2ca8a4f36df2-parameters"}},{"url":"http://hl7.org/fhir/us/cqfmeasures/StructureDefinition/cqfm-testCaseDescription","valueMarkdown":"Patient with arrhythmia starting before last encounter in measurement period. Patient excepted due to arrhythmia diagnosis before last encounter."}],"modifierExtension":[{"url":"http://hl7.org/fhir/us/cqfmeasures/StructureDefinition/cqfm-isTestCase","valueBoolean":true}],"status":"complete","type":"individual","measure":"https://madie.cms.gov/Measure/HFBetaBlockerTherapyforLVSDFHIR","period":{"start":"2025-01-01","end":"2025-12-31"},"group":[{"population":[{"code":{"coding":[{"system":"http://terminology.hl7.org/CodeSystem/measure-population","code":"initial-population","display":"Initial Population"}]},"count":1},{"code":{"coding":[{"system":"http://terminology.hl7.org/CodeSystem/measure-population","code":"denominator","display":"Denominator"}]},"count":1},{"code":{"coding":[{"system":"http://terminology.hl7.org/CodeSystem/measure-population","code":"denominator-exclusion","display":"Denominator Exclusion"}]},"count":0},{"code":{"coding":[{"system":"http://terminology.hl7.org/CodeSystem/measure-population","code":"numerator","display":"Numerator"}]},"count":0},{"code":{"coding":[{"system":"http://terminology.hl7.org/CodeSystem/measure-population","code":"denominator-exception","display":"Denominator Exception"}]},"count":1}]}]},"request":{"method":"PUT","url":"MeasureReport/98ed0885-20c5-484c-a5c4-abd1aead77b1"}}]}