{"resourceType":"Bundle","id":"tests-6ea819cf-ad33-424b-9d33-f5a6e67755e0-bundle","type":"transaction","entry":[{"fullUrl":"https://madie.cms.gov/Patient/6ea819cf-ad33-424b-9d33-f5a6e67755e0","resource":{"resourceType":"Patient","id":"6ea819cf-ad33-424b-9d33-f5a6e67755e0","meta":{"profile":["http://hl7.org/fhir/us/qicore/StructureDefinition/qicore-patient"]},"extension":[{"url":"http://hl7.org/fhir/us/core/StructureDefinition/us-core-race","extension":[{"url":"ombCategory","valueCoding":{"system":"urn:oid:2.16.840.1.113883.6.238","code":"2054-5","display":"Black or African American"}},{"url":"text","valueString":"Black or African American"}]},{"url":"http://hl7.org/fhir/us/core/StructureDefinition/us-core-ethnicity","extension":[{"url":"ombCategory","valueCoding":{"system":"urn:oid:2.16.840.1.113883.6.238","code":"2186-5","display":"Not Hispanic or Latino"}},{"url":"text","valueString":"Not Hispanic or Latino"}]}],"identifier":[{"type":{"coding":[{"system":"http://terminology.hl7.org/CodeSystem/v2-0203","code":"MR"}]},"system":"https://bonnie-fhir.healthit.gov/","value":"1313143543131"}],"active":true,"name":[{"use":"usual","family":"DENEXCEPFail","given":["ArrhythmiaAfterLastEnc"]}],"gender":"male","birthDate":"1947-02-03"},"request":{"method":"PUT","url":"Patient/6ea819cf-ad33-424b-9d33-f5a6e67755e0"}},{"fullUrl":"https://madie.cms.gov/Encounter/9648631313463","resource":{"resourceType":"Encounter","id":"678cbf1d-16ac-4ec8-b070-f4207dccf5de","meta":{"profile":["http://hl7.org/fhir/us/qicore/StructureDefinition/qicore-encounter"]},"status":"finished","class":{"system":"http://terminology.hl7.org/CodeSystem/v3-ActCode","code":"AMB","display":"ambulatory"},"type":[{"coding":[{"system":"http://www.ama-assn.org/go/cpt","version":"2024","code":"99213"}]}],"subject":{"reference":"Patient/6ea819cf-ad33-424b-9d33-f5a6e67755e0"},"period":{"start":"2025-05-25T14:20:00.000+00:00","end":"2025-05-25T14:40:00.000+00:00"}},"request":{"method":"PUT","url":"Encounter/678cbf1d-16ac-4ec8-b070-f4207dccf5de"}},{"fullUrl":"https://madie.cms.gov/Encounter/6463131343","resource":{"resourceType":"Encounter","id":"e16b8b82-24a4-455d-bfe3-9d0c776bc3b2","meta":{"profile":["http://hl7.org/fhir/us/qicore/StructureDefinition/qicore-encounter"]},"status":"finished","class":{"system":"http://terminology.hl7.org/CodeSystem/v3-ActCode","code":"AMB","display":"ambulatory"},"type":[{"coding":[{"system":"http://www.ama-assn.org/go/cpt","version":"2024","code":"99212"}]}],"subject":{"reference":"Patient/6ea819cf-ad33-424b-9d33-f5a6e67755e0"},"period":{"start":"2025-09-05T23:30:00.000+00:00","end":"2025-09-06T11:50:00.000+00:00"}},"request":{"method":"PUT","url":"Encounter/e16b8b82-24a4-455d-bfe3-9d0c776bc3b2"}},{"fullUrl":"https://madie.cms.gov/Condition/341313135131","resource":{"resourceType":"Condition","id":"0b133ff6-f858-449a-92d6-d1b953c66814","meta":{"profile":["http://hl7.org/fhir/us/qicore/StructureDefinition/qicore-condition"]},"clinicalStatus":{"coding":[{"system":"http://terminology.hl7.org/CodeSystem/condition-clinical","code":"active","display":"active"}]},"verificationStatus":{"coding":[{"system":"http://terminology.hl7.org/CodeSystem/condition-ver-status","code":"confirmed","display":"Confirmed"}]},"category":[{"coding":[{"system":"http://terminology.hl7.org/CodeSystem/condition-category","code":"problem-list-item","display":"problem list item"}]}],"code":{"coding":[{"system":"http://snomed.info/sct","version":"http://snomed.info/sct/731000124108/version/20240301","code":"364006"}]},"subject":{"reference":"Patient/6ea819cf-ad33-424b-9d33-f5a6e67755e0"},"onsetPeriod":{"start":"2025-06-27T10:00:00.000+00:00"}},"request":{"method":"PUT","url":"Condition/0b133ff6-f858-449a-92d6-d1b953c66814"}},{"fullUrl":"https://madie.cms.gov/Condition/541641313161","resource":{"resourceType":"Condition","id":"7bc5f53b-a0b1-4977-bc7c-3f9a2d968a53","meta":{"profile":["http://hl7.org/fhir/us/qicore/StructureDefinition/qicore-condition"]},"clinicalStatus":{"coding":[{"system":"http://terminology.hl7.org/CodeSystem/condition-clinical","code":"active","display":"active"}]},"verificationStatus":{"coding":[{"system":"http://terminology.hl7.org/CodeSystem/condition-ver-status","code":"confirmed","display":"Confirmed"}]},"category":[{"coding":[{"system":"http://terminology.hl7.org/CodeSystem/condition-category","code":"problem-list-item","display":"problem list item"}]}],"severity":{"coding":[{"system":"http://snomed.info/sct","version":"http://snomed.info/sct/731000124108/version/20240301","code":"24484000","display":"Severe (severity modifier) (qualifier value)"}]},"code":{"coding":[{"system":"http://snomed.info/sct","version":"http://snomed.info/sct/731000124108/version/20240301","code":"134401001","display":"Left ventricular systolic dysfunction (disorder)"}]},"subject":{"reference":"Patient/6ea819cf-ad33-424b-9d33-f5a6e67755e0"},"onsetPeriod":{"start":"2025-08-11T23:50:00+00:00"}},"request":{"method":"PUT","url":"Condition/7bc5f53b-a0b1-4977-bc7c-3f9a2d968a53"}},{"fullUrl":"https://madie.cms.gov/Observation/461316316313","resource":{"resourceType":"Observation","id":"b4461b6f-b0ff-46eb-8bfd-b81adf292cb1","meta":{"profile":["http://hl7.org/fhir/StructureDefinition/heartrate"]},"status":"final","category":[{"coding":[{"system":"http://terminology.hl7.org/CodeSystem/observation-category","code":"imaging","display":"Imaging"}]},{"coding":[{"system":"http://terminology.hl7.org/CodeSystem/observation-category","code":"vital-signs","display":"Vital signs"}]}],"code":{"coding":[{"system":"http://loinc.org","version":"2.76","code":"8867-4"}]},"subject":{"reference":"Patient/6ea819cf-ad33-424b-9d33-f5a6e67755e0"},"effectiveDateTime":"2025-09-05T11:50:00.000+00:00","valueQuantity":{"value":30,"unit":"/min","system":"http://unitsofmeasure.org","code":"/min"}},"request":{"method":"PUT","url":"Observation/b4461b6f-b0ff-46eb-8bfd-b81adf292cb1"}},{"fullUrl":"https://madie.cms.gov/MeasureReport/4b25aad0-d80b-4089-8a4e-5eac2da6e973","resource":{"resourceType":"MeasureReport","id":"4b25aad0-d80b-4089-8a4e-5eac2da6e973","meta":{"profile":["http://hl7.org/fhir/us/cqfmeasures/StructureDefinition/test-case-cqfm"]},"contained":[{"resourceType":"Parameters","id":"c38e8fd8-c5d8-4aa1-8db4-879a32baa269-parameters","parameter":[{"name":"subject","valueString":"6ea819cf-ad33-424b-9d33-f5a6e67755e0"}]}],"extension":[{"url":"http://hl7.org/fhir/us/cqfmeasures/StructureDefinition/cqfm-inputParameters","valueReference":{"reference":"#c38e8fd8-c5d8-4aa1-8db4-879a32baa269-parameters"}},{"url":"http://hl7.org/fhir/us/cqfmeasures/StructureDefinition/cqfm-testCaseDescription","valueMarkdown":"Patient with arrhythmia starting after last encounter in measurement period. Patient not excepted due to arrhythmia diagnosis after encounter."}],"modifierExtension":[{"url":"http://hl7.org/fhir/us/cqfmeasures/StructureDefinition/cqfm-isTestCase","valueBoolean":true}],"status":"complete","type":"individual","measure":"https://madie.cms.gov/Measure/HFBetaBlockerTherapyforLVSDFHIR","period":{"start":"2025-01-01","end":"2025-12-31"},"group":[{"population":[{"code":{"coding":[{"system":"http://terminology.hl7.org/CodeSystem/measure-population","code":"initial-population","display":"Initial Population"}]},"count":1},{"code":{"coding":[{"system":"http://terminology.hl7.org/CodeSystem/measure-population","code":"denominator","display":"Denominator"}]},"count":1},{"code":{"coding":[{"system":"http://terminology.hl7.org/CodeSystem/measure-population","code":"denominator-exclusion","display":"Denominator Exclusion"}]},"count":0},{"code":{"coding":[{"system":"http://terminology.hl7.org/CodeSystem/measure-population","code":"numerator","display":"Numerator"}]},"count":0},{"code":{"coding":[{"system":"http://terminology.hl7.org/CodeSystem/measure-population","code":"denominator-exception","display":"Denominator Exception"}]},"count":0}]}]},"request":{"method":"PUT","url":"MeasureReport/4b25aad0-d80b-4089-8a4e-5eac2da6e973"}}]}