{"resourceType":"Bundle","id":"tests-1a1411f1-a9f1-4b4c-b722-d0558b95a8df-bundle","type":"transaction","entry":[{"fullUrl":"https://madie.cms.gov/Patient/1a1411f1-a9f1-4b4c-b722-d0558b95a8df","resource":{"resourceType":"Patient","id":"1a1411f1-a9f1-4b4c-b722-d0558b95a8df","meta":{"profile":["http://hl7.org/fhir/us/qicore/StructureDefinition/qicore-patient"]},"text":{"status":"generated","div":"<div xmlns=\"http://www.w3.org/1999/xhtml\"><div class=\"hapiHeaderText\">LastAssPrfEGAResultQuantityEQ21 <b>DENOMPASS </b></div><table class=\"hapiPropertyTable\"><tbody><tr><td>Date of birth</td><td><span>01 February 2004</span></td></tr></tbody></table></div>"},"extension":[{"url":"http://hl7.org/fhir/us/core/StructureDefinition/us-core-race","extension":[{"url":"ombCategory","valueCoding":{"system":"urn:oid:2.16.840.1.113883.6.238","code":"1002-5","display":"American Indian or Alaska Native","userSelected":true}},{"url":"text","valueString":"American Indian or Alaska Native"}]},{"url":"http://hl7.org/fhir/us/core/StructureDefinition/us-core-ethnicity","extension":[{"url":"ombCategory","valueCoding":{"system":"urn:oid:2.16.840.1.113883.6.238","code":"2135-2","display":"Hispanic or Latino","userSelected":true}},{"url":"text","valueString":"Hispanic or Latino"}]}],"identifier":[{"type":{"coding":[{"system":"http://terminology.hl7.org/CodeSystem/v2-0203","code":"MR"}]},"system":"https://bonnie-fhir.healthit.gov/","value":"633b3f9f0968f80122503ce2"}],"active":true,"name":[{"use":"usual","family":"DENOMPass","given":["LastAssPrfEGAResultQuantityEQ21"]}],"gender":"female","birthDate":"2016-02-01"},"request":{"method":"PUT","url":"Patient/1a1411f1-a9f1-4b4c-b722-d0558b95a8df"}},{"fullUrl":"https://madie.cms.gov/Observation/5f29baa26f0b7100008d8af1","resource":{"resourceType":"Observation","id":"9c42a2f8-83b4-4a77-8dd6-fd6f04982799","meta":{"profile":["http://hl7.org/fhir/us/qicore/StructureDefinition/qicore-observation"]},"status":"final","category":[{"coding":[{"system":"http://terminology.hl7.org/CodeSystem/observation-category","code":"exam","display":"exam","userSelected":true}]}],"code":{"coding":[{"system":"http://loinc.org","code":"93857-1"}]},"subject":{"reference":"Patient/1a1411f1-a9f1-4b4c-b722-d0558b95a8df"},"effectiveDateTime":"2025-02-01T08:00:00.000+00:00","valueDateTime":"2025-02-01T08:00:00+00:00"},"request":{"method":"PUT","url":"Observation/9c42a2f8-83b4-4a77-8dd6-fd6f04982799"}},{"fullUrl":"https://madie.cms.gov/Observation/5f32bf4551476200007ab6d3","resource":{"resourceType":"Observation","id":"1a576ffa-63c3-4ebc-9fef-eb72ec437012","meta":{"profile":["http://hl7.org/fhir/us/qicore/StructureDefinition/qicore-observation"]},"status":"final","category":[{"coding":[{"system":"http://terminology.hl7.org/CodeSystem/observation-category","code":"exam","display":"exam","userSelected":true}]}],"code":{"coding":[{"system":"http://loinc.org","code":"11884-4"}]},"subject":{"reference":"Patient/1a1411f1-a9f1-4b4c-b722-d0558b95a8df"},"effectiveDateTime":"2025-02-01T08:00:00.000+00:00","valueQuantity":{"value":20.0,"unit":"wk"}},"request":{"method":"PUT","url":"Observation/1a576ffa-63c3-4ebc-9fef-eb72ec437012"}},{"fullUrl":"https://madie.cms.gov/Encounter/5f21e66daca3e40000cb86cf","resource":{"resourceType":"Encounter","id":"9b34b7fe-c040-48b4-8295-16ebf48b3b99","meta":{"profile":["http://hl7.org/fhir/us/qicore/StructureDefinition/qicore-encounter"]},"status":"finished","class":{"system":"http://terminology.hl7.org/CodeSystem/v3-ActCode","code":"IMP","display":"inpatient encounter"},"type":[{"coding":[{"system":"http://snomed.info/sct","code":"183452005"}]}],"subject":{"reference":"Patient/1a1411f1-a9f1-4b4c-b722-d0558b95a8df"},"period":{"start":"2025-02-01T08:00:00.000Z","end":"2025-02-05T08:15:00.000Z"}},"request":{"method":"PUT","url":"Encounter/9b34b7fe-c040-48b4-8295-16ebf48b3b99"}},{"fullUrl":"https://madie.cms.gov/Procedure/5f21e716aca3e40000cb87ee","resource":{"resourceType":"Procedure","id":"da3df247-0c0b-4ae5-a507-b5638a1e655f","meta":{"profile":["http://hl7.org/fhir/us/qicore/StructureDefinition/qicore-procedure"]},"extension":[{"url":"http://hl7.org/fhir/us/qicore/StructureDefinition/qicore-recorded","valueDateTime":"2013-04-05T09:35:00-04:00"}],"status":"completed","code":{"coding":[{"system":"http://snomed.info/sct","code":"10745001"}]},"subject":{"reference":"Patient/1a1411f1-a9f1-4b4c-b722-d0558b95a8df"},"performedPeriod":{"start":"2025-02-01T08:00:00.000Z","end":"2025-02-05T08:15:00.000Z"}},"request":{"method":"PUT","url":"Procedure/da3df247-0c0b-4ae5-a507-b5638a1e655f"}},{"fullUrl":"https://madie.cms.gov/Coverage/1","resource":{"resourceType":"Coverage","id":"bcb9c8f2-5460-42f4-be34-741bf2f07074","meta":{"profile":["http://hl7.org/fhir/us/qicore/StructureDefinition/qicore-coverage"]},"status":"active","beneficiary":{"reference":"Patient/1a1411f1-a9f1-4b4c-b722-d0558b95a8df"},"payor":[{"reference":"Organization/3778262e-e084-4bb5-9a47-1a144735f786"}]},"request":{"method":"PUT","url":"Coverage/bcb9c8f2-5460-42f4-be34-741bf2f07074"}},{"fullUrl":"https://madie.cms.gov/Organization/123456","resource":{"resourceType":"Organization","id":"3778262e-e084-4bb5-9a47-1a144735f786","meta":{"profile":["http://hl7.org/fhir/us/qicore/StructureDefinition/qicore-organization"]},"identifier":[{"use":"temp","system":"urn:oid:2.16.840.1.113883.4.4","value":"21-3259825"}],"active":true,"type":[{"coding":[{"system":"http://terminology.hl7.org/CodeSystem/organization-type","code":"pay","display":"Payer"}]}],"name":"Blue Cross Blue Shield of Texas","telecom":[{"system":"phone","value":"(+1) 972-766-6900"}],"address":[{"use":"billing","type":"postal","line":["P.O. Box 660044"],"city":"Dallas","state":"TX","postalCode":"75266-0044","country":"USA"}]},"request":{"method":"PUT","url":"Organization/3778262e-e084-4bb5-9a47-1a144735f786"}},{"fullUrl":"https://madie.cms.gov/Practitioner/practitioner-123456","resource":{"resourceType":"Practitioner","id":"17f3a1ee-b392-4e6e-aae9-2b9b0d5ee43f","identifier":[{"system":"http://hl7.org/fhir/sid/us-npi","value":"123456"}],"name":[{"family":"Evil","prefix":["Dr"]}]},"request":{"method":"PUT","url":"Practitioner/17f3a1ee-b392-4e6e-aae9-2b9b0d5ee43f"}},{"fullUrl":"https://madie.cms.gov/MeasureReport/d13c9e56-329c-46c5-a111-3b6c75e44168","resource":{"resourceType":"MeasureReport","id":"d13c9e56-329c-46c5-a111-3b6c75e44168","meta":{"profile":["http://hl7.org/fhir/us/cqfmeasures/StructureDefinition/test-case-cqfm"]},"contained":[{"resourceType":"Parameters","id":"fadd4c14-793a-434e-ba6e-33be58a35190-parameters","parameter":[{"name":"subject","valueString":"1a1411f1-a9f1-4b4c-b722-d0558b95a8df"}]}],"extension":[{"url":"http://hl7.org/fhir/us/cqfmeasures/StructureDefinition/cqfm-inputParameters","valueReference":{"reference":"#fadd4c14-793a-434e-ba6e-33be58a35190-parameters"}},{"url":"http://hl7.org/fhir/us/cqfmeasures/StructureDefinition/cqfm-testCaseDescription","valueMarkdown":"Last Assessment Performed EGA = 21 weeks\n"}],"modifierExtension":[{"url":"http://hl7.org/fhir/us/cqfmeasures/StructureDefinition/cqfm-isTestCase","valueBoolean":true}],"status":"complete","type":"individual","measure":"https://madie.cms.gov/Measure/SevereObstetricComplicationsFHIR","period":{"start":"2025-01-01","end":"2025-12-31"},"group":[{"population":[{"code":{"coding":[{"system":"http://terminology.hl7.org/CodeSystem/measure-population","code":"initial-population","display":"Initial Population"}]},"count":1},{"code":{"coding":[{"system":"http://terminology.hl7.org/CodeSystem/measure-population","code":"denominator","display":"Denominator"}]},"count":1},{"code":{"coding":[{"system":"http://terminology.hl7.org/CodeSystem/measure-population","code":"denominator-exclusion","display":"Denominator Exclusion"}]},"count":0},{"code":{"coding":[{"system":"http://terminology.hl7.org/CodeSystem/measure-population","code":"numerator","display":"Numerator"}]},"count":0},{"code":{"coding":[{"system":"http://terminology.hl7.org/CodeSystem/measure-population","code":"numerator-exclusion","display":"Numerator Exclusion"}]},"count":0}]}]},"request":{"method":"PUT","url":"MeasureReport/d13c9e56-329c-46c5-a111-3b6c75e44168"}}]}