{"resourceType":"Bundle","id":"tests-22237437-e999-4dac-b0b6-4ca1667f08c2-bundle","type":"transaction","entry":[{"fullUrl":"https://madie.cms.gov/Patient/22237437-e999-4dac-b0b6-4ca1667f08c2","resource":{"resourceType":"Patient","id":"22237437-e999-4dac-b0b6-4ca1667f08c2","meta":{"profile":["http://hl7.org/fhir/us/qicore/StructureDefinition/qicore-patient"]},"text":{"status":"generated","div":"<div xmlns=\"http://www.w3.org/1999/xhtml\"><div class=\"hapiHeaderText\">BloodTransfusionRelvDtTime1MinB4MidnightDayOfEncEnd <b>NUMPass </b></div><table class=\"hapiPropertyTable\"><tbody><tr><td>Date of birth</td><td><span>01 February 2004</span></td></tr></tbody></table></div>"},"extension":[{"url":"http://hl7.org/fhir/us/core/StructureDefinition/us-core-race","extension":[{"url":"ombCategory","valueCoding":{"system":"urn:oid:2.16.840.1.113883.6.238","code":"1002-5","display":"American Indian or Alaska Native","userSelected":true}},{"url":"text","valueString":"American Indian or Alaska Native"}]},{"url":"http://hl7.org/fhir/us/core/StructureDefinition/us-core-ethnicity","extension":[{"url":"ombCategory","valueCoding":{"system":"urn:oid:2.16.840.1.113883.6.238","code":"2135-2","display":"Hispanic or Latino","userSelected":true}},{"url":"text","valueString":"Hispanic or Latino"}]}],"identifier":[{"type":{"coding":[{"system":"http://terminology.hl7.org/CodeSystem/v2-0203","code":"MR"}]},"system":"https://bonnie-fhir.healthit.gov/","value":"633b3f9f0968f80122503cdb"}],"active":true,"name":[{"use":"usual","family":"NUMPass","given":["BloodTransfusionRelvDtTime1MinB4MidnightDayOfEncEnd"]}],"gender":"female","birthDate":"2004-02-01"},"request":{"method":"PUT","url":"Patient/22237437-e999-4dac-b0b6-4ca1667f08c2"}},{"fullUrl":"https://madie.cms.gov/Observation/5f29baa26f0b7100008d8af1","resource":{"resourceType":"Observation","id":"eda4d368-12e7-4c21-9070-e5c134eb29e4","meta":{"profile":["http://hl7.org/fhir/us/qicore/StructureDefinition/qicore-observation"]},"status":"final","category":[{"coding":[{"system":"http://terminology.hl7.org/CodeSystem/observation-category","code":"exam","display":"exam","userSelected":true}]}],"code":{"coding":[{"system":"http://loinc.org","code":"93857-1"}]},"subject":{"reference":"Patient/22237437-e999-4dac-b0b6-4ca1667f08c2"},"effectiveDateTime":"2025-02-01T08:00:00.000+00:00","valueDateTime":"2025-02-01T08:00:00+00:00"},"request":{"method":"PUT","url":"Observation/eda4d368-12e7-4c21-9070-e5c134eb29e4"}},{"fullUrl":"https://madie.cms.gov/Observation/5f2b23e36f0b7100008d9b59","resource":{"resourceType":"Observation","id":"8cf386ea-7dae-46de-b560-7abf18b5656e","meta":{"profile":["http://hl7.org/fhir/us/qicore/StructureDefinition/qicore-observation"]},"status":"final","category":[{"coding":[{"system":"http://terminology.hl7.org/CodeSystem/observation-category","code":"exam","display":"exam","userSelected":true}]}],"code":{"coding":[{"system":"http://loinc.org","code":"11884-4"}]},"subject":{"reference":"Patient/22237437-e999-4dac-b0b6-4ca1667f08c2"},"effectiveDateTime":"2025-02-01T08:00:00.000+00:00","valueQuantity":{"value":20.0,"system":"http://unitsofmeasure.org","code":"wk"}},"request":{"method":"PUT","url":"Observation/8cf386ea-7dae-46de-b560-7abf18b5656e"}},{"fullUrl":"https://madie.cms.gov/Observation/5f2b24a96f0b7100008d9c0d","resource":{"resourceType":"Observation","id":"c2681fd2-73fd-4519-a6c4-0963cb30c062","meta":{"profile":["http://hl7.org/fhir/us/qicore/StructureDefinition/qicore-observation"]},"status":"final","category":[{"coding":[{"system":"http://terminology.hl7.org/CodeSystem/observation-category","code":"exam","display":"exam","userSelected":true}]}],"code":{"coding":[{"system":"http://loinc.org","code":"11884-4"}]},"subject":{"reference":"Patient/22237437-e999-4dac-b0b6-4ca1667f08c2"},"effectiveDateTime":"2025-02-01T08:01:00.000+00:00"},"request":{"method":"PUT","url":"Observation/c2681fd2-73fd-4519-a6c4-0963cb30c062"}},{"fullUrl":"https://madie.cms.gov/Encounter/5f21e66daca3e40000cb86cf","resource":{"resourceType":"Encounter","id":"6094f4fc-a035-43dc-bca8-25a49400a0d7","meta":{"profile":["http://hl7.org/fhir/us/qicore/StructureDefinition/qicore-encounter"]},"status":"finished","class":{"system":"http://terminology.hl7.org/CodeSystem/v3-ActCode","code":"IMP","display":"inpatient encounter"},"type":[{"coding":[{"system":"http://snomed.info/sct","code":"183452005"}]}],"subject":{"reference":"Patient/22237437-e999-4dac-b0b6-4ca1667f08c2"},"period":{"start":"2025-02-01T08:00:00.000Z","end":"2025-02-05T08:15:00.000Z"}},"request":{"method":"PUT","url":"Encounter/6094f4fc-a035-43dc-bca8-25a49400a0d7"}},{"fullUrl":"https://madie.cms.gov/Coverage/5f2c54181c76ba5c99605813","resource":{"resourceType":"Coverage","id":"7526a939-9c0c-4ef0-889c-1f7f21edc2bd","status":"active","beneficiary":{"reference":"Patient/22237437-e999-4dac-b0b6-4ca1667f08c2"},"period":{"start":"2004-02-01T08:00:00.000Z"},"payor":[{"reference":"Organization/9e9b3f13-a353-4173-b29b-947d6f1f2031"}]},"request":{"method":"PUT","url":"Coverage/7526a939-9c0c-4ef0-889c-1f7f21edc2bd"}},{"fullUrl":"https://madie.cms.gov/Procedure/5f21e716aca3e40000cb87ee","resource":{"resourceType":"Procedure","id":"ffe17bb8-108d-4c7c-a095-ddbd68c90787","meta":{"profile":["http://hl7.org/fhir/us/qicore/StructureDefinition/qicore-procedure"]},"extension":[{"url":"http://hl7.org/fhir/us/qicore/StructureDefinition/qicore-recorded","valueDateTime":"2013-04-05T09:35:00-04:00"}],"status":"completed","code":{"coding":[{"system":"http://snomed.info/sct","code":"10745001"}]},"subject":{"reference":"Patient/22237437-e999-4dac-b0b6-4ca1667f08c2"},"performedPeriod":{"start":"2025-02-01T08:00:00.000Z","end":"2025-02-05T08:15:00.000Z"}},"request":{"method":"PUT","url":"Procedure/ffe17bb8-108d-4c7c-a095-ddbd68c90787"}},{"fullUrl":"https://madie.cms.gov/Procedure/bloodtransfusioncb87ee","resource":{"resourceType":"Procedure","id":"48b6819d-f57b-4ef4-aedf-e2ad7426f585","meta":{"profile":["http://hl7.org/fhir/us/qicore/StructureDefinition/qicore-procedure"]},"extension":[{"url":"http://hl7.org/fhir/us/qicore/StructureDefinition/qicore-recorded","valueDateTime":"2025-02-01T00:01:00-04:00"}],"status":"completed","code":{"coding":[{"system":"http://snomed.info/sct","code":"11397000"}]},"subject":{"reference":"Patient/22237437-e999-4dac-b0b6-4ca1667f08c2"},"performedPeriod":{"start":"2025-02-05T11:59:00.000Z","end":"2025-02-05T11:59:00.000Z"}},"request":{"method":"PUT","url":"Procedure/48b6819d-f57b-4ef4-aedf-e2ad7426f585"}},{"fullUrl":"https://madie.cms.gov/Organization/123456","resource":{"resourceType":"Organization","id":"9e9b3f13-a353-4173-b29b-947d6f1f2031","meta":{"profile":["http://hl7.org/fhir/us/qicore/StructureDefinition/qicore-organization"]},"identifier":[{"use":"temp","system":"urn:oid:2.16.840.1.113883.4.4","value":"21-3259825"}],"active":true,"type":[{"coding":[{"system":"http://terminology.hl7.org/CodeSystem/organization-type","code":"pay","display":"Payer"}]}],"name":"Blue Cross Blue Shield of Texas","telecom":[{"system":"phone","value":"(+1) 972-766-6900"}],"address":[{"use":"billing","type":"postal","line":["P.O. Box 660044"],"city":"Dallas","state":"TX","postalCode":"75266-0044","country":"USA"}]},"request":{"method":"PUT","url":"Organization/9e9b3f13-a353-4173-b29b-947d6f1f2031"}},{"fullUrl":"https://madie.cms.gov/Practitioner/practitioner-123456","resource":{"resourceType":"Practitioner","id":"447e1e72-848d-4e10-b44b-5f1023981eaf","identifier":[{"system":"http://hl7.org/fhir/sid/us-npi","value":"123456"}],"name":[{"family":"Evil","prefix":["Dr"]}]},"request":{"method":"PUT","url":"Practitioner/447e1e72-848d-4e10-b44b-5f1023981eaf"}},{"fullUrl":"https://madie.cms.gov/MeasureReport/745d27b8-2ae0-4152-80c0-489fab2bc536","resource":{"resourceType":"MeasureReport","id":"745d27b8-2ae0-4152-80c0-489fab2bc536","meta":{"profile":["http://hl7.org/fhir/us/cqfmeasures/StructureDefinition/test-case-cqfm"]},"contained":[{"resourceType":"Parameters","id":"2263d33f-311c-4d25-a88d-99ed55168be2-parameters","parameter":[{"name":"subject","valueString":"22237437-e999-4dac-b0b6-4ca1667f08c2"}]}],"extension":[{"url":"http://hl7.org/fhir/us/cqfmeasures/StructureDefinition/cqfm-inputParameters","valueReference":{"reference":"#2263d33f-311c-4d25-a88d-99ed55168be2-parameters"}},{"url":"http://hl7.org/fhir/us/cqfmeasures/StructureDefinition/cqfm-testCaseDescription","valueMarkdown":"Blood Transfusion Relevant Date Time 1 Minute before midnight day of encounter end\n"}],"modifierExtension":[{"url":"http://hl7.org/fhir/us/cqfmeasures/StructureDefinition/cqfm-isTestCase","valueBoolean":true}],"status":"complete","type":"individual","measure":"https://madie.cms.gov/Measure/SevereObstetricComplicationsFHIR","period":{"start":"2025-01-01","end":"2025-12-31"},"group":[{"population":[{"code":{"coding":[{"system":"http://terminology.hl7.org/CodeSystem/measure-population","code":"initial-population","display":"Initial Population"}]},"count":1},{"code":{"coding":[{"system":"http://terminology.hl7.org/CodeSystem/measure-population","code":"denominator","display":"Denominator"}]},"count":1},{"code":{"coding":[{"system":"http://terminology.hl7.org/CodeSystem/measure-population","code":"denominator-exclusion","display":"Denominator Exclusion"}]},"count":0},{"code":{"coding":[{"system":"http://terminology.hl7.org/CodeSystem/measure-population","code":"numerator","display":"Numerator"}]},"count":1},{"code":{"coding":[{"system":"http://terminology.hl7.org/CodeSystem/measure-population","code":"numerator-exclusion","display":"Numerator Exclusion"}]},"count":0}]}]},"request":{"method":"PUT","url":"MeasureReport/745d27b8-2ae0-4152-80c0-489fab2bc536"}}]}