{"resourceType":"Bundle","id":"tests-b885f6f2-c05d-4383-b56b-99c8c633fae4-bundle","type":"transaction","entry":[{"fullUrl":"https://madie.cms.gov/Patient/b885f6f2-c05d-4383-b56b-99c8c633fae4","resource":{"resourceType":"Patient","id":"b885f6f2-c05d-4383-b56b-99c8c633fae4","meta":{"profile":["http://hl7.org/fhir/us/qicore/StructureDefinition/qicore-patient"]},"text":{"status":"generated","div":"<div xmlns=\"http://www.w3.org/1999/xhtml\"><div class=\"hapiHeaderText\">SMMEQBlood Transfusion <b>Strat1Fail </b></div><table class=\"hapiPropertyTable\"><tbody><tr><td>Date of birth</td><td><span>01 February 2004</span></td></tr></tbody></table></div>"},"extension":[{"url":"http://hl7.org/fhir/us/core/StructureDefinition/us-core-race","extension":[{"url":"ombCategory","valueCoding":{"system":"urn:oid:2.16.840.1.113883.6.238","code":"1002-5","display":"American Indian or Alaska Native","userSelected":true}},{"url":"text","valueString":"American Indian or Alaska Native"}]},{"url":"http://hl7.org/fhir/us/core/StructureDefinition/us-core-ethnicity","extension":[{"url":"ombCategory","valueCoding":{"system":"urn:oid:2.16.840.1.113883.6.238","code":"2135-2","display":"Hispanic or Latino","userSelected":true}},{"url":"text","valueString":"Hispanic or Latino"}]}],"identifier":[{"type":{"coding":[{"system":"http://terminology.hl7.org/CodeSystem/v2-0203","code":"MR"}]},"system":"https://bonnie-fhir.healthit.gov/","value":"633b3f9f0968f80122503cdb"}],"active":true,"name":[{"use":"usual","family":"STRAT1Fail","given":["SMMEQBlood Transfusion"]}],"gender":"female","birthDate":"2004-02-01"},"request":{"method":"PUT","url":"Patient/b885f6f2-c05d-4383-b56b-99c8c633fae4"}},{"fullUrl":"https://madie.cms.gov/Observation/5f29baa26f0b7100008d8af1","resource":{"resourceType":"Observation","id":"1dd1c9ea-c0fa-4b1b-8174-c314d02bf4ee","meta":{"profile":["http://hl7.org/fhir/us/qicore/StructureDefinition/qicore-observation"]},"status":"final","category":[{"coding":[{"system":"http://terminology.hl7.org/CodeSystem/observation-category","code":"exam","display":"exam","userSelected":true}]}],"code":{"coding":[{"system":"http://loinc.org","code":"93857-1"}]},"subject":{"reference":"Patient/b885f6f2-c05d-4383-b56b-99c8c633fae4"},"effectiveDateTime":"2025-02-01T08:00:00.000+00:00","valueDateTime":"2025-02-01T08:00:00+00:00"},"request":{"method":"PUT","url":"Observation/1dd1c9ea-c0fa-4b1b-8174-c314d02bf4ee"}},{"fullUrl":"https://madie.cms.gov/Observation/5f2b23e36f0b7100008d9b59","resource":{"resourceType":"Observation","id":"a2a4bda1-9c2a-4fb5-9cc0-a48625cb1185","meta":{"profile":["http://hl7.org/fhir/us/qicore/StructureDefinition/qicore-observation"]},"status":"final","category":[{"coding":[{"system":"http://terminology.hl7.org/CodeSystem/observation-category","code":"exam","display":"exam","userSelected":true}]}],"code":{"coding":[{"system":"http://loinc.org","code":"11884-4"}]},"subject":{"reference":"Patient/b885f6f2-c05d-4383-b56b-99c8c633fae4"},"effectiveDateTime":"2025-02-01T08:00:00.000+00:00","valueQuantity":{"value":20.0,"system":"http://unitsofmeasure.org","code":"wk"}},"request":{"method":"PUT","url":"Observation/a2a4bda1-9c2a-4fb5-9cc0-a48625cb1185"}},{"fullUrl":"https://madie.cms.gov/Observation/5f2b24a96f0b7100008d9c0d","resource":{"resourceType":"Observation","id":"502efc31-3ea0-4beb-8095-24fe0fb69b37","meta":{"profile":["http://hl7.org/fhir/us/qicore/StructureDefinition/qicore-observation"]},"status":"final","category":[{"coding":[{"system":"http://terminology.hl7.org/CodeSystem/observation-category","code":"exam","display":"exam","userSelected":true}]}],"code":{"coding":[{"system":"http://loinc.org","code":"11884-4"}]},"subject":{"reference":"Patient/b885f6f2-c05d-4383-b56b-99c8c633fae4"},"effectiveDateTime":"2025-02-01T08:01:00.000+00:00"},"request":{"method":"PUT","url":"Observation/502efc31-3ea0-4beb-8095-24fe0fb69b37"}},{"fullUrl":"https://madie.cms.gov/Encounter/5f21e66daca3e40000cb86cf","resource":{"resourceType":"Encounter","id":"55867e62-827e-4561-a16b-5715d07f3d67","meta":{"profile":["http://hl7.org/fhir/us/qicore/StructureDefinition/qicore-encounter"]},"status":"finished","class":{"system":"http://terminology.hl7.org/CodeSystem/v3-ActCode","code":"IMP","display":"inpatient encounter"},"type":[{"coding":[{"system":"http://snomed.info/sct","code":"183452005"}]}],"subject":{"reference":"Patient/b885f6f2-c05d-4383-b56b-99c8c633fae4"},"period":{"start":"2025-02-01T08:00:00.000Z","end":"2025-02-05T08:15:00.000Z"}},"request":{"method":"PUT","url":"Encounter/55867e62-827e-4561-a16b-5715d07f3d67"}},{"fullUrl":"https://madie.cms.gov/Coverage/5f2c54181c76ba5c99605813","resource":{"resourceType":"Coverage","id":"915704f4-9d52-4b67-9f22-8f0ba413881e","status":"active","beneficiary":{"reference":"Patient/b885f6f2-c05d-4383-b56b-99c8c633fae4"},"period":{"start":"2004-02-01T08:00:00.000Z"},"payor":[{"reference":"Organization/9e9b3f13-a353-4173-b29b-947d6f1f2031"}]},"request":{"method":"PUT","url":"Coverage/915704f4-9d52-4b67-9f22-8f0ba413881e"}},{"fullUrl":"https://madie.cms.gov/Procedure/5f21e716aca3e40000cb87ee","resource":{"resourceType":"Procedure","id":"afab361e-7100-4774-a151-d93ef49113e1","meta":{"profile":["http://hl7.org/fhir/us/qicore/StructureDefinition/qicore-procedure"]},"extension":[{"url":"http://hl7.org/fhir/us/qicore/StructureDefinition/qicore-recorded","valueDateTime":"2013-04-05T09:35:00-04:00"}],"status":"completed","code":{"coding":[{"system":"http://snomed.info/sct","code":"10745001"}]},"subject":{"reference":"Patient/b885f6f2-c05d-4383-b56b-99c8c633fae4"},"performedPeriod":{"start":"2025-02-01T08:00:00.000Z","end":"2025-02-05T08:15:00.000Z"}},"request":{"method":"PUT","url":"Procedure/afab361e-7100-4774-a151-d93ef49113e1"}},{"fullUrl":"https://madie.cms.gov/Procedure/bloodtransfusioncb87ee","resource":{"resourceType":"Procedure","id":"6e88db9e-36cb-4e58-a7dc-ad595a65b26a","meta":{"profile":["http://hl7.org/fhir/us/qicore/StructureDefinition/qicore-procedure"]},"extension":[{"url":"http://hl7.org/fhir/us/qicore/StructureDefinition/qicore-recorded","valueDateTime":"2025-02-01T00:01:00-04:00"}],"status":"completed","code":{"coding":[{"system":"http://snomed.info/sct","code":"11397000"}]},"subject":{"reference":"Patient/b885f6f2-c05d-4383-b56b-99c8c633fae4"},"performedPeriod":{"start":"2025-02-01T08:00:00.000Z","end":"2025-02-05T08:15:00.000Z"}},"request":{"method":"PUT","url":"Procedure/6e88db9e-36cb-4e58-a7dc-ad595a65b26a"}},{"fullUrl":"https://madie.cms.gov/Organization/123456","resource":{"resourceType":"Organization","id":"9e9b3f13-a353-4173-b29b-947d6f1f2031","meta":{"profile":["http://hl7.org/fhir/us/qicore/StructureDefinition/qicore-organization"]},"identifier":[{"use":"temp","system":"urn:oid:2.16.840.1.113883.4.4","value":"21-3259825"}],"active":true,"type":[{"coding":[{"system":"http://terminology.hl7.org/CodeSystem/organization-type","code":"pay","display":"Payer"}]}],"name":"Blue Cross Blue Shield of Texas","telecom":[{"system":"phone","value":"(+1) 972-766-6900"}],"address":[{"use":"billing","type":"postal","line":["P.O. Box 660044"],"city":"Dallas","state":"TX","postalCode":"75266-0044","country":"USA"}]},"request":{"method":"PUT","url":"Organization/9e9b3f13-a353-4173-b29b-947d6f1f2031"}},{"fullUrl":"https://madie.cms.gov/Practitioner/practitioner-123456","resource":{"resourceType":"Practitioner","id":"a639fb47-3523-4f7f-91c2-7fb23ab9394c","identifier":[{"system":"http://hl7.org/fhir/sid/us-npi","value":"123456"}],"name":[{"family":"Evil","prefix":["Dr"]}]},"request":{"method":"PUT","url":"Practitioner/a639fb47-3523-4f7f-91c2-7fb23ab9394c"}},{"fullUrl":"https://madie.cms.gov/MeasureReport/474756e1-cf27-4e03-9888-eb8ac82f05a9","resource":{"resourceType":"MeasureReport","id":"474756e1-cf27-4e03-9888-eb8ac82f05a9","meta":{"profile":["http://hl7.org/fhir/us/cqfmeasures/StructureDefinition/test-case-cqfm"]},"contained":[{"resourceType":"Parameters","id":"0f43eb93-307b-4ebf-812b-43ebb2edf833-parameters","parameter":[{"name":"subject","valueString":"b885f6f2-c05d-4383-b56b-99c8c633fae4"}]}],"extension":[{"url":"http://hl7.org/fhir/us/cqfmeasures/StructureDefinition/cqfm-inputParameters","valueReference":{"reference":"#0f43eb93-307b-4ebf-812b-43ebb2edf833-parameters"}},{"url":"http://hl7.org/fhir/us/cqfmeasures/StructureDefinition/cqfm-testCaseDescription","valueMarkdown":"Patient had a blood transfusion as SMM.  No other SMM.\n"}],"modifierExtension":[{"url":"http://hl7.org/fhir/us/cqfmeasures/StructureDefinition/cqfm-isTestCase","valueBoolean":true}],"status":"complete","type":"individual","measure":"https://madie.cms.gov/Measure/SevereObstetricComplicationsFHIR","period":{"start":"2025-01-01","end":"2025-12-31"},"group":[{"population":[{"code":{"coding":[{"system":"http://terminology.hl7.org/CodeSystem/measure-population","code":"initial-population","display":"Initial Population"}]},"count":1},{"code":{"coding":[{"system":"http://terminology.hl7.org/CodeSystem/measure-population","code":"denominator","display":"Denominator"}]},"count":1},{"code":{"coding":[{"system":"http://terminology.hl7.org/CodeSystem/measure-population","code":"denominator-exclusion","display":"Denominator Exclusion"}]},"count":0},{"code":{"coding":[{"system":"http://terminology.hl7.org/CodeSystem/measure-population","code":"numerator","display":"Numerator"}]},"count":1},{"code":{"coding":[{"system":"http://terminology.hl7.org/CodeSystem/measure-population","code":"numerator-exclusion","display":"Numerator Exclusion"}]},"count":0}]}]},"request":{"method":"PUT","url":"MeasureReport/474756e1-cf27-4e03-9888-eb8ac82f05a9"}}]}