{"resourceType":"Bundle","id":"tests-bec38daa-8a0d-435d-95e7-05ad5af182f6-bundle","type":"transaction","entry":[{"fullUrl":"https://madie.cms.gov/Patient/bec38daa-8a0d-435d-95e7-05ad5af182f6","resource":{"resourceType":"Patient","id":"bec38daa-8a0d-435d-95e7-05ad5af182f6","meta":{"profile":["http://hl7.org/fhir/us/qicore/StructureDefinition/qicore-patient"]},"text":{"status":"generated","div":"<div xmlns=\"http://www.w3.org/1999/xhtml\"><div class=\"hapiHeaderText\">CalcAndEGA19WksDxCode20Weeks  <b>DENOMFAIL </b></div><table class=\"hapiPropertyTable\"><tbody><tr><td>Date of birth</td><td><span>01 February 2004</span></td></tr></tbody></table></div>"},"extension":[{"url":"http://hl7.org/fhir/us/core/StructureDefinition/us-core-race","extension":[{"url":"ombCategory","valueCoding":{"system":"urn:oid:2.16.840.1.113883.6.238","code":"1002-5","display":"American Indian or Alaska Native","userSelected":true}},{"url":"text","valueString":"American Indian or Alaska Native"}]},{"url":"http://hl7.org/fhir/us/core/StructureDefinition/us-core-ethnicity","extension":[{"url":"ombCategory","valueCoding":{"system":"urn:oid:2.16.840.1.113883.6.238","code":"2135-2","display":"Hispanic or Latino","userSelected":true}},{"url":"text","valueString":"Hispanic or Latino"}]}],"identifier":[{"type":{"coding":[{"system":"http://terminology.hl7.org/CodeSystem/v2-0203","code":"MR"}]},"system":"https://bonnie-fhir.healthit.gov/","value":"6356d03854e383debade759e"}],"active":true,"name":[{"use":"usual","family":"DENOMFail","given":["CalcAndEGA19WksDxCode20Weeks "]}],"gender":"female","birthDate":"2004-02-01"},"request":{"method":"PUT","url":"Patient/bec38daa-8a0d-435d-95e7-05ad5af182f6"}},{"fullUrl":"https://madie.cms.gov/Observation/5f32bf4551476200007ab6d3","resource":{"resourceType":"Observation","id":"3bedf3a5-13bd-471b-bf5d-2a79fead3ad3","meta":{"profile":["http://hl7.org/fhir/us/qicore/StructureDefinition/qicore-observation"]},"status":"final","category":[{"coding":[{"system":"http://terminology.hl7.org/CodeSystem/observation-category","code":"exam","display":"exam","userSelected":true}]}],"code":{"coding":[{"system":"http://loinc.org","code":"11884-4"}]},"subject":{"reference":"Patient/bec38daa-8a0d-435d-95e7-05ad5af182f6"},"effectiveDateTime":"2025-01-15T08:00:00.000+00:00","valueQuantity":{"value":19.0,"unit":"wk"}},"request":{"method":"PUT","url":"Observation/3bedf3a5-13bd-471b-bf5d-2a79fead3ad3"}},{"fullUrl":"https://madie.cms.gov/Observation/5f29baa26f0b7100008d8af1","resource":{"resourceType":"Observation","id":"fe53b04b-1027-4271-b1c1-0f35ebe9e7e8","meta":{"profile":["http://hl7.org/fhir/us/qicore/StructureDefinition/qicore-observation"]},"status":"final","category":[{"coding":[{"system":"http://terminology.hl7.org/CodeSystem/observation-category","code":"exam","display":"exam","userSelected":true}]}],"code":{"coding":[{"system":"http://loinc.org","code":"93857-1"}]},"subject":{"reference":"Patient/bec38daa-8a0d-435d-95e7-05ad5af182f6"},"effectiveDateTime":"2025-01-15T08:00:00.000+00:00","valueDateTime":"2025-01-15T08:00:00.000+00:00"},"request":{"method":"PUT","url":"Observation/fe53b04b-1027-4271-b1c1-0f35ebe9e7e8"}},{"fullUrl":"https://madie.cms.gov/Encounter/5f21e66daca3e40000cb86cf","resource":{"resourceType":"Encounter","id":"96356d31-73a7-4c87-a60e-66f703215cda","meta":{"profile":["http://hl7.org/fhir/us/qicore/StructureDefinition/qicore-encounter"]},"status":"finished","class":{"system":"http://terminology.hl7.org/CodeSystem/v3-ActCode","code":"IMP","display":"inpatient encounter"},"type":[{"coding":[{"system":"http://snomed.info/sct","code":"183452005"}]}],"subject":{"reference":"Patient/bec38daa-8a0d-435d-95e7-05ad5af182f6"},"period":{"start":"2025-01-01T08:00:00.000Z","end":"2025-02-05T08:15:00.000Z"},"diagnosis":[{"condition":{"reference":"Condition/20-TO-42-Plus-Weeks-Gestation-19-75a0"}}]},"request":{"method":"PUT","url":"Encounter/96356d31-73a7-4c87-a60e-66f703215cda"}},{"fullUrl":"https://madie.cms.gov/Observation/5f2b21b26f0b7100008d9986","resource":{"resourceType":"Observation","id":"ba900073-dabe-4549-8d3f-504e453ceac3","meta":{"profile":["http://hl7.org/fhir/us/qicore/StructureDefinition/qicore-observation"]},"status":"final","category":[{"coding":[{"system":"http://terminology.hl7.org/CodeSystem/observation-category","code":"exam","display":"exam","userSelected":true}]}],"code":{"coding":[{"system":"http://loinc.org","code":"11778-8"}]},"subject":{"reference":"Patient/bec38daa-8a0d-435d-95e7-05ad5af182f6"},"effectiveDateTime":"2025-01-15T08:00:00.000+00:00","valueDateTime":"2025-06-05T08:00:00.000+00:00"},"request":{"method":"PUT","url":"Observation/ba900073-dabe-4549-8d3f-504e453ceac3"}},{"fullUrl":"https://madie.cms.gov/Procedure/5f21e716aca3e40000cb87ee","resource":{"resourceType":"Procedure","id":"48ca8c51-5c62-462f-8ff9-860cbe742bcd","meta":{"profile":["http://hl7.org/fhir/us/qicore/StructureDefinition/qicore-procedure"]},"extension":[{"url":"http://hl7.org/fhir/us/qicore/StructureDefinition/qicore-recorded","valueDateTime":"2013-04-05T09:35:00-04:00"}],"status":"completed","code":{"coding":[{"system":"http://snomed.info/sct","code":"10745001"}]},"subject":{"reference":"Patient/bec38daa-8a0d-435d-95e7-05ad5af182f6"},"performedPeriod":{"start":"2025-01-01T08:00:00.000Z","end":"2025-01-01T08:15:00.000Z"}},"request":{"method":"PUT","url":"Procedure/48ca8c51-5c62-462f-8ff9-860cbe742bcd"}},{"fullUrl":"https://madie.cms.gov/Condition/20-TO-42-Plus-Weeks-Gestation-19-75a0","resource":{"resourceType":"Condition","id":"7eff84f5-4d45-4140-a80b-f598ca7956f2","meta":{"profile":["http://hl7.org/fhir/us/qicore/StructureDefinition/qicore-condition"]},"category":[{"coding":[{"system":"http://terminology.hl7.org/CodeSystem/condition-category","code":"encounter-diagnosis","display":"Encounter Diagnosis"}]}],"code":{"coding":[{"system":"http://snomed.info/sct","version":"2024-03","code":"23464008","display":"Gestation period, 20 weeks","userSelected":true}]},"subject":{"reference":"Patient/bec38daa-8a0d-435d-95e7-05ad5af182f6"},"recordedDate":"2025-10-24T08:00:00.000+00:00"},"request":{"method":"PUT","url":"Condition/7eff84f5-4d45-4140-a80b-f598ca7956f2"}},{"fullUrl":"https://madie.cms.gov/Coverage/1","resource":{"resourceType":"Coverage","id":"216a7d93-9157-4a6d-9a0a-827f1e430587","meta":{"profile":["http://hl7.org/fhir/us/qicore/StructureDefinition/qicore-coverage"]},"status":"active","beneficiary":{"reference":"Patient/bec38daa-8a0d-435d-95e7-05ad5af182f6"},"payor":[{"reference":"Organization/4da248b0-6e59-49b7-b80e-338aa21d299f"}]},"request":{"method":"PUT","url":"Coverage/216a7d93-9157-4a6d-9a0a-827f1e430587"}},{"fullUrl":"https://madie.cms.gov/Organization/123456","resource":{"resourceType":"Organization","id":"4da248b0-6e59-49b7-b80e-338aa21d299f","meta":{"profile":["http://hl7.org/fhir/us/qicore/StructureDefinition/qicore-organization"]},"identifier":[{"use":"temp","system":"urn:oid:2.16.840.1.113883.4.4","value":"21-3259825"}],"active":true,"type":[{"coding":[{"system":"http://terminology.hl7.org/CodeSystem/organization-type","code":"pay","display":"Payer"}]}],"name":"Blue Cross Blue Shield of Texas","telecom":[{"system":"phone","value":"(+1) 972-766-6900"}],"address":[{"use":"billing","type":"postal","line":["P.O. Box 660044"],"city":"Dallas","state":"TX","postalCode":"75266-0044","country":"USA"}]},"request":{"method":"PUT","url":"Organization/4da248b0-6e59-49b7-b80e-338aa21d299f"}},{"fullUrl":"https://madie.cms.gov/Practitioner/practitioner-123456","resource":{"resourceType":"Practitioner","id":"345d6e08-bc77-4bc9-a306-ef72fa9ba6cc","identifier":[{"system":"http://hl7.org/fhir/sid/us-npi","value":"123456"}],"name":[{"family":"Evil","prefix":["Dr"]}]},"request":{"method":"PUT","url":"Practitioner/345d6e08-bc77-4bc9-a306-ef72fa9ba6cc"}},{"fullUrl":"https://madie.cms.gov/MeasureReport/63080855-a1aa-4dcc-99a1-bf7b142d10a3","resource":{"resourceType":"MeasureReport","id":"63080855-a1aa-4dcc-99a1-bf7b142d10a3","meta":{"profile":["http://hl7.org/fhir/us/cqfmeasures/StructureDefinition/test-case-cqfm"]},"contained":[{"resourceType":"Parameters","id":"e9a0b663-f2f6-4a7e-9bb5-fc1c7624f8d8-parameters","parameter":[{"name":"subject","valueString":"bec38daa-8a0d-435d-95e7-05ad5af182f6"}]}],"extension":[{"url":"http://hl7.org/fhir/us/cqfmeasures/StructureDefinition/cqfm-inputParameters","valueReference":{"reference":"#e9a0b663-f2f6-4a7e-9bb5-fc1c7624f8d8-parameters"}},{"url":"http://hl7.org/fhir/us/cqfmeasures/StructureDefinition/cqfm-testCaseDescription","valueMarkdown":"Calculated and Estimated GA  = 19 weeks.  Diagnosis code = 20 weeks.  Denom fails based on hierarchy.\n"}],"modifierExtension":[{"url":"http://hl7.org/fhir/us/cqfmeasures/StructureDefinition/cqfm-isTestCase","valueBoolean":true}],"status":"complete","type":"individual","measure":"https://madie.cms.gov/Measure/SevereObstetricComplicationsFHIR","period":{"start":"2025-01-01","end":"2025-12-31"},"group":[{"population":[{"code":{"coding":[{"system":"http://terminology.hl7.org/CodeSystem/measure-population","code":"initial-population","display":"Initial Population"}]},"count":1},{"code":{"coding":[{"system":"http://terminology.hl7.org/CodeSystem/measure-population","code":"denominator","display":"Denominator"}]},"count":0},{"code":{"coding":[{"system":"http://terminology.hl7.org/CodeSystem/measure-population","code":"denominator-exclusion","display":"Denominator Exclusion"}]},"count":0},{"code":{"coding":[{"system":"http://terminology.hl7.org/CodeSystem/measure-population","code":"numerator","display":"Numerator"}]},"count":0},{"code":{"coding":[{"system":"http://terminology.hl7.org/CodeSystem/measure-population","code":"numerator-exclusion","display":"Numerator Exclusion"}]},"count":0}]}]},"request":{"method":"PUT","url":"MeasureReport/63080855-a1aa-4dcc-99a1-bf7b142d10a3"}}]}