{"resourceType":"Bundle","id":"tests-cfed70be-9e5a-42f2-822d-133e3e970c3b-bundle","type":"transaction","entry":[{"fullUrl":"https://madie.cms.gov/Patient/cfed70be-9e5a-42f2-822d-133e3e970c3b","resource":{"resourceType":"Patient","id":"cfed70be-9e5a-42f2-822d-133e3e970c3b","meta":{"profile":["http://hl7.org/fhir/us/qicore/StructureDefinition/qicore-patient"]},"text":{"status":"generated","div":"<div xmlns=\"http://www.w3.org/1999/xhtml\"><div class=\"hapiHeaderText\">RISKWBCRsltDtTimeEQDelStart <b>RISKFail </b></div><table class=\"hapiPropertyTable\"><tbody><tr><td>Date of birth</td><td><span>01 February 2004</span></td></tr></tbody></table></div>"},"extension":[{"url":"http://hl7.org/fhir/us/core/StructureDefinition/us-core-race","extension":[{"url":"ombCategory","valueCoding":{"system":"urn:oid:2.16.840.1.113883.6.238","code":"1002-5","display":"American Indian or Alaska Native","userSelected":true}},{"url":"text","valueString":"American Indian or Alaska Native"}]},{"url":"http://hl7.org/fhir/us/core/StructureDefinition/us-core-ethnicity","extension":[{"url":"ombCategory","valueCoding":{"system":"urn:oid:2.16.840.1.113883.6.238","code":"2135-2","display":"Hispanic or Latino","userSelected":true}},{"url":"text","valueString":"Hispanic or Latino"}]}],"identifier":[{"type":{"coding":[{"system":"http://terminology.hl7.org/CodeSystem/v2-0203","code":"MR"}]},"system":"https://bonnie-fhir.healthit.gov/","value":"6359776b6aee9629c8298235"}],"active":true,"name":[{"use":"usual","family":"RiskFail","given":["RISKWBCRsltDtTimeEQDelStart"]}],"gender":"female","birthDate":"2004-02-01"},"request":{"method":"PUT","url":"Patient/cfed70be-9e5a-42f2-822d-133e3e970c3b"}},{"fullUrl":"https://madie.cms.gov/Observation/5f29baa26f0b7100008d8af1","resource":{"resourceType":"Observation","id":"430e6f7e-c334-41b3-a099-fa970918e849","meta":{"profile":["http://hl7.org/fhir/us/qicore/StructureDefinition/qicore-observation"]},"status":"final","category":[{"coding":[{"system":"http://terminology.hl7.org/CodeSystem/observation-category","code":"exam","display":"exam","userSelected":true}]}],"code":{"coding":[{"system":"http://loinc.org","code":"93857-1"}]},"subject":{"reference":"Patient/cfed70be-9e5a-42f2-822d-133e3e970c3b"},"effectiveDateTime":"2025-02-01T08:15:00.000+00:00","valueDateTime":"2025-02-01T08:15:00+00:00"},"request":{"method":"PUT","url":"Observation/430e6f7e-c334-41b3-a099-fa970918e849"}},{"fullUrl":"https://madie.cms.gov/Observation/5f32bf4551476200007ab6d3","resource":{"resourceType":"Observation","id":"f9e98345-0de9-437c-94e2-5170d79d6e89","meta":{"profile":["http://hl7.org/fhir/us/qicore/StructureDefinition/qicore-observation"]},"status":"final","category":[{"coding":[{"system":"http://terminology.hl7.org/CodeSystem/observation-category","code":"exam","display":"exam","userSelected":true}]}],"code":{"coding":[{"system":"http://loinc.org","code":"11884-4"}]},"subject":{"reference":"Patient/cfed70be-9e5a-42f2-822d-133e3e970c3b"},"effectiveDateTime":"2025-02-01T08:00:00.000+00:00","valueQuantity":{"value":21,"system":"http://unitsofmeasure.org","code":"wk"}},"request":{"method":"PUT","url":"Observation/f9e98345-0de9-437c-94e2-5170d79d6e89"}},{"fullUrl":"https://madie.cms.gov/Encounter/5f21e66daca3e40000cb86cf","resource":{"resourceType":"Encounter","id":"4077b085-da4e-49df-bee8-db6894e1e2b7","meta":{"profile":["http://hl7.org/fhir/us/qicore/StructureDefinition/qicore-encounter"]},"status":"finished","class":{"system":"http://terminology.hl7.org/CodeSystem/v3-ActCode","code":"IMP","display":"inpatient encounter"},"type":[{"coding":[{"system":"http://snomed.info/sct","code":"183452005"}]}],"subject":{"reference":"Patient/cfed70be-9e5a-42f2-822d-133e3e970c3b"},"period":{"start":"2025-02-01T08:00:00.000Z","end":"2025-02-05T08:15:00.000Z"}},"request":{"method":"PUT","url":"Encounter/4077b085-da4e-49df-bee8-db6894e1e2b7"}},{"fullUrl":"https://madie.cms.gov/Encounter/6001e814bd87590000ceb183","resource":{"resourceType":"Encounter","id":"d2918767-7568-492f-9af2-86aae51d48eb","meta":{"profile":["http://hl7.org/fhir/us/qicore/StructureDefinition/qicore-encounter"]},"status":"finished","class":{"system":"http://terminology.hl7.org/CodeSystem/v3-ActCode","code":"EMER","display":"emergency"},"type":[{"coding":[{"system":"http://snomed.info/sct","code":"4525004"}]}],"subject":{"reference":"Patient/cfed70be-9e5a-42f2-822d-133e3e970c3b"},"period":{"start":"2025-02-01T07:00:00.000Z","end":"2025-02-01T07:59:00.000Z"}},"request":{"method":"PUT","url":"Encounter/d2918767-7568-492f-9af2-86aae51d48eb"}},{"fullUrl":"https://madie.cms.gov/Observation/white-blood-cells-count-lab-test-8236a","resource":{"resourceType":"Observation","id":"716108b2-e43b-441c-b5e3-6caed09573fa","meta":{"profile":["http://hl7.org/fhir/us/core/StructureDefinition/us-core-observation-lab"]},"status":"final","category":[{"coding":[{"system":"http://terminology.hl7.org/CodeSystem/observation-category","code":"laboratory","display":"laboratory","userSelected":true}]}],"code":{"coding":[{"system":"http://loinc.org","version":"2.73","code":"26464-8","display":"Leukocytes [#/volume] in Blood","userSelected":true}]},"subject":{"reference":"Patient/cfed70be-9e5a-42f2-822d-133e3e970c3b"},"effectiveDateTime":"2025-02-01T08:00:00.000+00:00","issued":"2025-02-01T08:00:00.000+00:00","valueQuantity":{"unit":"10*3/u"}},"request":{"method":"PUT","url":"Observation/716108b2-e43b-441c-b5e3-6caed09573fa"}},{"fullUrl":"https://madie.cms.gov/Procedure/5f21e716aca3e40000cb87ee","resource":{"resourceType":"Procedure","id":"66cba432-18f1-4fdf-9dd4-d4de55fef4dc","meta":{"profile":["http://hl7.org/fhir/us/qicore/StructureDefinition/qicore-procedure"]},"extension":[{"url":"http://hl7.org/fhir/us/qicore/StructureDefinition/qicore-recorded","valueDateTime":"2025-02-04T09:35:00-04:00"}],"status":"completed","code":{"coding":[{"system":"http://snomed.info/sct","code":"10745001"}]},"subject":{"reference":"Patient/cfed70be-9e5a-42f2-822d-133e3e970c3b"},"performedPeriod":{"start":"2025-02-01T08:00:00.000Z","end":"2025-02-05T08:15:00.000Z"}},"request":{"method":"PUT","url":"Procedure/66cba432-18f1-4fdf-9dd4-d4de55fef4dc"}},{"fullUrl":"https://madie.cms.gov/Observation/white-blood-cells-count-lab-test-8236","resource":{"resourceType":"Observation","id":"db20530f-5380-402d-842e-ad63d61785ea","meta":{"profile":["http://hl7.org/fhir/us/core/StructureDefinition/us-core-observation-lab"]},"status":"final","category":[{"coding":[{"system":"http://terminology.hl7.org/CodeSystem/observation-category","code":"laboratory","display":"laboratory","userSelected":true}]}],"code":{"coding":[{"system":"http://loinc.org","version":"2.73","code":"26464-8","display":"Leukocytes [#/volume] in Blood","userSelected":true}]},"subject":{"reference":"Patient/cfed70be-9e5a-42f2-822d-133e3e970c3b"},"effectiveDateTime":"2025-02-01T08:01:00.000+00:00","issued":"2025-02-01T08:01:00.000+00:00","valueQuantity":{"value":10,"unit":"10*3/u"}},"request":{"method":"PUT","url":"Observation/db20530f-5380-402d-842e-ad63d61785ea"}},{"fullUrl":"https://madie.cms.gov/MeasureReport/c6e06e26-b413-47f7-b7ff-ef0c88984466","resource":{"resourceType":"MeasureReport","id":"c6e06e26-b413-47f7-b7ff-ef0c88984466","meta":{"profile":["http://hl7.org/fhir/us/cqfmeasures/StructureDefinition/test-case-cqfm"]},"contained":[{"resourceType":"Parameters","id":"eb4fb386-269c-40ec-b04d-f68994fddc56-parameters","parameter":[{"name":"subject","valueString":"cfed70be-9e5a-42f2-822d-133e3e970c3b"}]}],"extension":[{"url":"http://hl7.org/fhir/us/cqfmeasures/StructureDefinition/cqfm-inputParameters","valueReference":{"reference":"#eb4fb386-269c-40ec-b04d-f68994fddc56-parameters"}},{"url":"http://hl7.org/fhir/us/cqfmeasures/StructureDefinition/cqfm-testCaseDescription","valueMarkdown":"First WBC is Null.  2nd WBC is resulted and meets timing parameters"}],"modifierExtension":[{"url":"http://hl7.org/fhir/us/cqfmeasures/StructureDefinition/cqfm-isTestCase","valueBoolean":true}],"status":"complete","type":"individual","measure":"https://madie.cms.gov/Measure/SevereObstetricComplicationsFHIR","period":{"start":"2025-01-01","end":"2025-12-31"},"group":[{"population":[{"code":{"coding":[{"system":"http://terminology.hl7.org/CodeSystem/measure-population","code":"initial-population","display":"Initial Population"}]},"count":1},{"code":{"coding":[{"system":"http://terminology.hl7.org/CodeSystem/measure-population","code":"denominator","display":"Denominator"}]},"count":1},{"code":{"coding":[{"system":"http://terminology.hl7.org/CodeSystem/measure-population","code":"denominator-exclusion","display":"Denominator Exclusion"}]},"count":0},{"code":{"coding":[{"system":"http://terminology.hl7.org/CodeSystem/measure-population","code":"numerator","display":"Numerator"}]},"count":0},{"code":{"coding":[{"system":"http://terminology.hl7.org/CodeSystem/measure-population","code":"numerator-exclusion","display":"Numerator Exclusion"}]},"count":0}]}]},"request":{"method":"PUT","url":"MeasureReport/c6e06e26-b413-47f7-b7ff-ef0c88984466"}}]}