{"resourceType":"Bundle","id":"tests-6c96fedc-959a-415c-9cff-9c3ceb302c4d-bundle","type":"transaction","entry":[{"fullUrl":"https://madie.cms.gov/Patient/6c96fedc-959a-415c-9cff-9c3ceb302c4d","resource":{"resourceType":"Patient","id":"6c96fedc-959a-415c-9cff-9c3ceb302c4d","meta":{"profile":["http://hl7.org/fhir/us/qicore/StructureDefinition/qicore-patient"]},"text":{"status":"generated","div":"<div xmlns=\"http://www.w3.org/1999/xhtml\"><div class=\"hapiHeaderText\">EncDxEQSNOMEDShockPOAisNull <b>NUMFail </b></div><table class=\"hapiPropertyTable\"><tbody><tr><td>Date of birth</td><td><span>01 February 2004</span></td></tr></tbody></table></div>"},"extension":[{"url":"http://hl7.org/fhir/us/core/StructureDefinition/us-core-race","extension":[{"url":"ombCategory","valueCoding":{"system":"urn:oid:2.16.840.1.113883.6.238","code":"1002-5","display":"American Indian or Alaska Native","userSelected":true}},{"url":"text","valueString":"American Indian or Alaska Native"}]},{"url":"http://hl7.org/fhir/us/core/StructureDefinition/us-core-ethnicity","extension":[{"url":"ombCategory","valueCoding":{"system":"urn:oid:2.16.840.1.113883.6.238","code":"2135-2","display":"Hispanic or Latino","userSelected":true}},{"url":"text","valueString":"Hispanic or Latino"}]}],"identifier":[{"type":{"coding":[{"system":"http://terminology.hl7.org/CodeSystem/v2-0203","code":"MR"}]},"system":"https://bonnie-fhir.healthit.gov/","value":"6356dca654e383debade75aa"}],"active":true,"name":[{"use":"usual","family":"NUMFail","given":["EncDxEQSNOMEDShockPOAisNull"]}],"gender":"female","birthDate":"2004-02-01"},"request":{"method":"PUT","url":"Patient/6c96fedc-959a-415c-9cff-9c3ceb302c4d"}},{"fullUrl":"https://madie.cms.gov/Observation/5f29baa26f0b7100008d8af1","resource":{"resourceType":"Observation","id":"9818f9e7-69e5-4b12-8ea1-d970362cfda0","meta":{"profile":["http://hl7.org/fhir/us/qicore/StructureDefinition/qicore-observation"]},"status":"final","category":[{"coding":[{"system":"http://terminology.hl7.org/CodeSystem/observation-category","code":"exam","display":"exam","userSelected":true}]}],"code":{"coding":[{"system":"http://loinc.org","code":"93857-1"}]},"subject":{"reference":"Patient/6c96fedc-959a-415c-9cff-9c3ceb302c4d"},"effectiveDateTime":"2025-02-01T08:00:00.000+00:00","valueDateTime":"2025-02-01T08:00:00+00:00"},"request":{"method":"PUT","url":"Observation/9818f9e7-69e5-4b12-8ea1-d970362cfda0"}},{"fullUrl":"https://madie.cms.gov/Observation/5f32bf4551476200007ab6d3","resource":{"resourceType":"Observation","id":"605cca7c-9201-4590-8df6-0528c2674f74","meta":{"profile":["http://hl7.org/fhir/us/qicore/StructureDefinition/qicore-observation"]},"status":"final","category":[{"coding":[{"system":"http://terminology.hl7.org/CodeSystem/observation-category","code":"exam","display":"exam","userSelected":true}]}],"code":{"coding":[{"system":"http://loinc.org","code":"11884-4"}]},"subject":{"reference":"Patient/6c96fedc-959a-415c-9cff-9c3ceb302c4d"},"effectiveDateTime":"2025-02-01T08:00:00.000+00:00","valueQuantity":{"value":21.0,"system":"http://unitsofmeasure.org","code":"wk"}},"request":{"method":"PUT","url":"Observation/605cca7c-9201-4590-8df6-0528c2674f74"}},{"fullUrl":"https://madie.cms.gov/Encounter/5f21e66daca3e40000cb86cf","resource":{"resourceType":"Encounter","id":"40c2e4e5-5edb-4212-ba7d-37b786291d30","meta":{"profile":["http://hl7.org/fhir/us/qicore/StructureDefinition/qicore-encounter"]},"status":"finished","class":{"system":"http://terminology.hl7.org/CodeSystem/v3-ActCode","code":"IMP","display":"inpatient encounter"},"type":[{"coding":[{"system":"http://snomed.info/sct","code":"183452005"}]}],"subject":{"reference":"Patient/6c96fedc-959a-415c-9cff-9c3ceb302c4d"},"period":{"start":"2025-02-01T08:00:00.000Z","end":"2025-02-05T08:15:00.000Z"},"diagnosis":[{"condition":{"reference":"Condition/severe-maternal-morbidity-diagnoses-adc1"}}]},"request":{"method":"PUT","url":"Encounter/40c2e4e5-5edb-4212-ba7d-37b786291d30"}},{"fullUrl":"https://madie.cms.gov/Procedure/5f21e716aca3e40000cb87ee","resource":{"resourceType":"Procedure","id":"8e818d7d-09b3-4ed8-a4c8-fc3055bbcc68","meta":{"profile":["http://hl7.org/fhir/us/qicore/StructureDefinition/qicore-procedure"]},"extension":[{"url":"http://hl7.org/fhir/us/qicore/StructureDefinition/qicore-recorded","valueDateTime":"2013-04-05T09:35:00-04:00"}],"status":"completed","code":{"coding":[{"system":"http://snomed.info/sct","code":"10745001"}]},"subject":{"reference":"Patient/6c96fedc-959a-415c-9cff-9c3ceb302c4d"},"performedPeriod":{"start":"2025-02-01T08:00:00.000Z","end":"2025-02-05T08:15:00.000Z"}},"request":{"method":"PUT","url":"Procedure/8e818d7d-09b3-4ed8-a4c8-fc3055bbcc68"}},{"fullUrl":"https://madie.cms.gov/Condition/severe-maternal-morbidity-diagnoses-adc1","resource":{"resourceType":"Condition","id":"5db0bc81-7fed-4315-a819-80f8e1f7943a","meta":{"profile":["http://hl7.org/fhir/us/qicore/StructureDefinition/qicore-condition"]},"category":[{"coding":[{"system":"http://terminology.hl7.org/CodeSystem/condition-category","code":"encounter-diagnosis","display":"Encounter Diagnosis"}]}],"code":{"coding":[{"system":"http://snomed.info/sct","version":"2023","code":"1092471000119105","display":"Shock","userSelected":true}]},"subject":{"reference":"Patient/6c96fedc-959a-415c-9cff-9c3ceb302c4d"},"recordedDate":"2025-10-26T08:00:00.000+00:00"},"request":{"method":"PUT","url":"Condition/5db0bc81-7fed-4315-a819-80f8e1f7943a"}},{"fullUrl":"https://madie.cms.gov/Coverage/1","resource":{"resourceType":"Coverage","id":"5af86593-8622-4c26-a015-efe65c29366d","meta":{"profile":["http://hl7.org/fhir/us/qicore/StructureDefinition/qicore-coverage"]},"status":"active","beneficiary":{"reference":"Patient/6c96fedc-959a-415c-9cff-9c3ceb302c4d"},"payor":[{"reference":"Organization/33ead57e-5e04-40e4-95ea-bc3cdbd58917"}]},"request":{"method":"PUT","url":"Coverage/5af86593-8622-4c26-a015-efe65c29366d"}},{"fullUrl":"https://madie.cms.gov/Organization/123456","resource":{"resourceType":"Organization","id":"33ead57e-5e04-40e4-95ea-bc3cdbd58917","meta":{"profile":["http://hl7.org/fhir/us/qicore/StructureDefinition/qicore-organization"]},"identifier":[{"use":"temp","system":"urn:oid:2.16.840.1.113883.4.4","value":"21-3259825"}],"active":true,"type":[{"coding":[{"system":"http://terminology.hl7.org/CodeSystem/organization-type","code":"pay","display":"Payer"}]}],"name":"Blue Cross Blue Shield of Texas","telecom":[{"system":"phone","value":"(+1) 972-766-6900"}],"address":[{"use":"billing","type":"postal","line":["P.O. Box 660044"],"city":"Dallas","state":"TX","postalCode":"75266-0044","country":"USA"}]},"request":{"method":"PUT","url":"Organization/33ead57e-5e04-40e4-95ea-bc3cdbd58917"}},{"fullUrl":"https://madie.cms.gov/Practitioner/practitioner-123456","resource":{"resourceType":"Practitioner","id":"f7d21f9b-d10a-4887-aca0-fe850ede031b","identifier":[{"system":"http://hl7.org/fhir/sid/us-npi","value":"123456"}],"name":[{"family":"Evil","prefix":["Dr"]}]},"request":{"method":"PUT","url":"Practitioner/f7d21f9b-d10a-4887-aca0-fe850ede031b"}},{"fullUrl":"https://madie.cms.gov/MeasureReport/1800d6c3-ef05-491b-a01c-cad8dafd8e8a","resource":{"resourceType":"MeasureReport","id":"1800d6c3-ef05-491b-a01c-cad8dafd8e8a","meta":{"profile":["http://hl7.org/fhir/us/cqfmeasures/StructureDefinition/test-case-cqfm"]},"contained":[{"resourceType":"Parameters","id":"17be9736-ed05-4863-9247-4bd1ea89e4e7-parameters","parameter":[{"name":"subject","valueString":"6c96fedc-959a-415c-9cff-9c3ceb302c4d"}]}],"extension":[{"url":"http://hl7.org/fhir/us/cqfmeasures/StructureDefinition/cqfm-inputParameters","valueReference":{"reference":"#17be9736-ed05-4863-9247-4bd1ea89e4e7-parameters"}},{"url":"http://hl7.org/fhir/us/cqfmeasures/StructureDefinition/cqfm-testCaseDescription","valueMarkdown":"EncDx= shock.  A SNOMED code is entered and therefore case will fail as SNOMED codes are not in the value set for SMM Diagnoses.\n"}],"modifierExtension":[{"url":"http://hl7.org/fhir/us/cqfmeasures/StructureDefinition/cqfm-isTestCase","valueBoolean":true}],"status":"complete","type":"individual","measure":"https://madie.cms.gov/Measure/SevereObstetricComplicationsFHIR","period":{"start":"2025-01-01","end":"2025-12-31"},"group":[{"population":[{"code":{"coding":[{"system":"http://terminology.hl7.org/CodeSystem/measure-population","code":"initial-population","display":"Initial Population"}]},"count":1},{"code":{"coding":[{"system":"http://terminology.hl7.org/CodeSystem/measure-population","code":"denominator","display":"Denominator"}]},"count":1},{"code":{"coding":[{"system":"http://terminology.hl7.org/CodeSystem/measure-population","code":"denominator-exclusion","display":"Denominator Exclusion"}]},"count":0},{"code":{"coding":[{"system":"http://terminology.hl7.org/CodeSystem/measure-population","code":"numerator","display":"Numerator"}]},"count":0},{"code":{"coding":[{"system":"http://terminology.hl7.org/CodeSystem/measure-population","code":"numerator-exclusion","display":"Numerator Exclusion"}]},"count":0}]}]},"request":{"method":"PUT","url":"MeasureReport/1800d6c3-ef05-491b-a01c-cad8dafd8e8a"}}]}