{"resourceType":"Bundle","id":"tests-e0935b52-8ecc-4269-a87c-20055b6fd9e3-bundle","type":"transaction","entry":[{"fullUrl":"https://madie.cms.gov/Patient/e0935b52-8ecc-4269-a87c-20055b6fd9e3","resource":{"resourceType":"Patient","id":"e0935b52-8ecc-4269-a87c-20055b6fd9e3","meta":{"profile":["http://hl7.org/fhir/us/qicore/StructureDefinition/qicore-patient"]},"text":{"status":"generated","div":"<div xmlns=\"http://www.w3.org/1999/xhtml\"><div class=\"hapiHeaderText\">RISKHRRelDtTimeEQDelStartless1Min <b>RISKPass </b></div><table class=\"hapiPropertyTable\"><tbody><tr><td>Date of birth</td><td><span>01 February 2004</span></td></tr></tbody></table></div>"},"extension":[{"url":"http://hl7.org/fhir/us/core/StructureDefinition/us-core-race","extension":[{"url":"ombCategory","valueCoding":{"system":"urn:oid:2.16.840.1.113883.6.238","code":"1002-5","display":"American Indian or Alaska Native","userSelected":true}},{"url":"text","valueString":"American Indian or Alaska Native"}]},{"url":"http://hl7.org/fhir/us/core/StructureDefinition/us-core-ethnicity","extension":[{"url":"ombCategory","valueCoding":{"system":"urn:oid:2.16.840.1.113883.6.238","code":"2135-2","display":"Hispanic or Latino","userSelected":true}},{"url":"text","valueString":"Hispanic or Latino"}]}],"identifier":[{"type":{"coding":[{"system":"http://terminology.hl7.org/CodeSystem/v2-0203","code":"MR"}]},"system":"https://bonnie-fhir.healthit.gov/","value":"63598dd9c35f1c19df09adbd"}],"active":true,"name":[{"use":"usual","family":"RiskPass","given":["RISKHRRelDtTimeEQDelStartless1Min"]}],"gender":"female","birthDate":"2004-02-01"},"request":{"method":"PUT","url":"Patient/e0935b52-8ecc-4269-a87c-20055b6fd9e3"}},{"fullUrl":"https://madie.cms.gov/Observation/5f29baa26f0b7100008d8af1","resource":{"resourceType":"Observation","id":"a68f36dc-ef02-4284-9770-69db75b6ca09","meta":{"profile":["http://hl7.org/fhir/us/qicore/StructureDefinition/qicore-observation"]},"status":"final","category":[{"coding":[{"system":"http://terminology.hl7.org/CodeSystem/observation-category","code":"exam","display":"exam","userSelected":true}]}],"code":{"coding":[{"system":"http://loinc.org","code":"93857-1"}]},"subject":{"reference":"Patient/e0935b52-8ecc-4269-a87c-20055b6fd9e3"},"effectiveDateTime":"2025-02-01T08:00:00.000+00:00","valueDateTime":"2025-02-01T08:00:00+00:00"},"request":{"method":"PUT","url":"Observation/a68f36dc-ef02-4284-9770-69db75b6ca09"}},{"fullUrl":"https://madie.cms.gov/Observation/5f32bf4551476200007ab6d3","resource":{"resourceType":"Observation","id":"971fb4c1-808d-4d1d-a49e-1e7ec1a7ceba","meta":{"profile":["http://hl7.org/fhir/us/qicore/StructureDefinition/qicore-observation"]},"status":"final","category":[{"coding":[{"system":"http://terminology.hl7.org/CodeSystem/observation-category","code":"exam","display":"exam","userSelected":true}]}],"code":{"coding":[{"system":"http://loinc.org","code":"11884-4"}]},"subject":{"reference":"Patient/e0935b52-8ecc-4269-a87c-20055b6fd9e3"},"effectiveDateTime":"2025-02-01T08:00:00.000+00:00","valueQuantity":{"value":21,"system":"http://unitsofmeasure.org","code":"wk"}},"request":{"method":"PUT","url":"Observation/971fb4c1-808d-4d1d-a49e-1e7ec1a7ceba"}},{"fullUrl":"https://madie.cms.gov/Encounter/5f21e66daca3e40000cb86cg","resource":{"resourceType":"Encounter","id":"a431baf0-208c-4e68-a913-1edd6c7b76c7","meta":{"profile":["http://hl7.org/fhir/us/qicore/StructureDefinition/qicore-encounter"]},"status":"finished","class":{"system":"http://terminology.hl7.org/CodeSystem/v3-ActCode","code":"IMP","display":"inpatient encounter"},"type":[{"coding":[{"system":"http://snomed.info/sct","code":"183452005"}]}],"subject":{"reference":"Patient/e0935b52-8ecc-4269-a87c-20055b6fd9e3"},"period":{"start":"2025-02-01T08:00:00.000+00:00","end":"2025-02-05T08:15:00.000+00:00"}},"request":{"method":"PUT","url":"Encounter/a431baf0-208c-4e68-a913-1edd6c7b76c7"}},{"fullUrl":"https://madie.cms.gov/Encounter/6001e814bd87590000ceb183","resource":{"resourceType":"Encounter","id":"d8d7be98-0d8b-480d-8a0c-806b42676588","meta":{"profile":["http://hl7.org/fhir/us/qicore/StructureDefinition/qicore-encounter"]},"status":"finished","class":{"system":"http://terminology.hl7.org/CodeSystem/v3-ActCode","code":"EMER","display":"emergency"},"type":[{"coding":[{"system":"http://snomed.info/sct","code":"4525004"}]}],"subject":{"reference":"Patient/e0935b52-8ecc-4269-a87c-20055b6fd9e3"},"period":{"start":"2025-02-01T07:00:00.000+00:00","end":"2025-02-01T07:59:00.000+00:00"}},"request":{"method":"PUT","url":"Encounter/d8d7be98-0d8b-480d-8a0c-806b42676588"}},{"fullUrl":"https://madie.cms.gov/Procedure/5f21e716aca3e40000cb87ee","resource":{"resourceType":"Procedure","id":"ca810156-370a-4037-a0cc-a8a0ca0bcd7f","meta":{"profile":["http://hl7.org/fhir/us/qicore/StructureDefinition/qicore-procedure"]},"extension":[{"url":"http://hl7.org/fhir/us/qicore/StructureDefinition/qicore-recorded","valueDateTime":"2025-02-04T09:35:00-04:00"}],"status":"completed","code":{"coding":[{"system":"http://snomed.info/sct","code":"10745001"}]},"subject":{"reference":"Patient/e0935b52-8ecc-4269-a87c-20055b6fd9e3"},"performedPeriod":{"start":"2025-02-01T08:00:00.000+00:00","end":"2025-02-05T08:15:00.000+00:00"}},"request":{"method":"PUT","url":"Procedure/ca810156-370a-4037-a0cc-a8a0ca0bcd7f"}},{"fullUrl":"https://madie.cms.gov/Observation/heart-rate-adb72","resource":{"resourceType":"Observation","id":"9ba5de9d-27a4-440e-9f3d-77531999ea9e","meta":{"profile":["http://hl7.org/fhir/StructureDefinition/heartrate"]},"status":"final","category":[{"coding":[{"system":"http://terminology.hl7.org/CodeSystem/observation-category","code":"vital-signs","display":"vital-signs","userSelected":true}]}],"code":{"coding":[{"system":"http://loinc.org","version":"2.73","code":"8867-4","display":"Heart Rate"}]},"subject":{"reference":"Patient/e0935b52-8ecc-4269-a87c-20055b6fd9e3"},"effectiveDateTime":"2025-02-01T07:00:00.000+00:00","valueQuantity":{"value":85,"unit":"/min","system":"http://unitsofmeasure.org","code":"/min"}},"request":{"method":"PUT","url":"Observation/9ba5de9d-27a4-440e-9f3d-77531999ea9e"}},{"fullUrl":"https://madie.cms.gov/Observation/5f29baa26f0b7100008d8af1a","resource":{"resourceType":"Observation","id":"30427066-0e6b-4f7c-9e97-0017af4ae4b2","meta":{"profile":["http://hl7.org/fhir/us/qicore/StructureDefinition/qicore-observation"]},"status":"final","category":[{"coding":[{"system":"http://terminology.hl7.org/CodeSystem/observation-category","code":"exam","display":"exam","userSelected":true}]}],"code":{"coding":[{"system":"http://loinc.org","code":"93857-1"}]},"subject":{"reference":"Patient/e0935b52-8ecc-4269-a87c-20055b6fd9e3"},"effectiveDateTime":"2025-12-01T08:00:00.000+00:00","valueDateTime":"2025-12-01T08:00:00+00:00"},"request":{"method":"PUT","url":"Observation/30427066-0e6b-4f7c-9e97-0017af4ae4b2"}},{"fullUrl":"https://madie.cms.gov/Observation/5f32bf4551476200007ab6d3a","resource":{"resourceType":"Observation","id":"edb70329-2401-4bd7-a600-f185f8fe2caf","meta":{"profile":["http://hl7.org/fhir/us/qicore/StructureDefinition/qicore-observation"]},"status":"final","category":[{"coding":[{"system":"http://terminology.hl7.org/CodeSystem/observation-category","code":"exam","display":"exam","userSelected":true}]}],"code":{"coding":[{"system":"http://loinc.org","code":"11884-4"}]},"subject":{"reference":"Patient/e0935b52-8ecc-4269-a87c-20055b6fd9e3"},"effectiveDateTime":"2025-12-01T08:00:00.000+00:00","valueQuantity":{"value":21,"system":"http://unitsofmeasure.org","code":"wk"}},"request":{"method":"PUT","url":"Observation/edb70329-2401-4bd7-a600-f185f8fe2caf"}},{"fullUrl":"https://madie.cms.gov/Encounter/5f21e66daca3e40000cb86cga","resource":{"resourceType":"Encounter","id":"65274ad1-cbd8-45b3-9dfb-a2469e0ad24a","meta":{"profile":["http://hl7.org/fhir/us/qicore/StructureDefinition/qicore-encounter"]},"status":"finished","class":{"system":"http://terminology.hl7.org/CodeSystem/v3-ActCode","code":"IMP","display":"inpatient encounter"},"type":[{"coding":[{"system":"http://snomed.info/sct","code":"183452005"}]}],"subject":{"reference":"Patient/e0935b52-8ecc-4269-a87c-20055b6fd9e3"},"period":{"start":"2025-12-01T08:00:00.000+00:00","end":"2025-12-05T08:15:00.000+00:00"}},"request":{"method":"PUT","url":"Encounter/65274ad1-cbd8-45b3-9dfb-a2469e0ad24a"}},{"fullUrl":"https://madie.cms.gov/Encounter/6001e814bd87590000ceb183a","resource":{"resourceType":"Encounter","id":"399be529-adc7-4975-94fb-89cafab5b994","meta":{"profile":["http://hl7.org/fhir/us/qicore/StructureDefinition/qicore-encounter"]},"status":"finished","class":{"system":"http://terminology.hl7.org/CodeSystem/v3-ActCode","code":"EMER","display":"emergency"},"type":[{"coding":[{"system":"http://snomed.info/sct","code":"4525004"}]}],"subject":{"reference":"Patient/e0935b52-8ecc-4269-a87c-20055b6fd9e3"},"period":{"start":"2025-12-01T07:00:00.000+00:00","end":"2025-12-01T07:59:00.000+00:00"}},"request":{"method":"PUT","url":"Encounter/399be529-adc7-4975-94fb-89cafab5b994"}},{"fullUrl":"https://madie.cms.gov/Procedure/5f21e716aca3e40000cb87eea","resource":{"resourceType":"Procedure","id":"c79ed4d3-2350-4983-a052-5ec13aebc103","meta":{"profile":["http://hl7.org/fhir/us/qicore/StructureDefinition/qicore-procedure"]},"extension":[{"url":"http://hl7.org/fhir/us/qicore/StructureDefinition/qicore-recorded","valueDateTime":"2025-12-04T09:35:00-04:00"}],"status":"completed","code":{"coding":[{"system":"http://snomed.info/sct","code":"10745001"}]},"subject":{"reference":"Patient/e0935b52-8ecc-4269-a87c-20055b6fd9e3"},"performedPeriod":{"start":"2025-12-01T08:00:00.000+00:00","end":"2025-12-05T08:15:00.000+00:00"}},"request":{"method":"PUT","url":"Procedure/c79ed4d3-2350-4983-a052-5ec13aebc103"}},{"fullUrl":"https://madie.cms.gov/Observation/heart-rate-adb72a","resource":{"resourceType":"Observation","id":"825b6670-97c4-482b-9ec8-927f34c3e9a6","meta":{"profile":["http://hl7.org/fhir/StructureDefinition/heartrate"]},"status":"final","category":[{"coding":[{"system":"http://terminology.hl7.org/CodeSystem/observation-category","code":"vital-signs","display":"vital-signs","userSelected":true}]}],"code":{"coding":[{"system":"http://loinc.org","version":"2.73","code":"8867-4","display":"Heart Rate"}]},"subject":{"reference":"Patient/e0935b52-8ecc-4269-a87c-20055b6fd9e3"},"effectiveDateTime":"2025-12-01T07:00:00.000+00:00","valueQuantity":{"value":90,"unit":"/min","system":"http://unitsofmeasure.org","code":"/min"}},"request":{"method":"PUT","url":"Observation/825b6670-97c4-482b-9ec8-927f34c3e9a6"}},{"fullUrl":"https://madie.cms.gov/MeasureReport/50ec76bb-c995-4c32-9786-76f534dd1de4","resource":{"resourceType":"MeasureReport","id":"50ec76bb-c995-4c32-9786-76f534dd1de4","meta":{"profile":["http://hl7.org/fhir/us/cqfmeasures/StructureDefinition/test-case-cqfm"]},"contained":[{"resourceType":"Parameters","id":"90538aa2-673f-45cb-9728-10e06e0070d1-parameters","parameter":[{"name":"subject","valueString":"e0935b52-8ecc-4269-a87c-20055b6fd9e3"}]}],"extension":[{"url":"http://hl7.org/fhir/us/cqfmeasures/StructureDefinition/cqfm-inputParameters","valueReference":{"reference":"#90538aa2-673f-45cb-9728-10e06e0070d1-parameters"}},{"url":"http://hl7.org/fhir/us/cqfmeasures/StructureDefinition/cqfm-testCaseDescription","valueMarkdown":"2 encounters with heart rate.   No way to determine this in MADIE.\n"}],"modifierExtension":[{"url":"http://hl7.org/fhir/us/cqfmeasures/StructureDefinition/cqfm-isTestCase","valueBoolean":true}],"status":"complete","type":"individual","measure":"https://madie.cms.gov/Measure/SevereObstetricComplicationsFHIR","period":{"start":"2025-01-01","end":"2025-12-31"},"group":[{"population":[{"code":{"coding":[{"system":"http://terminology.hl7.org/CodeSystem/measure-population","code":"initial-population","display":"Initial Population"}]},"count":2},{"code":{"coding":[{"system":"http://terminology.hl7.org/CodeSystem/measure-population","code":"denominator","display":"Denominator"}]},"count":2},{"code":{"coding":[{"system":"http://terminology.hl7.org/CodeSystem/measure-population","code":"denominator-exclusion","display":"Denominator Exclusion"}]},"count":0},{"code":{"coding":[{"system":"http://terminology.hl7.org/CodeSystem/measure-population","code":"numerator","display":"Numerator"}]},"count":0},{"code":{"coding":[{"system":"http://terminology.hl7.org/CodeSystem/measure-population","code":"numerator-exclusion","display":"Numerator Exclusion"}]},"count":0}]}]},"request":{"method":"PUT","url":"MeasureReport/50ec76bb-c995-4c32-9786-76f534dd1de4"}}]}