{"resourceType":"Bundle","id":"tests-e0935b52-8ecc-4269-a87c-20055b6fd9e3-bundle","type":"transaction","entry":[{"fullUrl":"https://madie.cms.gov/Patient/e0935b52-8ecc-4269-a87c-20055b6fd9e3","resource":{"resourceType":"Patient","id":"e0935b52-8ecc-4269-a87c-20055b6fd9e3","meta":{"profile":["http://hl7.org/fhir/us/qicore/StructureDefinition/qicore-patient"]},"text":{"status":"generated","div":"<div xmlns=\"http://www.w3.org/1999/xhtml\"><div class=\"hapiHeaderText\">RISKHRRelDtTimeEQDelStartless1Min <b>RISKPass </b></div><table class=\"hapiPropertyTable\"><tbody><tr><td>Date of birth</td><td><span>01 February 2004</span></td></tr></tbody></table></div>"},"extension":[{"url":"http://hl7.org/fhir/us/core/StructureDefinition/us-core-race","extension":[{"url":"ombCategory","valueCoding":{"system":"urn:oid:2.16.840.1.113883.6.238","code":"1002-5","display":"American Indian or Alaska Native","userSelected":true}},{"url":"text","valueString":"American Indian or Alaska Native"}]},{"url":"http://hl7.org/fhir/us/core/StructureDefinition/us-core-ethnicity","extension":[{"url":"ombCategory","valueCoding":{"system":"urn:oid:2.16.840.1.113883.6.238","code":"2135-2","display":"Hispanic or Latino","userSelected":true}},{"url":"text","valueString":"Hispanic or Latino"}]}],"identifier":[{"type":{"coding":[{"system":"http://terminology.hl7.org/CodeSystem/v2-0203","code":"MR"}]},"system":"https://bonnie-fhir.healthit.gov/","value":"63598dd9c35f1c19df09adbd"}],"active":true,"name":[{"use":"usual","family":"RiskPass","given":["RISKHRRelDtTimeEQDelStartless1Min"]}],"gender":"female","birthDate":"2004-02-01"},"request":{"method":"PUT","url":"Patient/e0935b52-8ecc-4269-a87c-20055b6fd9e3"}},{"fullUrl":"https://madie.cms.gov/Observation/5f29baa26f0b7100008d8af1","resource":{"resourceType":"Observation","id":"7d1f0d50-d249-41d5-b94f-64caa36f9497","meta":{"profile":["http://hl7.org/fhir/us/qicore/StructureDefinition/qicore-observation"]},"status":"final","category":[{"coding":[{"system":"http://terminology.hl7.org/CodeSystem/observation-category","code":"exam","display":"exam","userSelected":true}]}],"code":{"coding":[{"system":"http://loinc.org","code":"93857-1"}]},"subject":{"reference":"Patient/e0935b52-8ecc-4269-a87c-20055b6fd9e3"},"effectiveDateTime":"2025-02-01T08:00:00.000+00:00","valueDateTime":"2025-02-01T08:00:00+00:00"},"request":{"method":"PUT","url":"Observation/7d1f0d50-d249-41d5-b94f-64caa36f9497"}},{"fullUrl":"https://madie.cms.gov/Observation/5f32bf4551476200007ab6d3","resource":{"resourceType":"Observation","id":"40ddc7f8-a396-406a-9923-8adbd0ba6687","meta":{"profile":["http://hl7.org/fhir/us/qicore/StructureDefinition/qicore-observation"]},"status":"final","category":[{"coding":[{"system":"http://terminology.hl7.org/CodeSystem/observation-category","code":"exam","display":"exam","userSelected":true}]}],"code":{"coding":[{"system":"http://loinc.org","code":"11884-4"}]},"subject":{"reference":"Patient/e0935b52-8ecc-4269-a87c-20055b6fd9e3"},"effectiveDateTime":"2025-02-01T08:00:00.000+00:00","valueQuantity":{"value":21,"system":"http://unitsofmeasure.org","code":"wk"}},"request":{"method":"PUT","url":"Observation/40ddc7f8-a396-406a-9923-8adbd0ba6687"}},{"fullUrl":"https://madie.cms.gov/Encounter/5f21e66daca3e40000cb86cg","resource":{"resourceType":"Encounter","id":"c22eb2e7-46ad-4c40-8902-c9970f3b6789","meta":{"profile":["http://hl7.org/fhir/us/qicore/StructureDefinition/qicore-encounter"]},"status":"finished","class":{"system":"http://terminology.hl7.org/CodeSystem/v3-ActCode","code":"IMP","display":"inpatient encounter"},"type":[{"coding":[{"system":"http://snomed.info/sct","code":"183452005"}]}],"subject":{"reference":"Patient/e0935b52-8ecc-4269-a87c-20055b6fd9e3"},"period":{"start":"2025-02-01T08:00:00.000+00:00","end":"2025-02-05T08:15:00.000+00:00"}},"request":{"method":"PUT","url":"Encounter/c22eb2e7-46ad-4c40-8902-c9970f3b6789"}},{"fullUrl":"https://madie.cms.gov/Encounter/6001e814bd87590000ceb183","resource":{"resourceType":"Encounter","id":"9d6049b0-78cd-4394-95d2-b13d3c767d25","meta":{"profile":["http://hl7.org/fhir/us/qicore/StructureDefinition/qicore-encounter"]},"status":"finished","class":{"system":"http://terminology.hl7.org/CodeSystem/v3-ActCode","code":"EMER","display":"emergency"},"type":[{"coding":[{"system":"http://snomed.info/sct","code":"4525004"}]}],"subject":{"reference":"Patient/e0935b52-8ecc-4269-a87c-20055b6fd9e3"},"period":{"start":"2025-02-01T07:00:00.000+00:00","end":"2025-02-01T07:59:00.000+00:00"}},"request":{"method":"PUT","url":"Encounter/9d6049b0-78cd-4394-95d2-b13d3c767d25"}},{"fullUrl":"https://madie.cms.gov/Procedure/5f21e716aca3e40000cb87ee","resource":{"resourceType":"Procedure","id":"c93e5532-1ec8-4cdb-8602-72eee04dc2d1","meta":{"profile":["http://hl7.org/fhir/us/qicore/StructureDefinition/qicore-procedure"]},"extension":[{"url":"http://hl7.org/fhir/us/qicore/StructureDefinition/qicore-recorded","valueDateTime":"2025-02-04T09:35:00-04:00"}],"status":"completed","code":{"coding":[{"system":"http://snomed.info/sct","code":"10745001"}]},"subject":{"reference":"Patient/e0935b52-8ecc-4269-a87c-20055b6fd9e3"},"performedPeriod":{"start":"2025-02-01T08:00:00.000+00:00","end":"2025-02-05T08:15:00.000+00:00"}},"request":{"method":"PUT","url":"Procedure/c93e5532-1ec8-4cdb-8602-72eee04dc2d1"}},{"fullUrl":"https://madie.cms.gov/Observation/heart-rate-adb72","resource":{"resourceType":"Observation","id":"3437d207-ed6c-47ca-ae46-81e7be3636db","meta":{"profile":["http://hl7.org/fhir/StructureDefinition/heartrate"]},"status":"final","category":[{"coding":[{"system":"http://terminology.hl7.org/CodeSystem/observation-category","code":"vital-signs","display":"vital-signs","userSelected":true}]}],"code":{"coding":[{"system":"http://loinc.org","version":"2.73","code":"8867-4","display":"Heart Rate"}]},"subject":{"reference":"Patient/e0935b52-8ecc-4269-a87c-20055b6fd9e3"},"effectiveDateTime":"2025-02-01T07:00:00.000+00:00","valueQuantity":{"value":85,"unit":"/min","system":"http://unitsofmeasure.org","code":"/min"}},"request":{"method":"PUT","url":"Observation/3437d207-ed6c-47ca-ae46-81e7be3636db"}},{"fullUrl":"https://madie.cms.gov/Observation/5f29baa26f0b7100008d8af1a","resource":{"resourceType":"Observation","id":"41bd4ffc-33ff-4379-81c8-22c8e163cf61","meta":{"profile":["http://hl7.org/fhir/us/qicore/StructureDefinition/qicore-observation"]},"status":"final","category":[{"coding":[{"system":"http://terminology.hl7.org/CodeSystem/observation-category","code":"exam","display":"exam","userSelected":true}]}],"code":{"coding":[{"system":"http://loinc.org","code":"93857-1"}]},"subject":{"reference":"Patient/e0935b52-8ecc-4269-a87c-20055b6fd9e3"},"effectiveDateTime":"2025-12-01T08:00:00.000+00:00","valueDateTime":"2025-12-01T08:00:00+00:00"},"request":{"method":"PUT","url":"Observation/41bd4ffc-33ff-4379-81c8-22c8e163cf61"}},{"fullUrl":"https://madie.cms.gov/Observation/5f32bf4551476200007ab6d3a","resource":{"resourceType":"Observation","id":"32c91120-6197-4741-897f-1c886e4d58f0","meta":{"profile":["http://hl7.org/fhir/us/qicore/StructureDefinition/qicore-observation"]},"status":"final","category":[{"coding":[{"system":"http://terminology.hl7.org/CodeSystem/observation-category","code":"exam","display":"exam","userSelected":true}]}],"code":{"coding":[{"system":"http://loinc.org","code":"11884-4"}]},"subject":{"reference":"Patient/e0935b52-8ecc-4269-a87c-20055b6fd9e3"},"effectiveDateTime":"2025-12-01T08:00:00.000+00:00","valueQuantity":{"value":21,"system":"http://unitsofmeasure.org","code":"wk"}},"request":{"method":"PUT","url":"Observation/32c91120-6197-4741-897f-1c886e4d58f0"}},{"fullUrl":"https://madie.cms.gov/Encounter/5f21e66daca3e40000cb86cga","resource":{"resourceType":"Encounter","id":"e1e7b94d-80b0-4c46-bbfe-385d54e246cd","meta":{"profile":["http://hl7.org/fhir/us/qicore/StructureDefinition/qicore-encounter"]},"status":"finished","class":{"system":"http://terminology.hl7.org/CodeSystem/v3-ActCode","code":"IMP","display":"inpatient encounter"},"type":[{"coding":[{"system":"http://snomed.info/sct","code":"183452005"}]}],"subject":{"reference":"Patient/e0935b52-8ecc-4269-a87c-20055b6fd9e3"},"period":{"start":"2025-12-01T08:00:00.000+00:00","end":"2025-12-05T08:15:00.000+00:00"}},"request":{"method":"PUT","url":"Encounter/e1e7b94d-80b0-4c46-bbfe-385d54e246cd"}},{"fullUrl":"https://madie.cms.gov/Encounter/6001e814bd87590000ceb183a","resource":{"resourceType":"Encounter","id":"f6c4a373-5637-4b22-9397-cbe7d8b0fc17","meta":{"profile":["http://hl7.org/fhir/us/qicore/StructureDefinition/qicore-encounter"]},"status":"finished","class":{"system":"http://terminology.hl7.org/CodeSystem/v3-ActCode","code":"EMER","display":"emergency"},"type":[{"coding":[{"system":"http://snomed.info/sct","code":"4525004"}]}],"subject":{"reference":"Patient/e0935b52-8ecc-4269-a87c-20055b6fd9e3"},"period":{"start":"2025-12-01T07:00:00.000+00:00","end":"2025-12-01T07:59:00.000+00:00"}},"request":{"method":"PUT","url":"Encounter/f6c4a373-5637-4b22-9397-cbe7d8b0fc17"}},{"fullUrl":"https://madie.cms.gov/Procedure/5f21e716aca3e40000cb87eea","resource":{"resourceType":"Procedure","id":"be56afe0-36be-4baa-99f2-8306bc39d1a8","meta":{"profile":["http://hl7.org/fhir/us/qicore/StructureDefinition/qicore-procedure"]},"extension":[{"url":"http://hl7.org/fhir/us/qicore/StructureDefinition/qicore-recorded","valueDateTime":"2025-12-04T09:35:00-04:00"}],"status":"completed","code":{"coding":[{"system":"http://snomed.info/sct","code":"10745001"}]},"subject":{"reference":"Patient/e0935b52-8ecc-4269-a87c-20055b6fd9e3"},"performedPeriod":{"start":"2025-12-01T08:00:00.000+00:00","end":"2025-12-05T08:15:00.000+00:00"}},"request":{"method":"PUT","url":"Procedure/be56afe0-36be-4baa-99f2-8306bc39d1a8"}},{"fullUrl":"https://madie.cms.gov/Observation/heart-rate-adb72a","resource":{"resourceType":"Observation","id":"f4845d8e-4d89-4c25-8ffe-8c531eeca7d9","meta":{"profile":["http://hl7.org/fhir/StructureDefinition/heartrate"]},"status":"final","category":[{"coding":[{"system":"http://terminology.hl7.org/CodeSystem/observation-category","code":"vital-signs","display":"vital-signs","userSelected":true}]}],"code":{"coding":[{"system":"http://loinc.org","version":"2.73","code":"8867-4","display":"Heart Rate"}]},"subject":{"reference":"Patient/e0935b52-8ecc-4269-a87c-20055b6fd9e3"},"effectiveDateTime":"2025-12-01T07:00:00.000+00:00","valueQuantity":{"value":90,"unit":"/min","system":"http://unitsofmeasure.org","code":"/min"}},"request":{"method":"PUT","url":"Observation/f4845d8e-4d89-4c25-8ffe-8c531eeca7d9"}},{"fullUrl":"https://madie.cms.gov/MeasureReport/50ec76bb-c995-4c32-9786-76f534dd1de4","resource":{"resourceType":"MeasureReport","id":"50ec76bb-c995-4c32-9786-76f534dd1de4","meta":{"profile":["http://hl7.org/fhir/us/cqfmeasures/StructureDefinition/test-case-cqfm"]},"contained":[{"resourceType":"Parameters","id":"90538aa2-673f-45cb-9728-10e06e0070d1-parameters","parameter":[{"name":"subject","valueString":"e0935b52-8ecc-4269-a87c-20055b6fd9e3"}]}],"extension":[{"url":"http://hl7.org/fhir/us/cqfmeasures/StructureDefinition/cqfm-inputParameters","valueReference":{"reference":"#90538aa2-673f-45cb-9728-10e06e0070d1-parameters"}},{"url":"http://hl7.org/fhir/us/cqfmeasures/StructureDefinition/cqfm-testCaseDescription","valueMarkdown":"2 encounters with heart rate.   No way to determine this in MADIE.\n"}],"modifierExtension":[{"url":"http://hl7.org/fhir/us/cqfmeasures/StructureDefinition/cqfm-isTestCase","valueBoolean":true}],"status":"complete","type":"individual","measure":"https://madie.cms.gov/Measure/SevereObstetricComplicationsFHIR","period":{"start":"2025-01-01","end":"2025-12-31"},"group":[{"population":[{"code":{"coding":[{"system":"http://terminology.hl7.org/CodeSystem/measure-population","code":"initial-population","display":"Initial Population"}]},"count":2},{"code":{"coding":[{"system":"http://terminology.hl7.org/CodeSystem/measure-population","code":"denominator","display":"Denominator"}]},"count":2},{"code":{"coding":[{"system":"http://terminology.hl7.org/CodeSystem/measure-population","code":"denominator-exclusion","display":"Denominator Exclusion"}]},"count":0},{"code":{"coding":[{"system":"http://terminology.hl7.org/CodeSystem/measure-population","code":"numerator","display":"Numerator"}]},"count":0},{"code":{"coding":[{"system":"http://terminology.hl7.org/CodeSystem/measure-population","code":"numerator-exclusion","display":"Numerator Exclusion"}]},"count":0}]}]},"request":{"method":"PUT","url":"MeasureReport/50ec76bb-c995-4c32-9786-76f534dd1de4"}}]}