{"resourceType":"Bundle","id":"tests-c24eaa0b-0b4f-4150-a806-63b9b672d5e1-bundle","type":"transaction","entry":[{"fullUrl":"https://madie.cms.gov/Patient/c24eaa0b-0b4f-4150-a806-63b9b672d5e1","resource":{"resourceType":"Patient","id":"c24eaa0b-0b4f-4150-a806-63b9b672d5e1","meta":{"profile":["http://hl7.org/fhir/us/qicore/StructureDefinition/qicore-patient"]},"text":{"status":"generated","div":"<div xmlns=\"http://www.w3.org/1999/xhtml\"><div class=\"hapiHeaderText\">AssPrfDELRelvDt_EQIPStart <b>DENOMPASS </b></div><table class=\"hapiPropertyTable\"><tbody><tr><td>Date of birth</td><td><span>01 February 2004</span></td></tr></tbody></table></div>"},"extension":[{"url":"http://hl7.org/fhir/us/core/StructureDefinition/us-core-race","extension":[{"url":"ombCategory","valueCoding":{"system":"urn:oid:2.16.840.1.113883.6.238","code":"1002-5","display":"American Indian or Alaska Native","userSelected":true}},{"url":"text","valueString":"American Indian or Alaska Native"}]},{"url":"http://hl7.org/fhir/us/core/StructureDefinition/us-core-ethnicity","extension":[{"url":"ombCategory","valueCoding":{"system":"urn:oid:2.16.840.1.113883.6.238","code":"2135-2","display":"Hispanic or Latino","userSelected":true}},{"url":"text","valueString":"Hispanic or Latino"}]}],"identifier":[{"type":{"coding":[{"system":"http://terminology.hl7.org/CodeSystem/v2-0203","code":"MR"}]},"system":"https://bonnie-fhir.healthit.gov/","value":"6356d4d054e383debade75a5"}],"active":true,"name":[{"use":"usual","family":"DENEXCFail","given":["CovidDxCovidProcedureStrts1201amDayAftEncEnds"]}],"gender":"female","birthDate":"2004-02-01"},"request":{"method":"PUT","url":"Patient/c24eaa0b-0b4f-4150-a806-63b9b672d5e1"}},{"fullUrl":"https://madie.cms.gov/Observation/5f29baa26f0b7100008d8af1","resource":{"resourceType":"Observation","id":"0c401950-0012-4557-9fc1-b7285206f54c","meta":{"profile":["http://hl7.org/fhir/us/qicore/StructureDefinition/qicore-observation"]},"status":"final","category":[{"coding":[{"system":"http://terminology.hl7.org/CodeSystem/observation-category","code":"exam","display":"exam","userSelected":true}]}],"code":{"coding":[{"system":"http://loinc.org","code":"93857-1"}]},"subject":{"reference":"Patient/c24eaa0b-0b4f-4150-a806-63b9b672d5e1"},"effectiveDateTime":"2025-02-01T08:00:00.000+00:00","valueDateTime":"2025-02-01T08:00:00.000+00:00"},"request":{"method":"PUT","url":"Observation/0c401950-0012-4557-9fc1-b7285206f54c"}},{"fullUrl":"https://madie.cms.gov/Observation/5f29bb016f0b7100008d8b15","resource":{"resourceType":"Observation","id":"e662e289-f621-424d-9b18-0f6c3edb8265","meta":{"profile":["http://hl7.org/fhir/us/qicore/StructureDefinition/qicore-observation"]},"status":"final","category":[{"coding":[{"system":"http://terminology.hl7.org/CodeSystem/observation-category","code":"exam","display":"exam","userSelected":true}]}],"code":{"coding":[{"system":"http://loinc.org","code":"11778-8"}]},"subject":{"reference":"Patient/c24eaa0b-0b4f-4150-a806-63b9b672d5e1"},"effectiveDateTime":"2025-02-01T08:00:00.000+00:00","valueDateTime":"2025-02-01T08:00:00.000+00:00"},"request":{"method":"PUT","url":"Observation/e662e289-f621-424d-9b18-0f6c3edb8265"}},{"fullUrl":"https://madie.cms.gov/Encounter/5f21e66daca3e40000cb86cf","resource":{"resourceType":"Encounter","id":"44b1c5a7-4816-4d24-bbc1-69e76d1a682b","meta":{"profile":["http://hl7.org/fhir/us/qicore/StructureDefinition/qicore-encounter"]},"status":"finished","class":{"system":"http://terminology.hl7.org/CodeSystem/v3-ActCode","code":"IMP","display":"inpatient encounter"},"type":[{"coding":[{"system":"http://snomed.info/sct","code":"183452005"}]}],"subject":{"reference":"Patient/c24eaa0b-0b4f-4150-a806-63b9b672d5e1"},"period":{"start":"2025-02-01T08:00:00.000Z","end":"2025-02-05T08:15:00.000Z"},"diagnosis":[{"condition":{"reference":"Condition/covid-19-confirmed-759f"}}]},"request":{"method":"PUT","url":"Encounter/44b1c5a7-4816-4d24-bbc1-69e76d1a682b"}},{"fullUrl":"https://madie.cms.gov/Procedure/5f21e716aca3e40000cb87ee","resource":{"resourceType":"Procedure","id":"ea2cb492-155e-4b24-b3b4-784b6949f3e8","meta":{"profile":["http://hl7.org/fhir/us/qicore/StructureDefinition/qicore-procedure"]},"extension":[{"url":"http://hl7.org/fhir/us/qicore/StructureDefinition/qicore-recorded","valueDateTime":"2013-04-05T09:35:00-04:00"}],"status":"completed","code":{"coding":[{"system":"http://snomed.info/sct","code":"10745001"}]},"subject":{"reference":"Patient/c24eaa0b-0b4f-4150-a806-63b9b672d5e1"},"performedPeriod":{"start":"2025-02-01T08:00:00.000Z","end":"2025-02-05T08:15:00.000Z"}},"request":{"method":"PUT","url":"Procedure/ea2cb492-155e-4b24-b3b4-784b6949f3e8"}},{"fullUrl":"https://madie.cms.gov/Condition/covid-19-confirmed-759f","resource":{"resourceType":"Condition","id":"3aea33b0-f91f-40ab-9ffe-d3a3213072e5","meta":{"profile":["http://hl7.org/fhir/us/qicore/StructureDefinition/qicore-condition"]},"category":[{"coding":[{"system":"http://terminology.hl7.org/CodeSystem/condition-category","code":"encounter-diagnosis","display":"Encounter Diagnosis"}]}],"code":{"coding":[{"system":"http://snomed.info/sct","version":"2022-09","code":"840539006","display":"Disease caused by severe acute respiratory syndrome coronavirus 2 (disorder)","userSelected":true}]},"subject":{"reference":"Patient/c24eaa0b-0b4f-4150-a806-63b9b672d5e1"}},"request":{"method":"PUT","url":"Condition/3aea33b0-f91f-40ab-9ffe-d3a3213072e5"}},{"fullUrl":"https://madie.cms.gov/Procedure/respiratory-support-procedures-related-to-covid-19-75a2","resource":{"resourceType":"Procedure","id":"e8fe982c-d91d-40df-85cc-be52fedeef67","meta":{"profile":["http://hl7.org/fhir/us/qicore/StructureDefinition/qicore-procedure"]},"extension":[{"url":"http://hl7.org/fhir/us/qicore/StructureDefinition/qicore-recorded","valueDateTime":"2013-04-05T09:35:00-04:00"}],"status":"completed","code":{"coding":[{"system":"http://snomed.info/sct","version":"2022-09","code":"233573008","display":"Extracorporeal membrane oxygenation (procedure)","userSelected":true}]},"subject":{"reference":"Patient/c24eaa0b-0b4f-4150-a806-63b9b672d5e1"},"performedDateTime":"2025-02-06T00:01:00.000+00:00"},"request":{"method":"PUT","url":"Procedure/e8fe982c-d91d-40df-85cc-be52fedeef67"}},{"fullUrl":"https://madie.cms.gov/Coverage/payer-adc0","resource":{"resourceType":"Coverage","id":"eca33b46-0bae-4784-b819-286be1ddd0d3","status":"active","type":{"coding":[{"system":"http://www.nlm.nih.gov/research/umls/sop","version":"9.2","code":"1","display":"MEDICARE","userSelected":true}]},"beneficiary":{"reference":"Patient/c24eaa0b-0b4f-4150-a806-63b9b672d5e1"},"payor":[{"reference":"Organization/9e9b3f13-a353-4173-b29b-947d6f1f2031"}]},"request":{"method":"PUT","url":"Coverage/eca33b46-0bae-4784-b819-286be1ddd0d3"}},{"fullUrl":"https://madie.cms.gov/Organization/123456","resource":{"resourceType":"Organization","id":"9e9b3f13-a353-4173-b29b-947d6f1f2031","meta":{"profile":["http://hl7.org/fhir/us/qicore/StructureDefinition/qicore-organization"]},"identifier":[{"use":"temp","system":"urn:oid:2.16.840.1.113883.4.4","value":"21-3259825"}],"active":true,"type":[{"coding":[{"system":"http://terminology.hl7.org/CodeSystem/organization-type","code":"pay","display":"Payer"}]}],"name":"Blue Cross Blue Shield of Texas","telecom":[{"system":"phone","value":"(+1) 972-766-6900"}],"address":[{"use":"billing","type":"postal","line":["P.O. Box 660044"],"city":"Dallas","state":"TX","postalCode":"75266-0044","country":"USA"}]},"request":{"method":"PUT","url":"Organization/9e9b3f13-a353-4173-b29b-947d6f1f2031"}},{"fullUrl":"https://madie.cms.gov/Practitioner/practitioner-123456","resource":{"resourceType":"Practitioner","id":"64656a06-9676-45ba-b10d-952420e1d3ec","identifier":[{"system":"http://hl7.org/fhir/sid/us-npi","value":"123456"}],"name":[{"family":"Evil","prefix":["Dr"]}]},"request":{"method":"PUT","url":"Practitioner/64656a06-9676-45ba-b10d-952420e1d3ec"}},{"fullUrl":"https://madie.cms.gov/MeasureReport/53199d33-2f6f-405b-9251-69e2152c1076","resource":{"resourceType":"MeasureReport","id":"53199d33-2f6f-405b-9251-69e2152c1076","meta":{"profile":["http://hl7.org/fhir/us/cqfmeasures/StructureDefinition/test-case-cqfm"]},"contained":[{"resourceType":"Parameters","id":"4051c1e9-a523-488e-8cf2-4f4887b7b09f-parameters","parameter":[{"name":"subject","valueString":"c24eaa0b-0b4f-4150-a806-63b9b672d5e1"}]}],"extension":[{"url":"http://hl7.org/fhir/us/cqfmeasures/StructureDefinition/cqfm-inputParameters","valueReference":{"reference":"#4051c1e9-a523-488e-8cf2-4f4887b7b09f-parameters"}},{"url":"http://hl7.org/fhir/us/cqfmeasures/StructureDefinition/cqfm-testCaseDescription","valueMarkdown":"Patient with confirmed COVID diagnosis and COVID related procedure which starts 12:01 am day after encounter ends\n"}],"modifierExtension":[{"url":"http://hl7.org/fhir/us/cqfmeasures/StructureDefinition/cqfm-isTestCase","valueBoolean":true}],"status":"complete","type":"individual","measure":"https://madie.cms.gov/Measure/SevereObstetricComplicationsFHIR","period":{"start":"2025-01-01","end":"2025-12-31"},"group":[{"population":[{"code":{"coding":[{"system":"http://terminology.hl7.org/CodeSystem/measure-population","code":"initial-population","display":"Initial Population"}]},"count":1},{"code":{"coding":[{"system":"http://terminology.hl7.org/CodeSystem/measure-population","code":"denominator","display":"Denominator"}]},"count":1},{"code":{"coding":[{"system":"http://terminology.hl7.org/CodeSystem/measure-population","code":"denominator-exclusion","display":"Denominator Exclusion"}]},"count":0},{"code":{"coding":[{"system":"http://terminology.hl7.org/CodeSystem/measure-population","code":"numerator","display":"Numerator"}]},"count":0},{"code":{"coding":[{"system":"http://terminology.hl7.org/CodeSystem/measure-population","code":"numerator-exclusion","display":"Numerator Exclusion"}]},"count":0}]}]},"request":{"method":"PUT","url":"MeasureReport/53199d33-2f6f-405b-9251-69e2152c1076"}}]}