{"resourceType":"Bundle","id":"tests-9f456dd6-ec6a-4e0d-a977-123c24f7538a-bundle","type":"transaction","entry":[{"fullUrl":"https://madie.cms.gov/Patient/9f456dd6-ec6a-4e0d-a977-123c24f7538a","resource":{"resourceType":"Patient","id":"9f456dd6-ec6a-4e0d-a977-123c24f7538a","meta":{"profile":["http://hl7.org/fhir/us/qicore/StructureDefinition/qicore-patient"]},"text":{"status":"generated","div":"<div xmlns=\"http://www.w3.org/1999/xhtml\"><div class=\"hapiHeaderText\">Risk_SeverePreEclampsia <b>RISKPass </b></div><table class=\"hapiPropertyTable\"><tbody><tr><td>Date of birth</td><td><span>01 February 2004</span></td></tr></tbody></table></div>"},"extension":[{"url":"http://hl7.org/fhir/us/core/StructureDefinition/us-core-race","extension":[{"url":"ombCategory","valueCoding":{"system":"urn:oid:2.16.840.1.113883.6.238","code":"1002-5","display":"American Indian or Alaska Native","userSelected":true}},{"url":"text","valueString":"American Indian or Alaska Native"}]},{"url":"http://hl7.org/fhir/us/core/StructureDefinition/us-core-ethnicity","extension":[{"url":"ombCategory","valueCoding":{"system":"urn:oid:2.16.840.1.113883.6.238","code":"2135-2","display":"Hispanic or Latino","userSelected":true}},{"url":"text","valueString":"Hispanic or Latino"}]}],"identifier":[{"type":{"coding":[{"system":"http://terminology.hl7.org/CodeSystem/v2-0203","code":"MR"}]},"system":"https://bonnie-fhir.healthit.gov/","value":"63594c7a6aee9629c82981df"}],"active":true,"name":[{"use":"usual","family":"RiskPass","given":["Risk_SeverePreEclampsia"]}],"gender":"female","birthDate":"2004-02-01"},"request":{"method":"PUT","url":"Patient/9f456dd6-ec6a-4e0d-a977-123c24f7538a"}},{"fullUrl":"https://madie.cms.gov/Observation/5f29baa26f0b7100008d8af1","resource":{"resourceType":"Observation","id":"ad986bd8-75fe-4986-869a-234e76cb136a","meta":{"profile":["http://hl7.org/fhir/us/qicore/StructureDefinition/qicore-observation"]},"status":"final","category":[{"coding":[{"system":"http://terminology.hl7.org/CodeSystem/observation-category","code":"exam","display":"exam","userSelected":true}]}],"code":{"coding":[{"system":"http://loinc.org","code":"93857-1"}]},"subject":{"reference":"Patient/9f456dd6-ec6a-4e0d-a977-123c24f7538a"},"effectiveDateTime":"2025-02-01T08:00:00.000+00:00","valueDateTime":"2025-02-01T08:00:00+00:00"},"request":{"method":"PUT","url":"Observation/ad986bd8-75fe-4986-869a-234e76cb136a"}},{"fullUrl":"https://madie.cms.gov/Observation/5f29bb016f0b7100008d8b15","resource":{"resourceType":"Observation","id":"5c567c70-497c-4c0d-8dd8-e3c2df5fe8fc","meta":{"profile":["http://hl7.org/fhir/us/qicore/StructureDefinition/qicore-observation"]},"status":"final","category":[{"coding":[{"system":"http://terminology.hl7.org/CodeSystem/observation-category","code":"exam","display":"exam","userSelected":true}]}],"code":{"coding":[{"system":"http://loinc.org","code":"11778-8"}]},"subject":{"reference":"Patient/9f456dd6-ec6a-4e0d-a977-123c24f7538a"},"effectiveDateTime":"2025-02-01T08:00:00.000+00:00","valueDateTime":"2025-02-01T00:00:00.000+00:00"},"request":{"method":"PUT","url":"Observation/5c567c70-497c-4c0d-8dd8-e3c2df5fe8fc"}},{"fullUrl":"https://madie.cms.gov/Encounter/5f21e66daca3e40000cb86cf","resource":{"resourceType":"Encounter","id":"c3108e98-d5e4-49e3-8611-e962c9dcd299","meta":{"profile":["http://hl7.org/fhir/us/qicore/StructureDefinition/qicore-encounter"]},"status":"finished","class":{"system":"http://terminology.hl7.org/CodeSystem/v3-ActCode","code":"IMP","display":"inpatient encounter"},"type":[{"coding":[{"system":"http://snomed.info/sct","code":"183452005"}]}],"subject":{"reference":"Patient/9f456dd6-ec6a-4e0d-a977-123c24f7538a"},"period":{"start":"2025-02-01T08:00:00.000Z","end":"2025-02-05T08:15:00.000Z"},"diagnosis":[{"extension":[{"url":"http://hl7.org/fhir/us/qicore/StructureDefinition/qicore-encounter-diagnosisPresentOnAdmission","valueCodeableConcept":{"coding":[{"system":"https://www.cms.gov/Medicare/Medicare-Fee-for-Service-Payment/HospitalAcqCond/Coding","code":"Y"}]}}],"condition":{"reference":"Condition/SeverePreEclampsia-81e0"}},{"extension":[{"url":"http://hl7.org/fhir/us/qicore/StructureDefinition/qicore-encounter-diagnosisPresentOnAdmission","valueCodeableConcept":{"coding":[{"system":"https://www.cms.gov/Medicare/Medicare-Fee-for-Service-Payment/HospitalAcqCond/Coding","code":"N"}]}}],"condition":{"reference":"Condition/severe-maternal-morbidity-diagnoses-adc1"}}]},"request":{"method":"PUT","url":"Encounter/c3108e98-d5e4-49e3-8611-e962c9dcd299"}},{"fullUrl":"https://madie.cms.gov/Procedure/5f21e716aca3e40000cb87ee","resource":{"resourceType":"Procedure","id":"b8e7e533-a9f3-49b4-afe1-fb1682a25ca1","meta":{"profile":["http://hl7.org/fhir/us/qicore/StructureDefinition/qicore-procedure"]},"extension":[{"url":"http://hl7.org/fhir/us/qicore/StructureDefinition/qicore-recorded","valueDateTime":"2013-04-05T09:35:00-04:00"}],"status":"completed","code":{"coding":[{"system":"http://snomed.info/sct","code":"10745001"}]},"subject":{"reference":"Patient/9f456dd6-ec6a-4e0d-a977-123c24f7538a"},"performedDateTime":"2025-02-01T08:00:00.000+00:00"},"request":{"method":"PUT","url":"Procedure/b8e7e533-a9f3-49b4-afe1-fb1682a25ca1"}},{"fullUrl":"https://madie.cms.gov/Condition/severe-maternal-morbidity-diagnoses-adc1","resource":{"resourceType":"Condition","id":"3755e0e9-d9ea-44de-b989-c20f1bde6480","meta":{"profile":["http://hl7.org/fhir/us/qicore/StructureDefinition/qicore-condition"]},"category":[{"coding":[{"system":"http://terminology.hl7.org/CodeSystem/condition-category","code":"encounter-diagnosis","display":"Encounter Diagnosis"}]}],"code":{"coding":[{"system":"http://hl7.org/fhir/sid/icd-10-cm","version":"2023","code":"A32.7","display":"Listerial sepsis","userSelected":true}]},"subject":{"reference":"Patient/9f456dd6-ec6a-4e0d-a977-123c24f7538a"},"recordedDate":"2025-10-26T08:00:00.000+00:00"},"request":{"method":"PUT","url":"Condition/3755e0e9-d9ea-44de-b989-c20f1bde6480"}},{"fullUrl":"https://madie.cms.gov/Condition/SeverePreEclampsia-81e0","resource":{"resourceType":"Condition","id":"3eb1189d-3803-4cb9-a42b-c7f758313d31","meta":{"profile":["http://hl7.org/fhir/us/qicore/StructureDefinition/qicore-condition"]},"category":[{"coding":[{"system":"http://terminology.hl7.org/CodeSystem/condition-category","code":"encounter-diagnosis","display":"Encounter Diagnosis"}]}],"code":{"coding":[{"system":"http://hl7.org/fhir/sid/icd-10-cm","version":"2023","code":"O11.1","display":"Severe PreEclampsia","userSelected":true}]},"subject":{"reference":"Patient/9f456dd6-ec6a-4e0d-a977-123c24f7538a"},"recordedDate":"2025-10-26T08:00:00.000+00:00"},"request":{"method":"PUT","url":"Condition/3eb1189d-3803-4cb9-a42b-c7f758313d31"}},{"fullUrl":"https://madie.cms.gov/MeasureReport/0895a7f0-5c3e-492c-af24-baf5458cdd2c","resource":{"resourceType":"MeasureReport","id":"0895a7f0-5c3e-492c-af24-baf5458cdd2c","meta":{"profile":["http://hl7.org/fhir/us/cqfmeasures/StructureDefinition/test-case-cqfm"]},"contained":[{"resourceType":"Parameters","id":"69e27cd7-033d-436f-9d23-aea574ced85d-parameters","parameter":[{"name":"subject","valueString":"9f456dd6-ec6a-4e0d-a977-123c24f7538a"}]}],"extension":[{"url":"http://hl7.org/fhir/us/cqfmeasures/StructureDefinition/cqfm-inputParameters","valueReference":{"reference":"#69e27cd7-033d-436f-9d23-aea574ced85d-parameters"}},{"url":"http://hl7.org/fhir/us/cqfmeasures/StructureDefinition/cqfm-testCaseDescription","valueMarkdown":"Risk variable of severe pre-eclampsia.\n\n"}],"modifierExtension":[{"url":"http://hl7.org/fhir/us/cqfmeasures/StructureDefinition/cqfm-isTestCase","valueBoolean":true}],"status":"complete","type":"individual","measure":"https://madie.cms.gov/Measure/SevereObstetricComplicationsFHIR","period":{"start":"2025-01-01","end":"2025-12-31"},"group":[{"population":[{"code":{"coding":[{"system":"http://terminology.hl7.org/CodeSystem/measure-population","code":"initial-population","display":"Initial Population"}]},"count":1},{"code":{"coding":[{"system":"http://terminology.hl7.org/CodeSystem/measure-population","code":"denominator","display":"Denominator"}]},"count":1},{"code":{"coding":[{"system":"http://terminology.hl7.org/CodeSystem/measure-population","code":"denominator-exclusion","display":"Denominator Exclusion"}]},"count":0},{"code":{"coding":[{"system":"http://terminology.hl7.org/CodeSystem/measure-population","code":"numerator","display":"Numerator"}]},"count":1},{"code":{"coding":[{"system":"http://terminology.hl7.org/CodeSystem/measure-population","code":"numerator-exclusion","display":"Numerator Exclusion"}]},"count":0}]}]},"request":{"method":"PUT","url":"MeasureReport/0895a7f0-5c3e-492c-af24-baf5458cdd2c"}}]}