{"resourceType":"Bundle","id":"tests-bb7a5ce0-4dd5-4bf8-9779-4f086c12c710-bundle","type":"transaction","entry":[{"fullUrl":"https://madie.cms.gov/Patient/bb7a5ce0-4dd5-4bf8-9779-4f086c12c710","resource":{"resourceType":"Patient","id":"bb7a5ce0-4dd5-4bf8-9779-4f086c12c710","meta":{"profile":["http://hl7.org/fhir/us/qicore/StructureDefinition/qicore-patient"]},"text":{"status":"generated","div":"<div xmlns=\"http://www.w3.org/1999/xhtml\"><div class=\"hapiHeaderText\">AssPrfDELRelvDt_EQIPStart <b>DENOMPASS </b></div><table class=\"hapiPropertyTable\"><tbody><tr><td>Date of birth</td><td><span>01 February 2004</span></td></tr></tbody></table></div>"},"extension":[{"url":"http://hl7.org/fhir/us/core/StructureDefinition/us-core-race","extension":[{"url":"ombCategory","valueCoding":{"system":"urn:oid:2.16.840.1.113883.6.238","code":"1002-5","display":"American Indian or Alaska Native","userSelected":true}},{"url":"text","valueString":"American Indian or Alaska Native"}]},{"url":"http://hl7.org/fhir/us/core/StructureDefinition/us-core-ethnicity","extension":[{"url":"ombCategory","valueCoding":{"system":"urn:oid:2.16.840.1.113883.6.238","code":"2135-2","display":"Hispanic or Latino","userSelected":true}},{"url":"text","valueString":"Hispanic or Latino"}]}],"identifier":[{"type":{"coding":[{"system":"http://terminology.hl7.org/CodeSystem/v2-0203","code":"MR"}]},"system":"https://bonnie-fhir.healthit.gov/","value":"6356d03854e383debade759e"}],"active":true,"name":[{"use":"usual","family":"DENEXCPass","given":["CovidDxCovidCond"]}],"gender":"female","birthDate":"2004-02-01"},"request":{"method":"PUT","url":"Patient/bb7a5ce0-4dd5-4bf8-9779-4f086c12c710"}},{"fullUrl":"https://madie.cms.gov/Observation/5f29baa26f0b7100008d8af1","resource":{"resourceType":"Observation","id":"307abcf9-243f-4f9e-9780-abdaded7b3b5","meta":{"profile":["http://hl7.org/fhir/us/qicore/StructureDefinition/qicore-observation"]},"status":"final","category":[{"coding":[{"system":"http://terminology.hl7.org/CodeSystem/observation-category","code":"exam","display":"exam","userSelected":true}]}],"code":{"coding":[{"system":"http://loinc.org","code":"93857-1"}]},"subject":{"reference":"Patient/bb7a5ce0-4dd5-4bf8-9779-4f086c12c710"},"effectiveDateTime":"2025-02-01T08:00:00.000+00:00","valueDateTime":"2025-02-01T08:00:00.000+00:00"},"request":{"method":"PUT","url":"Observation/307abcf9-243f-4f9e-9780-abdaded7b3b5"}},{"fullUrl":"https://madie.cms.gov/Observation/5f29bb016f0b7100008d8b15","resource":{"resourceType":"Observation","id":"577c13d1-ce4e-4efd-a0a9-62c053e3a499","meta":{"profile":["http://hl7.org/fhir/us/qicore/StructureDefinition/qicore-observation"]},"status":"final","category":[{"coding":[{"system":"http://terminology.hl7.org/CodeSystem/observation-category","code":"exam","display":"exam","userSelected":true}]}],"code":{"coding":[{"system":"http://loinc.org","code":"11778-8"}]},"subject":{"reference":"Patient/bb7a5ce0-4dd5-4bf8-9779-4f086c12c710"},"effectiveDateTime":"2025-02-01T08:00:00.000+00:00","valueDateTime":"2025-02-01T08:00:00.000+00:00"},"request":{"method":"PUT","url":"Observation/577c13d1-ce4e-4efd-a0a9-62c053e3a499"}},{"fullUrl":"https://madie.cms.gov/Encounter/5f21e66daca3e40000cb86cf","resource":{"resourceType":"Encounter","id":"8ae4fbc5-04c0-4211-ac5f-34cb6a6b696d","meta":{"profile":["http://hl7.org/fhir/us/qicore/StructureDefinition/qicore-encounter"]},"status":"finished","class":{"system":"http://terminology.hl7.org/CodeSystem/v3-ActCode","code":"IMP","display":"inpatient encounter"},"type":[{"coding":[{"system":"http://snomed.info/sct","code":"183452005"}]}],"subject":{"reference":"Patient/bb7a5ce0-4dd5-4bf8-9779-4f086c12c710"},"period":{"start":"2025-02-01T08:00:00.000Z","end":"2025-02-05T08:15:00.000Z"},"diagnosis":[{"condition":{"reference":"Condition/covid-19-confirmed-759f"}},{"condition":{"reference":"Condition/respiratory-conditions-related-to-covid-19-75a0"}}]},"request":{"method":"PUT","url":"Encounter/8ae4fbc5-04c0-4211-ac5f-34cb6a6b696d"}},{"fullUrl":"https://madie.cms.gov/Procedure/5f21e716aca3e40000cb87ee","resource":{"resourceType":"Procedure","id":"24481321-f429-48e4-8b28-367ff5ad5979","meta":{"profile":["http://hl7.org/fhir/us/qicore/StructureDefinition/qicore-procedure"]},"extension":[{"url":"http://hl7.org/fhir/us/qicore/StructureDefinition/qicore-recorded","valueDateTime":"2013-04-05T09:35:00-04:00"}],"status":"completed","code":{"coding":[{"system":"http://snomed.info/sct","code":"10745001"}]},"subject":{"reference":"Patient/bb7a5ce0-4dd5-4bf8-9779-4f086c12c710"},"performedPeriod":{"start":"2025-02-01T08:00:00.000Z","end":"2025-02-05T08:15:00.000Z"}},"request":{"method":"PUT","url":"Procedure/24481321-f429-48e4-8b28-367ff5ad5979"}},{"fullUrl":"https://madie.cms.gov/Condition/covid-19-confirmed-759f","resource":{"resourceType":"Condition","id":"a053ed5c-e69d-4590-b013-96c536262804","meta":{"profile":["http://hl7.org/fhir/us/qicore/StructureDefinition/qicore-condition"]},"category":[{"coding":[{"system":"http://terminology.hl7.org/CodeSystem/condition-category","code":"encounter-diagnosis","display":"Encounter Diagnosis"}]}],"code":{"coding":[{"system":"http://snomed.info/sct","version":"2022-09","code":"840539006","display":"Disease caused by severe acute respiratory syndrome coronavirus 2 (disorder)","userSelected":true}]},"subject":{"reference":"Patient/bb7a5ce0-4dd5-4bf8-9779-4f086c12c710"}},"request":{"method":"PUT","url":"Condition/a053ed5c-e69d-4590-b013-96c536262804"}},{"fullUrl":"https://madie.cms.gov/Condition/respiratory-conditions-related-to-covid-19-75a0","resource":{"resourceType":"Condition","id":"bcfac582-6733-433e-bb04-23d866309e11","meta":{"profile":["http://hl7.org/fhir/us/qicore/StructureDefinition/qicore-condition"]},"category":[{"coding":[{"system":"http://terminology.hl7.org/CodeSystem/condition-category","code":"encounter-diagnosis","display":"Encounter Diagnosis"}]}],"code":{"coding":[{"system":"http://snomed.info/sct","version":"2022-09","code":"1119302008","display":"Acute disease caused by severe acute respiratory syndrome coronavirus 2 (disorder)","userSelected":true}]},"subject":{"reference":"Patient/bb7a5ce0-4dd5-4bf8-9779-4f086c12c710"},"recordedDate":"2025-10-24T08:00:00.000+00:00"},"request":{"method":"PUT","url":"Condition/bcfac582-6733-433e-bb04-23d866309e11"}},{"fullUrl":"https://madie.cms.gov/Coverage/1","resource":{"resourceType":"Coverage","id":"392cbb85-9840-4c1b-916a-1c554126a0b5","meta":{"profile":["http://hl7.org/fhir/us/qicore/StructureDefinition/qicore-coverage"]},"status":"active","beneficiary":{"reference":"Patient/bb7a5ce0-4dd5-4bf8-9779-4f086c12c710"},"payor":[{"reference":"Organization/f7da4368-fb6d-4d73-a75b-f78024cbb18d"}]},"request":{"method":"PUT","url":"Coverage/392cbb85-9840-4c1b-916a-1c554126a0b5"}},{"fullUrl":"https://madie.cms.gov/Organization/123456","resource":{"resourceType":"Organization","id":"f7da4368-fb6d-4d73-a75b-f78024cbb18d","meta":{"profile":["http://hl7.org/fhir/us/qicore/StructureDefinition/qicore-organization"]},"identifier":[{"use":"temp","system":"urn:oid:2.16.840.1.113883.4.4","value":"21-3259825"}],"active":true,"type":[{"coding":[{"system":"http://terminology.hl7.org/CodeSystem/organization-type","code":"pay","display":"Payer"}]}],"name":"Blue Cross Blue Shield of Texas","telecom":[{"system":"phone","value":"(+1) 972-766-6900"}],"address":[{"use":"billing","type":"postal","line":["P.O. Box 660044"],"city":"Dallas","state":"TX","postalCode":"75266-0044","country":"USA"}]},"request":{"method":"PUT","url":"Organization/f7da4368-fb6d-4d73-a75b-f78024cbb18d"}},{"fullUrl":"https://madie.cms.gov/Practitioner/practitioner-123456","resource":{"resourceType":"Practitioner","id":"e3a78808-1dda-4164-9186-9ad36fc9178d","identifier":[{"system":"http://hl7.org/fhir/sid/us-npi","value":"123456"}],"name":[{"family":"Evil","prefix":["Dr"]}]},"request":{"method":"PUT","url":"Practitioner/e3a78808-1dda-4164-9186-9ad36fc9178d"}},{"fullUrl":"https://madie.cms.gov/MeasureReport/f1d69ca0-18d0-4478-80bb-154b02c58dd3","resource":{"resourceType":"MeasureReport","id":"f1d69ca0-18d0-4478-80bb-154b02c58dd3","meta":{"profile":["http://hl7.org/fhir/us/cqfmeasures/StructureDefinition/test-case-cqfm"]},"contained":[{"resourceType":"Parameters","id":"bde72d0d-7904-4267-849e-468bff1fc395-parameters","parameter":[{"name":"subject","valueString":"bb7a5ce0-4dd5-4bf8-9779-4f086c12c710"}]}],"extension":[{"url":"http://hl7.org/fhir/us/cqfmeasures/StructureDefinition/cqfm-inputParameters","valueReference":{"reference":"#bde72d0d-7904-4267-849e-468bff1fc395-parameters"}},{"url":"http://hl7.org/fhir/us/cqfmeasures/StructureDefinition/cqfm-testCaseDescription","valueMarkdown":"Patient with confirmed COVID diagnosis and COVID related respiratory condition \n"}],"modifierExtension":[{"url":"http://hl7.org/fhir/us/cqfmeasures/StructureDefinition/cqfm-isTestCase","valueBoolean":true}],"status":"complete","type":"individual","measure":"https://madie.cms.gov/Measure/SevereObstetricComplicationsFHIR","period":{"start":"2025-01-01","end":"2025-12-31"},"group":[{"population":[{"code":{"coding":[{"system":"http://terminology.hl7.org/CodeSystem/measure-population","code":"initial-population","display":"Initial Population"}]},"count":1},{"code":{"coding":[{"system":"http://terminology.hl7.org/CodeSystem/measure-population","code":"denominator","display":"Denominator"}]},"count":1},{"code":{"coding":[{"system":"http://terminology.hl7.org/CodeSystem/measure-population","code":"denominator-exclusion","display":"Denominator Exclusion"}]},"count":1},{"code":{"coding":[{"system":"http://terminology.hl7.org/CodeSystem/measure-population","code":"numerator","display":"Numerator"}]},"count":0},{"code":{"coding":[{"system":"http://terminology.hl7.org/CodeSystem/measure-population","code":"numerator-exclusion","display":"Numerator Exclusion"}]},"count":0}]}]},"request":{"method":"PUT","url":"MeasureReport/f1d69ca0-18d0-4478-80bb-154b02c58dd3"}}]}