{"resourceType":"Bundle","id":"tests-10f3d5d7-59d7-4642-ac6a-1ea4f7c8ca83-bundle","type":"transaction","entry":[{"fullUrl":"https://madie.cms.gov/Patient/10f3d5d7-59d7-4642-ac6a-1ea4f7c8ca83","resource":{"resourceType":"Patient","id":"10f3d5d7-59d7-4642-ac6a-1ea4f7c8ca83","meta":{"profile":["http://hl7.org/fhir/us/qicore/StructureDefinition/qicore-patient"]},"text":{"status":"generated","div":"<div xmlns=\"http://www.w3.org/1999/xhtml\"><div class=\"hapiHeaderText\">Test4EDDMinutesImpactOnWksGest <b>DENOMPASS </b></div><table class=\"hapiPropertyTable\"><tbody><tr><td>Date of birth</td><td><span>01 February 1958</span></td></tr></tbody></table></div>"},"extension":[{"url":"http://hl7.org/fhir/us/core/StructureDefinition/us-core-race","extension":[{"url":"ombCategory","valueCoding":{"system":"urn:oid:2.16.840.1.113883.6.238","code":"1002-5","display":"American Indian or Alaska Native","userSelected":true}},{"url":"text","valueString":"American Indian or Alaska Native"}]},{"url":"http://hl7.org/fhir/us/core/StructureDefinition/us-core-ethnicity","extension":[{"url":"ombCategory","valueCoding":{"system":"urn:oid:2.16.840.1.113883.6.238","code":"2135-2","display":"Hispanic or Latino","userSelected":true}},{"url":"text","valueString":"Hispanic or Latino"}]}],"identifier":[{"type":{"coding":[{"system":"http://terminology.hl7.org/CodeSystem/v2-0203","code":"MR"}]},"system":"https://bonnie-fhir.healthit.gov/","value":"633b3f9e0968f80122503cd8"}],"active":true,"name":[{"use":"usual","family":"DENOMPass","given":["Test4EDDMinutesImpactOnWksGest"]}],"gender":"female","birthDate":"1970-02-01"},"request":{"method":"PUT","url":"Patient/10f3d5d7-59d7-4642-ac6a-1ea4f7c8ca83"}},{"fullUrl":"https://madie.cms.gov/Observation/5f29baa26f0b7100008d8af1","resource":{"resourceType":"Observation","id":"bc8ec461-28d0-4e52-a056-22b2722b118d","meta":{"profile":["http://hl7.org/fhir/us/qicore/StructureDefinition/qicore-observation"]},"status":"final","category":[{"coding":[{"system":"http://terminology.hl7.org/CodeSystem/observation-category","code":"exam","display":"exam","userSelected":true}]}],"code":{"coding":[{"system":"http://loinc.org","code":"93857-1"}]},"subject":{"reference":"Patient/10f3d5d7-59d7-4642-ac6a-1ea4f7c8ca83"},"effectiveDateTime":"2025-02-01T08:00:00.000+00:00","valueDateTime":"2025-02-01T08:00:00+00:00"},"request":{"method":"PUT","url":"Observation/bc8ec461-28d0-4e52-a056-22b2722b118d"}},{"fullUrl":"https://madie.cms.gov/Observation/5f2b21b26f0b7100008d9986","resource":{"resourceType":"Observation","id":"d94d9679-7068-4bbc-9792-c3ff2c7b58ae","meta":{"profile":["http://hl7.org/fhir/us/qicore/StructureDefinition/qicore-observation"]},"status":"final","category":[{"coding":[{"system":"http://terminology.hl7.org/CodeSystem/observation-category","code":"exam","display":"exam","userSelected":true}]}],"code":{"coding":[{"system":"http://loinc.org","code":"11778-8"}]},"subject":{"reference":"Patient/10f3d5d7-59d7-4642-ac6a-1ea4f7c8ca83"},"effectiveDateTime":"2024-04-13T08:01:00.000+00:00","valueDateTime":"2025-02-01T23:59:00.000+00:00"},"request":{"method":"PUT","url":"Observation/d94d9679-7068-4bbc-9792-c3ff2c7b58ae"}},{"fullUrl":"https://madie.cms.gov/Encounter/5f21e66daca3e40000cb86cf","resource":{"resourceType":"Encounter","id":"9e602b77-8701-4d96-87ac-6854d76735cb","meta":{"profile":["http://hl7.org/fhir/us/qicore/StructureDefinition/qicore-encounter"]},"status":"finished","class":{"system":"http://terminology.hl7.org/CodeSystem/v3-ActCode","code":"IMP","display":"inpatient encounter"},"type":[{"coding":[{"system":"http://snomed.info/sct","code":"183452005"}]}],"subject":{"reference":"Patient/10f3d5d7-59d7-4642-ac6a-1ea4f7c8ca83"},"period":{"start":"2025-01-30T08:00:00.000Z","end":"2025-02-05T08:15:00.000Z"}},"request":{"method":"PUT","url":"Encounter/9e602b77-8701-4d96-87ac-6854d76735cb"}},{"fullUrl":"https://madie.cms.gov/Procedure/5f21e716aca3e40000cb87ee","resource":{"resourceType":"Procedure","id":"708da372-0a65-4b47-80d5-54ba5809acd4","meta":{"profile":["http://hl7.org/fhir/us/qicore/StructureDefinition/qicore-procedure"]},"extension":[{"url":"http://hl7.org/fhir/us/qicore/StructureDefinition/qicore-recorded","valueDateTime":"2013-04-05T09:35:00-04:00"}],"status":"completed","code":{"coding":[{"system":"http://snomed.info/sct","code":"10745001"}]},"subject":{"reference":"Patient/10f3d5d7-59d7-4642-ac6a-1ea4f7c8ca83"},"performedPeriod":{"start":"2025-02-01T08:00:00.000Z"}},"request":{"method":"PUT","url":"Procedure/708da372-0a65-4b47-80d5-54ba5809acd4"}},{"fullUrl":"https://madie.cms.gov/Coverage/1","resource":{"resourceType":"Coverage","id":"e0713b2e-007f-40c4-8061-5c37f62e6fba","meta":{"profile":["http://hl7.org/fhir/us/qicore/StructureDefinition/qicore-coverage"]},"status":"active","beneficiary":{"reference":"Patient/10f3d5d7-59d7-4642-ac6a-1ea4f7c8ca83"},"payor":[{"reference":"Organization/aeb2c6be-6577-4bba-a6b6-6eab95111f1b"}]},"request":{"method":"PUT","url":"Coverage/e0713b2e-007f-40c4-8061-5c37f62e6fba"}},{"fullUrl":"https://madie.cms.gov/Organization/123456","resource":{"resourceType":"Organization","id":"aeb2c6be-6577-4bba-a6b6-6eab95111f1b","meta":{"profile":["http://hl7.org/fhir/us/qicore/StructureDefinition/qicore-organization"]},"identifier":[{"use":"temp","system":"urn:oid:2.16.840.1.113883.4.4","value":"21-3259825"}],"active":true,"type":[{"coding":[{"system":"http://terminology.hl7.org/CodeSystem/organization-type","code":"pay","display":"Payer"}]}],"name":"Blue Cross Blue Shield of Texas","telecom":[{"system":"phone","value":"(+1) 972-766-6900"}],"address":[{"use":"billing","type":"postal","line":["P.O. Box 660044"],"city":"Dallas","state":"TX","postalCode":"75266-0044","country":"USA"}]},"request":{"method":"PUT","url":"Organization/aeb2c6be-6577-4bba-a6b6-6eab95111f1b"}},{"fullUrl":"https://madie.cms.gov/Practitioner/practitioner-123456","resource":{"resourceType":"Practitioner","id":"a53b1ff8-ef87-4950-81fa-7174dc9cba80","identifier":[{"system":"http://hl7.org/fhir/sid/us-npi","value":"123456"}],"name":[{"family":"Evil","prefix":["Dr"]}]},"request":{"method":"PUT","url":"Practitioner/a53b1ff8-ef87-4950-81fa-7174dc9cba80"}},{"fullUrl":"https://madie.cms.gov/MeasureReport/54878815-a46d-4c5f-8559-3323f7f02667","resource":{"resourceType":"MeasureReport","id":"54878815-a46d-4c5f-8559-3323f7f02667","meta":{"profile":["http://hl7.org/fhir/us/cqfmeasures/StructureDefinition/test-case-cqfm"]},"contained":[{"resourceType":"Parameters","id":"d4ee968e-f31c-4faa-bc00-c409832aede6-parameters","parameter":[{"name":"subject","valueString":"10f3d5d7-59d7-4642-ac6a-1ea4f7c8ca83"}]}],"extension":[{"url":"http://hl7.org/fhir/us/cqfmeasures/StructureDefinition/cqfm-inputParameters","valueReference":{"reference":"#d4ee968e-f31c-4faa-bc00-c409832aede6-parameters"}},{"url":"http://hl7.org/fhir/us/cqfmeasures/StructureDefinition/cqfm-testCaseDescription","valueMarkdown":"\"Delivery date = 2/1/2012 @0800.  EDD = 2/1/2012\n @11:59 pm.  Weeks gestation = 40.\"  To test the impact on calculated weeks gestation, I temporarily changed the logic of this definition:  \"Del Enc with CGA Greater than or Equal to 20 Weeks\" to = 40."}],"modifierExtension":[{"url":"http://hl7.org/fhir/us/cqfmeasures/StructureDefinition/cqfm-isTestCase","valueBoolean":true}],"status":"complete","type":"individual","measure":"https://madie.cms.gov/Measure/SevereObstetricComplicationsFHIR","period":{"start":"2025-01-01","end":"2025-12-31"},"group":[{"population":[{"code":{"coding":[{"system":"http://terminology.hl7.org/CodeSystem/measure-population","code":"initial-population","display":"Initial Population"}]},"count":1},{"code":{"coding":[{"system":"http://terminology.hl7.org/CodeSystem/measure-population","code":"denominator","display":"Denominator"}]},"count":1},{"code":{"coding":[{"system":"http://terminology.hl7.org/CodeSystem/measure-population","code":"denominator-exclusion","display":"Denominator Exclusion"}]},"count":0},{"code":{"coding":[{"system":"http://terminology.hl7.org/CodeSystem/measure-population","code":"numerator","display":"Numerator"}]},"count":0},{"code":{"coding":[{"system":"http://terminology.hl7.org/CodeSystem/measure-population","code":"numerator-exclusion","display":"Numerator Exclusion"}]},"count":0}]}]},"request":{"method":"PUT","url":"MeasureReport/54878815-a46d-4c5f-8559-3323f7f02667"}}]}