{"resourceType":"Bundle","id":"tests-e1c9cd1e-0845-4c81-a875-eb897e9bc661-bundle","type":"transaction","entry":[{"fullUrl":"https://madie.cms.gov/Patient/e1c9cd1e-0845-4c81-a875-eb897e9bc661","resource":{"resourceType":"Patient","id":"e1c9cd1e-0845-4c81-a875-eb897e9bc661","meta":{"profile":["http://hl7.org/fhir/us/qicore/StructureDefinition/qicore-patient"]},"text":{"status":"generated","div":"<div xmlns=\"http://www.w3.org/1999/xhtml\"><div class=\"hapiHeaderText\">Risk_OtherPreEclampsia<b>RISKPass </b></div><table class=\"hapiPropertyTable\"><tbody><tr><td>Date of birth</td><td><span>01 February 2004</span></td></tr></tbody></table></div>"},"extension":[{"url":"http://hl7.org/fhir/us/core/StructureDefinition/us-core-race","extension":[{"url":"ombCategory","valueCoding":{"system":"urn:oid:2.16.840.1.113883.6.238","code":"1002-5","display":"American Indian or Alaska Native","userSelected":true}},{"url":"text","valueString":"American Indian or Alaska Native"}]},{"url":"http://hl7.org/fhir/us/core/StructureDefinition/us-core-ethnicity","extension":[{"url":"ombCategory","valueCoding":{"system":"urn:oid:2.16.840.1.113883.6.238","code":"2135-2","display":"Hispanic or Latino","userSelected":true}},{"url":"text","valueString":"Hispanic or Latino"}]}],"identifier":[{"type":{"coding":[{"system":"http://terminology.hl7.org/CodeSystem/v2-0203","code":"MR"}]},"system":"https://bonnie-fhir.healthit.gov/","value":"63594c7a6aee9629c82981df"}],"active":true,"name":[{"use":"usual","family":"RiskPass","given":["Risk_OtherPreEclampsia"]}],"gender":"female","birthDate":"2004-02-01"},"request":{"method":"PUT","url":"Patient/e1c9cd1e-0845-4c81-a875-eb897e9bc661"}},{"fullUrl":"https://madie.cms.gov/Observation/5f29baa26f0b7100008d8af1","resource":{"resourceType":"Observation","id":"2b73cc76-0421-49ea-a9f0-298acc81f89a","meta":{"profile":["http://hl7.org/fhir/us/qicore/StructureDefinition/qicore-observation"]},"status":"final","category":[{"coding":[{"system":"http://terminology.hl7.org/CodeSystem/observation-category","code":"exam","display":"exam","userSelected":true}]}],"code":{"coding":[{"system":"http://loinc.org","code":"93857-1"}]},"subject":{"reference":"Patient/e1c9cd1e-0845-4c81-a875-eb897e9bc661"},"effectiveDateTime":"2025-02-01T08:00:00.000+00:00","valueDateTime":"2025-02-01T08:00:00+00:00"},"request":{"method":"PUT","url":"Observation/2b73cc76-0421-49ea-a9f0-298acc81f89a"}},{"fullUrl":"https://madie.cms.gov/Observation/5f29bb016f0b7100008d8b15","resource":{"resourceType":"Observation","id":"a890b05a-5007-42d1-a7db-fbc4aac5ed5b","meta":{"profile":["http://hl7.org/fhir/us/qicore/StructureDefinition/qicore-observation"]},"status":"final","category":[{"coding":[{"system":"http://terminology.hl7.org/CodeSystem/observation-category","code":"exam","display":"exam","userSelected":true}]}],"code":{"coding":[{"system":"http://loinc.org","code":"11778-8"}]},"subject":{"reference":"Patient/e1c9cd1e-0845-4c81-a875-eb897e9bc661"},"effectiveDateTime":"2025-02-01T08:00:00.000+00:00","valueDateTime":"2025-02-01T00:00:00.000+00:00"},"request":{"method":"PUT","url":"Observation/a890b05a-5007-42d1-a7db-fbc4aac5ed5b"}},{"fullUrl":"https://madie.cms.gov/Encounter/5f21e66daca3e40000cb86cf","resource":{"resourceType":"Encounter","id":"0826e571-e11c-455b-b2ee-a7d64ce3a2a0","meta":{"profile":["http://hl7.org/fhir/us/qicore/StructureDefinition/qicore-encounter"]},"status":"finished","class":{"system":"http://terminology.hl7.org/CodeSystem/v3-ActCode","code":"IMP","display":"inpatient encounter"},"type":[{"coding":[{"system":"http://snomed.info/sct","code":"183452005"}]}],"subject":{"reference":"Patient/e1c9cd1e-0845-4c81-a875-eb897e9bc661"},"period":{"start":"2025-02-01T08:00:00.000Z","end":"2025-02-05T08:15:00.000Z"},"diagnosis":[{"extension":[{"url":"http://hl7.org/fhir/us/qicore/StructureDefinition/qicore-encounter-diagnosisPresentOnAdmission","valueCodeableConcept":{"coding":[{"system":"https://www.cms.gov/Medicare/Medicare-Fee-for-Service-Payment/HospitalAcqCond/Coding","code":"Y"}]}}],"condition":{"reference":"Condition/OtherPreEclampsia-81e0"}},{"extension":[{"url":"http://hl7.org/fhir/us/qicore/StructureDefinition/qicore-encounter-diagnosisPresentOnAdmission","valueCodeableConcept":{"coding":[{"system":"https://www.cms.gov/Medicare/Medicare-Fee-for-Service-Payment/HospitalAcqCond/Coding","code":"N"}]}}],"condition":{"reference":"Condition/severe-maternal-morbidity-diagnoses-adc1"}}]},"request":{"method":"PUT","url":"Encounter/0826e571-e11c-455b-b2ee-a7d64ce3a2a0"}},{"fullUrl":"https://madie.cms.gov/Procedure/5f21e716aca3e40000cb87ee","resource":{"resourceType":"Procedure","id":"ddf60cc1-486a-46b6-8cc3-f632436855b3","meta":{"profile":["http://hl7.org/fhir/us/qicore/StructureDefinition/qicore-procedure"]},"extension":[{"url":"http://hl7.org/fhir/us/qicore/StructureDefinition/qicore-recorded","valueDateTime":"2013-04-05T09:35:00-04:00"}],"status":"completed","code":{"coding":[{"system":"http://snomed.info/sct","code":"10745001"}]},"subject":{"reference":"Patient/e1c9cd1e-0845-4c81-a875-eb897e9bc661"},"performedDateTime":"2025-02-01T08:00:00.000+00:00"},"request":{"method":"PUT","url":"Procedure/ddf60cc1-486a-46b6-8cc3-f632436855b3"}},{"fullUrl":"https://madie.cms.gov/Condition/severe-maternal-morbidity-diagnoses-adc1","resource":{"resourceType":"Condition","id":"0128730e-3e6f-4f55-93fb-e1ed3db125cb","meta":{"profile":["http://hl7.org/fhir/us/qicore/StructureDefinition/qicore-condition"]},"category":[{"coding":[{"system":"http://terminology.hl7.org/CodeSystem/condition-category","code":"encounter-diagnosis","display":"Encounter Diagnosis"}]}],"code":{"coding":[{"system":"http://hl7.org/fhir/sid/icd-10-cm","version":"2023","code":"A32.7","display":"Listerial sepsis","userSelected":true}]},"subject":{"reference":"Patient/e1c9cd1e-0845-4c81-a875-eb897e9bc661"},"recordedDate":"2025-10-26T08:00:00.000+00:00"},"request":{"method":"PUT","url":"Condition/0128730e-3e6f-4f55-93fb-e1ed3db125cb"}},{"fullUrl":"https://madie.cms.gov/Condition/OtherPreEclampsia-81e0","resource":{"resourceType":"Condition","id":"6168b490-b280-418b-af20-b54b9b5cd0d9","meta":{"profile":["http://hl7.org/fhir/us/qicore/StructureDefinition/qicore-condition"]},"category":[{"coding":[{"system":"http://terminology.hl7.org/CodeSystem/condition-category","code":"encounter-diagnosis","display":"Encounter Diagnosis"}]}],"code":{"coding":[{"system":"http://hl7.org/fhir/sid/icd-10-cm","version":"2023","code":"O13.1","display":"Other PreEclampsia","userSelected":true}]},"subject":{"reference":"Patient/e1c9cd1e-0845-4c81-a875-eb897e9bc661"},"recordedDate":"2025-10-26T08:00:00.000+00:00"},"request":{"method":"PUT","url":"Condition/6168b490-b280-418b-af20-b54b9b5cd0d9"}},{"fullUrl":"https://madie.cms.gov/MeasureReport/597490dc-bdb6-4913-9cfa-1b122c4b7148","resource":{"resourceType":"MeasureReport","id":"597490dc-bdb6-4913-9cfa-1b122c4b7148","meta":{"profile":["http://hl7.org/fhir/us/cqfmeasures/StructureDefinition/test-case-cqfm"]},"contained":[{"resourceType":"Parameters","id":"92bd2f68-3412-42d6-84b5-45b2d9eda44b-parameters","parameter":[{"name":"subject","valueString":"e1c9cd1e-0845-4c81-a875-eb897e9bc661"}]}],"extension":[{"url":"http://hl7.org/fhir/us/cqfmeasures/StructureDefinition/cqfm-inputParameters","valueReference":{"reference":"#92bd2f68-3412-42d6-84b5-45b2d9eda44b-parameters"}},{"url":"http://hl7.org/fhir/us/cqfmeasures/StructureDefinition/cqfm-testCaseDescription","valueMarkdown":"Risk variable of other pre-eclampsia.\n\n"}],"modifierExtension":[{"url":"http://hl7.org/fhir/us/cqfmeasures/StructureDefinition/cqfm-isTestCase","valueBoolean":true}],"status":"complete","type":"individual","measure":"https://madie.cms.gov/Measure/SevereObstetricComplicationsFHIR","period":{"start":"2025-01-01","end":"2025-12-31"},"group":[{"population":[{"code":{"coding":[{"system":"http://terminology.hl7.org/CodeSystem/measure-population","code":"initial-population","display":"Initial Population"}]},"count":1},{"code":{"coding":[{"system":"http://terminology.hl7.org/CodeSystem/measure-population","code":"denominator","display":"Denominator"}]},"count":1},{"code":{"coding":[{"system":"http://terminology.hl7.org/CodeSystem/measure-population","code":"denominator-exclusion","display":"Denominator Exclusion"}]},"count":0},{"code":{"coding":[{"system":"http://terminology.hl7.org/CodeSystem/measure-population","code":"numerator","display":"Numerator"}]},"count":1},{"code":{"coding":[{"system":"http://terminology.hl7.org/CodeSystem/measure-population","code":"numerator-exclusion","display":"Numerator Exclusion"}]},"count":0}]}]},"request":{"method":"PUT","url":"MeasureReport/597490dc-bdb6-4913-9cfa-1b122c4b7148"}}]}