{"resourceType":"Bundle","id":"tests-02cdc116-49ce-4277-ad9e-de6bc2a3274d-bundle","type":"transaction","entry":[{"fullUrl":"https://madie.cms.gov/Patient/02cdc116-49ce-4277-ad9e-de6bc2a3274d","resource":{"resourceType":"Patient","id":"02cdc116-49ce-4277-ad9e-de6bc2a3274d","meta":{"profile":["http://hl7.org/fhir/us/qicore/StructureDefinition/qicore-patient"]},"text":{"status":"generated","div":"<div xmlns=\"http://www.w3.org/1999/xhtml\"><div class=\"hapiHeaderText\">DELEncCalEGAEQ20Wks1Day <b>DENOMPASS </b></div><table class=\"hapiPropertyTable\"><tbody><tr><td>Date of birth</td><td><span>01 February 1958</span></td></tr></tbody></table></div>"},"extension":[{"url":"http://hl7.org/fhir/us/core/StructureDefinition/us-core-race","extension":[{"url":"ombCategory","valueCoding":{"system":"urn:oid:2.16.840.1.113883.6.238","code":"1002-5","display":"American Indian or Alaska Native","userSelected":true}},{"url":"text","valueString":"American Indian or Alaska Native"}]},{"url":"http://hl7.org/fhir/us/core/StructureDefinition/us-core-ethnicity","extension":[{"url":"ombCategory","valueCoding":{"system":"urn:oid:2.16.840.1.113883.6.238","code":"2135-2","display":"Hispanic or Latino","userSelected":true}},{"url":"text","valueString":"Hispanic or Latino"}]}],"identifier":[{"type":{"coding":[{"system":"http://terminology.hl7.org/CodeSystem/v2-0203","code":"MR"}]},"system":"https://bonnie-fhir.healthit.gov/","value":"633b3f9f0968f80122503cda"}],"active":true,"name":[{"use":"usual","family":"DENOMPass","given":["DELEncCalEGAEQ20Wks1Day"]}],"gender":"female","birthDate":"1970-02-01"},"request":{"method":"PUT","url":"Patient/02cdc116-49ce-4277-ad9e-de6bc2a3274d"}},{"fullUrl":"https://madie.cms.gov/Observation/5f29baa26f0b7100008d8af1","resource":{"resourceType":"Observation","id":"3c614b60-96a9-480b-8b5c-1e2b9db6fe87","meta":{"profile":["http://hl7.org/fhir/us/qicore/StructureDefinition/qicore-observation"]},"status":"final","category":[{"coding":[{"system":"http://terminology.hl7.org/CodeSystem/observation-category","code":"exam","display":"exam","userSelected":true}]}],"code":{"coding":[{"system":"http://loinc.org","code":"93857-1"}]},"subject":{"reference":"Patient/02cdc116-49ce-4277-ad9e-de6bc2a3274d"},"effectiveDateTime":"2025-01-15T08:00:00.000+00:00","valueDateTime":"2025-01-15T08:00:00+00:00"},"request":{"method":"PUT","url":"Observation/3c614b60-96a9-480b-8b5c-1e2b9db6fe87"}},{"fullUrl":"https://madie.cms.gov/Observation/5f2b21b26f0b7100008d9986","resource":{"resourceType":"Observation","id":"66e979ac-e9ba-4634-a491-d13eff3796a5","meta":{"profile":["http://hl7.org/fhir/us/qicore/StructureDefinition/qicore-observation"]},"status":"final","category":[{"coding":[{"system":"http://terminology.hl7.org/CodeSystem/observation-category","code":"exam","display":"exam","userSelected":true}]}],"code":{"coding":[{"system":"http://loinc.org","code":"11778-8"}]},"subject":{"reference":"Patient/02cdc116-49ce-4277-ad9e-de6bc2a3274d"},"effectiveDateTime":"2025-01-15T08:00:00.000+00:00","valueDateTime":"2025-06-02T08:00:00.000+00:00"},"request":{"method":"PUT","url":"Observation/66e979ac-e9ba-4634-a491-d13eff3796a5"}},{"fullUrl":"https://madie.cms.gov/Encounter/5f21e66daca3e40000cb86cf","resource":{"resourceType":"Encounter","id":"f38b93e4-85c4-4a56-8822-193c2332c33b","meta":{"profile":["http://hl7.org/fhir/us/qicore/StructureDefinition/qicore-encounter"]},"status":"finished","class":{"system":"http://terminology.hl7.org/CodeSystem/v3-ActCode","code":"IMP","display":"inpatient encounter"},"type":[{"coding":[{"system":"http://snomed.info/sct","code":"183452005"}]}],"subject":{"reference":"Patient/02cdc116-49ce-4277-ad9e-de6bc2a3274d"},"period":{"start":"2025-01-01T08:00:00.000Z","end":"2025-02-05T08:15:00.000Z"}},"request":{"method":"PUT","url":"Encounter/f38b93e4-85c4-4a56-8822-193c2332c33b"}},{"fullUrl":"https://madie.cms.gov/Procedure/5f21e716aca3e40000cb87ee","resource":{"resourceType":"Procedure","id":"7dddf5c4-9082-459d-a39b-caab76519194","meta":{"profile":["http://hl7.org/fhir/us/qicore/StructureDefinition/qicore-procedure"]},"extension":[{"url":"http://hl7.org/fhir/us/qicore/StructureDefinition/qicore-recorded","valueDateTime":"2013-04-05T09:35:00-04:00"}],"status":"completed","code":{"coding":[{"system":"http://snomed.info/sct","code":"10745001"}]},"subject":{"reference":"Patient/02cdc116-49ce-4277-ad9e-de6bc2a3274d"},"performedPeriod":{"start":"2025-01-01T08:00:00.000Z"}},"request":{"method":"PUT","url":"Procedure/7dddf5c4-9082-459d-a39b-caab76519194"}},{"fullUrl":"https://madie.cms.gov/Coverage/1","resource":{"resourceType":"Coverage","id":"c8569df3-c990-4dbf-9186-9c9a75177a1f","meta":{"profile":["http://hl7.org/fhir/us/qicore/StructureDefinition/qicore-coverage"]},"status":"active","beneficiary":{"reference":"Patient/02cdc116-49ce-4277-ad9e-de6bc2a3274d"},"payor":[{"reference":"Organization/3e899f33-84eb-4634-a770-a5a0bd7a80e7"}]},"request":{"method":"PUT","url":"Coverage/c8569df3-c990-4dbf-9186-9c9a75177a1f"}},{"fullUrl":"https://madie.cms.gov/Organization/123456","resource":{"resourceType":"Organization","id":"3e899f33-84eb-4634-a770-a5a0bd7a80e7","meta":{"profile":["http://hl7.org/fhir/us/qicore/StructureDefinition/qicore-organization"]},"identifier":[{"use":"temp","system":"urn:oid:2.16.840.1.113883.4.4","value":"21-3259825"}],"active":true,"type":[{"coding":[{"system":"http://terminology.hl7.org/CodeSystem/organization-type","code":"pay","display":"Payer"}]}],"name":"Blue Cross Blue Shield of Texas","telecom":[{"system":"phone","value":"(+1) 972-766-6900"}],"address":[{"use":"billing","type":"postal","line":["P.O. Box 660044"],"city":"Dallas","state":"TX","postalCode":"75266-0044","country":"USA"}]},"request":{"method":"PUT","url":"Organization/3e899f33-84eb-4634-a770-a5a0bd7a80e7"}},{"fullUrl":"https://madie.cms.gov/Practitioner/practitioner-123456","resource":{"resourceType":"Practitioner","id":"0032feb5-8920-4f57-b432-90767316e221","identifier":[{"system":"http://hl7.org/fhir/sid/us-npi","value":"123456"}],"name":[{"family":"Evil","prefix":["Dr"]}]},"request":{"method":"PUT","url":"Practitioner/0032feb5-8920-4f57-b432-90767316e221"}},{"fullUrl":"https://madie.cms.gov/MeasureReport/892ad53b-636e-4212-9040-1e480dc592c6","resource":{"resourceType":"MeasureReport","id":"892ad53b-636e-4212-9040-1e480dc592c6","meta":{"profile":["http://hl7.org/fhir/us/cqfmeasures/StructureDefinition/test-case-cqfm"]},"contained":[{"resourceType":"Parameters","id":"c240b0f1-ad73-4b13-b5ad-59ecef40d818-parameters","parameter":[{"name":"subject","valueString":"02cdc116-49ce-4277-ad9e-de6bc2a3274d"}]}],"extension":[{"url":"http://hl7.org/fhir/us/cqfmeasures/StructureDefinition/cqfm-inputParameters","valueReference":{"reference":"#c240b0f1-ad73-4b13-b5ad-59ecef40d818-parameters"}},{"url":"http://hl7.org/fhir/us/cqfmeasures/StructureDefinition/cqfm-testCaseDescription","valueMarkdown":"Calculated EGA = 20 weeks and 1 day\n"}],"modifierExtension":[{"url":"http://hl7.org/fhir/us/cqfmeasures/StructureDefinition/cqfm-isTestCase","valueBoolean":true}],"status":"complete","type":"individual","measure":"https://madie.cms.gov/Measure/SevereObstetricComplicationsFHIR","period":{"start":"2025-01-01","end":"2025-12-31"},"group":[{"population":[{"code":{"coding":[{"system":"http://terminology.hl7.org/CodeSystem/measure-population","code":"initial-population","display":"Initial Population"}]},"count":1},{"code":{"coding":[{"system":"http://terminology.hl7.org/CodeSystem/measure-population","code":"denominator","display":"Denominator"}]},"count":1},{"code":{"coding":[{"system":"http://terminology.hl7.org/CodeSystem/measure-population","code":"denominator-exclusion","display":"Denominator Exclusion"}]},"count":0},{"code":{"coding":[{"system":"http://terminology.hl7.org/CodeSystem/measure-population","code":"numerator","display":"Numerator"}]},"count":0},{"code":{"coding":[{"system":"http://terminology.hl7.org/CodeSystem/measure-population","code":"numerator-exclusion","display":"Numerator Exclusion"}]},"count":0}]}]},"request":{"method":"PUT","url":"MeasureReport/892ad53b-636e-4212-9040-1e480dc592c6"}}]}