{"resourceType":"Bundle","id":"tests-f556e7de-9a74-4ea8-8a25-ca7ab8b97ef3-bundle","type":"transaction","entry":[{"fullUrl":"https://madie.cms.gov/Patient/f556e7de-9a74-4ea8-8a25-ca7ab8b97ef3","resource":{"resourceType":"Patient","id":"f556e7de-9a74-4ea8-8a25-ca7ab8b97ef3","meta":{"profile":["http://hl7.org/fhir/us/qicore/StructureDefinition/qicore-patient"]},"text":{"status":"generated","div":"<div xmlns=\"http://www.w3.org/1999/xhtml\"><div class=\"hapiHeaderText\">AssPrfDELRsltDtTime_EQIPStartPlus1Min <b>DENOMPASS </b></div><table class=\"hapiPropertyTable\"><tbody><tr><td>Date of birth</td><td><span>01 February 2004</span></td></tr></tbody></table></div>"},"extension":[{"url":"http://hl7.org/fhir/us/core/StructureDefinition/us-core-race","extension":[{"url":"ombCategory","valueCoding":{"system":"urn:oid:2.16.840.1.113883.6.238","code":"1002-5","display":"American Indian or Alaska Native","userSelected":true}},{"url":"text","valueString":"American Indian or Alaska Native"}]},{"url":"http://hl7.org/fhir/us/core/StructureDefinition/us-core-ethnicity","extension":[{"url":"ombCategory","valueCoding":{"system":"urn:oid:2.16.840.1.113883.6.238","code":"2135-2","display":"Hispanic or Latino","userSelected":true}},{"url":"text","valueString":"Hispanic or Latino"}]}],"identifier":[{"type":{"coding":[{"system":"http://terminology.hl7.org/CodeSystem/v2-0203","code":"MR"}]},"system":"https://bonnie-fhir.healthit.gov/","value":"633b3f9e0968f80122503ccf"}],"active":true,"name":[{"use":"usual","family":"DENOMPass","given":["AssPrfDELRsltDtTime_EQIPStartPlus1Min"]}],"gender":"female","birthDate":"2004-02-01"},"request":{"method":"PUT","url":"Patient/f556e7de-9a74-4ea8-8a25-ca7ab8b97ef3"}},{"fullUrl":"https://madie.cms.gov/Observation/5f29baa26f0b7100008d8af1","resource":{"resourceType":"Observation","id":"a727cd87-96da-4e38-8208-05e01ddcfe45","meta":{"profile":["http://hl7.org/fhir/us/qicore/StructureDefinition/qicore-observation"]},"status":"final","category":[{"coding":[{"system":"http://terminology.hl7.org/CodeSystem/observation-category","code":"exam","display":"Exam","userSelected":true}]}],"code":{"coding":[{"system":"http://loinc.org","code":"93857-1"}]},"subject":{"reference":"Patient/f556e7de-9a74-4ea8-8a25-ca7ab8b97ef3"},"effectiveDateTime":"2025-02-01T08:01:00.000+00:00","valueDateTime":"2025-02-01T08:01:00+00:00"},"request":{"method":"PUT","url":"Observation/a727cd87-96da-4e38-8208-05e01ddcfe45"}},{"fullUrl":"https://madie.cms.gov/Observation/5f29bb016f0b7100008d8b15","resource":{"resourceType":"Observation","id":"8fa3f464-d077-4285-8f7b-ade6667169d2","meta":{"profile":["http://hl7.org/fhir/us/qicore/StructureDefinition/qicore-observation"]},"status":"final","category":[{"coding":[{"system":"http://terminology.hl7.org/CodeSystem/observation-category","code":"exam","display":"Exam","userSelected":true}]}],"code":{"coding":[{"system":"http://loinc.org","code":"11778-8"}]},"subject":{"reference":"Patient/f556e7de-9a74-4ea8-8a25-ca7ab8b97ef3"},"effectiveDateTime":"2025-02-01T08:00:00.000+00:00","valueDateTime":"2025-02-01T08:00:00.000+00:00"},"request":{"method":"PUT","url":"Observation/8fa3f464-d077-4285-8f7b-ade6667169d2"}},{"fullUrl":"https://madie.cms.gov/Encounter/5f21e66daca3e40000cb86cf","resource":{"resourceType":"Encounter","id":"2332cde0-0357-4a97-8cff-c785ae921bc7","meta":{"profile":["http://hl7.org/fhir/us/qicore/StructureDefinition/qicore-encounter"]},"status":"finished","class":{"system":"http://terminology.hl7.org/CodeSystem/v3-ActCode","code":"IMP","display":"inpatient encounter"},"type":[{"coding":[{"system":"http://snomed.info/sct","code":"183452005"}]}],"subject":{"reference":"Patient/f556e7de-9a74-4ea8-8a25-ca7ab8b97ef3"},"period":{"start":"2025-02-01T08:00:00.000Z","end":"2025-02-05T08:15:00.000Z"}},"request":{"method":"PUT","url":"Encounter/2332cde0-0357-4a97-8cff-c785ae921bc7"}},{"fullUrl":"https://madie.cms.gov/Procedure/5f21e716aca3e40000cb87ee","resource":{"resourceType":"Procedure","id":"a4dcf5b3-319d-417a-917d-b43176e1cab4","meta":{"profile":["http://hl7.org/fhir/us/qicore/StructureDefinition/qicore-procedure"]},"extension":[{"url":"http://hl7.org/fhir/us/qicore/StructureDefinition/qicore-recorded","valueDateTime":"2013-04-05T09:35:00-04:00"}],"status":"completed","code":{"coding":[{"system":"http://snomed.info/sct","code":"10745001"}]},"subject":{"reference":"Patient/f556e7de-9a74-4ea8-8a25-ca7ab8b97ef3"},"performedPeriod":{"start":"2025-02-01T08:00:00.000Z","end":"2025-02-05T08:15:00.000Z"}},"request":{"method":"PUT","url":"Procedure/a4dcf5b3-319d-417a-917d-b43176e1cab4"}},{"fullUrl":"https://madie.cms.gov/Coverage/1","resource":{"resourceType":"Coverage","id":"993f7121-c791-43a1-a309-3d3fd859e3b1","meta":{"profile":["http://hl7.org/fhir/us/qicore/StructureDefinition/qicore-coverage"]},"status":"active","beneficiary":{"reference":"Patient/f556e7de-9a74-4ea8-8a25-ca7ab8b97ef3"},"payor":[{"reference":"Organization/4da248b0-6e59-49b7-b80e-338aa21d299f"}]},"request":{"method":"PUT","url":"Coverage/993f7121-c791-43a1-a309-3d3fd859e3b1"}},{"fullUrl":"https://madie.cms.gov/Organization/123456","resource":{"resourceType":"Organization","id":"4da248b0-6e59-49b7-b80e-338aa21d299f","meta":{"profile":["http://hl7.org/fhir/us/qicore/StructureDefinition/qicore-organization"]},"identifier":[{"use":"temp","system":"urn:oid:2.16.840.1.113883.4.4","value":"21-3259825"}],"active":true,"type":[{"coding":[{"system":"http://terminology.hl7.org/CodeSystem/organization-type","code":"pay","display":"Payer"}]}],"name":"Blue Cross Blue Shield of Texas","telecom":[{"system":"phone","value":"(+1) 972-766-6900"}],"address":[{"use":"billing","type":"postal","line":["P.O. Box 660044"],"city":"Dallas","state":"TX","postalCode":"75266-0044","country":"USA"}]},"request":{"method":"PUT","url":"Organization/4da248b0-6e59-49b7-b80e-338aa21d299f"}},{"fullUrl":"https://madie.cms.gov/Practitioner/practitioner-123456","resource":{"resourceType":"Practitioner","id":"5db27572-d0a3-41fe-9d78-c4759add7fe1","identifier":[{"system":"http://hl7.org/fhir/sid/us-npi","value":"123456"}],"name":[{"family":"Evil","prefix":["Dr"]}]},"request":{"method":"PUT","url":"Practitioner/5db27572-d0a3-41fe-9d78-c4759add7fe1"}},{"fullUrl":"https://madie.cms.gov/MeasureReport/58b3f853-f6a9-4137-9490-21c39bd14152","resource":{"resourceType":"MeasureReport","id":"58b3f853-f6a9-4137-9490-21c39bd14152","meta":{"profile":["http://hl7.org/fhir/us/cqfmeasures/StructureDefinition/test-case-cqfm"]},"contained":[{"resourceType":"Parameters","id":"65db7afe-e12e-4601-902f-4a482945a277-parameters","parameter":[{"name":"subject","valueString":"f556e7de-9a74-4ea8-8a25-ca7ab8b97ef3"}]}],"extension":[{"url":"http://hl7.org/fhir/us/cqfmeasures/StructureDefinition/cqfm-inputParameters","valueReference":{"reference":"#65db7afe-e12e-4601-902f-4a482945a277-parameters"}},{"url":"http://hl7.org/fhir/us/cqfmeasures/StructureDefinition/cqfm-testCaseDescription","valueMarkdown":"\"Result date/Time of delivery (based on assessment performed) is equal to encounter start plus one minute\n.\"\n"}],"modifierExtension":[{"url":"http://hl7.org/fhir/us/cqfmeasures/StructureDefinition/cqfm-isTestCase","valueBoolean":true}],"status":"complete","type":"individual","measure":"https://madie.cms.gov/Measure/SevereObstetricComplicationsFHIR","period":{"start":"2025-01-01","end":"2025-12-31"},"group":[{"population":[{"code":{"coding":[{"system":"http://terminology.hl7.org/CodeSystem/measure-population","code":"initial-population","display":"Initial Population"}]},"count":1},{"code":{"coding":[{"system":"http://terminology.hl7.org/CodeSystem/measure-population","code":"denominator","display":"Denominator"}]},"count":1},{"code":{"coding":[{"system":"http://terminology.hl7.org/CodeSystem/measure-population","code":"denominator-exclusion","display":"Denominator Exclusion"}]},"count":0},{"code":{"coding":[{"system":"http://terminology.hl7.org/CodeSystem/measure-population","code":"numerator","display":"Numerator"}]},"count":0},{"code":{"coding":[{"system":"http://terminology.hl7.org/CodeSystem/measure-population","code":"numerator-exclusion","display":"Numerator Exclusion"}]},"count":0}]}]},"request":{"method":"PUT","url":"MeasureReport/58b3f853-f6a9-4137-9490-21c39bd14152"}}]}