{"resourceType":"Bundle","id":"tests-f6d7f2da-f584-4f84-a6c6-f25f82bb9b3a-bundle","type":"transaction","entry":[{"fullUrl":"https://madie.cms.gov/Patient/f6d7f2da-f584-4f84-a6c6-f25f82bb9b3a","resource":{"resourceType":"Patient","id":"f6d7f2da-f584-4f84-a6c6-f25f82bb9b3a","meta":{"profile":["http://hl7.org/fhir/us/qicore/StructureDefinition/qicore-patient"]},"text":{"status":"generated","div":"<div xmlns=\"http://www.w3.org/1999/xhtml\"><div class=\"hapiHeaderText\">DelProcRelDtTmEQOBSStart <b>IPPASS </b></div><table class=\"hapiPropertyTable\"><tbody><tr><td>Date of birth</td><td><span>31 January 2004</span></td></tr></tbody></table></div>"},"extension":[{"url":"http://hl7.org/fhir/us/core/StructureDefinition/us-core-race","extension":[{"url":"ombCategory","valueCoding":{"system":"urn:oid:2.16.840.1.113883.6.238","code":"1002-5","display":"American Indian or Alaska Native","userSelected":true}},{"url":"text","valueString":"American Indian or Alaska Native"}]},{"url":"http://hl7.org/fhir/us/core/StructureDefinition/us-core-ethnicity","extension":[{"url":"ombCategory","valueCoding":{"system":"urn:oid:2.16.840.1.113883.6.238","code":"2135-2","display":"Hispanic or Latino","userSelected":true}},{"url":"text","valueString":"Hispanic or Latino"}]}],"identifier":[{"type":{"coding":[{"system":"http://terminology.hl7.org/CodeSystem/v2-0203","code":"MR"}]},"system":"https://bonnie-fhir.healthit.gov/","value":"633b3fa00968f80122503d15"}],"active":true,"name":[{"use":"usual","family":"IPPass","given":["DelProcRelDtTmEQOBSStart"]}],"gender":"female","birthDate":"2004-01-31"},"request":{"method":"PUT","url":"Patient/f6d7f2da-f584-4f84-a6c6-f25f82bb9b3a"}},{"fullUrl":"https://madie.cms.gov/Encounter/5f21e66daca3e40000cb86cf","resource":{"resourceType":"Encounter","id":"c89e5690-4f66-41ff-947c-a1fe6e8c772e","meta":{"profile":["http://hl7.org/fhir/us/qicore/StructureDefinition/qicore-encounter"]},"status":"finished","class":{"system":"http://terminology.hl7.org/CodeSystem/v3-ActCode","code":"IMP","display":"inpatient encounter"},"type":[{"coding":[{"system":"http://snomed.info/sct","code":"183452005"}]}],"subject":{"reference":"Patient/f6d7f2da-f584-4f84-a6c6-f25f82bb9b3a"},"period":{"start":"2025-02-01T09:00:00.000Z","end":"2025-02-05T08:15:00.000Z"}},"request":{"method":"PUT","url":"Encounter/c89e5690-4f66-41ff-947c-a1fe6e8c772e"}},{"fullUrl":"https://madie.cms.gov/Encounter/6008b987d198200000ecc735","resource":{"resourceType":"Encounter","id":"508b5366-4ee7-45d2-ad1f-5539b16a0cbb","meta":{"profile":["http://hl7.org/fhir/us/qicore/StructureDefinition/qicore-encounter"]},"status":"finished","class":{"system":"http://terminology.hl7.org/CodeSystem/v3-ActCode","code":"IMP","display":"inpatient encounter"},"type":[{"coding":[{"system":"http://snomed.info/sct","code":"448951000124107"}]}],"subject":{"reference":"Patient/f6d7f2da-f584-4f84-a6c6-f25f82bb9b3a"},"period":{"start":"2025-02-01T08:00:00.000Z","end":"2025-02-01T08:59:00.000Z"}},"request":{"method":"PUT","url":"Encounter/508b5366-4ee7-45d2-ad1f-5539b16a0cbb"}},{"fullUrl":"https://madie.cms.gov/Encounter/6008b98bd198200000ecc753","resource":{"resourceType":"Encounter","id":"095fe7c3-51c2-4b95-bdaa-ff7b6da8da51","meta":{"profile":["http://hl7.org/fhir/us/qicore/StructureDefinition/qicore-encounter"]},"status":"finished","class":{"system":"http://terminology.hl7.org/CodeSystem/v3-ActCode","code":"IMP","display":"inpatient encounter"},"type":[{"coding":[{"system":"http://snomed.info/sct","code":"4525004"}]}],"subject":{"reference":"Patient/f6d7f2da-f584-4f84-a6c6-f25f82bb9b3a"},"period":{"start":"2025-02-01T07:00:00.000Z","end":"2025-02-01T07:59:00.000Z"}},"request":{"method":"PUT","url":"Encounter/095fe7c3-51c2-4b95-bdaa-ff7b6da8da51"}},{"fullUrl":"https://madie.cms.gov/Coverage/5f2c54161c76ba5c996057d4","resource":{"resourceType":"Coverage","id":"d5b29e50-45fc-494b-b61e-cfbeab5f5aa7","status":"active","beneficiary":{"reference":"Patient/f6d7f2da-f584-4f84-a6c6-f25f82bb9b3a"},"period":{"start":"2004-01-31T01:00:00.000Z"},"payor":[{"reference":"Organization/33ead57e-5e04-40e4-95ea-bc3cdbd58917"}]},"request":{"method":"PUT","url":"Coverage/d5b29e50-45fc-494b-b61e-cfbeab5f5aa7"}},{"fullUrl":"https://madie.cms.gov/Procedure/5f21e716aca3e40000cb87ee","resource":{"resourceType":"Procedure","id":"20c275a4-8603-483a-b16a-b9e0efa99bd9","meta":{"profile":["http://hl7.org/fhir/us/qicore/StructureDefinition/qicore-procedure"]},"extension":[{"url":"http://hl7.org/fhir/us/qicore/StructureDefinition/qicore-recorded","valueDateTime":"2013-04-05T09:35:00-04:00"}],"status":"completed","code":{"coding":[{"system":"http://snomed.info/sct","code":"10745001"}]},"subject":{"reference":"Patient/f6d7f2da-f584-4f84-a6c6-f25f82bb9b3a"},"performedDateTime":"2025-02-01T08:00:00.000+00:00"},"request":{"method":"PUT","url":"Procedure/20c275a4-8603-483a-b16a-b9e0efa99bd9"}},{"fullUrl":"https://madie.cms.gov/Organization/123456","resource":{"resourceType":"Organization","id":"33ead57e-5e04-40e4-95ea-bc3cdbd58917","meta":{"profile":["http://hl7.org/fhir/us/qicore/StructureDefinition/qicore-organization"]},"identifier":[{"use":"temp","system":"urn:oid:2.16.840.1.113883.4.4","value":"21-3259825"}],"active":true,"type":[{"coding":[{"system":"http://terminology.hl7.org/CodeSystem/organization-type","code":"pay","display":"Payer"}]}],"name":"Blue Cross Blue Shield of Texas","telecom":[{"system":"phone","value":"(+1) 972-766-6900"}],"address":[{"use":"billing","type":"postal","line":["P.O. Box 660044"],"city":"Dallas","state":"TX","postalCode":"75266-0044","country":"USA"}]},"request":{"method":"PUT","url":"Organization/33ead57e-5e04-40e4-95ea-bc3cdbd58917"}},{"fullUrl":"https://madie.cms.gov/Practitioner/practitioner-123456","resource":{"resourceType":"Practitioner","id":"1550ea3a-5b4e-4d67-ad40-80eb568d03a8","identifier":[{"system":"http://hl7.org/fhir/sid/us-npi","value":"123456"}],"name":[{"family":"Evil","prefix":["Dr"]}]},"request":{"method":"PUT","url":"Practitioner/1550ea3a-5b4e-4d67-ad40-80eb568d03a8"}},{"fullUrl":"https://madie.cms.gov/MeasureReport/11b4fc84-c310-4dc4-b4e5-c70253a0851c","resource":{"resourceType":"MeasureReport","id":"11b4fc84-c310-4dc4-b4e5-c70253a0851c","meta":{"profile":["http://hl7.org/fhir/us/cqfmeasures/StructureDefinition/test-case-cqfm"]},"contained":[{"resourceType":"Parameters","id":"735d326d-0948-4387-b9e7-fb7903bef2b9-parameters","parameter":[{"name":"subject","valueString":"f6d7f2da-f584-4f84-a6c6-f25f82bb9b3a"}]}],"extension":[{"url":"http://hl7.org/fhir/us/cqfmeasures/StructureDefinition/cqfm-inputParameters","valueReference":{"reference":"#735d326d-0948-4387-b9e7-fb7903bef2b9-parameters"}},{"url":"http://hl7.org/fhir/us/cqfmeasures/StructureDefinition/cqfm-testCaseDescription","valueMarkdown":"Delivery Procedure rel date/time = OBS start.  ED/OBS/IP all meet global hospitalization criteria.\n"}],"modifierExtension":[{"url":"http://hl7.org/fhir/us/cqfmeasures/StructureDefinition/cqfm-isTestCase","valueBoolean":true}],"status":"complete","type":"individual","measure":"https://madie.cms.gov/Measure/SevereObstetricComplicationsFHIR","period":{"start":"2025-01-01","end":"2025-12-31"},"group":[{"population":[{"code":{"coding":[{"system":"http://terminology.hl7.org/CodeSystem/measure-population","code":"initial-population","display":"Initial Population"}]},"count":1},{"code":{"coding":[{"system":"http://terminology.hl7.org/CodeSystem/measure-population","code":"denominator","display":"Denominator"}]},"count":0},{"code":{"coding":[{"system":"http://terminology.hl7.org/CodeSystem/measure-population","code":"denominator-exclusion","display":"Denominator Exclusion"}]},"count":0},{"code":{"coding":[{"system":"http://terminology.hl7.org/CodeSystem/measure-population","code":"numerator","display":"Numerator"}]},"count":0},{"code":{"coding":[{"system":"http://terminology.hl7.org/CodeSystem/measure-population","code":"numerator-exclusion","display":"Numerator Exclusion"}]},"count":0}]}]},"request":{"method":"PUT","url":"MeasureReport/11b4fc84-c310-4dc4-b4e5-c70253a0851c"}}]}