{"resourceType":"Bundle","id":"tests-f68e8f1d-8c06-4ce8-a541-af39083a984c-bundle","type":"transaction","entry":[{"fullUrl":"https://madie.cms.gov/Patient/f68e8f1d-8c06-4ce8-a541-af39083a984c","resource":{"resourceType":"Patient","id":"f68e8f1d-8c06-4ce8-a541-af39083a984c","meta":{"profile":["http://hl7.org/fhir/us/qicore/StructureDefinition/qicore-patient"]},"text":{"status":"generated","div":"<div xmlns=\"http://www.w3.org/1999/xhtml\"><div class=\"hapiHeaderText\">Age@18 <b>DENOMPASS </b></div><table class=\"hapiPropertyTable\"><tbody><tr><td>Identifier</td><td>67f3e33acf17bcb386e754d726ed064ccd48ba21ff0ffb2eb678740a684398be</td></tr><tr><td>Date of birth</td><td><span>01 January 1994</span></td></tr></tbody></table></div>"},"extension":[{"url":"http://hl7.org/fhir/us/core/StructureDefinition/us-core-race","extension":[{"url":"ombCategory","valueCoding":{"system":"urn:oid:2.16.840.1.113883.6.238","code":"1002-5","display":"American Indian or Alaska Native","userSelected":true}},{"url":"text","valueString":"American Indian or Alaska Native"}]},{"url":"http://hl7.org/fhir/us/core/StructureDefinition/us-core-ethnicity","extension":[{"url":"ombCategory","valueCoding":{"system":"urn:oid:2.16.840.1.113883.6.238","code":"2135-2","display":"Hispanic or Latino","userSelected":true}},{"url":"text","valueString":"Hispanic or Latino"}]}],"identifier":[{"type":{"coding":[{"system":"http://terminology.hl7.org/CodeSystem/v2-0203","code":"MR"}]},"system":"https://bonnie-fhir.healthit.gov/","value":"61095b0998086b53805591a5"}],"active":true,"name":[{"use":"usual","family":"DENEXPASS","given":["OpenWoundofEyeballWithCatSurg"]}],"gender":"female","birthDate":"1994-01-01"},"request":{"method":"PUT","url":"Patient/f68e8f1d-8c06-4ce8-a541-af39083a984c"}},{"fullUrl":"https://madie.cms.gov/Observation/5c9a4252b84846291b7a7085","resource":{"resourceType":"Observation","id":"c51fcb0b-2a61-4dae-b27d-0b649f7849b1","meta":{"profile":["http://hl7.org/fhir/us/qicore/StructureDefinition/qicore-observation"]},"status":"final","category":[{"coding":[{"system":"http://terminology.hl7.org/CodeSystem/observation-category","code":"exam","display":"exam"}]}],"code":{"coding":[{"system":"http://snomed.info/sct","code":"419775003"}]},"subject":{"reference":"Patient/f68e8f1d-8c06-4ce8-a541-af39083a984c"},"effectivePeriod":{"start":"2025-03-13T09:00:00+00:00","end":"2025-03-13T09:30:00+00:00"}},"request":{"method":"PUT","url":"Observation/c51fcb0b-2a61-4dae-b27d-0b649f7849b1"}},{"fullUrl":"https://madie.cms.gov/Procedure/5c9a4252b84846291b7a7084","resource":{"resourceType":"Procedure","id":"204eedce-ce2b-460d-9e82-22f3404ffab5","meta":{"profile":["http://hl7.org/fhir/us/qicore/StructureDefinition/qicore-procedure"]},"extension":[{"url":"http://hl7.org/fhir/us/qicore/StructureDefinition/qicore-recorded","valueDateTime":"2025-03-05T09:35:00-04:00"}],"status":"completed","code":{"coding":[{"system":"http://snomed.info/sct","code":"84149000"}]},"subject":{"reference":"Patient/f68e8f1d-8c06-4ce8-a541-af39083a984c"},"performedPeriod":{"start":"2025-03-05T09:20:00-04:00","end":"2025-04-05T10:30:00-04:00"}},"request":{"method":"PUT","url":"Procedure/204eedce-ce2b-460d-9e82-22f3404ffab5"}},{"fullUrl":"https://madie.cms.gov/Condition/CataractCongenital","resource":{"resourceType":"Condition","id":"68637463-bd85-4050-9fab-8edf034d6a2c","meta":{"profile":["http://hl7.org/fhir/us/qicore/StructureDefinition/qicore-condition"]},"clinicalStatus":{"coding":[{"system":"http://terminology.hl7.org/CodeSystem/condition-clinical","code":"active","display":"active","userSelected":true}]},"category":[{"coding":[{"system":"http://terminology.hl7.org/CodeSystem/condition-clinical","code":"active","display":"active","userSelected":true}]}],"code":{"coding":[{"system":"http://hl7.org/fhir/sid/icd-10-cm","code":"S05.8X2A","userSelected":true},{"system":"http://snomed.info/sct","code":"1869002","userSelected":true}]},"subject":{"reference":"Patient/f68e8f1d-8c06-4ce8-a541-af39083a984c"},"onsetDateTime":"2022-11-01T08:00:00.000+00:00"},"request":{"method":"PUT","url":"Condition/68637463-bd85-4050-9fab-8edf034d6a2c"}},{"fullUrl":"https://madie.cms.gov/Coverage/1","resource":{"resourceType":"Coverage","id":"e27d8e60-e7be-42df-911d-4a3067869c9b","meta":{"profile":["http://hl7.org/fhir/us/qicore/StructureDefinition/qicore-coverage"]},"status":"active","beneficiary":{"reference":"Patient/f68e8f1d-8c06-4ce8-a541-af39083a984c"},"payor":[{"reference":"Organization/f4907415-83c5-4eae-ab0b-cb63a840880d"}]},"request":{"method":"PUT","url":"Coverage/e27d8e60-e7be-42df-911d-4a3067869c9b"}},{"fullUrl":"https://madie.cms.gov/Organization/123456","resource":{"resourceType":"Organization","id":"f4907415-83c5-4eae-ab0b-cb63a840880d","meta":{"profile":["http://hl7.org/fhir/us/qicore/StructureDefinition/qicore-organization"]},"identifier":[{"use":"temp","system":"urn:oid:2.16.840.1.113883.4.4","value":"21-3259825"}],"active":true,"type":[{"coding":[{"system":"http://terminology.hl7.org/CodeSystem/organization-type","code":"pay","display":"Payer"}]}],"name":"Blue Cross Blue Shield of Texas","telecom":[{"system":"phone","value":"(+1) 972-766-6900"}],"address":[{"use":"billing","type":"postal","line":["P.O. Box 660044"],"city":"Dallas","state":"TX","postalCode":"75266-0044","country":"USA"}]},"request":{"method":"PUT","url":"Organization/f4907415-83c5-4eae-ab0b-cb63a840880d"}},{"fullUrl":"https://madie.cms.gov/Practitioner/practitioner-123456","resource":{"resourceType":"Practitioner","id":"dc0e1c8c-6fc6-40f6-b475-6b4198bee7d2","meta":{"profile":["http://hl7.org/fhir/us/qicore/StructureDefinition/qicore-practitioner"]},"identifier":[{"system":"http://hl7.org/fhir/sid/us-npi","value":"123456"}],"name":[{"family":"Evil","prefix":["Dr"]}]},"request":{"method":"PUT","url":"Practitioner/dc0e1c8c-6fc6-40f6-b475-6b4198bee7d2"}},{"fullUrl":"https://madie.cms.gov/MeasureReport/1f7184ee-7057-4b4f-ae4b-d60b2b1b82dd","resource":{"resourceType":"MeasureReport","id":"1f7184ee-7057-4b4f-ae4b-d60b2b1b82dd","meta":{"profile":["http://hl7.org/fhir/us/cqfmeasures/StructureDefinition/test-case-cqfm"]},"contained":[{"resourceType":"Parameters","id":"f3b38e02-a902-43de-8606-38abedd492e4-parameters","parameter":[{"name":"subject","valueString":"f68e8f1d-8c06-4ce8-a541-af39083a984c"}]}],"extension":[{"url":"http://hl7.org/fhir/us/cqfmeasures/StructureDefinition/cqfm-inputParameters","valueReference":{"reference":"#f3b38e02-a902-43de-8606-38abedd492e4-parameters"}},{"url":"http://hl7.org/fhir/us/cqfmeasures/StructureDefinition/cqfm-testCaseDescription","valueMarkdown":"Patient with Open Wound of Eyeball with cataract surgery. "}],"modifierExtension":[{"url":"http://hl7.org/fhir/us/cqfmeasures/StructureDefinition/cqfm-isTestCase","valueBoolean":true}],"status":"complete","type":"individual","measure":"https://madie.cms.gov/Measure/Cataracts2040BCVAwithin90DaysFHIR","period":{"start":"2025-01-01","end":"2025-12-31"},"group":[{"population":[{"code":{"coding":[{"system":"http://terminology.hl7.org/CodeSystem/measure-population","code":"initial-population","display":"Initial Population"}]},"count":1},{"code":{"coding":[{"system":"http://terminology.hl7.org/CodeSystem/measure-population","code":"denominator","display":"Denominator"}]},"count":1},{"code":{"coding":[{"system":"http://terminology.hl7.org/CodeSystem/measure-population","code":"denominator-exclusion","display":"Denominator Exclusion"}]},"count":1},{"code":{"coding":[{"system":"http://terminology.hl7.org/CodeSystem/measure-population","code":"numerator","display":"Numerator"}]},"count":0}]}]},"request":{"method":"PUT","url":"MeasureReport/1f7184ee-7057-4b4f-ae4b-d60b2b1b82dd"}}]}