{"resourceType":"Bundle","id":"tests-736df249-2ed8-43a8-afa5-c177a12cea82-bundle","type":"transaction","entry":[{"fullUrl":"https://madie.cms.gov/Patient/736df249-2ed8-43a8-afa5-c177a12cea82","resource":{"resourceType":"Patient","id":"736df249-2ed8-43a8-afa5-c177a12cea82","meta":{"profile":["http://hl7.org/fhir/us/qicore/StructureDefinition/qicore-patient"]},"text":{"status":"generated","div":"<div xmlns=\"http://www.w3.org/1999/xhtml\"><div class=\"hapiHeaderText\">Age@18 <b>DENOMPASS </b></div><table class=\"hapiPropertyTable\"><tbody><tr><td>Identifier</td><td>67f3e33acf17bcb386e754d726ed064ccd48ba21ff0ffb2eb678740a684398be</td></tr><tr><td>Date of birth</td><td><span>01 January 1994</span></td></tr></tbody></table></div>"},"extension":[{"url":"http://hl7.org/fhir/us/core/StructureDefinition/us-core-race","extension":[{"url":"ombCategory","valueCoding":{"system":"urn:oid:2.16.840.1.113883.6.238","code":"1002-5","display":"American Indian or Alaska Native","userSelected":true}},{"url":"text","valueString":"American Indian or Alaska Native"}]},{"url":"http://hl7.org/fhir/us/core/StructureDefinition/us-core-ethnicity","extension":[{"url":"ombCategory","valueCoding":{"system":"urn:oid:2.16.840.1.113883.6.238","code":"2135-2","display":"Hispanic or Latino","userSelected":true}},{"url":"text","valueString":"Hispanic or Latino"}]}],"identifier":[{"type":{"coding":[{"system":"http://terminology.hl7.org/CodeSystem/v2-0203","code":"MR"}]},"system":"https://bonnie-fhir.healthit.gov/","value":"61095b0998086b53805591a5"}],"active":true,"name":[{"use":"usual","family":"DENEXPASS","given":["HereditaryRetinalDystrophiesWithCatSurg"]}],"gender":"female","birthDate":"1994-01-01"},"request":{"method":"PUT","url":"Patient/736df249-2ed8-43a8-afa5-c177a12cea82"}},{"fullUrl":"https://madie.cms.gov/Observation/5c9a4252b84846291b7a7085","resource":{"resourceType":"Observation","id":"78424899-04f5-489b-b9ba-d31d8c8b0fa8","meta":{"profile":["http://hl7.org/fhir/us/qicore/StructureDefinition/qicore-observation"]},"status":"final","category":[{"coding":[{"system":"http://terminology.hl7.org/CodeSystem/observation-category","code":"exam","display":"exam"}]}],"code":{"coding":[{"system":"http://snomed.info/sct","code":"419775003"}]},"subject":{"reference":"Patient/736df249-2ed8-43a8-afa5-c177a12cea82"},"effectivePeriod":{"start":"2025-03-13T09:00:00+00:00","end":"2025-03-13T09:30:00+00:00"}},"request":{"method":"PUT","url":"Observation/78424899-04f5-489b-b9ba-d31d8c8b0fa8"}},{"fullUrl":"https://madie.cms.gov/Procedure/5c9a4252b84846291b7a7084","resource":{"resourceType":"Procedure","id":"66cdcb0b-abe5-400c-bccf-d88c03401c65","meta":{"profile":["http://hl7.org/fhir/us/qicore/StructureDefinition/qicore-procedure"]},"extension":[{"url":"http://hl7.org/fhir/us/qicore/StructureDefinition/qicore-recorded","valueDateTime":"2025-03-05T09:35:00-04:00"}],"status":"completed","code":{"coding":[{"system":"http://snomed.info/sct","code":"84149000"}]},"subject":{"reference":"Patient/736df249-2ed8-43a8-afa5-c177a12cea82"},"performedPeriod":{"start":"2025-03-05T09:20:00-04:00","end":"2025-04-05T10:30:00-04:00"}},"request":{"method":"PUT","url":"Procedure/66cdcb0b-abe5-400c-bccf-d88c03401c65"}},{"fullUrl":"https://madie.cms.gov/Condition/CataractCongenital","resource":{"resourceType":"Condition","id":"9d43e852-77be-4ad7-bc42-9609dcc9d3e7","meta":{"profile":["http://hl7.org/fhir/us/qicore/StructureDefinition/qicore-condition"]},"clinicalStatus":{"coding":[{"system":"http://terminology.hl7.org/CodeSystem/condition-clinical","code":"active","display":"active","userSelected":true}]},"category":[{"coding":[{"system":"http://terminology.hl7.org/CodeSystem/condition-clinical","code":"active","display":"active","userSelected":true}]}],"code":{"coding":[{"system":"http://hl7.org/fhir/sid/icd-10-cm","code":"H35.50","userSelected":true},{"system":"http://snomed.info/sct","code":"15059000","userSelected":true}]},"subject":{"reference":"Patient/736df249-2ed8-43a8-afa5-c177a12cea82"},"onsetDateTime":"2022-11-01T08:00:00.000+00:00"},"request":{"method":"PUT","url":"Condition/9d43e852-77be-4ad7-bc42-9609dcc9d3e7"}},{"fullUrl":"https://madie.cms.gov/Coverage/1","resource":{"resourceType":"Coverage","id":"4faa13b2-dc38-4f96-b780-9fff4b75265b","meta":{"profile":["http://hl7.org/fhir/us/qicore/StructureDefinition/qicore-coverage"]},"status":"active","beneficiary":{"reference":"Patient/736df249-2ed8-43a8-afa5-c177a12cea82"},"payor":[{"reference":"Organization/f7da4368-fb6d-4d73-a75b-f78024cbb18d"}]},"request":{"method":"PUT","url":"Coverage/4faa13b2-dc38-4f96-b780-9fff4b75265b"}},{"fullUrl":"https://madie.cms.gov/Organization/123456","resource":{"resourceType":"Organization","id":"f7da4368-fb6d-4d73-a75b-f78024cbb18d","meta":{"profile":["http://hl7.org/fhir/us/qicore/StructureDefinition/qicore-organization"]},"identifier":[{"use":"temp","system":"urn:oid:2.16.840.1.113883.4.4","value":"21-3259825"}],"active":true,"type":[{"coding":[{"system":"http://terminology.hl7.org/CodeSystem/organization-type","code":"pay","display":"Payer"}]}],"name":"Blue Cross Blue Shield of Texas","telecom":[{"system":"phone","value":"(+1) 972-766-6900"}],"address":[{"use":"billing","type":"postal","line":["P.O. Box 660044"],"city":"Dallas","state":"TX","postalCode":"75266-0044","country":"USA"}]},"request":{"method":"PUT","url":"Organization/f7da4368-fb6d-4d73-a75b-f78024cbb18d"}},{"fullUrl":"https://madie.cms.gov/Practitioner/practitioner-123456","resource":{"resourceType":"Practitioner","id":"3b1719d6-9c9b-4572-beb1-5c66cd43927a","meta":{"profile":["http://hl7.org/fhir/us/qicore/StructureDefinition/qicore-practitioner"]},"identifier":[{"system":"http://hl7.org/fhir/sid/us-npi","value":"123456"}],"name":[{"family":"Evil","prefix":["Dr"]}]},"request":{"method":"PUT","url":"Practitioner/3b1719d6-9c9b-4572-beb1-5c66cd43927a"}},{"fullUrl":"https://madie.cms.gov/MeasureReport/603916db-6e5c-4613-8407-620a3629e058","resource":{"resourceType":"MeasureReport","id":"603916db-6e5c-4613-8407-620a3629e058","meta":{"profile":["http://hl7.org/fhir/us/cqfmeasures/StructureDefinition/test-case-cqfm"]},"contained":[{"resourceType":"Parameters","id":"d24ab79b-5145-4715-93bd-46e41267d192-parameters","parameter":[{"name":"subject","valueString":"736df249-2ed8-43a8-afa5-c177a12cea82"}]}],"extension":[{"url":"http://hl7.org/fhir/us/cqfmeasures/StructureDefinition/cqfm-inputParameters","valueReference":{"reference":"#d24ab79b-5145-4715-93bd-46e41267d192-parameters"}},{"url":"http://hl7.org/fhir/us/cqfmeasures/StructureDefinition/cqfm-testCaseDescription","valueMarkdown":"Patient with Hereditary Retinal Dystrophiest with cataract surgery. "}],"modifierExtension":[{"url":"http://hl7.org/fhir/us/cqfmeasures/StructureDefinition/cqfm-isTestCase","valueBoolean":true}],"status":"complete","type":"individual","measure":"https://madie.cms.gov/Measure/Cataracts2040BCVAwithin90DaysFHIR","period":{"start":"2025-01-01","end":"2025-12-31"},"group":[{"population":[{"code":{"coding":[{"system":"http://terminology.hl7.org/CodeSystem/measure-population","code":"initial-population","display":"Initial Population"}]},"count":1},{"code":{"coding":[{"system":"http://terminology.hl7.org/CodeSystem/measure-population","code":"denominator","display":"Denominator"}]},"count":1},{"code":{"coding":[{"system":"http://terminology.hl7.org/CodeSystem/measure-population","code":"denominator-exclusion","display":"Denominator Exclusion"}]},"count":1},{"code":{"coding":[{"system":"http://terminology.hl7.org/CodeSystem/measure-population","code":"numerator","display":"Numerator"}]},"count":0}]}]},"request":{"method":"PUT","url":"MeasureReport/603916db-6e5c-4613-8407-620a3629e058"}}]}