{"resourceType":"Bundle","id":"tests-e2117038-2163-4031-a25d-18ed7d8e277b-bundle","type":"transaction","entry":[{"fullUrl":"https://madie.cms.gov/Patient/e2117038-2163-4031-a25d-18ed7d8e277b","resource":{"resourceType":"Patient","id":"e2117038-2163-4031-a25d-18ed7d8e277b","meta":{"profile":["http://hl7.org/fhir/us/qicore/StructureDefinition/qicore-patient"]},"extension":[{"url":"http://hl7.org/fhir/us/core/StructureDefinition/us-core-race","extension":[{"url":"ombCategory","valueCoding":{"system":"urn:oid:2.16.840.1.113883.6.238","code":"2106-3","display":"White"}},{"url":"text","valueString":"White"}]},{"url":"http://hl7.org/fhir/us/core/StructureDefinition/us-core-ethnicity","extension":[{"url":"ombCategory","valueCoding":{"system":"urn:oid:2.16.840.1.113883.6.238","code":"2135-2","display":"Hispanic or Latino"}},{"url":"text","valueString":"Hispanic or Latino"}]}],"identifier":[{"type":{"coding":[{"system":"http://terminology.hl7.org/CodeSystem/v2-0203","code":"MR"}]},"system":"https://bonnie-fhir.healthit.gov/","value":"4613a1320s35400d1d411"}],"name":[{"family":"DENEXCEPFail","given":["BCGNotGiven1dayAfter6Mo"]}],"gender":"female","birthDate":"1947-12-27"},"request":{"method":"PUT","url":"Patient/e2117038-2163-4031-a25d-18ed7d8e277b"}},{"fullUrl":"https://madie.cms.gov/Condition/5313311313","resource":{"resourceType":"Condition","id":"823247d6-d30a-4719-9372-90b95f6929d0","meta":{"profile":["http://hl7.org/fhir/us/qicore/StructureDefinition/qicore-condition"]},"clinicalStatus":{"coding":[{"system":"http://terminology.hl7.org/CodeSystem/condition-clinical","code":"active","display":"Active"}]},"verificationStatus":{"coding":[{"system":"http://terminology.hl7.org/CodeSystem/condition-ver-status","code":"confirmed","display":"Confirmed"}]},"category":[{"coding":[{"system":"http://terminology.hl7.org/CodeSystem/condition-category","code":"problem-list-item","display":"Problem List Item"}]}],"code":{"coding":[{"system":"http://hl7.org/fhir/sid/icd-10-cm","version":"2024","code":"C67.1","display":"Malignant neoplasm of dome of bladder"}]},"subject":{"reference":"Patient/e2117038-2163-4031-a25d-18ed7d8e277b"},"onsetDateTime":"2025-03-05T08:00:00.000+00:00"},"request":{"method":"PUT","url":"Condition/823247d6-d30a-4719-9372-90b95f6929d0"}},{"fullUrl":"https://madie.cms.gov/Encounter/8132032421","resource":{"resourceType":"Encounter","id":"bd63f997-a73d-4c74-ad93-0e210ebadaec","meta":{"profile":["http://hl7.org/fhir/us/qicore/StructureDefinition/qicore-encounter"]},"status":"finished","class":{"system":"http://terminology.hl7.org/CodeSystem/v3-ActCode","code":"AMB","display":"ambulatory"},"type":[{"coding":[{"system":"http://www.ama-assn.org/go/cpt","version":"2024","code":"99202"}]}],"subject":{"reference":"Patient/e2117038-2163-4031-a25d-18ed7d8e277b"},"period":{"start":"2025-03-05T08:00:00.000+00:00","end":"2025-03-05T08:15:00.000+00:00"}},"request":{"method":"PUT","url":"Encounter/bd63f997-a73d-4c74-ad93-0e210ebadaec"}},{"fullUrl":"https://madie.cms.gov/MedicationAdministration/31346131303","resource":{"resourceType":"MedicationAdministration","id":"312ce590-e3ac-46e4-8696-f4366442bf1f","meta":{"profile":["http://hl7.org/fhir/us/qicore/StructureDefinition/qicore-mednotadministered"]},"extension":[{"url":"http://hl7.org/fhir/us/qicore/StructureDefinition/qicore-recorded","valueDateTime":"2025-09-06T08:00:00.000+00:00"}],"status":"not-done","statusReason":[{"coding":[{"system":"http://snomed.info/sct","version":"http://snomed.info/sct/731000124108/version/20240301","code":"242990004","display":"Drug not available for administration (event)"}]}],"medicationCodeableConcept":{"coding":[{"system":"http://www.nlm.nih.gov/research/umls/rxnorm","version":"04012024","code":"1653484","display":"BCG, live, Tice strain 50 MG/ML Topical Suspension"}]},"subject":{"reference":"Patient/e2117038-2163-4031-a25d-18ed7d8e277b"},"effectivePeriod":{"start":"2025-09-06T08:00:00.000+00:00","end":"2025-09-06T08:00:00.000+00:00"}},"request":{"method":"PUT","url":"MedicationAdministration/312ce590-e3ac-46e4-8696-f4366442bf1f"}},{"fullUrl":"https://madie.cms.gov/Procedure/4630334313","resource":{"resourceType":"Procedure","id":"26ad1987-9975-4f7d-a5ec-698ab2cff520","meta":{"profile":["http://hl7.org/fhir/us/qicore/StructureDefinition/qicore-procedure"]},"extension":[{"url":"http://hl7.org/fhir/us/qicore/StructureDefinition/qicore-recorded","valueDateTime":"2025-04-06T08:00:00.000+00:00"}],"status":"completed","code":{"coding":[{"system":"http://snomed.info/sct","version":"http://snomed.info/sct/731000124108/version/20240301","code":"254292007","display":"Tumor staging"}]},"subject":{"reference":"Patient/e2117038-2163-4031-a25d-18ed7d8e277b"},"performedPeriod":{"start":"2025-03-05T08:00:00.000+00:00","end":"2025-03-06T08:15:00.000+00:00"}},"request":{"method":"PUT","url":"Procedure/26ad1987-9975-4f7d-a5ec-698ab2cff520"}},{"fullUrl":"https://madie.cms.gov/Observation/6541310313","resource":{"resourceType":"Observation","id":"292b33a9-6896-443d-97df-1aec821bd0ec","meta":{"profile":["http://hl7.org/fhir/us/qicore/StructureDefinition/qicore-observation"]},"partOf":[{"reference":"Procedure/4630334313"}],"status":"final","category":[{"coding":[{"system":"http://terminology.hl7.org/CodeSystem/observation-category","code":"procedure","display":"Procedure"}]}],"code":{"coding":[{"system":"http://loinc.org","version":"2.76","code":"21902-2","display":"Stage group.pathology Cancer"}]},"subject":{"reference":"Patient/e2117038-2163-4031-a25d-18ed7d8e277b"},"effectivePeriod":{"start":"2025-03-05T08:00:00.000+00:00","end":"2025-03-06T08:15:00.000+00:00"},"issued":"2025-03-05T08:00:00.000+00:00","valueCodeableConcept":{"coding":[{"system":"http://snomed.info/sct","version":"http://snomed.info/sct/731000124108/version/20240301","code":"1228883000","display":"American Joint Committee on Cancer cTa (qualifier value)"}]}},"request":{"method":"PUT","url":"Observation/292b33a9-6896-443d-97df-1aec821bd0ec"}},{"fullUrl":"https://madie.cms.gov/MeasureReport/ec62847a-00e1-4ea6-9931-8eb36b5cfdcd","resource":{"resourceType":"MeasureReport","id":"ec62847a-00e1-4ea6-9931-8eb36b5cfdcd","meta":{"profile":["http://hl7.org/fhir/us/cqfmeasures/StructureDefinition/test-case-cqfm"]},"contained":[{"resourceType":"Parameters","id":"fa69f86e-826b-4798-9ccc-4a27dab703a7-parameters","parameter":[{"name":"subject","valueString":"e2117038-2163-4031-a25d-18ed7d8e277b"}]}],"extension":[{"url":"http://hl7.org/fhir/us/cqfmeasures/StructureDefinition/cqfm-inputParameters","valueReference":{"reference":"#fa69f86e-826b-4798-9ccc-4a27dab703a7-parameters"}},{"url":"http://hl7.org/fhir/us/cqfmeasures/StructureDefinition/cqfm-testCaseDescription","valueMarkdown":"Patient meets IPP.  BCG not available documented 1 day past 6mo.. Fails as expected"}],"modifierExtension":[{"url":"http://hl7.org/fhir/us/cqfmeasures/StructureDefinition/cqfm-isTestCase","valueBoolean":true}],"status":"complete","type":"individual","measure":"https://madie.cms.gov/Measure/IntravesicalBacillusCalmetteGuerinForBladderCancerFHIR","period":{"start":"2025-01-01","end":"2025-12-31"},"group":[{"population":[{"code":{"coding":[{"system":"http://terminology.hl7.org/CodeSystem/measure-population","code":"initial-population","display":"Initial Population"}]},"count":1},{"code":{"coding":[{"system":"http://terminology.hl7.org/CodeSystem/measure-population","code":"denominator","display":"Denominator"}]},"count":1},{"code":{"coding":[{"system":"http://terminology.hl7.org/CodeSystem/measure-population","code":"denominator-exclusion","display":"Denominator Exclusion"}]},"count":0},{"code":{"coding":[{"system":"http://terminology.hl7.org/CodeSystem/measure-population","code":"numerator","display":"Numerator"}]},"count":0},{"code":{"coding":[{"system":"http://terminology.hl7.org/CodeSystem/measure-population","code":"denominator-exception","display":"Denominator Exception"}]},"count":0}]}]},"request":{"method":"PUT","url":"MeasureReport/ec62847a-00e1-4ea6-9931-8eb36b5cfdcd"}}]}