{"resourceType":"Bundle","id":"tests-790f8993-7a03-4ed7-94d7-c0e95587afa0-bundle","type":"transaction","entry":[{"fullUrl":"https://madie.cms.gov/Patient/790f8993-7a03-4ed7-94d7-c0e95587afa0","resource":{"resourceType":"Patient","id":"790f8993-7a03-4ed7-94d7-c0e95587afa0","meta":{"profile":["http://hl7.org/fhir/us/qicore/StructureDefinition/qicore-patient"]},"extension":[{"url":"http://hl7.org/fhir/us/core/StructureDefinition/us-core-race","extension":[{"url":"ombCategory","valueCoding":{"system":"urn:oid:2.16.840.1.113883.6.238","code":"2076-8","display":"Native Hawaiian or Other Pacific Islander"}},{"url":"text","valueString":"Native Hawaiian or Other Pacific Islander"}]},{"url":"http://hl7.org/fhir/us/core/StructureDefinition/us-core-ethnicity","extension":[{"url":"ombCategory","valueCoding":{"system":"urn:oid:2.16.840.1.113883.6.238","code":"2186-5","display":"Not Hispanic or Latino"}},{"url":"text","valueString":"Not Hispanic or Latino"}]}],"identifier":[{"type":{"coding":[{"system":"http://terminology.hl7.org/CodeSystem/v2-0203","code":"MR"}]},"system":"https://bonnie-fhir.healthit.gov/","value":"60d4bda907206d58cd96b128"}],"name":[{"family":"NUMERPass","given":["BCGTwiceCheckForFirst"]}],"gender":"female","birthDate":"1950-12-25"},"request":{"method":"PUT","url":"Patient/790f8993-7a03-4ed7-94d7-c0e95587afa0"}},{"fullUrl":"https://madie.cms.gov/Encounter/64646103516461","resource":{"resourceType":"Encounter","id":"6e342836-f9e8-4e2a-baff-4804a40109bb","meta":{"profile":["http://hl7.org/fhir/us/qicore/StructureDefinition/qicore-encounter"]},"status":"finished","class":{"system":"http://terminology.hl7.org/CodeSystem/v3-ActCode","code":"AMB","display":"ambulatory"},"type":[{"coding":[{"system":"http://snomed.info/sct","version":"http://snomed.info/sct/731000124108/version/20240301","code":"185463005","display":"Visit out of hours (procedure)"}]}],"subject":{"reference":"Patient/790f8993-7a03-4ed7-94d7-c0e95587afa0"},"period":{"start":"2025-02-02T08:00:00.000+00:00","end":"2025-02-02T09:15:00.000+00:00"}},"request":{"method":"PUT","url":"Encounter/6e342836-f9e8-4e2a-baff-4804a40109bb"}},{"fullUrl":"https://madie.cms.gov/Condition/64646103516462","resource":{"resourceType":"Condition","id":"60c36714-784f-4e8a-aa12-ae3e959bbb63","meta":{"profile":["http://hl7.org/fhir/us/qicore/StructureDefinition/qicore-condition"]},"clinicalStatus":{"coding":[{"system":"http://terminology.hl7.org/CodeSystem/condition-clinical","code":"active","display":"Active"}]},"verificationStatus":{"coding":[{"system":"http://terminology.hl7.org/CodeSystem/condition-ver-status","code":"confirmed","display":"Confirmed"}]},"category":[{"coding":[{"system":"http://terminology.hl7.org/CodeSystem/condition-category","code":"problem-list-item","display":"Problem List Item"}]}],"code":{"coding":[{"system":"http://hl7.org/fhir/sid/icd-10-cm","version":"2024","code":"C67.1","display":"Malignant neoplasm of dome of bladder"}]},"subject":{"reference":"Patient/790f8993-7a03-4ed7-94d7-c0e95587afa0"},"onsetPeriod":{"start":"2025-02-02T08:00:00.000+00:00"}},"request":{"method":"PUT","url":"Condition/60c36714-784f-4e8a-aa12-ae3e959bbb63"}},{"fullUrl":"https://madie.cms.gov/Procedure/64646103516463","resource":{"resourceType":"Procedure","id":"56423b7f-5313-4dcd-a7e9-4e1cbd143b00","meta":{"profile":["http://hl7.org/fhir/us/qicore/StructureDefinition/qicore-procedure"]},"extension":[{"url":"http://hl7.org/fhir/us/qicore/StructureDefinition/qicore-recorded","valueDateTime":"2025-02-01T08:00:00.000+00:00"}],"status":"completed","code":{"coding":[{"system":"http://snomed.info/sct","version":"http://snomed.info/sct/731000124108/version/20240301","code":"254292007","display":"Tumor staging"}]},"subject":{"reference":"Patient/790f8993-7a03-4ed7-94d7-c0e95587afa0"},"performedPeriod":{"start":"2025-02-01T08:00:00.000+00:00","end":"2025-02-02T08:15:00.000+00:00"}},"request":{"method":"PUT","url":"Procedure/56423b7f-5313-4dcd-a7e9-4e1cbd143b00"}},{"fullUrl":"https://madie.cms.gov/Observation/64646103516464","resource":{"resourceType":"Observation","id":"b1b0ebfc-d1a4-4af2-9475-6e2f52b8c3ad","meta":{"profile":["http://hl7.org/fhir/us/qicore/StructureDefinition/qicore-observation"]},"partOf":[{"reference":"Procedure/64646103516463"}],"status":"final","category":[{"coding":[{"system":"http://terminology.hl7.org/CodeSystem/observation-category","code":"procedure","display":"Procedure"}]}],"code":{"coding":[{"system":"http://loinc.org","version":"2.76","code":"21902-2","display":"Stage group.pathology Cancer"}]},"subject":{"reference":"Patient/790f8993-7a03-4ed7-94d7-c0e95587afa0"},"effectivePeriod":{"start":"2025-02-01T08:00:00.000+00:00","end":"2025-02-02T08:15:00.000+00:00"},"issued":"2025-02-02T08:15:00.000+00:00","valueCodeableConcept":{"coding":[{"system":"http://snomed.info/sct","version":"http://snomed.info/sct/731000124108/version/20240301","code":"1228883000","display":"American Joint Committee on Cancer cTa (qualifier value)"}]}},"request":{"method":"PUT","url":"Observation/b1b0ebfc-d1a4-4af2-9475-6e2f52b8c3ad"}},{"fullUrl":"https://madie.cms.gov/MedicationAdministration/64646103516465","resource":{"resourceType":"MedicationAdministration","id":"1d4e963a-0bbd-4c92-9d0e-d8a27c199e47","meta":{"profile":["http://hl7.org/fhir/us/qicore/StructureDefinition/qicore-medicationadministration"]},"status":"completed","medicationCodeableConcept":{"coding":[{"system":"http://www.nlm.nih.gov/research/umls/rxnorm","version":"04012024","code":"1653484","display":"BCG, live, Tice strain 50 MG/ML Topical Suspension"}]},"subject":{"reference":"Patient/790f8993-7a03-4ed7-94d7-c0e95587afa0"},"effectivePeriod":{"start":"2025-06-02T08:00:00.000+00:00","end":"2025-06-02T08:15:00.000+00:00"}},"request":{"method":"PUT","url":"MedicationAdministration/1d4e963a-0bbd-4c92-9d0e-d8a27c199e47"}},{"fullUrl":"https://madie.cms.gov/MedicationAdministration/6464610351646-6","resource":{"resourceType":"MedicationAdministration","id":"cb828221-3413-499b-8abe-fc1a7615085e","meta":{"profile":["http://hl7.org/fhir/us/qicore/StructureDefinition/qicore-medicationadministration"]},"status":"completed","medicationCodeableConcept":{"coding":[{"system":"http://www.nlm.nih.gov/research/umls/rxnorm","version":"04012024","code":"1653484","display":"BCG, live, Tice strain 50 MG/ML Topical Suspension"}]},"subject":{"reference":"Patient/790f8993-7a03-4ed7-94d7-c0e95587afa0"},"effectivePeriod":{"start":"2025-07-02T08:00:00.000+00:00","end":"2025-07-02T08:15:00.000+00:00"}},"request":{"method":"PUT","url":"MedicationAdministration/cb828221-3413-499b-8abe-fc1a7615085e"}},{"fullUrl":"https://madie.cms.gov/MeasureReport/8097e3be-df17-46ef-95fa-193bf9e66c78","resource":{"resourceType":"MeasureReport","id":"8097e3be-df17-46ef-95fa-193bf9e66c78","meta":{"profile":["http://hl7.org/fhir/us/cqfmeasures/StructureDefinition/test-case-cqfm"]},"contained":[{"resourceType":"Parameters","id":"e912606a-af20-47d8-8b31-1b0723214a15-parameters","parameter":[{"name":"subject","valueString":"790f8993-7a03-4ed7-94d7-c0e95587afa0"}]}],"extension":[{"url":"http://hl7.org/fhir/us/cqfmeasures/StructureDefinition/cqfm-inputParameters","valueReference":{"reference":"#e912606a-af20-47d8-8b31-1b0723214a15-parameters"}},{"url":"http://hl7.org/fhir/us/cqfmeasures/StructureDefinition/cqfm-testCaseDescription","valueMarkdown":"BCa, OV and staging present.  BCG given twice.  First is within 6 months of staging and 2nd is at 7 months after staging.  Test to determine if 1st BCG is calculating the results. Passes as expected."}],"modifierExtension":[{"url":"http://hl7.org/fhir/us/cqfmeasures/StructureDefinition/cqfm-isTestCase","valueBoolean":true}],"status":"complete","type":"individual","measure":"https://madie.cms.gov/Measure/IntravesicalBacillusCalmetteGuerinForBladderCancerFHIR","period":{"start":"2025-01-01","end":"2025-12-31"},"group":[{"population":[{"code":{"coding":[{"system":"http://terminology.hl7.org/CodeSystem/measure-population","code":"initial-population","display":"Initial Population"}]},"count":1},{"code":{"coding":[{"system":"http://terminology.hl7.org/CodeSystem/measure-population","code":"denominator","display":"Denominator"}]},"count":1},{"code":{"coding":[{"system":"http://terminology.hl7.org/CodeSystem/measure-population","code":"denominator-exclusion","display":"Denominator Exclusion"}]},"count":0},{"code":{"coding":[{"system":"http://terminology.hl7.org/CodeSystem/measure-population","code":"numerator","display":"Numerator"}]},"count":1},{"code":{"coding":[{"system":"http://terminology.hl7.org/CodeSystem/measure-population","code":"denominator-exception","display":"Denominator Exception"}]},"count":0}]}]},"request":{"method":"PUT","url":"MeasureReport/8097e3be-df17-46ef-95fa-193bf9e66c78"}}]}