{"resourceType":"Bundle","id":"tests-02d9a61a-6315-45e9-b45b-c08d4b55d39e-bundle","type":"transaction","entry":[{"fullUrl":"https://madie.cms.gov/Patient/02d9a61a-6315-45e9-b45b-c08d4b55d39e","resource":{"resourceType":"Patient","id":"02d9a61a-6315-45e9-b45b-c08d4b55d39e","meta":{"profile":["http://hl7.org/fhir/us/qicore/StructureDefinition/qicore-patient"]},"extension":[{"url":"http://hl7.org/fhir/us/core/StructureDefinition/us-core-race","extension":[{"url":"ombCategory","valueCoding":{"system":"urn:oid:2.16.840.1.113883.6.238","code":"1002-5","display":"American Indian or Alaska Native"}},{"url":"text","valueString":"American Indian or Alaska Native"}]},{"url":"http://hl7.org/fhir/us/core/StructureDefinition/us-core-ethnicity","extension":[{"url":"ombCategory","valueCoding":{"system":"urn:oid:2.16.840.1.113883.6.238","code":"2135-2","display":"Hispanic or Latino"}},{"url":"text","valueString":"Hispanic or Latino"}]}],"identifier":[{"type":{"coding":[{"system":"http://terminology.hl7.org/CodeSystem/v2-0203","code":"MR"}]},"system":"https://bonnie-fhir.healthit.gov/","value":"62bc69333e113102f8cedca6"}],"name":[{"family":"DENEXFail","given":["RadiationAfterStaging"]}],"gender":"female","birthDate":"1946-02-01"},"request":{"method":"PUT","url":"Patient/02d9a61a-6315-45e9-b45b-c08d4b55d39e"}},{"fullUrl":"https://madie.cms.gov/Encounter/office-visit-dca7","resource":{"resourceType":"Encounter","id":"d2e429c2-f07a-4296-aba6-69cea447ba39","meta":{"profile":["http://hl7.org/fhir/us/qicore/StructureDefinition/qicore-encounter"]},"status":"finished","class":{"system":"http://terminology.hl7.org/CodeSystem/v3-ActCode","code":"AMB","display":"ambulatory"},"type":[{"coding":[{"system":"http://snomed.info/sct","version":"http://snomed.info/sct/731000124108/version/20240301","code":"185463005","display":"Visit out of hours (procedure)"}]}],"subject":{"reference":"Patient/02d9a61a-6315-45e9-b45b-c08d4b55d39e"},"period":{"start":"2025-06-30T08:00:00.000+00:00","end":"2025-06-30T09:15:00.000+00:00"}},"request":{"method":"PUT","url":"Encounter/d2e429c2-f07a-4296-aba6-69cea447ba39"}},{"fullUrl":"https://madie.cms.gov/Procedure/denex-pass-CMS646v0QICore4-3","resource":{"resourceType":"Procedure","id":"950934ea-527f-44a7-99f4-b41a32254c82","meta":{"profile":["http://hl7.org/fhir/us/qicore/StructureDefinition/qicore-procedure"]},"extension":[{"url":"http://hl7.org/fhir/us/qicore/StructureDefinition/qicore-recorded","valueDateTime":"2025-08-30T08:00:00.000+00:00"}],"status":"completed","code":{"coding":[{"system":"http://snomed.info/sct","version":"http://snomed.info/sct/731000124108/version/20240301","code":"169331000","display":"Combined radiotherapy (procedure)","userSelected":true}]},"subject":{"reference":"Patient/02d9a61a-6315-45e9-b45b-c08d4b55d39e"},"performedPeriod":{"start":"2025-08-30T08:00:00.000+00:00","end":"2025-08-30T08:15:00.000+00:00"}},"request":{"method":"PUT","url":"Procedure/950934ea-527f-44a7-99f4-b41a32254c82"}},{"fullUrl":"https://madie.cms.gov/Condition/prostate-cancer-dca8","resource":{"resourceType":"Condition","id":"7eed8711-e803-40d4-a7c1-0d1c189a39fa","meta":{"profile":["http://hl7.org/fhir/us/qicore/StructureDefinition/qicore-condition"]},"clinicalStatus":{"coding":[{"system":"http://terminology.hl7.org/CodeSystem/condition-clinical","code":"active","display":"Active"}]},"verificationStatus":{"coding":[{"system":"http://terminology.hl7.org/CodeSystem/condition-ver-status","code":"confirmed","display":"Confirmed"}]},"category":[{"coding":[{"system":"http://terminology.hl7.org/CodeSystem/condition-category","code":"problem-list-item","display":"Problem List Item"}]}],"code":{"coding":[{"system":"http://hl7.org/fhir/sid/icd-10-cm","version":"2024","code":"C67.3","display":"Malignant neoplasm of anterior wall of bladder"}]},"subject":{"reference":"Patient/02d9a61a-6315-45e9-b45b-c08d4b55d39e"},"onsetDateTime":"2025-06-30T08:00:00.000+00:00"},"request":{"method":"PUT","url":"Condition/7eed8711-e803-40d4-a7c1-0d1c189a39fa"}},{"fullUrl":"https://madie.cms.gov/Observation/denex-pass-CMS646v0QICore4-4","resource":{"resourceType":"Observation","id":"9ff39daf-8dae-4d20-bb21-a0a56a68f73f","meta":{"profile":["http://hl7.org/fhir/us/qicore/StructureDefinition/qicore-observation"]},"partOf":[{"reference":"Procedure/denex-pass-CMS646v0QICore4-3"}],"status":"final","category":[{"coding":[{"system":"http://terminology.hl7.org/CodeSystem/observation-category","code":"procedure","display":"Procedure"}]}],"code":{"coding":[{"system":"http://loinc.org","version":"2.76","code":"21902-2","display":"Stage group.pathology Cancer"}]},"subject":{"reference":"Patient/02d9a61a-6315-45e9-b45b-c08d4b55d39e"},"effectivePeriod":{"start":"2025-06-30T08:00:00.000+00:00","end":"2025-06-30T08:15:00.000+00:00"},"issued":"2025-06-30T08:15:00.000+00:00","valueCodeableConcept":{"coding":[{"system":"http://snomed.info/sct","version":"http://snomed.info/sct/731000124108/version/20240301","code":"1228884006","display":"American Joint Committee on Cancer cTis (qualifier value)"}]}},"request":{"method":"PUT","url":"Observation/9ff39daf-8dae-4d20-bb21-a0a56a68f73f"}},{"fullUrl":"https://madie.cms.gov/Practitioner/13143134531634","resource":{"resourceType":"Practitioner","id":"6e8ba528-28fe-42a5-b591-5548ffff0776","meta":{"profile":["http://hl7.org/fhir/us/qicore/StructureDefinition/qicore-practitioner"]},"identifier":[{"use":"temp","system":"urn:oid:2.16.840.1.113883.4.336","value":"Practitioner-23"}],"active":true,"name":[{"family":"Careful","given":["Adam"],"prefix":["Dr"]}],"address":[{"use":"home","line":["534 Erewhon St"],"city":"PleasantVille","state":"UT","postalCode":"84414"}],"qualification":[{"identifier":[{"system":"http://example.org/UniversityIdentifier","value":"12345"}],"code":{"coding":[{"system":"http://terminology.hl7.org/CodeSystem/v2-0360","code":"BS","display":"Bachelor of Science"}],"text":"Bachelor of Science"},"period":{"start":"1995"},"issuer":{"display":"Example University"}}]},"request":{"method":"PUT","url":"Practitioner/6e8ba528-28fe-42a5-b591-5548ffff0776"}},{"fullUrl":"https://madie.cms.gov/Procedure/denex-pass-CMS646v0QICore4-5","resource":{"resourceType":"Procedure","id":"ddae4ee5-88ef-4227-8b14-98c0cdc5fb3e","meta":{"profile":["http://hl7.org/fhir/us/qicore/StructureDefinition/qicore-procedure"]},"extension":[{"url":"http://hl7.org/fhir/us/qicore/StructureDefinition/qicore-recorded","valueDateTime":"2025-06-30T08:00:00.000+00:00"}],"status":"completed","code":{"coding":[{"system":"http://snomed.info/sct","version":"http://snomed.info/sct/731000124108/version/20240301","code":"254292007","display":"Tumor staging"}]},"subject":{"reference":"Patient/02d9a61a-6315-45e9-b45b-c08d4b55d39e"},"performedPeriod":{"start":"2025-06-30T08:00:00.000+00:00","end":"2025-06-30T08:15:00.000+00:00"}},"request":{"method":"PUT","url":"Procedure/ddae4ee5-88ef-4227-8b14-98c0cdc5fb3e"}},{"fullUrl":"https://madie.cms.gov/MeasureReport/e43eb914-e1fe-4885-a43a-ec5637906748","resource":{"resourceType":"MeasureReport","id":"e43eb914-e1fe-4885-a43a-ec5637906748","meta":{"profile":["http://hl7.org/fhir/us/cqfmeasures/StructureDefinition/test-case-cqfm"]},"contained":[{"resourceType":"Parameters","id":"da810bab-8be5-458d-b0f7-5edda4ae1a79-parameters","parameter":[{"name":"subject","valueString":"02d9a61a-6315-45e9-b45b-c08d4b55d39e"}]}],"extension":[{"url":"http://hl7.org/fhir/us/cqfmeasures/StructureDefinition/cqfm-inputParameters","valueReference":{"reference":"#da810bab-8be5-458d-b0f7-5edda4ae1a79-parameters"}},{"url":"http://hl7.org/fhir/us/cqfmeasures/StructureDefinition/cqfm-testCaseDescription","valueMarkdown":"Patient with OV in MP. Bladder cancer diagnosis and cancer staging in MP.  Pt had radiation 2 months after bladder cancer staging and should not be excluded. "}],"modifierExtension":[{"url":"http://hl7.org/fhir/us/cqfmeasures/StructureDefinition/cqfm-isTestCase","valueBoolean":true}],"status":"complete","type":"individual","measure":"https://madie.cms.gov/Measure/IntravesicalBacillusCalmetteGuerinForBladderCancerFHIR","period":{"start":"2025-01-01","end":"2025-12-31"},"group":[{"population":[{"code":{"coding":[{"system":"http://terminology.hl7.org/CodeSystem/measure-population","code":"initial-population","display":"Initial Population"}]},"count":1},{"code":{"coding":[{"system":"http://terminology.hl7.org/CodeSystem/measure-population","code":"denominator","display":"Denominator"}]},"count":1},{"code":{"coding":[{"system":"http://terminology.hl7.org/CodeSystem/measure-population","code":"denominator-exclusion","display":"Denominator Exclusion"}]},"count":0},{"code":{"coding":[{"system":"http://terminology.hl7.org/CodeSystem/measure-population","code":"numerator","display":"Numerator"}]},"count":0},{"code":{"coding":[{"system":"http://terminology.hl7.org/CodeSystem/measure-population","code":"denominator-exception","display":"Denominator Exception"}]},"count":0}]}]},"request":{"method":"PUT","url":"MeasureReport/e43eb914-e1fe-4885-a43a-ec5637906748"}}]}