{"resourceType":"Bundle","id":"tests-5ee5544a-1846-4312-9048-82e030bb93cd-bundle","type":"transaction","entry":[{"fullUrl":"https://madie.cms.gov/Patient/5ee5544a-1846-4312-9048-82e030bb93cd","resource":{"resourceType":"Patient","id":"5ee5544a-1846-4312-9048-82e030bb93cd","meta":{"profile":["http://hl7.org/fhir/us/qicore/StructureDefinition/qicore-patient"]},"extension":[{"url":"http://hl7.org/fhir/us/core/StructureDefinition/us-core-race","extension":[{"url":"ombCategory","valueCoding":{"system":"urn:oid:2.16.840.1.113883.6.238","code":"2076-8","display":"Native Hawaiian or Other Pacific Islander"}},{"url":"text","valueString":"Native Hawaiian or Other Pacific Islander"}]},{"url":"http://hl7.org/fhir/us/core/StructureDefinition/us-core-ethnicity","extension":[{"url":"ombCategory","valueCoding":{"system":"urn:oid:2.16.840.1.113883.6.238","code":"2186-5","display":"Not Hispanic or Latino"}},{"url":"text","valueString":"Not Hispanic or Latino"}]}],"identifier":[{"type":{"coding":[{"system":"http://terminology.hl7.org/CodeSystem/v2-0203","code":"MR"}]},"system":"https://bonnie-fhir.healthit.gov/","value":"60d4bda907206d58cd96b128"}],"name":[{"family":"NUMERFail","given":["StagingLastDayOfYearBCG4MonthsLaterEdgeTest"]}],"gender":"female","birthDate":"1950-12-25"},"request":{"method":"PUT","url":"Patient/5ee5544a-1846-4312-9048-82e030bb93cd"}},{"fullUrl":"https://madie.cms.gov/Encounter/64646103516461","resource":{"resourceType":"Encounter","id":"04488626-f860-412b-bebe-70b112c87202","meta":{"profile":["http://hl7.org/fhir/us/qicore/StructureDefinition/qicore-encounter"]},"status":"finished","class":{"system":"http://terminology.hl7.org/CodeSystem/v3-ActCode","code":"AMB","display":"ambulatory"},"type":[{"coding":[{"system":"http://snomed.info/sct","version":"http://snomed.info/sct/731000124108/version/20240301","code":"185463005","display":"Visit out of hours (procedure)"}]}],"subject":{"reference":"Patient/5ee5544a-1846-4312-9048-82e030bb93cd"},"period":{"start":"2025-01-01T08:00:00.000+00:00","end":"2025-01-01T09:15:00.000+00:00"}},"request":{"method":"PUT","url":"Encounter/04488626-f860-412b-bebe-70b112c87202"}},{"fullUrl":"https://madie.cms.gov/Condition/64646103516462","resource":{"resourceType":"Condition","id":"cf8324d9-227e-47d7-8355-470bbbd12505","meta":{"profile":["http://hl7.org/fhir/us/qicore/StructureDefinition/qicore-condition"]},"clinicalStatus":{"coding":[{"system":"http://terminology.hl7.org/CodeSystem/condition-clinical","code":"active","display":"Active"}]},"verificationStatus":{"coding":[{"system":"http://terminology.hl7.org/CodeSystem/condition-ver-status","code":"confirmed","display":"Confirmed"}]},"category":[{"coding":[{"system":"http://terminology.hl7.org/CodeSystem/condition-category","code":"problem-list-item","display":"Problem List Item"}]}],"code":{"coding":[{"system":"http://hl7.org/fhir/sid/icd-10-cm","version":"2024","code":"C67.1","display":"Malignant neoplasm of dome of bladder"}]},"subject":{"reference":"Patient/5ee5544a-1846-4312-9048-82e030bb93cd"},"onsetPeriod":{"start":"2024-12-31T08:00:00.000+00:00"}},"request":{"method":"PUT","url":"Condition/cf8324d9-227e-47d7-8355-470bbbd12505"}},{"fullUrl":"https://madie.cms.gov/Procedure/64646103516463","resource":{"resourceType":"Procedure","id":"5b1501d5-0f35-451b-bb9e-a5be2d77bbbc","meta":{"profile":["http://hl7.org/fhir/us/qicore/StructureDefinition/qicore-procedure"]},"extension":[{"url":"http://hl7.org/fhir/us/qicore/StructureDefinition/qicore-recorded","valueDateTime":"2024-12-31T08:00:00.000+00:00"}],"status":"completed","code":{"coding":[{"system":"http://snomed.info/sct","version":"http://snomed.info/sct/731000124108/version/20240301","code":"254292007","display":"Tumor staging"}]},"subject":{"reference":"Patient/5ee5544a-1846-4312-9048-82e030bb93cd"},"performedPeriod":{"start":"2024-12-31T08:00:00.000+00:00","end":"2024-12-31T08:15:00.000+00:00"}},"request":{"method":"PUT","url":"Procedure/5b1501d5-0f35-451b-bb9e-a5be2d77bbbc"}},{"fullUrl":"https://madie.cms.gov/Observation/64646103516464","resource":{"resourceType":"Observation","id":"3f05aa9d-2cf0-46c3-809d-b1c2d65fb0ca","meta":{"profile":["http://hl7.org/fhir/us/qicore/StructureDefinition/qicore-observation"]},"partOf":[{"reference":"Procedure/64646103516463"}],"status":"final","category":[{"coding":[{"system":"http://terminology.hl7.org/CodeSystem/observation-category","code":"procedure","display":"Procedure"}]}],"code":{"coding":[{"system":"http://loinc.org","version":"2.76","code":"21902-2","display":"Stage group.pathology Cancer"}]},"subject":{"reference":"Patient/5ee5544a-1846-4312-9048-82e030bb93cd"},"effectivePeriod":{"start":"2024-12-31T08:00:00.000+00:00","end":"2024-12-31T08:15:00.000+00:00"},"issued":"2024-12-31T08:15:00.000+00:00","valueCodeableConcept":{"coding":[{"system":"http://snomed.info/sct","version":"http://snomed.info/sct/731000124108/version/20240301","code":"1228883000","display":"American Joint Committee on Cancer cTa (qualifier value)"}]}},"request":{"method":"PUT","url":"Observation/3f05aa9d-2cf0-46c3-809d-b1c2d65fb0ca"}},{"fullUrl":"https://madie.cms.gov/MedicationAdministration/64646103516465","resource":{"resourceType":"MedicationAdministration","id":"593a4104-f23e-4f1d-b4ab-7809c1a9d798","meta":{"profile":["http://hl7.org/fhir/us/qicore/StructureDefinition/qicore-medicationadministration"]},"status":"completed","medicationCodeableConcept":{"coding":[{"system":"http://www.nlm.nih.gov/research/umls/rxnorm","version":"04012024","code":"1653484","display":"BCG, live, Tice strain 50 MG/ML Topical Suspension"}]},"subject":{"reference":"Patient/5ee5544a-1846-4312-9048-82e030bb93cd"},"effectivePeriod":{"start":"2025-07-01T08:00:00.000+00:00","end":"2025-07-01T08:15:00.000+00:00"}},"request":{"method":"PUT","url":"MedicationAdministration/593a4104-f23e-4f1d-b4ab-7809c1a9d798"}},{"fullUrl":"https://madie.cms.gov/MeasureReport/13d34bee-16f8-4f8e-a187-d1cab1d4dd9d","resource":{"resourceType":"MeasureReport","id":"13d34bee-16f8-4f8e-a187-d1cab1d4dd9d","meta":{"profile":["http://hl7.org/fhir/us/cqfmeasures/StructureDefinition/test-case-cqfm"]},"contained":[{"resourceType":"Parameters","id":"e230849a-e968-4733-b6e5-c3529d657876-parameters","parameter":[{"name":"subject","valueString":"5ee5544a-1846-4312-9048-82e030bb93cd"}]}],"extension":[{"url":"http://hl7.org/fhir/us/cqfmeasures/StructureDefinition/cqfm-inputParameters","valueReference":{"reference":"#e230849a-e968-4733-b6e5-c3529d657876-parameters"}},{"url":"http://hl7.org/fhir/us/cqfmeasures/StructureDefinition/cqfm-testCaseDescription","valueMarkdown":"Bladder Ca dx and first qualifying staging done on Dec 31.  BCG given 6 months later.  Fails numerator"}],"modifierExtension":[{"url":"http://hl7.org/fhir/us/cqfmeasures/StructureDefinition/cqfm-isTestCase","valueBoolean":true}],"status":"complete","type":"individual","measure":"https://madie.cms.gov/Measure/IntravesicalBacillusCalmetteGuerinForBladderCancerFHIR","period":{"start":"2025-01-01","end":"2025-12-31"},"group":[{"population":[{"code":{"coding":[{"system":"http://terminology.hl7.org/CodeSystem/measure-population","code":"initial-population","display":"Initial Population"}]},"count":1},{"code":{"coding":[{"system":"http://terminology.hl7.org/CodeSystem/measure-population","code":"denominator","display":"Denominator"}]},"count":1},{"code":{"coding":[{"system":"http://terminology.hl7.org/CodeSystem/measure-population","code":"denominator-exclusion","display":"Denominator Exclusion"}]},"count":0},{"code":{"coding":[{"system":"http://terminology.hl7.org/CodeSystem/measure-population","code":"numerator","display":"Numerator"}]},"count":0},{"code":{"coding":[{"system":"http://terminology.hl7.org/CodeSystem/measure-population","code":"denominator-exception","display":"Denominator Exception"}]},"count":0}]}]},"request":{"method":"PUT","url":"MeasureReport/13d34bee-16f8-4f8e-a187-d1cab1d4dd9d"}}]}