{"resourceType":"Bundle","id":"tests-9bb98b0b-b99e-4d58-b17a-74dc43dc062a-bundle","type":"transaction","entry":[{"fullUrl":"https://madie.cms.gov/Patient/9bb98b0b-b99e-4d58-b17a-74dc43dc062a","resource":{"resourceType":"Patient","id":"9bb98b0b-b99e-4d58-b17a-74dc43dc062a","meta":{"profile":["http://hl7.org/fhir/us/qicore/StructureDefinition/qicore-patient"]},"extension":[{"url":"http://hl7.org/fhir/us/core/StructureDefinition/us-core-race","extension":[{"url":"ombCategory","valueCoding":{"system":"urn:oid:2.16.840.1.113883.6.238","code":"1002-5","display":"American Indian or Alaska Native"}},{"url":"text","valueString":"American Indian or Alaska Native"}]},{"url":"http://hl7.org/fhir/us/core/StructureDefinition/us-core-ethnicity","extension":[{"url":"ombCategory","valueCoding":{"system":"urn:oid:2.16.840.1.113883.6.238","code":"2135-2","display":"Hispanic or Latino"}},{"url":"text","valueString":"Hispanic or Latino"}]}],"identifier":[{"type":{"coding":[{"system":"http://terminology.hl7.org/CodeSystem/v2-0203","code":"MR"}]},"system":"https://bonnie-fhir.healthit.gov/","value":"62bc69333e113102f8cedca6"}],"name":[{"family":"NUMERPass","given":["FirstStagingJuly1BeforeMPEdge"]}],"gender":"female","birthDate":"1946-02-01"},"request":{"method":"PUT","url":"Patient/9bb98b0b-b99e-4d58-b17a-74dc43dc062a"}},{"fullUrl":"https://madie.cms.gov/Encounter/office-visit-dca7","resource":{"resourceType":"Encounter","id":"0d12bb4c-f4f1-4a84-83e3-313ec7d64911","meta":{"profile":["http://hl7.org/fhir/us/qicore/StructureDefinition/qicore-encounter"]},"status":"finished","class":{"system":"http://terminology.hl7.org/CodeSystem/v3-ActCode","code":"AMB","display":"ambulatory"},"type":[{"coding":[{"system":"http://snomed.info/sct","version":"http://snomed.info/sct/731000124108/version/20240301","code":"185463005","display":"Visit out of hours (procedure)"}]}],"subject":{"reference":"Patient/9bb98b0b-b99e-4d58-b17a-74dc43dc062a"},"period":{"start":"2025-01-01T08:00:00.000+00:00","end":"2025-01-01T09:15:00.000+00:00"}},"request":{"method":"PUT","url":"Encounter/0d12bb4c-f4f1-4a84-83e3-313ec7d64911"}},{"fullUrl":"https://madie.cms.gov/Condition/prostate-cancer-dca8","resource":{"resourceType":"Condition","id":"b94ea07d-329a-4c0e-859a-f7c4c4232aeb","meta":{"profile":["http://hl7.org/fhir/us/qicore/StructureDefinition/qicore-condition"]},"clinicalStatus":{"coding":[{"system":"http://terminology.hl7.org/CodeSystem/condition-clinical","code":"active","display":"Active"}]},"verificationStatus":{"coding":[{"system":"http://terminology.hl7.org/CodeSystem/condition-ver-status","code":"confirmed","display":"Confirmed"}]},"category":[{"coding":[{"system":"http://terminology.hl7.org/CodeSystem/condition-category","code":"problem-list-item","display":"Problem List Item"}]}],"code":{"coding":[{"system":"http://hl7.org/fhir/sid/icd-10-cm","version":"2024","code":"C67.3","display":"Malignant neoplasm of anterior wall of bladder"}]},"subject":{"reference":"Patient/9bb98b0b-b99e-4d58-b17a-74dc43dc062a"},"onsetDateTime":"2024-07-01T08:15:00.000+00:00"},"request":{"method":"PUT","url":"Condition/b94ea07d-329a-4c0e-859a-f7c4c4232aeb"}},{"fullUrl":"https://madie.cms.gov/Observation/numer-pass-CMS646v0QICore4-4","resource":{"resourceType":"Observation","id":"a1c0f96c-37c0-4ea1-8d56-cf31d67ebe54","meta":{"profile":["http://hl7.org/fhir/us/qicore/StructureDefinition/qicore-observation"]},"partOf":[{"reference":"Procedure/numer-pass-CMS646v0QICore4-3"}],"status":"final","category":[{"coding":[{"system":"http://terminology.hl7.org/CodeSystem/observation-category","code":"procedure","display":"Procedure"}]}],"code":{"coding":[{"system":"http://loinc.org","version":"2.76","code":"21902-2","display":"Stage group.pathology Cancer"}]},"subject":{"reference":"Patient/9bb98b0b-b99e-4d58-b17a-74dc43dc062a"},"effectivePeriod":{"start":"2024-07-01T08:00:00.000+00:00","end":"2024-07-01T08:15:00.000+00:00"},"issued":"2024-07-01T08:15:00.000+00:00","valueCodeableConcept":{"coding":[{"system":"http://snomed.info/sct","version":"http://snomed.info/sct/731000124108/version/20240301","code":"1228883000","display":"American Joint Committee on Cancer cTa (qualifier value)"}]}},"request":{"method":"PUT","url":"Observation/a1c0f96c-37c0-4ea1-8d56-cf31d67ebe54"}},{"fullUrl":"https://madie.cms.gov/MedicationAdministration/46454164","resource":{"resourceType":"MedicationAdministration","id":"68183943-2a36-4a4c-82e7-b3044d75af1c","meta":{"profile":["http://hl7.org/fhir/us/qicore/StructureDefinition/qicore-medicationadministration"]},"status":"in-progress","medicationCodeableConcept":{"coding":[{"system":"http://www.nlm.nih.gov/research/umls/rxnorm","version":"04012024","code":"1653579","display":"BCG, live, Tice strain 50 MG Injection"}]},"subject":{"reference":"Patient/9bb98b0b-b99e-4d58-b17a-74dc43dc062a"},"effectiveDateTime":"2025-01-01T08:00:00.000+00:00"},"request":{"method":"PUT","url":"MedicationAdministration/68183943-2a36-4a4c-82e7-b3044d75af1c"}},{"fullUrl":"https://madie.cms.gov/Practitioner/13143134531634","resource":{"resourceType":"Practitioner","id":"1b428170-3bf6-4e26-9364-2c9f27059cbf","meta":{"profile":["http://hl7.org/fhir/us/qicore/StructureDefinition/qicore-practitioner"]},"identifier":[{"use":"temp","system":"urn:oid:2.16.840.1.113883.4.336","value":"Practitioner-23"}],"active":true,"name":[{"family":"Careful","given":["Adam"],"prefix":["Dr"]}],"address":[{"use":"home","line":["534 Erewhon St"],"city":"PleasantVille","state":"UT","postalCode":"84414"}],"qualification":[{"identifier":[{"system":"http://example.org/UniversityIdentifier","value":"12345"}],"code":{"coding":[{"system":"http://terminology.hl7.org/CodeSystem/v2-0360|2.7","code":"BS","display":"Bachelor of Science"}],"text":"Bachelor of Science"},"period":{"start":"1995"},"issuer":{"display":"Example University"}}]},"request":{"method":"PUT","url":"Practitioner/1b428170-3bf6-4e26-9364-2c9f27059cbf"}},{"fullUrl":"https://madie.cms.gov/Procedure/numer-pass-CMS646v0QICore4-3","resource":{"resourceType":"Procedure","id":"55a709ba-0b62-4c0e-80ff-a6c9193478ad","meta":{"profile":["http://hl7.org/fhir/us/qicore/StructureDefinition/qicore-procedure"]},"extension":[{"url":"http://hl7.org/fhir/us/qicore/StructureDefinition/qicore-recorded","valueDateTime":"2024-07-01T08:00:00.000+00:00"}],"status":"completed","code":{"coding":[{"system":"http://snomed.info/sct","version":"http://snomed.info/sct/731000124108/version/20240301","code":"254292007","display":"Tumor staging","userSelected":true}]},"subject":{"reference":"Patient/9bb98b0b-b99e-4d58-b17a-74dc43dc062a"},"performedPeriod":{"start":"2024-07-01T08:00:00.000+00:00","end":"2024-07-01T08:15:00.000+00:00"}},"request":{"method":"PUT","url":"Procedure/55a709ba-0b62-4c0e-80ff-a6c9193478ad"}},{"fullUrl":"https://madie.cms.gov/MeasureReport/1d2b232b-3098-4fe0-921b-bd45e8ca71ce","resource":{"resourceType":"MeasureReport","id":"1d2b232b-3098-4fe0-921b-bd45e8ca71ce","meta":{"profile":["http://hl7.org/fhir/us/cqfmeasures/StructureDefinition/test-case-cqfm"]},"contained":[{"resourceType":"Parameters","id":"e3561aee-3310-4aa2-a519-eee64eaa6529-parameters","parameter":[{"name":"subject","valueString":"9bb98b0b-b99e-4d58-b17a-74dc43dc062a"}]}],"extension":[{"url":"http://hl7.org/fhir/us/cqfmeasures/StructureDefinition/cqfm-inputParameters","valueReference":{"reference":"#e3561aee-3310-4aa2-a519-eee64eaa6529-parameters"}},{"url":"http://hl7.org/fhir/us/cqfmeasures/StructureDefinition/cqfm-testCaseDescription","valueMarkdown":"Patient with OV in MP. Bladder cancer staging July 1 year prior to MP with bladder cancer diagnosis.  BCG given Jan 1 of MP."}],"modifierExtension":[{"url":"http://hl7.org/fhir/us/cqfmeasures/StructureDefinition/cqfm-isTestCase","valueBoolean":true}],"status":"complete","type":"individual","measure":"https://madie.cms.gov/Measure/IntravesicalBacillusCalmetteGuerinForBladderCancerFHIR","period":{"start":"2025-01-01","end":"2025-12-31"},"group":[{"population":[{"code":{"coding":[{"system":"http://terminology.hl7.org/CodeSystem/measure-population","code":"initial-population","display":"Initial Population"}]},"count":1},{"code":{"coding":[{"system":"http://terminology.hl7.org/CodeSystem/measure-population","code":"denominator","display":"Denominator"}]},"count":1},{"code":{"coding":[{"system":"http://terminology.hl7.org/CodeSystem/measure-population","code":"denominator-exclusion","display":"Denominator Exclusion"}]},"count":0},{"code":{"coding":[{"system":"http://terminology.hl7.org/CodeSystem/measure-population","code":"numerator","display":"Numerator"}]},"count":1},{"code":{"coding":[{"system":"http://terminology.hl7.org/CodeSystem/measure-population","code":"denominator-exception","display":"Denominator Exception"}]},"count":0}]}]},"request":{"method":"PUT","url":"MeasureReport/1d2b232b-3098-4fe0-921b-bd45e8ca71ce"}}]}