{
  "resourceType": "Bundle",
  "id": "ScreNotatriNorefAsseModDxNocp2",
  "type": "transaction",
  "entry": [ {
    "fullUrl": "https://madie.cms.gov/Patient/6c15ce9c-bca7-4dfc-823f-fc85c25607bc",
    "resource": {
      "resourceType": "Patient",
      "id": "6c15ce9c-bca7-4dfc-823f-fc85c25607bc",
      "meta": {
        "profile": [ "http://hl7.org/fhir/us/qicore/StructureDefinition/qicore-patient" ]
      },
      "text": {
        "status": "generated",
        "div": "<div xmlns=\"http://www.w3.org/1999/xhtml\"><div class=\"hapiHeaderText\">ScreNotatriNorefAsseModDxNocp2, , <b> </b></div><table class=\"hapiPropertyTable\"><tbody><tr><td>Identifier</td><td>ScreNotatriNorefAsseModDxNocp2</td></tr><tr><td>Date of birth</td><td><span>14 May 1950</span></td></tr></tbody></table></div>"
      },
      "extension": [ {
        "url": "http://hl7.org/fhir/us/core/StructureDefinition/us-core-race",
        "extension": [ {
          "url": "ombCategory",
          "valueCoding": {
            "system": "urn:oid:2.16.840.1.113883.6.238",
            "code": "2106-3",
            "display": "White",
            "userSelected": true
          }
        }, {
          "url": "text",
          "valueString": "White"
        } ]
      }, {
        "url": "http://hl7.org/fhir/us/core/StructureDefinition/us-core-ethnicity",
        "extension": [ {
          "url": "ombCategory",
          "valueCoding": {
            "system": "urn:oid:2.16.840.1.113883.6.238",
            "code": "2186-5",
            "display": "Not Hispanic or Latino",
            "userSelected": true
          }
        }, {
          "url": "text",
          "valueString": "Not Hispanic or Latino"
        } ]
      } ],
      "identifier": [ {
        "type": {
          "coding": [ {
            "system": "http://terminology.hl7.org/CodeSystem/v2-0203",
            "code": "MR"
          } ]
        },
        "system": "https://madie.cms.gov/",
        "value": "ScreNotatriNorefAsseModDxNocp2"
      } ],
      "active": true,
      "name": [ {
        "use": "usual",
        "text": "ScreNotatriNorefAsseModDxNocp2",
        "family": "DENOMPass1",
        "given": [ "ScreNotatriNorefAsseModDxNocp2DENOMPass1" ]
      } ],
      "gender": "male",
      "birthDate": "1950-05-14",
      "address": [ {
        "text": "ScreNotatriNorefAsseModDxNocp2, Screened Not at risk Assessed Severely Malnourished Diagnosed Care Plan, ID=ScreNotatriNorefAsseModDxNocp2, DOB: 14 May 1950"
      } ]
    },
    "request": {
      "method": "POST",
      "url": "Patient/6c15ce9c-bca7-4dfc-823f-fc85c25607bc"
    }
  }, {
    "fullUrl": "https://madie.cms.gov/Encounter/ScreNotatriNorefAsseModDxNocp2-01",
    "resource": {
      "resourceType": "Encounter",
      "id": "ScreNotatriNorefAsseModDxNocp2-01",
      "meta": {
        "profile": [ "http://hl7.org/fhir/us/qicore/StructureDefinition/qicore-encounter" ]
      },
      "status": "finished",
      "class": {
        "system": "http://terminology.hl7.org/CodeSystem/v3-ActCode",
        "code": "IMP",
        "display": "inpatient encounter"
      },
      "type": [ {
        "coding": [ {
          "system": "http://snomed.info/sct",
          "code": "183452005"
        } ]
      } ],
      "subject": {
        "reference": "Patient/6c15ce9c-bca7-4dfc-823f-fc85c25607bc"
      },
      "period": {
        "start": "2025-02-01T08:00:00.000Z",
        "end": "2025-02-07T08:15:00.000Z"
      }
    },
    "request": {
      "method": "POST",
      "url": "Encounter/ScreNotatriNorefAsseModDxNocp2-01"
    }
  }, {
    "fullUrl": "https://madie.cms.gov/Condition/ScreNotatriNorefAsseModDxNocp2-06",
    "resource": {
      "resourceType": "Condition",
      "id": "ScreNotatriNorefAsseModDxNocp2-06",
      "meta": {
        "profile": [ "http://hl7.org/fhir/us/qicore/StructureDefinition/qicore-condition" ]
      },
      "clinicalStatus": {
        "coding": [ {
          "system": "http://terminology.hl7.org/CodeSystem/condition-clinical",
          "code": "active",
          "display": "Active",
          "userSelected": true
        } ]
      },
      "verificationStatus": {
        "coding": [ {
          "system": "http://terminology.hl7.org/CodeSystem/condition-ver-status",
          "code": "confirmed",
          "display": "Confirmed",
          "userSelected": true
        } ]
      },
      "category": [ {
        "coding": [ {
          "system": "http://terminology.hl7.org/CodeSystem/condition-category",
          "code": "encounter-diagnosis",
          "display": "Encounter Diagnosis",
          "userSelected": true
        } ]
      } ],
      "code": {
        "coding": [ {
          "system": "http://snomed.info/sct",
          "code": "272588001",
          "display": "Malnutrition (calorie) (disorder)",
          "userSelected": true
        } ]
      },
      "subject": {
        "reference": "Patient/6c15ce9c-bca7-4dfc-823f-fc85c25607bc"
      },
      "onsetPeriod": {
        "start": "2025-02-01T08:00:00.000+00:00"
      },
      "recordedDate": "2025-02-01T11:00:00.000+00:00"
    },
    "request": {
      "method": "POST",
      "url": "Condition/ScreNotatriNorefAsseModDxNocp2-06"
    }
  }, {
    "fullUrl": "https://madie.cms.gov/Observation/ScreNotatriNorefAsseModDxNocp2-18",
    "resource": {
      "resourceType": "Observation",
      "id": "ScreNotatriNorefAsseModDxNocp2-18",
      "meta": {
        "profile": [ "http://hl7.org/fhir/us/qicore/StructureDefinition/qicore-observation" ]
      },
      "status": "final",
      "category": [ {
        "coding": [ {
          "system": "http://terminology.hl7.org/CodeSystem/observation-category",
          "code": "survey",
          "display": "Survey"
        } ]
      } ],
      "code": {
        "coding": [ {
          "system": "http://loinc.org",
          "code": "98968-1",
          "display": "Initial screening NRS_2002",
          "userSelected": true
        } ]
      },
      "subject": {
        "reference": "Patient/6c15ce9c-bca7-4dfc-823f-fc85c25607bc"
      },
      "effectiveDateTime": "2025-02-01T09:00:00.000+00:00",
      "valueCodeableConcept": {
        "coding": [ {
          "system": "http://snomed.info/sct",
          "code": "36823005",
          "display": "Normal diet (finding)",
          "userSelected": true
        } ]
      }
    },
    "request": {
      "method": "POST",
      "url": "Observation/ScreNotatriNorefAsseModDxNocp2-18"
    }
  }, {
    "fullUrl": "https://madie.cms.gov/Observation/ScreNotatriNorefAsseModDxNocp2-19",
    "resource": {
      "resourceType": "Observation",
      "id": "ScreNotatriNorefAsseModDxNocp2-19",
      "meta": {
        "profile": [ "http://hl7.org/fhir/us/qicore/StructureDefinition/qicore-observation" ]
      },
      "status": "final",
      "category": [ {
        "coding": [ {
          "system": "http://terminology.hl7.org/CodeSystem/observation-category",
          "code": "survey",
          "display": "Survey"
        } ]
      } ],
      "code": {
        "coding": [ {
          "system": "http://loinc.org",
          "code": "75282-4",
          "display": "Nutrition assessment panel",
          "userSelected": true
        } ]
      },
      "subject": {
        "reference": "Patient/6c15ce9c-bca7-4dfc-823f-fc85c25607bc"
      },
      "effectiveDateTime": "2025-02-01T10:00:00.000+00:00",
      "valueCodeableConcept": {
        "coding": [ {
          "system": "http://snomed.info/sct",
          "code": "448765001",
          "display": "Unintentional weight loss (finding)",
          "userSelected": true
        } ]
      }
    },
    "request": {
      "method": "POST",
      "url": "Observation/ScreNotatriNorefAsseModDxNocp2-19"
    }
  }, {
    "fullUrl": "https://madie.cms.gov/Coverage/ScreNotatriNorefAsseModDxNocp2-61",
    "resource": {
      "resourceType": "Coverage",
      "id": "ScreNotatriNorefAsseModDxNocp2-61",
      "meta": {
        "profile": [ "http://hl7.org/fhir/us/qicore/StructureDefinition/qicore-coverage" ]
      },
      "status": "active",
      "type": {
        "coding": [ {
          "system": "https://nahdo.org/sopt",
          "version": "9.2",
          "code": "11",
          "display": "Medicare Managed Care (Includes Medicare Advantage Plans)"
        } ]
      },
      "beneficiary": {
        "reference": "Patient/6c15ce9c-bca7-4dfc-823f-fc85c25607bc"
      },
      "period": {
        "start": "2024-10-01T00:00:00+00:00"
      },
      "payor": [ {
        "reference": "Organization/ScreNotatriNorefAsseModDxNocp2-98"
      } ]
    },
    "request": {
      "method": "POST",
      "url": "Coverage/ScreNotatriNorefAsseModDxNocp2-61"
    }
  }, {
    "fullUrl": "https://madie.cms.gov/Organization/ScreNotatriNorefAsseModDxNocp2-98",
    "resource": {
      "resourceType": "Organization",
      "id": "ScreNotatriNorefAsseModDxNocp2-98",
      "meta": {
        "profile": [ "http://hl7.org/fhir/us/qicore/StructureDefinition/qicore-organization" ]
      },
      "identifier": [ {
        "use": "temp",
        "system": "urn:oid:2.16.840.1.113883.4.4",
        "value": "21-3259825"
      } ],
      "active": true,
      "type": [ {
        "coding": [ {
          "system": "http://terminology.hl7.org/CodeSystem/organization-type",
          "code": "pay",
          "display": "Payer"
        } ]
      } ],
      "name": "Blue Cross Blue Shield of Texas",
      "telecom": [ {
        "system": "phone",
        "value": "(+1) 972-766-6900"
      } ],
      "address": [ {
        "use": "billing",
        "type": "postal",
        "line": [ "P.O. Box 660044" ],
        "city": "Dallas",
        "state": "TX",
        "postalCode": "75266-0044",
        "country": "USA"
      } ]
    },
    "request": {
      "method": "POST",
      "url": "Organization/ScreNotatriNorefAsseModDxNocp2-98"
    }
  }, {
    "fullUrl": "https://madie.cms.gov/MeasureReport/88fbb062-419c-497d-abcf-0d2a37354286",
    "resource": {
      "resourceType": "MeasureReport",
      "id": "88fbb062-419c-497d-abcf-0d2a37354286",
      "meta": {
        "profile": [ "http://hl7.org/fhir/us/cqfmeasures/StructureDefinition/test-case-cqfm" ]
      },
      "contained": [ {
        "resourceType": "Parameters",
        "id": "ad886718-31c4-4cfa-912a-656da8fae7c6-parameters",
        "parameter": [ {
          "name": "subject",
          "valueString": "6c15ce9c-bca7-4dfc-823f-fc85c25607bc"
        } ]
      } ],
      "extension": [ {
        "url": "http://hl7.org/fhir/us/cqfmeasures/StructureDefinition/cqfm-inputParameters",
        "valueReference": {
          "reference": "#ad886718-31c4-4cfa-912a-656da8fae7c6-parameters"
        }
      }, {
        "url": "http://hl7.org/fhir/us/cqfmeasures/StructureDefinition/cqfm-testCaseDescription",
        "valueMarkdown": "Screened, Not at Risk, No Referral, Assessed, Moderate Malnutrition, Diagnosis, No Nutrition Care Plan"
      } ],
      "modifierExtension": [ {
        "url": "http://hl7.org/fhir/us/cqfmeasures/StructureDefinition/cqfm-isTestCase",
        "valueBoolean": true
      } ],
      "status": "complete",
      "type": "individual",
      "measure": "https://madie.cms.gov/Measure/GlobalMalnutritionCompositeFHIR",
      "period": {
        "start": "2025-01-01",
        "end": "2025-12-31"
      },
      "group": [ {
        "population": [ {
          "code": {
            "coding": [ {
              "system": "http://terminology.hl7.org/CodeSystem/measure-population",
              "code": "initial-population",
              "display": "Initial Population"
            } ]
          },
          "count": 1
        }, {
          "code": {
            "coding": [ {
              "system": "http://terminology.hl7.org/CodeSystem/measure-population",
              "code": "measure-population",
              "display": "Measure Population"
            } ]
          },
          "count": 1
        }, {
          "code": {
            "coding": [ {
              "system": "http://terminology.hl7.org/CodeSystem/measure-population",
              "code": "measure-population-observation",
              "display": "Measure Population Observation"
            } ]
          },
          "count": 1
        } ]
      }, {
        "population": [ {
          "code": {
            "coding": [ {
              "system": "http://terminology.hl7.org/CodeSystem/measure-population",
              "code": "initial-population",
              "display": "Initial Population"
            } ]
          },
          "count": 1
        }, {
          "code": {
            "coding": [ {
              "system": "http://terminology.hl7.org/CodeSystem/measure-population",
              "code": "measure-population",
              "display": "Measure Population"
            } ]
          },
          "count": 1
        }, {
          "code": {
            "coding": [ {
              "system": "http://terminology.hl7.org/CodeSystem/measure-population",
              "code": "measure-population-observation",
              "display": "Measure Population Observation"
            } ]
          },
          "count": 0
        } ]
      }, {
        "population": [ {
          "code": {
            "coding": [ {
              "system": "http://terminology.hl7.org/CodeSystem/measure-population",
              "code": "initial-population",
              "display": "Initial Population"
            } ]
          },
          "count": 1
        }, {
          "code": {
            "coding": [ {
              "system": "http://terminology.hl7.org/CodeSystem/measure-population",
              "code": "measure-population",
              "display": "Measure Population"
            } ]
          },
          "count": 1
        }, {
          "code": {
            "coding": [ {
              "system": "http://terminology.hl7.org/CodeSystem/measure-population",
              "code": "measure-population-observation",
              "display": "Measure Population Observation"
            } ]
          },
          "count": 0
        } ]
      }, {
        "population": [ {
          "code": {
            "coding": [ {
              "system": "http://terminology.hl7.org/CodeSystem/measure-population",
              "code": "initial-population",
              "display": "Initial Population"
            } ]
          },
          "count": 1
        }, {
          "code": {
            "coding": [ {
              "system": "http://terminology.hl7.org/CodeSystem/measure-population",
              "code": "measure-population",
              "display": "Measure Population"
            } ]
          },
          "count": 1
        }, {
          "code": {
            "coding": [ {
              "system": "http://terminology.hl7.org/CodeSystem/measure-population",
              "code": "measure-population-observation",
              "display": "Measure Population Observation"
            } ]
          },
          "count": 0
        } ]
      }, {
        "population": [ {
          "code": {
            "coding": [ {
              "system": "http://terminology.hl7.org/CodeSystem/measure-population",
              "code": "initial-population",
              "display": "Initial Population"
            } ]
          },
          "count": 1
        }, {
          "code": {
            "coding": [ {
              "system": "http://terminology.hl7.org/CodeSystem/measure-population",
              "code": "measure-population",
              "display": "Measure Population"
            } ]
          },
          "count": 1
        }, {
          "code": {
            "coding": [ {
              "system": "http://terminology.hl7.org/CodeSystem/measure-population",
              "code": "measure-population-observation",
              "display": "Measure Population Observation"
            } ]
          },
          "count": 1
        } ]
      }, {
        "population": [ {
          "code": {
            "coding": [ {
              "system": "http://terminology.hl7.org/CodeSystem/measure-population",
              "code": "initial-population",
              "display": "Initial Population"
            } ]
          },
          "count": 1
        }, {
          "code": {
            "coding": [ {
              "system": "http://terminology.hl7.org/CodeSystem/measure-population",
              "code": "measure-population",
              "display": "Measure Population"
            } ]
          },
          "count": 1
        }, {
          "code": {
            "coding": [ {
              "system": "http://terminology.hl7.org/CodeSystem/measure-population",
              "code": "measure-population-observation",
              "display": "Measure Population Observation"
            } ]
          },
          "count": 100
        } ]
      } ],
      "evaluatedResource": [ {
        "reference": "https://madie.cms.gov/Patient/6c15ce9c-bca7-4dfc-823f-fc85c25607bc"
      }, {
        "reference": "https://madie.cms.gov/Encounter/ScreNotatriNorefAsseModDxNocp2-01"
      }, {
        "reference": "https://madie.cms.gov/Condition/ScreNotatriNorefAsseModDxNocp2-06"
      }, {
        "reference": "https://madie.cms.gov/Observation/ScreNotatriNorefAsseModDxNocp2-18"
      }, {
        "reference": "https://madie.cms.gov/Observation/ScreNotatriNorefAsseModDxNocp2-19"
      }, {
        "reference": "https://madie.cms.gov/Coverage/ScreNotatriNorefAsseModDxNocp2-61"
      }, {
        "reference": "https://madie.cms.gov/Organization/ScreNotatriNorefAsseModDxNocp2-98"
      } ]
    },
    "request": {
      "method": "POST",
      "url": "MeasureReport/88fbb062-419c-497d-abcf-0d2a37354286"
    }
  } ]
}