{
  "resourceType": "Bundle",
  "id": "363b28a9-e77d-4fee-aaaf-73ebb35bc57c",
  "type": "transaction",
  "entry": [ {
    "fullUrl": "https://madie.cms.gov/Patient/35719b1a-85bd-4072-b8d5-7218309358c6",
    "resource": {
      "resourceType": "Patient",
      "id": "35719b1a-85bd-4072-b8d5-7218309358c6",
      "meta": {
        "profile": [ "http://hl7.org/fhir/us/qicore/StructureDefinition/qicore-patient" ]
      },
      "extension": [ {
        "url": "http://hl7.org/fhir/us/core/StructureDefinition/us-core-race",
        "extension": [ {
          "url": "ombCategory",
          "valueCoding": {
            "system": "urn:oid:2.16.840.1.113883.6.238",
            "code": "2106-3",
            "display": "White"
          }
        }, {
          "url": "text",
          "valueString": "White"
        } ]
      }, {
        "url": "http://hl7.org/fhir/us/core/StructureDefinition/us-core-ethnicity",
        "extension": [ {
          "url": "ombCategory",
          "valueCoding": {
            "system": "urn:oid:2.16.840.1.113883.6.238",
            "code": "2135-2",
            "display": "Hispanic or Latino"
          }
        }, {
          "url": "text",
          "valueString": "Hispanic or Latino"
        } ]
      } ],
      "identifier": [ {
        "system": "http://hospital.smarthealthit.org",
        "value": "999999999"
      } ],
      "name": [ {
        "family": "Example",
        "given": [ "Patient" ]
      } ],
      "gender": "male",
      "birthDate": "1956-01-01"
    },
    "request": {
      "method": "PUT",
      "url": "Patient/35719b1a-85bd-4072-b8d5-7218309358c6"
    }
  }, {
    "fullUrl": "https://madie.cms.gov/Encounter/6dca75de-d729-4996-b408-aca271cf8139",
    "resource": {
      "resourceType": "Encounter",
      "id": "6dca75de-d729-4996-b408-aca271cf8139",
      "meta": {
        "profile": [ "http://hl7.org/fhir/us/qicore/StructureDefinition/qicore-encounter" ]
      },
      "status": "finished",
      "class": {
        "system": "http://terminology.hl7.org/CodeSystem/v3-ActCode",
        "code": "IMP",
        "display": "inpatient encounter"
      },
      "type": [ {
        "coding": [ {
          "system": "http://snomed.info/sct",
          "code": "183452005"
        } ]
      } ],
      "subject": {
        "reference": "Patient/35719b1a-85bd-4072-b8d5-7218309358c6"
      },
      "period": {
        "start": "2026-04-07T08:00:00.000Z",
        "end": "2026-04-11T08:15:00.000Z"
      }
    },
    "request": {
      "method": "PUT",
      "url": "Encounter/6dca75de-d729-4996-b408-aca271cf8139"
    }
  }, {
    "fullUrl": "https://madie.cms.gov/MedicationAdministration/869ac9c0-8c47-4c2d-8567-b0c46f72850b",
    "resource": {
      "resourceType": "MedicationAdministration",
      "id": "869ac9c0-8c47-4c2d-8567-b0c46f72850b",
      "meta": {
        "profile": [ "http://hl7.org/fhir/us/qicore/StructureDefinition/qicore-medicationadministration" ]
      },
      "status": "completed",
      "medicationCodeableConcept": {
        "coding": [ {
          "system": "http://www.nlm.nih.gov/research/umls/rxnorm",
          "code": "1361493",
          "display": "glimepiride 6 MG Oral Tablet",
          "userSelected": true
        } ]
      },
      "subject": {
        "reference": "Patient/35719b1a-85bd-4072-b8d5-7218309358c6"
      },
      "effectivePeriod": {
        "start": "2026-04-08T06:00:00+00:00",
        "end": "2026-04-08T06:30:00+00:00"
      }
    },
    "request": {
      "method": "PUT",
      "url": "MedicationAdministration/869ac9c0-8c47-4c2d-8567-b0c46f72850b"
    }
  }, {
    "fullUrl": "https://madie.cms.gov/MeasureReport/1a3853a0-344f-4260-a2c1-a02551a0daea",
    "resource": {
      "resourceType": "MeasureReport",
      "id": "1a3853a0-344f-4260-a2c1-a02551a0daea",
      "meta": {
        "profile": [ "http://hl7.org/fhir/us/cqfmeasures/StructureDefinition/test-case-cqfm" ]
      },
      "contained": [ {
        "resourceType": "Parameters",
        "id": "d15cda12-6950-4135-90b4-6a2dee84cc06-parameters",
        "parameter": [ {
          "name": "subject",
          "valueString": "35719b1a-85bd-4072-b8d5-7218309358c6"
        } ]
      } ],
      "extension": [ {
        "url": "http://hl7.org/fhir/us/cqfmeasures/StructureDefinition/cqfm-inputParameters",
        "valueReference": {
          "reference": "#d15cda12-6950-4135-90b4-6a2dee84cc06-parameters"
        }
      }, {
        "url": "http://hl7.org/fhir/us/cqfmeasures/StructureDefinition/cqfm-testCaseDescription",
        "valueMarkdown": "IP encounter where hypoglycemic medication was administered. Meets IPP/Denom"
      } ],
      "modifierExtension": [ {
        "url": "http://hl7.org/fhir/us/cqfmeasures/StructureDefinition/cqfm-isTestCase",
        "valueBoolean": true
      } ],
      "status": "complete",
      "type": "individual",
      "measure": "https://madie.cms.gov/Measure/HospitalHarmHyperglycemiainHospitalizedPatientsFHIR",
      "period": {
        "start": "2026-01-01",
        "end": "2026-12-31"
      },
      "group": [ {
        "population": [ {
          "code": {
            "coding": [ {
              "system": "http://terminology.hl7.org/CodeSystem/measure-population",
              "code": "initial-population",
              "display": "Initial Population"
            } ]
          },
          "count": 1
        }, {
          "code": {
            "coding": [ {
              "system": "http://terminology.hl7.org/CodeSystem/measure-population",
              "code": "denominator",
              "display": "Denominator"
            } ]
          },
          "count": 1
        }, {
          "code": {
            "coding": [ {
              "system": "http://terminology.hl7.org/CodeSystem/measure-population",
              "code": "denominator-exclusion",
              "display": "Denominator Exclusion"
            } ]
          },
          "count": 0
        }, {
          "code": {
            "coding": [ {
              "system": "http://terminology.hl7.org/CodeSystem/measure-population",
              "code": "numerator",
              "display": "Numerator"
            } ]
          },
          "count": 0
        }, {
          "code": {
            "coding": [ {
              "system": "http://terminology.hl7.org/CodeSystem/measure-population",
              "code": "denominator-observation",
              "display": "DenominatorObservation"
            } ]
          },
          "count": 3
        } ]
      } ],
      "evaluatedResource": [ {
        "reference": "Patient/35719b1a-85bd-4072-b8d5-7218309358c6"
      }, {
        "reference": "Encounter/6dca75de-d729-4996-b408-aca271cf8139"
      }, {
        "reference": "MedicationAdministration/869ac9c0-8c47-4c2d-8567-b0c46f72850b"
      } ]
    },
    "request": {
      "method": "PUT",
      "url": "MeasureReport/1a3853a0-344f-4260-a2c1-a02551a0daea"
    }
  } ]
}