{"resourceType":"Bundle","id":"tests-94cbf7ce-aead-45bc-85aa-17c70136787b-bundle","type":"transaction","entry":[{"fullUrl":"https://madie.cms.gov/Patient/94cbf7ce-aead-45bc-85aa-17c70136787b","resource":{"resourceType":"Patient","id":"94cbf7ce-aead-45bc-85aa-17c70136787b","meta":{"profile":["http://hl7.org/fhir/us/qicore/StructureDefinition/qicore-patient"]},"text":{"status":"generated","div":"<div xmlns=\"http://www.w3.org/1999/xhtml\"><div class=\"hapiHeaderText\">Enc365Days <b>IPFAIL </b></div><table class=\"hapiPropertyTable\"><tbody><tr><td>Identifier</td><td>b2ac2068f7257396cf52f5da8f4745c8dfa740356675ebf48da1df05c252eae1</td></tr><tr><td>Date of birth</td><td><span>15 June 1956</span></td></tr></tbody></table></div>"},"extension":[{"url":"http://hl7.org/fhir/us/core/StructureDefinition/us-core-race","extension":[{"url":"ombCategory","valueCoding":{"system":"urn:oid:2.16.840.1.113883.6.238","code":"1002-5","display":"American Indian or Alaska Native","userSelected":true}},{"url":"text","valueString":"American Indian or Alaska Native"},{"url":"detailed","valueCoding":{"system":"urn:oid:2.16.840.1.113883.6.238","code":"1653-5","display":"Tohono O'Odham"}}]},{"url":"http://hl7.org/fhir/us/core/StructureDefinition/us-core-ethnicity","extension":[{"url":"ombCategory","valueCoding":{"system":"urn:oid:2.16.840.1.113883.6.238","code":"2135-2","display":"Hispanic or Latino","userSelected":true}},{"url":"text","valueString":"Not Hispanic or Latino"},{"url":"detailed","valueCoding":{"system":"urn:oid:2.16.840.1.113883.6.238","code":"2153-5","display":"Mexican American Indian"}}]}],"identifier":[{"type":{"coding":[{"system":"http://terminology.hl7.org/CodeSystem/v2-0203","code":"MR"}]},"system":"https://bonnie-fhir.healthit.gov/","value":"63ec096dccb3770120fea31f"}],"active":true,"name":[{"use":"usual","family":"IPFail","given":["Encounter365Days"]}],"gender":"female","birthDate":"1957-06-15"},"request":{"method":"PUT","url":"Patient/94cbf7ce-aead-45bc-85aa-17c70136787b"}},{"fullUrl":"https://madie.cms.gov/Encounter/5a59f002-1535-4171-a89c-2afae61189ef","resource":{"resourceType":"Encounter","id":"5a59f002-1535-4171-a89c-2afae61189ef","meta":{"profile":["http://hl7.org/fhir/us/qicore/StructureDefinition/qicore-encounter"]},"status":"finished","class":{"system":"http://snomed.info/sct","code":"183452005","display":"Emergency hospital admission (procedure)","userSelected":true},"type":[{"coding":[{"system":"http://snomed.info/sct","code":"183452005"}]}],"subject":{"reference":"Patient/94cbf7ce-aead-45bc-85aa-17c70136787b"},"period":{"start":"2026-06-29T00:01:00+00:00","end":"2027-06-30T23:59:00+00:00"},"length":{"value":365.0,"unit":"days"}},"request":{"method":"PUT","url":"Encounter/5a59f002-1535-4171-a89c-2afae61189ef"}},{"fullUrl":"https://madie.cms.gov/Coverage/2306d253-a142-4b0c-8b3c-ecd98c7acbef","resource":{"resourceType":"Coverage","id":"2306d253-a142-4b0c-8b3c-ecd98c7acbef","meta":{"profile":["http://hl7.org/fhir/us/qicore/StructureDefinition/qicore-coverage"]},"status":"active","type":{"coding":[{"system":"https://nahdo.org/sopt","version":"1.0.1","code":"1","display":"Medicare payer","userSelected":true}]},"beneficiary":{"reference":"Patient/94cbf7ce-aead-45bc-85aa-17c70136787b"},"payor":[{"reference":"Organization/890316dc-a4ad-43b4-ba6f-9fb9e6eca282"}]},"request":{"method":"PUT","url":"Coverage/2306d253-a142-4b0c-8b3c-ecd98c7acbef"}},{"fullUrl":"https://madie.cms.gov/Organization/428522de-ae69-47e2-8e33-861e4976d22c","resource":{"resourceType":"Organization","id":"890316dc-a4ad-43b4-ba6f-9fb9e6eca282","meta":{"profile":["http://hl7.org/fhir/us/qicore/StructureDefinition/qicore-organization"]},"identifier":[{"use":"temp","system":"urn:oid:2.16.840.1.113883.4.4","value":"21-3259825"}],"active":true,"type":[{"coding":[{"system":"http://terminology.hl7.org/CodeSystem/organization-type","code":"pay","display":"Payer"}]}],"name":"Blue Cross Blue Shield of Texas","telecom":[{"system":"phone","value":"(+1) 972-766-6900"}],"address":[{"use":"billing","type":"postal","line":["P.O. Box 660044"],"city":"Dallas","state":"TX","postalCode":"75266-0044","country":"USA"}]},"request":{"method":"PUT","url":"Organization/890316dc-a4ad-43b4-ba6f-9fb9e6eca282"}},{"fullUrl":"https://madie.cms.gov/Practitioner/328a735a-a0e5-4049-a678-1c4f01c688a5","resource":{"resourceType":"Practitioner","id":"328a735a-a0e5-4049-a678-1c4f01c688a5","meta":{"profile":["http://hl7.org/fhir/us/qicore/StructureDefinition/qicore-practitioner"]},"identifier":[{"system":"http://hl7.org/fhir/sid/us-npi","value":"123456"}],"name":[{"family":"Evil","prefix":["Dr"]}]},"request":{"method":"PUT","url":"Practitioner/328a735a-a0e5-4049-a678-1c4f01c688a5"}},{"fullUrl":"https://madie.cms.gov/MeasureReport/de74326c-9f0a-49e3-a1ab-b8ffd001543f","resource":{"resourceType":"MeasureReport","id":"de74326c-9f0a-49e3-a1ab-b8ffd001543f","meta":{"profile":["http://hl7.org/fhir/us/cqfmeasures/StructureDefinition/test-case-cqfm"]},"contained":[{"resourceType":"Parameters","id":"b3d0f9da-a1cd-494c-8ccb-118bad7efa64-parameters","parameter":[{"name":"subject","valueString":"94cbf7ce-aead-45bc-85aa-17c70136787b"}]}],"extension":[{"url":"http://hl7.org/fhir/us/cqfmeasures/StructureDefinition/cqfm-inputParameters","valueReference":{"reference":"#b3d0f9da-a1cd-494c-8ccb-118bad7efa64-parameters"}},{"url":"http://hl7.org/fhir/us/cqfmeasures/StructureDefinition/cqfm-testCaseDescription","valueMarkdown":"Enc is 365 days June 29- June 30 following year"}],"modifierExtension":[{"url":"http://hl7.org/fhir/us/cqfmeasures/StructureDefinition/cqfm-isTestCase","valueBoolean":true}],"status":"complete","type":"individual","measure":"https://madie.cms.gov/Measure/CMSFHIR844HybridHospitalWideMortality","period":{"start":"2026-07-01","end":"2027-06-30"},"group":[{"population":[{"code":{"coding":[{"system":"http://terminology.hl7.org/CodeSystem/measure-population","code":"initial-population","display":"Initial Population"}]},"count":0}]}]},"request":{"method":"PUT","url":"MeasureReport/de74326c-9f0a-49e3-a1ab-b8ffd001543f"}}]}