{"resourceType":"Bundle","id":"tests-9892a740-f233-42b2-9dea-e211b29ba8f0-bundle","type":"transaction","entry":[{"fullUrl":"https://madie.cms.gov/Patient/9892a740-f233-42b2-9dea-e211b29ba8f0","resource":{"resourceType":"Patient","id":"9892a740-f233-42b2-9dea-e211b29ba8f0","meta":{"profile":["http://hl7.org/fhir/us/qicore/StructureDefinition/qicore-patient"]},"text":{"status":"generated","div":"<div xmlns=\"http://www.w3.org/1999/xhtml\"><div class=\"hapiHeaderText\">HRSBP_relevantDT <b>COMBO1 </b></div><table class=\"hapiPropertyTable\"><tbody><tr><td>Identifier</td><td>647b828a576e8c34eaa21fd1cdb85d1e5f291be13e6a5c34a9fc817d4466c0f5</td></tr><tr><td>Date of birth</td><td><span>15 June 1956</span></td></tr></tbody></table></div>"},"extension":[{"url":"http://hl7.org/fhir/us/core/StructureDefinition/us-core-race","extension":[{"url":"ombCategory","valueCoding":{"system":"urn:oid:2.16.840.1.113883.6.238","code":"2028-9","display":"Asian","userSelected":true}},{"url":"text","valueString":"Asian"}]},{"url":"http://hl7.org/fhir/us/core/StructureDefinition/us-core-ethnicity","extension":[{"url":"ombCategory","valueCoding":{"system":"urn:oid:2.16.840.1.113883.6.238","code":"2135-2","display":"Hispanic or Latino","userSelected":true}},{"url":"text","valueString":"Hispanic or Latino"}]}],"identifier":[{"type":{"coding":[{"system":"http://terminology.hl7.org/CodeSystem/v2-0203","code":"MR"}]},"system":"https://bonnie-fhir.healthit.gov/","value":"63ec096cccb3770120fea1f4"}],"active":true,"name":[{"use":"usual","family":"HeartRatePassSystolicBPFail","given":["HR24HrsBP24Hrs1MinAfterAdmit"]}],"gender":"male","birthDate":"1960-06-30"},"request":{"method":"PUT","url":"Patient/9892a740-f233-42b2-9dea-e211b29ba8f0"}},{"fullUrl":"https://madie.cms.gov/Encounter/6c13d0be-cc18-4051-b085-f3c8204c7408","resource":{"resourceType":"Encounter","id":"6c13d0be-cc18-4051-b085-f3c8204c7408","meta":{"profile":["http://hl7.org/fhir/us/qicore/StructureDefinition/qicore-encounter"]},"status":"finished","class":{"system":"http://terminology.hl7.org/CodeSystem/v3-ActCode","code":"IMP","display":"inpatient encounter","userSelected":true},"type":[{"coding":[{"system":"http://snomed.info/sct","code":"183452005","display":"Emergency hospital admission (procedure)"}]}],"subject":{"reference":"Patient/9892a740-f233-42b2-9dea-e211b29ba8f0"},"period":{"start":"2026-07-01T10:01:00.000+00:00","end":"2026-07-03T08:15:00.000+00:00"},"length":{"value":3,"unit":"d","system":"http://unitsofmeasure.org","code":"d"}},"request":{"method":"PUT","url":"Encounter/6c13d0be-cc18-4051-b085-f3c8204c7408"}},{"fullUrl":"https://madie.cms.gov/Coverage/044b2f03-bca2-4c22-a85e-5b556966cdb8","resource":{"resourceType":"Coverage","id":"044b2f03-bca2-4c22-a85e-5b556966cdb8","meta":{"profile":["http://hl7.org/fhir/us/qicore/StructureDefinition/qicore-coverage"]},"status":"active","type":{"coding":[{"system":"https://nahdo.org/sopt","version":"1.0.1","code":"1","display":"Medicare payer","userSelected":true}]},"beneficiary":{"reference":"Patient/9892a740-f233-42b2-9dea-e211b29ba8f0"},"payor":[{"reference":"Organization/aeb2c6be-6577-4bba-a6b6-6eab95111f1b"}]},"request":{"method":"PUT","url":"Coverage/044b2f03-bca2-4c22-a85e-5b556966cdb8"}},{"fullUrl":"https://madie.cms.gov/Observation/049d883b-706b-4840-8856-bf87092645ae","resource":{"resourceType":"Observation","id":"049d883b-706b-4840-8856-bf87092645ae","meta":{"profile":["http://hl7.org/fhir/StructureDefinition/heartrate"]},"status":"final","category":[{"coding":[{"system":"http://terminology.hl7.org/CodeSystem/observation-category","code":"vital-signs","display":"Vital Signs","userSelected":true}]}],"code":{"coding":[{"system":"http://loinc.org","code":"8867-4","display":"Heart rate"}]},"subject":{"reference":"Patient/9892a740-f233-42b2-9dea-e211b29ba8f0"},"effectiveDateTime":"2026-07-01T10:01:00.000+00:00","valueQuantity":{"value":130,"unit":"/min","system":"http://unitsofmeasure.org","code":"/min"}},"request":{"method":"PUT","url":"Observation/049d883b-706b-4840-8856-bf87092645ae"}},{"fullUrl":"https://madie.cms.gov/Observation/9c7566cb-da79-4157-b890-f1c316947060","resource":{"resourceType":"Observation","id":"9c7566cb-da79-4157-b890-f1c316947060","meta":{"profile":["http://hl7.org/fhir/StructureDefinition/heartrate"]},"status":"final","category":[{"coding":[{"system":"http://terminology.hl7.org/CodeSystem/observation-category","code":"vital-signs","display":"Vital Signs"}],"text":"Vital Signs"}],"code":{"coding":[{"system":"http://loinc.org","code":"8867-4","display":"Heart rate"}]},"subject":{"reference":"Patient/9892a740-f233-42b2-9dea-e211b29ba8f0"},"effectiveDateTime":"2026-07-02T10:01:00.000+00:00","valueQuantity":{"value":140,"unit":"/min","system":"http://unitsofmeasure.org","code":"/min"}},"request":{"method":"PUT","url":"Observation/9c7566cb-da79-4157-b890-f1c316947060"}},{"fullUrl":"https://madie.cms.gov/Observation/fc4f7017-48b3-4d38-9b8e-ce0632883348","resource":{"resourceType":"Observation","id":"fc4f7017-48b3-4d38-9b8e-ce0632883348","meta":{"profile":["http://hl7.org/fhir/StructureDefinition/bp"]},"status":"final","category":[{"coding":[{"system":"http://terminology.hl7.org/CodeSystem/observation-category","code":"vital-signs","display":"Vital Signs"}],"text":"Vital Signs"}],"code":{"coding":[{"system":"http://loinc.org","code":"85354-9","display":"Blood pressure panel"}]},"subject":{"reference":"Patient/9892a740-f233-42b2-9dea-e211b29ba8f0"},"effectiveDateTime":"2026-07-01T12:02:00.000Z","component":[{"code":{"coding":[{"system":"http://loinc.org","code":"8480-6","display":"Systolic blood pressure"}]},"valueQuantity":{"value":131,"unit":"mmHg","system":"http://unitsofmeasure.org","code":"mm[Hg]"}},{"code":{"coding":[{"system":"http://loinc.org","code":"8462-4","display":"Diastolic blood pressure"}]},"valueQuantity":{"value":80,"unit":"mmHg","system":"http://unitsofmeasure.org","code":"mm[Hg]"}}]},"request":{"method":"PUT","url":"Observation/fc4f7017-48b3-4d38-9b8e-ce0632883348"}},{"fullUrl":"https://madie.cms.gov/Observation/9c7566cb-da79-4157-b890-f1c3169470605","resource":{"resourceType":"Observation","id":"93be8e48-9ee6-447c-82ad-53c6d7e7aa7a","meta":{"profile":["http://hl7.org/fhir/StructureDefinition/heartrate"]},"status":"final","category":[{"coding":[{"system":"http://terminology.hl7.org/CodeSystem/observation-category","code":"vital-signs","display":"Vital Signs"}],"text":"Vital Signs"}],"code":{"coding":[{"system":"http://loinc.org","code":"8867-4","display":"Heart rate"}]},"subject":{"reference":"Patient/9892a740-f233-42b2-9dea-e211b29ba8f0"},"effectiveDateTime":"2026-07-03T10:00:00.000+00:00","valueQuantity":{"value":136,"unit":"/min","system":"http://unitsofmeasure.org","code":"/min"}},"request":{"method":"PUT","url":"Observation/93be8e48-9ee6-447c-82ad-53c6d7e7aa7a"}},{"fullUrl":"https://madie.cms.gov/Observation/45c0c9c0-c251-44df-8468-01487840f686","resource":{"resourceType":"Observation","id":"45c0c9c0-c251-44df-8468-01487840f686","meta":{"profile":["http://hl7.org/fhir/StructureDefinition/bp"]},"status":"final","category":[{"coding":[{"system":"http://terminology.hl7.org/CodeSystem/observation-category","code":"vital-signs","display":"Vital Signs"}],"text":"Vital Signs"}],"code":{"coding":[{"system":"http://loinc.org","code":"85354-9","display":"Blood pressure panel"}]},"subject":{"reference":"Patient/9892a740-f233-42b2-9dea-e211b29ba8f0"},"effectiveDateTime":"2026-07-02T10:05:00.000Z","component":[{"code":{"coding":[{"system":"http://loinc.org","code":"8480-6","display":"Systolic blood pressure"}]},"valueQuantity":{"value":131,"unit":"mmHg","system":"http://unitsofmeasure.org","code":"mm[Hg]"}},{"code":{"coding":[{"system":"http://loinc.org","code":"8462-4","display":"Diastolic blood pressure"}]},"valueQuantity":{"value":80,"unit":"mmHg","system":"http://unitsofmeasure.org","code":"mm[Hg]"}}]},"request":{"method":"PUT","url":"Observation/45c0c9c0-c251-44df-8468-01487840f686"}},{"fullUrl":"https://madie.cms.gov/Organization/4098e2c4-6af4-4037-8242-9e10b9e1ba8f","resource":{"resourceType":"Organization","id":"aeb2c6be-6577-4bba-a6b6-6eab95111f1b","meta":{"profile":["http://hl7.org/fhir/us/qicore/StructureDefinition/qicore-organization"]},"identifier":[{"use":"temp","system":"urn:oid:2.16.840.1.113883.4.4","value":"21-3259825"}],"active":true,"type":[{"coding":[{"system":"http://terminology.hl7.org/CodeSystem/organization-type","code":"pay","display":"Payer"}]}],"name":"Blue Cross Blue Shield of Texas","telecom":[{"system":"phone","value":"(+1) 972-766-6900"}],"address":[{"use":"billing","type":"postal","line":["P.O. Box 660044"],"city":"Dallas","state":"TX","postalCode":"75266-0044","country":"USA"}]},"request":{"method":"PUT","url":"Organization/aeb2c6be-6577-4bba-a6b6-6eab95111f1b"}},{"fullUrl":"https://madie.cms.gov/Practitioner/005b9071-4a3b-4c58-93ac-09d538692c3b","resource":{"resourceType":"Practitioner","id":"005b9071-4a3b-4c58-93ac-09d538692c3b","meta":{"profile":["http://hl7.org/fhir/us/qicore/StructureDefinition/qicore-practitioner"]},"identifier":[{"system":"http://hl7.org/fhir/sid/us-npi","value":"123456"}],"name":[{"family":"Evil","prefix":["Dr"]}]},"request":{"method":"PUT","url":"Practitioner/005b9071-4a3b-4c58-93ac-09d538692c3b"}},{"fullUrl":"https://madie.cms.gov/MeasureReport/bca9ad5f-2a6f-4b36-bc3d-cdf1ebd14b4b","resource":{"resourceType":"MeasureReport","id":"bca9ad5f-2a6f-4b36-bc3d-cdf1ebd14b4b","meta":{"profile":["http://hl7.org/fhir/us/cqfmeasures/StructureDefinition/test-case-cqfm"]},"contained":[{"resourceType":"Parameters","id":"e6a1de5c-4928-4659-a215-8563ea0cc7a4-parameters","parameter":[{"name":"subject","valueString":"9892a740-f233-42b2-9dea-e211b29ba8f0"}]}],"extension":[{"url":"http://hl7.org/fhir/us/cqfmeasures/StructureDefinition/cqfm-inputParameters","valueReference":{"reference":"#e6a1de5c-4928-4659-a215-8563ea0cc7a4-parameters"}},{"url":"http://hl7.org/fhir/us/cqfmeasures/StructureDefinition/cqfm-testCaseDescription","valueMarkdown":"Enc first day of MP (7/1), has Medicare, heart rate evaluated time of admit and at 24 hrs  & 36 hrs after admission; Systolic BP evaluated 2 hrs 1 min and 24 hour after admit. Only the HR is included"}],"modifierExtension":[{"url":"http://hl7.org/fhir/us/cqfmeasures/StructureDefinition/cqfm-isTestCase","valueBoolean":true}],"status":"complete","type":"individual","measure":"https://madie.cms.gov/Measure/CMSFHIR844HybridHospitalWideMortality","period":{"start":"2026-07-01","end":"2027-06-30"},"group":[{"population":[{"code":{"coding":[{"system":"http://terminology.hl7.org/CodeSystem/measure-population","code":"initial-population","display":"Initial Population"}]},"count":1}]}]},"request":{"method":"PUT","url":"MeasureReport/bca9ad5f-2a6f-4b36-bc3d-cdf1ebd14b4b"}}]}