{"resourceType":"Bundle","id":"tests-c25ff376-c6dd-4f49-8d4a-953a70341e4f-bundle","type":"transaction","entry":[{"fullUrl":"https://madie.cms.gov/Patient/c25ff376-c6dd-4f49-8d4a-953a70341e4f","resource":{"resourceType":"Patient","id":"c25ff376-c6dd-4f49-8d4a-953a70341e4f","meta":{"profile":["http://hl7.org/fhir/us/qicore/StructureDefinition/qicore-patient"]},"text":{"status":"generated","div":"<div xmlns=\"http://www.w3.org/1999/xhtml\"><div class=\"hapiHeaderText\">NoResult <b>SODIUMFAIL </b></div><table class=\"hapiPropertyTable\"><tbody><tr><td>Identifier</td><td>eb360e3679224871964d5b3575a59ceb3c2f6260372fb1be3ea61ac84d2937cf</td></tr><tr><td>Date of birth</td><td><span>15 June 1956</span></td></tr></tbody></table></div>"},"extension":[{"url":"http://hl7.org/fhir/us/core/StructureDefinition/us-core-race","extension":[{"url":"ombCategory","valueCoding":{"system":"urn:oid:2.16.840.1.113883.6.238","code":"1002-5","display":"American Indian or Alaska Native","userSelected":true}},{"url":"text","valueString":"American Indian or Alaska Native"}]},{"url":"http://hl7.org/fhir/us/core/StructureDefinition/us-core-ethnicity","extension":[{"url":"ombCategory","valueCoding":{"system":"urn:oid:2.16.840.1.113883.6.238","code":"2186-5","display":"Not Hispanic or Latino","userSelected":true}},{"url":"text","valueString":"Not Hispanic or Latino"}]}],"identifier":[{"type":{"coding":[{"system":"http://terminology.hl7.org/CodeSystem/v2-0203","code":"MR"}]},"system":"https://bonnie-fhir.healthit.gov/","value":"63ec096bccb3770120fea0ad"}],"active":true,"name":[{"use":"usual","family":"SodiumFail","given":["NoResult"]}],"gender":"male","birthDate":"1957-06-15"},"request":{"method":"PUT","url":"Patient/c25ff376-c6dd-4f49-8d4a-953a70341e4f"}},{"fullUrl":"https://madie.cms.gov/Encounter/7f4d0d10-cab0-4681-9aa0-003ce3598688","resource":{"resourceType":"Encounter","id":"7f4d0d10-cab0-4681-9aa0-003ce3598688","meta":{"profile":["http://hl7.org/fhir/us/qicore/StructureDefinition/qicore-encounter"]},"status":"finished","class":{"system":"http://terminology.hl7.org/CodeSystem/v3-ActCode","code":"IMP","display":"inpatient encounter","userSelected":true},"type":[{"coding":[{"system":"http://snomed.info/sct","code":"183452005"}]}],"subject":{"reference":"Patient/c25ff376-c6dd-4f49-8d4a-953a70341e4f"},"period":{"start":"2026-07-21T08:00:00.000+00:00","end":"2026-07-23T08:15:00.000+00:00"}},"request":{"method":"PUT","url":"Encounter/7f4d0d10-cab0-4681-9aa0-003ce3598688"}},{"fullUrl":"https://madie.cms.gov/Coverage/a9a909c5-426c-4bb2-9a87-b0a0312b0a57","resource":{"resourceType":"Coverage","id":"a9a909c5-426c-4bb2-9a87-b0a0312b0a57","meta":{"profile":["http://hl7.org/fhir/us/qicore/StructureDefinition/qicore-coverage"]},"status":"active","type":{"coding":[{"system":"https://nahdo.org/sopt","version":"1.0.1","code":"1","display":"Medicare payer","userSelected":true}]},"beneficiary":{"reference":"Patient/c25ff376-c6dd-4f49-8d4a-953a70341e4f"},"payor":[{"reference":"Organization/880a275e-1cf2-4fb9-869b-f1d2173fdc2b"}]},"request":{"method":"PUT","url":"Coverage/a9a909c5-426c-4bb2-9a87-b0a0312b0a57"}},{"fullUrl":"https://madie.cms.gov/Observation/dad904f5-fe66-4d4b-97fe-18055b2d1ede","resource":{"resourceType":"Observation","id":"dad904f5-fe66-4d4b-97fe-18055b2d1ede","meta":{"profile":["http://hl7.org/fhir/us/core/StructureDefinition/us-core-observation-lab"]},"status":"amended","category":[{"coding":[{"system":"http://terminology.hl7.org/CodeSystem/observation-category","code":"laboratory","display":"laboratory","userSelected":true}]}],"code":{"coding":[{"system":"http://loinc.org","code":"2947-0","display":"Sodium [Moles/volume] in Blood"}]},"subject":{"reference":"Patient/c25ff376-c6dd-4f49-8d4a-953a70341e4f"},"issued":"2026-07-21T08:01:00.000+00:00","dataAbsentReason":{"coding":[{"system":"http://terminology.hl7.org/CodeSystem/data-absent-reason","code":"unknown","display":"Unknown"}]}},"request":{"method":"PUT","url":"Observation/dad904f5-fe66-4d4b-97fe-18055b2d1ede"}},{"fullUrl":"https://madie.cms.gov/Organization/1df9bfee-e6db-4193-9fc0-03e46f7a4a05","resource":{"resourceType":"Organization","id":"880a275e-1cf2-4fb9-869b-f1d2173fdc2b","meta":{"profile":["http://hl7.org/fhir/us/qicore/StructureDefinition/qicore-organization"]},"identifier":[{"use":"temp","system":"urn:oid:2.16.840.1.113883.4.4","value":"21-3259825"}],"active":true,"type":[{"coding":[{"system":"http://terminology.hl7.org/CodeSystem/organization-type","code":"pay","display":"Payer"}]}],"name":"Blue Cross Blue Shield of Texas","telecom":[{"system":"phone","value":"(+1) 972-766-6900"}],"address":[{"use":"billing","type":"postal","line":["P.O. Box 660044"],"city":"Dallas","state":"TX","postalCode":"75266-0044","country":"USA"}]},"request":{"method":"PUT","url":"Organization/880a275e-1cf2-4fb9-869b-f1d2173fdc2b"}},{"fullUrl":"https://madie.cms.gov/Practitioner/19ebcf3d-c187-46c8-bece-8b230d339912","resource":{"resourceType":"Practitioner","id":"19ebcf3d-c187-46c8-bece-8b230d339912","meta":{"profile":["http://hl7.org/fhir/us/qicore/StructureDefinition/qicore-practitioner"]},"identifier":[{"system":"http://hl7.org/fhir/sid/us-npi","value":"123456"}],"name":[{"family":"Evil","prefix":["Dr"]}]},"request":{"method":"PUT","url":"Practitioner/19ebcf3d-c187-46c8-bece-8b230d339912"}},{"fullUrl":"https://madie.cms.gov/MeasureReport/5a3211dd-8551-4e28-be9a-684eecea1208","resource":{"resourceType":"MeasureReport","id":"5a3211dd-8551-4e28-be9a-684eecea1208","meta":{"profile":["http://hl7.org/fhir/us/cqfmeasures/StructureDefinition/test-case-cqfm"]},"contained":[{"resourceType":"Parameters","id":"fc920f58-5023-43d1-ad19-c216079f3696-parameters","parameter":[{"name":"subject","valueString":"c25ff376-c6dd-4f49-8d4a-953a70341e4f"}]}],"extension":[{"url":"http://hl7.org/fhir/us/cqfmeasures/StructureDefinition/cqfm-inputParameters","valueReference":{"reference":"#fc920f58-5023-43d1-ad19-c216079f3696-parameters"}},{"url":"http://hl7.org/fhir/us/cqfmeasures/StructureDefinition/cqfm-testCaseDescription","valueMarkdown":"In MP. Sodium test given with no result present."}],"modifierExtension":[{"url":"http://hl7.org/fhir/us/cqfmeasures/StructureDefinition/cqfm-isTestCase","valueBoolean":true}],"status":"complete","type":"individual","measure":"https://madie.cms.gov/Measure/CMSFHIR844HybridHospitalWideMortality","period":{"start":"2026-07-01","end":"2027-06-30"},"group":[{"population":[{"code":{"coding":[{"system":"http://terminology.hl7.org/CodeSystem/measure-population","code":"initial-population","display":"Initial Population"}]},"count":1}]}]},"request":{"method":"PUT","url":"MeasureReport/5a3211dd-8551-4e28-be9a-684eecea1208"}}]}