{"resourceType":"Bundle","id":"tests-1a527f21-582b-4e84-9c27-0515195a33d5-bundle","type":"transaction","entry":[{"fullUrl":"https://madie.cms.gov/Patient/1a527f21-582b-4e84-9c27-0515195a33d5","resource":{"resourceType":"Patient","id":"1a527f21-582b-4e84-9c27-0515195a33d5","meta":{"profile":["http://hl7.org/fhir/us/qicore/StructureDefinition/qicore-patient"]},"text":{"status":"generated","div":"<div xmlns=\"http://www.w3.org/1999/xhtml\"><div class=\"hapiHeaderText\">GT24beforeAndGT2after <b>SBPFAIL </b></div><table class=\"hapiPropertyTable\"><tbody><tr><td>Identifier</td><td>06325773a6790e23c9c87a5044d667ced8c93e3997128578dd7c39ff089cc6f3</td></tr><tr><td>Date of birth</td><td><span>15 June 1956</span></td></tr></tbody></table></div>"},"extension":[{"url":"http://hl7.org/fhir/us/core/StructureDefinition/us-core-race","extension":[{"url":"ombCategory","valueCoding":{"system":"urn:oid:2.16.840.1.113883.6.238","code":"1002-5","display":"American Indian or Alaska Native","userSelected":true}},{"url":"text","valueString":"American Indian or Alaska Native"}]},{"url":"http://hl7.org/fhir/us/core/StructureDefinition/us-core-ethnicity","extension":[{"url":"ombCategory","valueCoding":{"system":"urn:oid:2.16.840.1.113883.6.238","code":"2186-5","display":"Not Hispanic or Latino","userSelected":true}},{"url":"text","valueString":"Not Hispanic or Latino"}]}],"identifier":[{"type":{"coding":[{"system":"http://terminology.hl7.org/CodeSystem/v2-0203","code":"MR"}]},"system":"https://bonnie-fhir.healthit.gov/","value":"63ec096accb3770120fea003"}],"active":true,"name":[{"use":"usual","family":"SystolicBPPass","given":["FirstReadingNotInMP"]}],"gender":"male","birthDate":"1960-07-01"},"request":{"method":"PUT","url":"Patient/1a527f21-582b-4e84-9c27-0515195a33d5"}},{"fullUrl":"https://madie.cms.gov/Encounter/4dbf3592-d37f-4e4f-8a7f-a5c4eb9e23c5","resource":{"resourceType":"Encounter","id":"4dbf3592-d37f-4e4f-8a7f-a5c4eb9e23c5","meta":{"profile":["http://hl7.org/fhir/us/qicore/StructureDefinition/qicore-encounter"]},"status":"finished","class":{"system":"http://terminology.hl7.org/CodeSystem/v3-ActCode","code":"ACUTE","display":"Acute","userSelected":true},"type":[{"coding":[{"system":"http://snomed.info/sct","code":"183452005"}]}],"subject":{"reference":"Patient/1a527f21-582b-4e84-9c27-0515195a33d5"},"period":{"start":"2026-07-01T08:00:00.000+00:00","end":"2026-07-02T16:15:00.000+00:00"},"length":{"value":1,"unit":"days"}},"request":{"method":"PUT","url":"Encounter/4dbf3592-d37f-4e4f-8a7f-a5c4eb9e23c5"}},{"fullUrl":"https://madie.cms.gov/Coverage/85e65e89-983b-4150-9383-e087e3b8dd78","resource":{"resourceType":"Coverage","id":"85e65e89-983b-4150-9383-e087e3b8dd78","meta":{"profile":["http://hl7.org/fhir/us/qicore/StructureDefinition/qicore-coverage"]},"status":"active","type":{"coding":[{"system":"https://nahdo.org/sopt","code":"1","display":"Medicare payer","userSelected":true}]},"beneficiary":{"reference":"Patient/1a527f21-582b-4e84-9c27-0515195a33d5"},"period":{"start":"2026-01-01T08:00:00.000+00:00"},"payor":[{"reference":"Organization/db141f66-a1cc-407b-9e95-adac27adee14"}]},"request":{"method":"PUT","url":"Coverage/85e65e89-983b-4150-9383-e087e3b8dd78"}},{"fullUrl":"https://madie.cms.gov/Observation/20c4c2dd-60e6-4120-a980-72afebd69f3f","resource":{"resourceType":"Observation","id":"20c4c2dd-60e6-4120-a980-72afebd69f3f","meta":{"profile":["http://hl7.org/fhir/StructureDefinition/bp"]},"status":"final","category":[{"coding":[{"system":"http://terminology.hl7.org/CodeSystem/observation-category","code":"vital-signs","display":"Vital Signs"}],"text":"Vital Signs"}],"code":{"coding":[{"system":"http://loinc.org","code":"85354-9","display":"Blood pressure panel with all children optional"}]},"subject":{"reference":"Patient/1a527f21-582b-4e84-9c27-0515195a33d5"},"encounter":{"reference":"Encounter/4dbf3592-d37f-4e4f-8a7f-a5c4eb9e23c5"},"effectiveDateTime":"2026-06-30T00:00:00.000Z","component":[{"code":{"coding":[{"system":"http://loinc.org","code":"8480-6","display":"Systolic blood pressure"}]},"valueQuantity":{"value":139,"unit":"mmHg","system":"http://unitsofmeasure.org","code":"mm[Hg]"}},{"code":{"coding":[{"system":"http://loinc.org","code":"8462-4","display":"Diastolic blood pressure"}]},"valueQuantity":{"value":89,"unit":"mmHg","system":"http://unitsofmeasure.org","code":"mm[Hg]"}}]},"request":{"method":"PUT","url":"Observation/20c4c2dd-60e6-4120-a980-72afebd69f3f"}},{"fullUrl":"https://madie.cms.gov/Observation/ca56658c-b84a-4f62-b0be-87fcf22f51c1","resource":{"resourceType":"Observation","id":"ca56658c-b84a-4f62-b0be-87fcf22f51c1","meta":{"profile":["http://hl7.org/fhir/StructureDefinition/bp"]},"status":"final","category":[{"coding":[{"system":"http://terminology.hl7.org/CodeSystem/observation-category","code":"vital-signs","display":"Vital Signs"}],"text":"Vital Signs"}],"code":{"coding":[{"system":"http://loinc.org","code":"85354-9","display":"Blood pressure panel with all children optional"}]},"subject":{"reference":"Patient/1a527f21-582b-4e84-9c27-0515195a33d5"},"encounter":{"reference":"Encounter/4dbf3592-d37f-4e4f-8a7f-a5c4eb9e23c5"},"effectiveDateTime":"2026-07-01T08:00:00.000Z","component":[{"code":{"coding":[{"system":"http://loinc.org","code":"8480-6","display":"Systolic blood pressure"}]},"valueQuantity":{"value":139,"unit":"mmHg","system":"http://unitsofmeasure.org","code":"mm[Hg]"}},{"code":{"coding":[{"system":"http://loinc.org","code":"8462-4","display":"Diastolic blood pressure"}]},"valueQuantity":{"value":89,"unit":"mmHg","system":"http://unitsofmeasure.org","code":"mm[Hg]"}}]},"request":{"method":"PUT","url":"Observation/ca56658c-b84a-4f62-b0be-87fcf22f51c1"}},{"fullUrl":"https://madie.cms.gov/MeasureReport/033c65fb-97c0-4118-8c59-d8cac22d1fc3","resource":{"resourceType":"MeasureReport","id":"033c65fb-97c0-4118-8c59-d8cac22d1fc3","meta":{"profile":["http://hl7.org/fhir/us/cqfmeasures/StructureDefinition/test-case-cqfm"]},"contained":[{"resourceType":"Parameters","id":"9af244f4-3f0c-4b3b-8e53-17b262e1e91d-parameters","parameter":[{"name":"subject","valueString":"1a527f21-582b-4e84-9c27-0515195a33d5"}]}],"extension":[{"url":"http://hl7.org/fhir/us/cqfmeasures/StructureDefinition/cqfm-inputParameters","valueReference":{"reference":"#9af244f4-3f0c-4b3b-8e53-17b262e1e91d-parameters"}},{"url":"http://hl7.org/fhir/us/cqfmeasures/StructureDefinition/cqfm-testCaseDescription","valueMarkdown":"Enc first day of MP;  Medicare started 1/1 , 19 hrs prior to inpatient admit (office visit), BP evaluated but is not included since not in MP. 2nd reading 1 min after admit which is the reading counted. \n"}],"modifierExtension":[{"url":"http://hl7.org/fhir/us/cqfmeasures/StructureDefinition/cqfm-isTestCase","valueBoolean":true}],"status":"complete","type":"individual","measure":"https://madie.cms.gov/Measure/CMSFHIR844HybridHospitalWideMortality","period":{"start":"2026-07-01","end":"2027-06-30"},"group":[{"population":[{"code":{"coding":[{"system":"http://terminology.hl7.org/CodeSystem/measure-population","code":"initial-population","display":"Initial Population"}]},"count":1}]}]},"request":{"method":"PUT","url":"MeasureReport/033c65fb-97c0-4118-8c59-d8cac22d1fc3"}}]}