{"resourceType":"Bundle","id":"tests-56d14d39-e1d9-4bfa-8c97-0578669f75a8-bundle","type":"transaction","entry":[{"fullUrl":"https://madie.cms.gov/Patient/56d14d39-e1d9-4bfa-8c97-0578669f75a8","resource":{"resourceType":"Patient","id":"56d14d39-e1d9-4bfa-8c97-0578669f75a8","meta":{"profile":["http://hl7.org/fhir/us/qicore/StructureDefinition/qicore-patient"]},"text":{"status":"generated","div":"<div xmlns=\"http://www.w3.org/1999/xhtml\"><div class=\"hapiHeaderText\">LTE24before <b>BICARBPASS </b></div><table class=\"hapiPropertyTable\"><tbody><tr><td>Identifier</td><td>d69abbc179641b9cd673a4a9152886e8e63bc2e0e7b27e1a51505ef2a774679e</td></tr><tr><td>Date of birth</td><td><span>15 June 1956</span></td></tr></tbody></table></div>"},"extension":[{"url":"http://hl7.org/fhir/us/core/StructureDefinition/us-core-race","extension":[{"url":"ombCategory","valueCoding":{"system":"urn:oid:2.16.840.1.113883.6.238","code":"1002-5","display":"American Indian or Alaska Native","userSelected":true}},{"url":"text","valueString":"American Indian or Alaska Native"}]},{"url":"http://hl7.org/fhir/us/core/StructureDefinition/us-core-ethnicity","extension":[{"url":"ombCategory","valueCoding":{"system":"urn:oid:2.16.840.1.113883.6.238","code":"2186-5","display":"Not Hispanic or Latino","userSelected":true}},{"url":"text","valueString":"Not Hispanic or Latino"}]}],"identifier":[{"type":{"coding":[{"system":"http://terminology.hl7.org/CodeSystem/v2-0203","code":"MR"}]},"system":"https://bonnie-fhir.healthit.gov/","value":"63f3a249ccb3770120ffe6eb"}],"active":true,"name":[{"use":"usual","family":"BicarbonateFail","given":["24Hrs1MinBeforeInpatientEncStart"]}],"gender":"male","birthDate":"1961-07-01"},"request":{"method":"PUT","url":"Patient/56d14d39-e1d9-4bfa-8c97-0578669f75a8"}},{"fullUrl":"https://madie.cms.gov/Encounter/cdca2d35-a5be-4b29-9c8a-d362d8faefcf","resource":{"resourceType":"Encounter","id":"cdca2d35-a5be-4b29-9c8a-d362d8faefcf","meta":{"profile":["http://hl7.org/fhir/us/qicore/StructureDefinition/qicore-encounter"]},"status":"finished","class":{"system":"http://terminology.hl7.org/CodeSystem/v3-ActCode","code":"IMP","display":"inpatient encounter","userSelected":true},"type":[{"coding":[{"system":"http://snomed.info/sct","code":"183452005"}]}],"subject":{"reference":"Patient/56d14d39-e1d9-4bfa-8c97-0578669f75a8"},"period":{"start":"2026-07-01T08:00:00.000+00:00","end":"2026-07-03T08:15:00.000+00:00"}},"request":{"method":"PUT","url":"Encounter/cdca2d35-a5be-4b29-9c8a-d362d8faefcf"}},{"fullUrl":"https://madie.cms.gov/Coverage/f0215c67-27cf-4eb1-9065-52d9e79f8e7f","resource":{"resourceType":"Coverage","id":"f0215c67-27cf-4eb1-9065-52d9e79f8e7f","meta":{"profile":["http://hl7.org/fhir/us/qicore/StructureDefinition/qicore-coverage"]},"status":"active","type":{"coding":[{"system":"https://nahdo.org/sopt","version":"1.0.1","code":"1","display":"Medicare payer","userSelected":true}]},"beneficiary":{"reference":"Patient/56d14d39-e1d9-4bfa-8c97-0578669f75a8"},"period":{"start":"2026-01-01T08:00:00.000+00:00","end":"2026-12-31T08:15:00.000+00:00"},"payor":[{"reference":"Organization/806b0255-13cb-4f2b-9412-571554dd2169"}]},"request":{"method":"PUT","url":"Coverage/f0215c67-27cf-4eb1-9065-52d9e79f8e7f"}},{"fullUrl":"https://madie.cms.gov/Observation/10fd6e28-9918-4be4-bdbf-849a5524ff81","resource":{"resourceType":"Observation","id":"10fd6e28-9918-4be4-bdbf-849a5524ff81","meta":{"profile":["http://hl7.org/fhir/us/core/StructureDefinition/us-core-observation-lab"]},"status":"final","category":[{"coding":[{"system":"http://terminology.hl7.org/CodeSystem/observation-category","code":"laboratory","display":"laboratory","userSelected":true}]}],"code":{"coding":[{"system":"http://loinc.org","code":"14627-4","display":"Bicarbonate [Moles/volume] in Venous blood"}]},"subject":{"reference":"Patient/56d14d39-e1d9-4bfa-8c97-0578669f75a8"},"effectiveDateTime":"2026-06-30T07:59:00.000+00:00","issued":"2026-06-30T07:59:00.000+00:00","valueQuantity":{"value":25,"unit":"mmol/L","system":"http://unitsofmeasure.org","code":"mg/dL"}},"request":{"method":"PUT","url":"Observation/10fd6e28-9918-4be4-bdbf-849a5524ff81"}},{"fullUrl":"https://madie.cms.gov/Organization/c1323cd6-bb92-45d2-8f9a-80d0c7c2616f","resource":{"resourceType":"Organization","id":"806b0255-13cb-4f2b-9412-571554dd2169","meta":{"profile":["http://hl7.org/fhir/us/qicore/StructureDefinition/qicore-organization"]},"identifier":[{"use":"temp","system":"urn:oid:2.16.840.1.113883.4.4","value":"21-3259825"}],"active":true,"type":[{"coding":[{"system":"http://terminology.hl7.org/CodeSystem/organization-type","code":"pay","display":"Payer"}]}],"name":"Blue Cross Blue Shield of Texas","telecom":[{"system":"phone","value":"(+1) 972-766-6900"}],"address":[{"use":"billing","type":"postal","line":["P.O. Box 660044"],"city":"Dallas","state":"TX","postalCode":"75266-0044","country":"USA"}]},"request":{"method":"PUT","url":"Organization/806b0255-13cb-4f2b-9412-571554dd2169"}},{"fullUrl":"https://madie.cms.gov/Practitioner/ad02aac3-0aee-414a-8571-aa1de7f8e27e","resource":{"resourceType":"Practitioner","id":"ad02aac3-0aee-414a-8571-aa1de7f8e27e","meta":{"profile":["http://hl7.org/fhir/us/qicore/StructureDefinition/qicore-practitioner"]},"identifier":[{"system":"http://hl7.org/fhir/sid/us-npi","value":"123456"}],"name":[{"family":"Evil","prefix":["Dr"]}]},"request":{"method":"PUT","url":"Practitioner/ad02aac3-0aee-414a-8571-aa1de7f8e27e"}},{"fullUrl":"https://madie.cms.gov/MeasureReport/e97d76e7-2605-465f-8183-21cf2a53365e","resource":{"resourceType":"MeasureReport","id":"e97d76e7-2605-465f-8183-21cf2a53365e","meta":{"profile":["http://hl7.org/fhir/us/cqfmeasures/StructureDefinition/test-case-cqfm"]},"contained":[{"resourceType":"Parameters","id":"831de871-4bb8-485a-987e-0e243b0a27ab-parameters","parameter":[{"name":"subject","valueString":"56d14d39-e1d9-4bfa-8c97-0578669f75a8"}]}],"extension":[{"url":"http://hl7.org/fhir/us/cqfmeasures/StructureDefinition/cqfm-inputParameters","valueReference":{"reference":"#831de871-4bb8-485a-987e-0e243b0a27ab-parameters"}},{"url":"http://hl7.org/fhir/us/cqfmeasures/StructureDefinition/cqfm-testCaseDescription","valueMarkdown":"Enc first day of MP (7/1), age 65 today, has Medicare, bicarbonate test performed 24 hrs 1 min before start of inpatient encounter. "}],"modifierExtension":[{"url":"http://hl7.org/fhir/us/cqfmeasures/StructureDefinition/cqfm-isTestCase","valueBoolean":true}],"status":"complete","type":"individual","measure":"https://madie.cms.gov/Measure/CMSFHIR844HybridHospitalWideMortality","period":{"start":"2026-07-01","end":"2027-06-30"},"group":[{"population":[{"code":{"coding":[{"system":"http://terminology.hl7.org/CodeSystem/measure-population","code":"initial-population","display":"Initial Population"}]},"count":1}]}]},"request":{"method":"PUT","url":"MeasureReport/e97d76e7-2605-465f-8183-21cf2a53365e"}}]}