{"resourceType":"Bundle","id":"tests-443783af-53ae-46ed-a129-690aa58433d8-bundle","type":"transaction","entry":[{"fullUrl":"https://madie.cms.gov/Patient/443783af-53ae-46ed-a129-690aa58433d8","resource":{"resourceType":"Patient","id":"443783af-53ae-46ed-a129-690aa58433d8","meta":{"profile":["http://hl7.org/fhir/us/qicore/StructureDefinition/qicore-patient"]},"text":{"status":"generated","div":"<div xmlns=\"http://www.w3.org/1999/xhtml\"><div class=\"hapiHeaderText\">OnAdmit <b>HEMATPASS </b></div><table class=\"hapiPropertyTable\"><tbody><tr><td>Identifier</td><td>a3da21e0aa9acb035adc77fa116544b16013e74ef32aafc4f42a40ab71459966</td></tr><tr><td>Date of birth</td><td><span>15 June 1956</span></td></tr></tbody></table></div>"},"extension":[{"url":"http://hl7.org/fhir/us/core/StructureDefinition/us-core-race","extension":[{"url":"ombCategory","valueCoding":{"system":"urn:oid:2.16.840.1.113883.6.238","code":"2106-3","display":"White","userSelected":true}},{"url":"text","valueString":"White"}]},{"url":"http://hl7.org/fhir/us/core/StructureDefinition/us-core-ethnicity","extension":[{"url":"ombCategory","valueCoding":{"system":"urn:oid:2.16.840.1.113883.6.238","code":"2186-5","display":"Not Hispanic or Latino","userSelected":true}},{"url":"text","valueString":"Not Hispanic or Latino"}]}],"identifier":[{"type":{"coding":[{"system":"http://terminology.hl7.org/CodeSystem/v2-0203","code":"MR"}]},"system":"https://bonnie-fhir.healthit.gov/","value":"63ec0968ccb3770120fe9d74"}],"active":true,"name":[{"use":"usual","family":"HematocritPass","given":["PerformedInObs23Hrs15MinsPriorToAdmit"]}],"gender":"male","birthDate":"1961-07-01"},"request":{"method":"PUT","url":"Patient/443783af-53ae-46ed-a129-690aa58433d8"}},{"fullUrl":"https://madie.cms.gov/Encounter/6548c83b-1a0a-4236-9d41-67b720c30505","resource":{"resourceType":"Encounter","id":"6548c83b-1a0a-4236-9d41-67b720c30505","meta":{"profile":["http://hl7.org/fhir/us/qicore/StructureDefinition/qicore-encounter"]},"status":"finished","class":{"system":"http://terminology.hl7.org/CodeSystem/v3-ActCode","code":"OBSENC","display":"observation encounter","userSelected":true},"type":[{"coding":[{"system":"http://snomed.info/sct","code":"448951000124107","display":"Admission to observation unit (procedure)"}]}],"subject":{"reference":"Patient/443783af-53ae-46ed-a129-690aa58433d8"},"period":{"start":"2026-07-01T08:00:00.000+00:00","end":"2026-07-02T07:15:00.000+00:00"},"length":{"value":1,"unit":"days"}},"request":{"method":"PUT","url":"Encounter/6548c83b-1a0a-4236-9d41-67b720c30505"}},{"fullUrl":"https://madie.cms.gov/Encounter/a46fdb09-b22a-4b8e-a0f0-f21b244ad3b5","resource":{"resourceType":"Encounter","id":"a46fdb09-b22a-4b8e-a0f0-f21b244ad3b5","meta":{"profile":["http://hl7.org/fhir/us/qicore/StructureDefinition/qicore-encounter"]},"status":"finished","class":{"system":"http://terminology.hl7.org/CodeSystem/v3-ActCode","code":"IMP","display":"inpatient encounter","userSelected":true},"type":[{"coding":[{"system":"http://snomed.info/sct","code":"183452005"}]}],"subject":{"reference":"Patient/443783af-53ae-46ed-a129-690aa58433d8"},"period":{"start":"2026-07-02T07:15:00.000+00:00","end":"2026-07-05T12:15:00.000+00:00"},"length":{"value":3,"unit":"days"}},"request":{"method":"PUT","url":"Encounter/a46fdb09-b22a-4b8e-a0f0-f21b244ad3b5"}},{"fullUrl":"https://madie.cms.gov/Coverage/5b911b09-cdc3-4d70-8a56-31c3130e84a7","resource":{"resourceType":"Coverage","id":"5b911b09-cdc3-4d70-8a56-31c3130e84a7","meta":{"profile":["http://hl7.org/fhir/us/qicore/StructureDefinition/qicore-coverage"]},"status":"active","type":{"coding":[{"system":"https://nahdo.org/sopt","version":"1.0.1","code":"1","display":"Medicare payer","userSelected":true}]},"beneficiary":{"reference":"Patient/443783af-53ae-46ed-a129-690aa58433d8"},"payor":[{"reference":"Organization/024e2731-b045-43bf-80d2-684774c5b51c"}]},"request":{"method":"PUT","url":"Coverage/5b911b09-cdc3-4d70-8a56-31c3130e84a7"}},{"fullUrl":"https://madie.cms.gov/Observation/73adda68-bed1-4eb4-b31f-42a343aa1719","resource":{"resourceType":"Observation","id":"73adda68-bed1-4eb4-b31f-42a343aa1719","meta":{"profile":["http://hl7.org/fhir/us/core/StructureDefinition/us-core-observation-lab"]},"status":"final","category":[{"coding":[{"system":"http://terminology.hl7.org/CodeSystem/observation-category","code":"laboratory","display":"Laboratory","userSelected":true}]}],"code":{"coding":[{"system":"http://loinc.org","code":"20570-8","display":"Hematocrit [Volume Fraction] of Blood"}]},"subject":{"reference":"Patient/443783af-53ae-46ed-a129-690aa58433d8"},"effectiveDateTime":"2026-07-01T08:00:00.000+00:00","issued":"2026-07-01T08:00:00.000+00:00","valueQuantity":{"value":50,"unit":"%","system":"http://unitsofmeasure.org","code":"%"}},"request":{"method":"PUT","url":"Observation/73adda68-bed1-4eb4-b31f-42a343aa1719"}},{"fullUrl":"https://madie.cms.gov/Organization/c97eb1a2-0646-4e5b-b458-e7057e2384d2","resource":{"resourceType":"Organization","id":"024e2731-b045-43bf-80d2-684774c5b51c","meta":{"profile":["http://hl7.org/fhir/us/qicore/StructureDefinition/qicore-organization"]},"identifier":[{"use":"temp","system":"urn:oid:2.16.840.1.113883.4.4","value":"21-3259825"}],"active":true,"type":[{"coding":[{"system":"http://terminology.hl7.org/CodeSystem/organization-type","code":"pay","display":"Payer"}]}],"name":"Blue Cross Blue Shield of Texas","telecom":[{"system":"phone","value":"(+1) 972-766-6900"}],"address":[{"use":"billing","type":"postal","line":["P.O. Box 660044"],"city":"Dallas","state":"TX","postalCode":"75266-0044","country":"USA"}]},"request":{"method":"PUT","url":"Organization/024e2731-b045-43bf-80d2-684774c5b51c"}},{"fullUrl":"https://madie.cms.gov/Practitioner/3590301c-ea4f-449c-a252-9d61d5711f7e","resource":{"resourceType":"Practitioner","id":"3590301c-ea4f-449c-a252-9d61d5711f7e","meta":{"profile":["http://hl7.org/fhir/us/qicore/StructureDefinition/qicore-practitioner"]},"identifier":[{"system":"http://hl7.org/fhir/sid/us-npi","value":"123456"}],"name":[{"family":"Evil","prefix":["Dr"]}]},"request":{"method":"PUT","url":"Practitioner/3590301c-ea4f-449c-a252-9d61d5711f7e"}},{"fullUrl":"https://madie.cms.gov/MeasureReport/766fe72b-7abf-4865-9a4b-fc9537935530","resource":{"resourceType":"MeasureReport","id":"766fe72b-7abf-4865-9a4b-fc9537935530","meta":{"profile":["http://hl7.org/fhir/us/cqfmeasures/StructureDefinition/test-case-cqfm"]},"contained":[{"resourceType":"Parameters","id":"12dc774a-427e-41ab-8593-ae62379fbf60-parameters","parameter":[{"name":"subject","valueString":"443783af-53ae-46ed-a129-690aa58433d8"}]}],"extension":[{"url":"http://hl7.org/fhir/us/cqfmeasures/StructureDefinition/cqfm-inputParameters","valueReference":{"reference":"#12dc774a-427e-41ab-8593-ae62379fbf60-parameters"}},{"url":"http://hl7.org/fhir/us/cqfmeasures/StructureDefinition/cqfm-testCaseDescription","valueMarkdown":"Observation enc first day of MP (7/1), Inpt enc. 7/2, has Medicare, hematocrit evaluated in Obser 23 hrs 15 mins prior to inpatient admission"}],"modifierExtension":[{"url":"http://hl7.org/fhir/us/cqfmeasures/StructureDefinition/cqfm-isTestCase","valueBoolean":true}],"status":"complete","type":"individual","measure":"https://madie.cms.gov/Measure/CMSFHIR844HybridHospitalWideMortality","period":{"start":"2026-07-01","end":"2027-06-30"},"group":[{"population":[{"code":{"coding":[{"system":"http://terminology.hl7.org/CodeSystem/measure-population","code":"initial-population","display":"Initial Population"}]},"count":1}]}]},"request":{"method":"PUT","url":"MeasureReport/766fe72b-7abf-4865-9a4b-fc9537935530"}}]}