{"resourceType":"Bundle","id":"tests-ab3f89ea-2f93-42ab-b405-19a9e31a207b-bundle","type":"transaction","entry":[{"fullUrl":"https://madie.cms.gov/Patient/ab3f89ea-2f93-42ab-b405-19a9e31a207b","resource":{"resourceType":"Patient","id":"ab3f89ea-2f93-42ab-b405-19a9e31a207b","meta":{"profile":["http://hl7.org/fhir/us/qicore/StructureDefinition/qicore-patient"]},"text":{"status":"generated","div":"<div xmlns=\"http://www.w3.org/1999/xhtml\"><div class=\"hapiHeaderText\">LT24beforeAndGT2after_relevantPeriod_endonly <b>SBPPASS </b></div><table class=\"hapiPropertyTable\"><tbody><tr><td>Identifier</td><td>ff71e6df6fc1b78e69460d357884fa81714d2acf91ffda248ad3470e982fcab8</td></tr><tr><td>Date of birth</td><td><span>15 June 1956</span></td></tr></tbody></table></div>"},"extension":[{"url":"http://hl7.org/fhir/us/core/StructureDefinition/us-core-race","extension":[{"url":"ombCategory","valueCoding":{"system":"urn:oid:2.16.840.1.113883.6.238","code":"1002-5","display":"American Indian or Alaska Native","userSelected":true}},{"url":"text","valueString":"American Indian or Alaska Native"}]},{"url":"http://hl7.org/fhir/us/core/StructureDefinition/us-core-ethnicity","extension":[{"url":"ombCategory","valueCoding":{"system":"urn:oid:2.16.840.1.113883.6.238","code":"2186-5","display":"Not Hispanic or Latino","userSelected":true}},{"url":"text","valueString":"Not Hispanic or Latino"}]}],"identifier":[{"type":{"coding":[{"system":"http://terminology.hl7.org/CodeSystem/v2-0203","code":"MR"}]},"system":"https://bonnie-fhir.healthit.gov/","value":"63ec0965ccb3770120fe9b6a"}],"active":true,"name":[{"use":"usual","family":"SystolicBPPass","given":["2HoursAfterStartOfAdmit"]}],"gender":"male","birthDate":"1962-06-29"},"request":{"method":"PUT","url":"Patient/ab3f89ea-2f93-42ab-b405-19a9e31a207b"}},{"fullUrl":"https://madie.cms.gov/Encounter/48190820-dc3b-4305-b381-c9e7a17252fb","resource":{"resourceType":"Encounter","id":"48190820-dc3b-4305-b381-c9e7a17252fb","meta":{"profile":["http://hl7.org/fhir/us/qicore/StructureDefinition/qicore-encounter"]},"status":"finished","class":{"system":"http://terminology.hl7.org/CodeSystem/v3-ActCode","code":"IMP","display":"inpatient encounter","userSelected":true},"type":[{"coding":[{"system":"http://snomed.info/sct","code":"183452005"}]}],"subject":{"reference":"Patient/ab3f89ea-2f93-42ab-b405-19a9e31a207b"},"period":{"start":"2027-06-29T12:01:00.000+00:00","end":"2027-06-30T23:59:00.000+00:00"},"length":{"value":1,"unit":"days"}},"request":{"method":"PUT","url":"Encounter/48190820-dc3b-4305-b381-c9e7a17252fb"}},{"fullUrl":"https://madie.cms.gov/Coverage/51deabdd-a410-4359-88d6-b21ecad03098","resource":{"resourceType":"Coverage","id":"51deabdd-a410-4359-88d6-b21ecad03098","meta":{"profile":["http://hl7.org/fhir/us/qicore/StructureDefinition/qicore-coverage"]},"status":"active","type":{"coding":[{"system":"https://nahdo.org/sopt","version":"1.0.1","code":"1","display":"Medicare payer","userSelected":true}]},"beneficiary":{"reference":"Patient/ab3f89ea-2f93-42ab-b405-19a9e31a207b"},"period":{"start":"2026-01-01T08:00:00.000+00:00","end":"2027-12-31T08:15:00.000+00:00"},"payor":[{"reference":"Organization/3e899f33-84eb-4634-a770-a5a0bd7a80e7"}]},"request":{"method":"PUT","url":"Coverage/51deabdd-a410-4359-88d6-b21ecad03098"}},{"fullUrl":"https://madie.cms.gov/Observation/4172ddf2-a3db-4f4d-955f-836f6a627bcb","resource":{"resourceType":"Observation","id":"4172ddf2-a3db-4f4d-955f-836f6a627bcb","meta":{"profile":["http://hl7.org/fhir/StructureDefinition/bp"]},"status":"final","category":[{"coding":[{"system":"http://terminology.hl7.org/CodeSystem/observation-category","code":"vital-signs","display":"Vital Signs"}],"text":"Vital Signs"}],"code":{"coding":[{"system":"http://loinc.org","code":"85354-9","display":"Blood pressure panel"}]},"subject":{"reference":"Patient/ab3f89ea-2f93-42ab-b405-19a9e31a207b"},"effectiveDateTime":"2027-06-29T10:05:00.000Z","component":[{"code":{"coding":[{"system":"http://loinc.org","code":"8480-6","display":"Systolic blood pressure"}]},"valueQuantity":{"value":131,"unit":"mmHg","system":"http://unitsofmeasure.org","code":"mm[Hg]"}},{"code":{"coding":[{"system":"http://loinc.org","code":"8462-4","display":"Diastolic blood pressure"}]},"valueQuantity":{"value":80,"unit":"mmHg","system":"http://unitsofmeasure.org","code":"mm[Hg]"}}]},"request":{"method":"PUT","url":"Observation/4172ddf2-a3db-4f4d-955f-836f6a627bcb"}},{"fullUrl":"https://madie.cms.gov/Organization/c37c3d55-fd54-48a8-a20f-d4ab4df2254f","resource":{"resourceType":"Organization","id":"3e899f33-84eb-4634-a770-a5a0bd7a80e7","meta":{"profile":["http://hl7.org/fhir/us/qicore/StructureDefinition/qicore-organization"]},"identifier":[{"use":"temp","system":"urn:oid:2.16.840.1.113883.4.4","value":"21-3259825"}],"active":true,"type":[{"coding":[{"system":"http://terminology.hl7.org/CodeSystem/organization-type","code":"pay","display":"Payer"}]}],"name":"Blue Cross Blue Shield of Texas","telecom":[{"system":"phone","value":"(+1) 972-766-6900"}],"address":[{"use":"billing","type":"postal","line":["P.O. Box 660044"],"city":"Dallas","state":"TX","postalCode":"75266-0044","country":"USA"}]},"request":{"method":"PUT","url":"Organization/3e899f33-84eb-4634-a770-a5a0bd7a80e7"}},{"fullUrl":"https://madie.cms.gov/Practitioner/8cfaee71-8b09-4623-a031-9147b3c7f5c0","resource":{"resourceType":"Practitioner","id":"8cfaee71-8b09-4623-a031-9147b3c7f5c0","meta":{"profile":["http://hl7.org/fhir/us/qicore/StructureDefinition/qicore-practitioner"]},"identifier":[{"system":"http://hl7.org/fhir/sid/us-npi","value":"123456"}],"name":[{"family":"Evil","prefix":["Dr"]}]},"request":{"method":"PUT","url":"Practitioner/8cfaee71-8b09-4623-a031-9147b3c7f5c0"}},{"fullUrl":"https://madie.cms.gov/MeasureReport/ad719f5b-3314-4792-8599-d2fa9627fc83","resource":{"resourceType":"MeasureReport","id":"ad719f5b-3314-4792-8599-d2fa9627fc83","meta":{"profile":["http://hl7.org/fhir/us/cqfmeasures/StructureDefinition/test-case-cqfm"]},"contained":[{"resourceType":"Parameters","id":"2d120e48-af2e-468c-b74d-d826bc07dff7-parameters","parameter":[{"name":"subject","valueString":"ab3f89ea-2f93-42ab-b405-19a9e31a207b"}]}],"extension":[{"url":"http://hl7.org/fhir/us/cqfmeasures/StructureDefinition/cqfm-inputParameters","valueReference":{"reference":"#2d120e48-af2e-468c-b74d-d826bc07dff7-parameters"}},{"url":"http://hl7.org/fhir/us/cqfmeasures/StructureDefinition/cqfm-testCaseDescription","valueMarkdown":"Enc ends last day of MP (6/30), age 65 on day of enc. Systolic BP evaluated 2 hours after start of inpatient and morning of discharge"}],"modifierExtension":[{"url":"http://hl7.org/fhir/us/cqfmeasures/StructureDefinition/cqfm-isTestCase","valueBoolean":true}],"status":"complete","type":"individual","measure":"https://madie.cms.gov/Measure/CMSFHIR844HybridHospitalWideMortality","period":{"start":"2026-07-01","end":"2027-06-30"},"group":[{"population":[{"code":{"coding":[{"system":"http://terminology.hl7.org/CodeSystem/measure-population","code":"initial-population","display":"Initial Population"}]},"count":1}]}]},"request":{"method":"PUT","url":"MeasureReport/ad719f5b-3314-4792-8599-d2fa9627fc83"}}]}