{"resourceType":"Bundle","id":"tests-35bfcfd8-c661-4b4b-8a57-6df87f97da37-bundle","type":"transaction","entry":[{"fullUrl":"https://madie.cms.gov/Patient/35bfcfd8-c661-4b4b-8a57-6df87f97da37","resource":{"resourceType":"Patient","id":"35bfcfd8-c661-4b4b-8a57-6df87f97da37","meta":{"profile":["http://hl7.org/fhir/us/qicore/StructureDefinition/qicore-patient"]},"text":{"status":"generated","div":"<div xmlns=\"http://www.w3.org/1999/xhtml\"><div class=\"hapiHeaderText\">PlateletRRHR <b>COMBO1 </b></div><table class=\"hapiPropertyTable\"><tbody><tr><td>Identifier</td><td>3fdea26b1d172050afffe1c0ff7bd899faa0bd0df7d367f433ae26111f27549c</td></tr><tr><td>Date of birth</td><td><span>15 June 1956</span></td></tr></tbody></table></div>"},"extension":[{"url":"http://hl7.org/fhir/us/core/StructureDefinition/us-core-race","extension":[{"url":"ombCategory","valueCoding":{"system":"urn:oid:2.16.840.1.113883.6.238","code":"1002-5","display":"American Indian or Alaska Native","userSelected":true}},{"url":"text","valueString":"American Indian or Alaska Native"}]},{"url":"http://hl7.org/fhir/us/core/StructureDefinition/us-core-ethnicity","extension":[{"url":"ombCategory","valueCoding":{"system":"urn:oid:2.16.840.1.113883.6.238","code":"2186-5","display":"Not Hispanic or Latino","userSelected":true}},{"url":"text","valueString":"Not Hispanic or Latino"}]}],"identifier":[{"type":{"coding":[{"system":"http://terminology.hl7.org/CodeSystem/v2-0203","code":"MR"}]},"system":"https://bonnie-fhir.healthit.gov/","value":"63ec0965ccb3770120fe9ab4"}],"active":true,"name":[{"use":"usual","family":"PlateletsHeartRateSystolicBPPass","given":["OneMinuteAfterAdmission"]}],"gender":"male","birthDate":"1957-06-15"},"request":{"method":"PUT","url":"Patient/35bfcfd8-c661-4b4b-8a57-6df87f97da37"}},{"fullUrl":"https://madie.cms.gov/Encounter/6fd949df-854f-42a8-8201-2a2a8c1c60d2","resource":{"resourceType":"Encounter","id":"6fd949df-854f-42a8-8201-2a2a8c1c60d2","meta":{"profile":["http://hl7.org/fhir/us/qicore/StructureDefinition/qicore-encounter"]},"status":"finished","class":{"system":"http://terminology.hl7.org/CodeSystem/v3-ActCode","code":"NONAC","display":"nonacute encounter","userSelected":true},"type":[{"coding":[{"system":"http://snomed.info/sct","code":"183452005","display":"Emergency hospital admission (procedure)"}]}],"subject":{"reference":"Patient/35bfcfd8-c661-4b4b-8a57-6df87f97da37"},"period":{"start":"2026-07-01T08:00:00.000+00:00","end":"2026-07-03T08:15:00.000+00:00"},"length":{"value":3,"unit":"days"}},"request":{"method":"PUT","url":"Encounter/6fd949df-854f-42a8-8201-2a2a8c1c60d2"}},{"fullUrl":"https://madie.cms.gov/Coverage/b1da5528-7225-4aae-9fc5-ae69e38dce3c","resource":{"resourceType":"Coverage","id":"b1da5528-7225-4aae-9fc5-ae69e38dce3c","meta":{"profile":["http://hl7.org/fhir/us/qicore/StructureDefinition/qicore-coverage"]},"status":"active","type":{"coding":[{"system":"https://nahdo.org/sopt","version":"1.0.1","code":"1","display":"Medicare payer","userSelected":true}]},"beneficiary":{"reference":"Patient/35bfcfd8-c661-4b4b-8a57-6df87f97da37"},"payor":[{"reference":"Organization/880a275e-1cf2-4fb9-869b-f1d2173fdc2b"}]},"request":{"method":"PUT","url":"Coverage/b1da5528-7225-4aae-9fc5-ae69e38dce3c"}},{"fullUrl":"https://madie.cms.gov/Observation/b3ce0270-8bc3-4f68-b1e1-187e5f80e7d9","resource":{"resourceType":"Observation","id":"b3ce0270-8bc3-4f68-b1e1-187e5f80e7d9","meta":{"profile":["http://hl7.org/fhir/us/core/StructureDefinition/us-core-observation-lab"]},"status":"final","category":[{"coding":[{"system":"http://terminology.hl7.org/CodeSystem/observation-category","code":"laboratory","display":"Laboratory","userSelected":true}]}],"code":{"coding":[{"system":"http://loinc.org","code":"13056-7","display":"Platelets [#/volume] in Plasma by Automated count"}]},"subject":{"reference":"Patient/35bfcfd8-c661-4b4b-8a57-6df87f97da37"},"effectiveDateTime":"2026-07-01T08:01:00.000+00:00","issued":"2026-07-01T08:01:01.000+00:00","valueQuantity":{"value":200000,"unit":"uL","system":"http://unitsofmeasure.org","code":"uL"}},"request":{"method":"PUT","url":"Observation/b3ce0270-8bc3-4f68-b1e1-187e5f80e7d9"}},{"fullUrl":"https://madie.cms.gov/Observation/919ed872-5812-4476-a207-f68ac82963e9","resource":{"resourceType":"Observation","id":"919ed872-5812-4476-a207-f68ac82963e9","meta":{"profile":["http://hl7.org/fhir/StructureDefinition/heartrate"]},"status":"amended","category":[{"coding":[{"system":"http://terminology.hl7.org/CodeSystem/observation-category","code":"vital-signs","display":"Vital Signs","userSelected":true}]}],"code":{"coding":[{"system":"http://loinc.org","code":"8867-4","display":"Heart rate"}]},"subject":{"reference":"Patient/35bfcfd8-c661-4b4b-8a57-6df87f97da37"},"effectiveDateTime":"2026-07-01T08:01:00.000+00:00","issued":"2026-07-01T08:01:00.000+00:00","valueQuantity":{"value":100,"unit":"/min","system":"http://unitsofmeasure.org","code":"/min"}},"request":{"method":"PUT","url":"Observation/919ed872-5812-4476-a207-f68ac82963e9"}},{"fullUrl":"https://madie.cms.gov/Observation/8628e0ec-3286-4f8b-9e68-9a171eb28e26","resource":{"resourceType":"Observation","id":"8628e0ec-3286-4f8b-9e68-9a171eb28e26","meta":{"profile":["http://hl7.org/fhir/StructureDefinition/bp"]},"status":"final","category":[{"coding":[{"system":"http://terminology.hl7.org/CodeSystem/observation-category","code":"vital-signs","display":"Vital Signs"}],"text":"Vital Signs"}],"code":{"coding":[{"system":"http://loinc.org","code":"85354-9","display":"Blood pressure panel"}]},"subject":{"reference":"Patient/35bfcfd8-c661-4b4b-8a57-6df87f97da37"},"effectiveDateTime":"2026-07-01T08:01:00.000+00:00","component":[{"code":{"coding":[{"system":"http://loinc.org","code":"8480-6","display":"Systolic blood pressure"}]},"valueQuantity":{"value":131,"unit":"mmHg","system":"http://unitsofmeasure.org","code":"mm[Hg]"}},{"code":{"coding":[{"system":"http://loinc.org","code":"8462-4","display":"Diastolic blood pressure"}]},"valueQuantity":{"value":80,"unit":"mmHg","system":"http://unitsofmeasure.org","code":"mm[Hg]"}}]},"request":{"method":"PUT","url":"Observation/8628e0ec-3286-4f8b-9e68-9a171eb28e26"}},{"fullUrl":"https://madie.cms.gov/Organization/abf2513a-9519-4ab0-9006-c473f9f66e37","resource":{"resourceType":"Organization","id":"880a275e-1cf2-4fb9-869b-f1d2173fdc2b","meta":{"profile":["http://hl7.org/fhir/us/qicore/StructureDefinition/qicore-organization"]},"identifier":[{"use":"temp","system":"urn:oid:2.16.840.1.113883.4.4","value":"21-3259825"}],"active":true,"type":[{"coding":[{"system":"http://terminology.hl7.org/CodeSystem/organization-type","code":"pay","display":"Payer"}]}],"name":"Blue Cross Blue Shield of Texas","telecom":[{"system":"phone","value":"(+1) 972-766-6900"}],"address":[{"use":"billing","type":"postal","line":["P.O. Box 660044"],"city":"Dallas","state":"TX","postalCode":"75266-0044","country":"USA"}]},"request":{"method":"PUT","url":"Organization/880a275e-1cf2-4fb9-869b-f1d2173fdc2b"}},{"fullUrl":"https://madie.cms.gov/Practitioner/23673b57-7809-4cd6-ac16-ed29da821233","resource":{"resourceType":"Practitioner","id":"23673b57-7809-4cd6-ac16-ed29da821233","meta":{"profile":["http://hl7.org/fhir/us/qicore/StructureDefinition/qicore-practitioner"]},"identifier":[{"system":"http://hl7.org/fhir/sid/us-npi","value":"123456"}],"name":[{"family":"Evil","prefix":["Dr"]}]},"request":{"method":"PUT","url":"Practitioner/23673b57-7809-4cd6-ac16-ed29da821233"}},{"fullUrl":"https://madie.cms.gov/MeasureReport/1d1d3244-962d-4162-92b5-b0ffcd375db4","resource":{"resourceType":"MeasureReport","id":"1d1d3244-962d-4162-92b5-b0ffcd375db4","meta":{"profile":["http://hl7.org/fhir/us/cqfmeasures/StructureDefinition/test-case-cqfm"]},"contained":[{"resourceType":"Parameters","id":"ca564dfb-75fa-4cca-a684-a20642fa0b33-parameters","parameter":[{"name":"subject","valueString":"35bfcfd8-c661-4b4b-8a57-6df87f97da37"}]}],"extension":[{"url":"http://hl7.org/fhir/us/cqfmeasures/StructureDefinition/cqfm-inputParameters","valueReference":{"reference":"#ca564dfb-75fa-4cca-a684-a20642fa0b33-parameters"}},{"url":"http://hl7.org/fhir/us/cqfmeasures/StructureDefinition/cqfm-testCaseDescription","valueMarkdown":"Enc first day of MP (7/1), lab and exams occurred 1 minute after admission"}],"modifierExtension":[{"url":"http://hl7.org/fhir/us/cqfmeasures/StructureDefinition/cqfm-isTestCase","valueBoolean":true}],"status":"complete","type":"individual","measure":"https://madie.cms.gov/Measure/CMSFHIR844HybridHospitalWideMortality","period":{"start":"2026-07-01","end":"2027-06-30"},"group":[{"population":[{"code":{"coding":[{"system":"http://terminology.hl7.org/CodeSystem/measure-population","code":"initial-population","display":"Initial Population"}]},"count":1}]}]},"request":{"method":"PUT","url":"MeasureReport/1d1d3244-962d-4162-92b5-b0ffcd375db4"}}]}