{"resourceType":"Bundle","id":"tests-dbc046b4-83e5-41d8-8e5a-e3b9a5022a79-bundle","type":"transaction","entry":[{"fullUrl":"https://madie.cms.gov/Patient/dbc046b4-83e5-41d8-8e5a-e3b9a5022a79","resource":{"resourceType":"Patient","id":"dbc046b4-83e5-41d8-8e5a-e3b9a5022a79","meta":{"profile":["http://hl7.org/fhir/us/qicore/StructureDefinition/qicore-patient"]},"text":{"status":"generated","div":"<div xmlns=\"http://www.w3.org/1999/xhtml\"><div class=\"hapiHeaderText\">24After <b>PLATELETPASS </b></div><table class=\"hapiPropertyTable\"><tbody><tr><td>Identifier</td><td>3fdea26b1d172050afffe1c0ff7bd899faa0bd0df7d367f433ae26111f27549c</td></tr><tr><td>Date of birth</td><td><span>15 June 1956</span></td></tr></tbody></table></div>"},"extension":[{"url":"http://hl7.org/fhir/us/core/StructureDefinition/us-core-race","extension":[{"url":"ombCategory","valueCoding":{"system":"urn:oid:2.16.840.1.113883.6.238","code":"1002-5","display":"American Indian or Alaska Native","userSelected":true}},{"url":"text","valueString":"American Indian or Alaska Native"}]},{"url":"http://hl7.org/fhir/us/core/StructureDefinition/us-core-ethnicity","extension":[{"url":"ombCategory","valueCoding":{"system":"urn:oid:2.16.840.1.113883.6.238","code":"2186-5","display":"Not Hispanic or Latino","userSelected":true}},{"url":"text","valueString":"Not Hispanic or Latino"}]}],"identifier":[{"type":{"coding":[{"system":"http://terminology.hl7.org/CodeSystem/v2-0203","code":"MR"}]},"system":"https://bonnie-fhir.healthit.gov/","value":"63ec0969ccb3770120fe9ec7"}],"active":true,"name":[{"use":"usual","family":"PlateletFail","given":["224Hrs1MinAfterStartOfAdmission"]}],"gender":"male","birthDate":"1961-07-01"},"request":{"method":"PUT","url":"Patient/dbc046b4-83e5-41d8-8e5a-e3b9a5022a79"}},{"fullUrl":"https://madie.cms.gov/Encounter/7f498b4b-7853-4d14-9e58-4e4749b3abbe","resource":{"resourceType":"Encounter","id":"7f498b4b-7853-4d14-9e58-4e4749b3abbe","meta":{"profile":["http://hl7.org/fhir/us/qicore/StructureDefinition/qicore-encounter"]},"status":"finished","class":{"system":"http://terminology.hl7.org/CodeSystem/v3-ActCode","code":"IMP","display":"inpatient encounter","userSelected":true},"type":[{"coding":[{"system":"http://snomed.info/sct","code":"183452005","display":"Emergency hospital admission (procedure)"}]}],"subject":{"reference":"Patient/dbc046b4-83e5-41d8-8e5a-e3b9a5022a79"},"period":{"start":"2026-07-01T08:00:00.000+00:00","end":"2026-07-03T11:15:00.000+00:00"},"length":{"value":2.0,"unit":"days"}},"request":{"method":"PUT","url":"Encounter/7f498b4b-7853-4d14-9e58-4e4749b3abbe"}},{"fullUrl":"https://madie.cms.gov/Coverage/0a4fbb28-90fc-4fd6-951d-42c97a4dbbd1","resource":{"resourceType":"Coverage","id":"0a4fbb28-90fc-4fd6-951d-42c97a4dbbd1","meta":{"profile":["http://hl7.org/fhir/us/qicore/StructureDefinition/qicore-coverage"]},"status":"active","type":{"coding":[{"system":"https://nahdo.org/sopt","version":"1.0.1","code":"1","display":"Medicare payer","userSelected":true}]},"beneficiary":{"reference":"Patient/dbc046b4-83e5-41d8-8e5a-e3b9a5022a79"},"payor":[{"reference":"Organization/880a275e-1cf2-4fb9-869b-f1d2173fdc2b"}]},"request":{"method":"PUT","url":"Coverage/0a4fbb28-90fc-4fd6-951d-42c97a4dbbd1"}},{"fullUrl":"https://madie.cms.gov/Observation/8bdca37f-6812-4e63-90ec-ecfc13e1be0e","resource":{"resourceType":"Observation","id":"8bdca37f-6812-4e63-90ec-ecfc13e1be0e","meta":{"profile":["http://hl7.org/fhir/us/core/StructureDefinition/us-core-observation-lab"]},"status":"final","category":[{"coding":[{"system":"http://terminology.hl7.org/CodeSystem/observation-category","code":"laboratory","display":"Laboratory","userSelected":true}]}],"code":{"coding":[{"system":"http://loinc.org","code":"13056-7","display":"Platelets [#/volume] in Plasma by Automated count"}]},"subject":{"reference":"Patient/dbc046b4-83e5-41d8-8e5a-e3b9a5022a79"},"effectiveDateTime":"2026-07-02T08:01:00.000+00:00","issued":"2026-07-02T08:01:00.000+00:00","valueQuantity":{"value":150000,"unit":"/uL","system":"http://unitsofmeasure.org","code":"/uL"}},"request":{"method":"PUT","url":"Observation/8bdca37f-6812-4e63-90ec-ecfc13e1be0e"}},{"fullUrl":"https://madie.cms.gov/Organization/65f271ea-fdeb-4e91-859b-2cd1b3da5792","resource":{"resourceType":"Organization","id":"880a275e-1cf2-4fb9-869b-f1d2173fdc2b","meta":{"profile":["http://hl7.org/fhir/us/qicore/StructureDefinition/qicore-organization"]},"identifier":[{"use":"temp","system":"urn:oid:2.16.840.1.113883.4.4","value":"21-3259825"}],"active":true,"type":[{"coding":[{"system":"http://terminology.hl7.org/CodeSystem/organization-type","code":"pay","display":"Payer"}]}],"name":"Blue Cross Blue Shield of Texas","telecom":[{"system":"phone","value":"(+1) 972-766-6900"}],"address":[{"use":"billing","type":"postal","line":["P.O. Box 660044"],"city":"Dallas","state":"TX","postalCode":"75266-0044","country":"USA"}]},"request":{"method":"PUT","url":"Organization/880a275e-1cf2-4fb9-869b-f1d2173fdc2b"}},{"fullUrl":"https://madie.cms.gov/Practitioner/bc2ebf47-7871-43c8-9a6b-8edea00ce5d2","resource":{"resourceType":"Practitioner","id":"bc2ebf47-7871-43c8-9a6b-8edea00ce5d2","meta":{"profile":["http://hl7.org/fhir/us/qicore/StructureDefinition/qicore-practitioner"]},"identifier":[{"system":"http://hl7.org/fhir/sid/us-npi","value":"123456"}],"name":[{"family":"Evil","prefix":["Dr"]}]},"request":{"method":"PUT","url":"Practitioner/bc2ebf47-7871-43c8-9a6b-8edea00ce5d2"}},{"fullUrl":"https://madie.cms.gov/MeasureReport/4c0b4831-a548-4de9-b2c6-346f346d8e4c","resource":{"resourceType":"MeasureReport","id":"4c0b4831-a548-4de9-b2c6-346f346d8e4c","meta":{"profile":["http://hl7.org/fhir/us/cqfmeasures/StructureDefinition/test-case-cqfm"]},"contained":[{"resourceType":"Parameters","id":"4db6bdf9-ebfe-42b8-a1b7-88b1ac84bf12-parameters","parameter":[{"name":"subject","valueString":"dbc046b4-83e5-41d8-8e5a-e3b9a5022a79"}]}],"extension":[{"url":"http://hl7.org/fhir/us/cqfmeasures/StructureDefinition/cqfm-inputParameters","valueReference":{"reference":"#4db6bdf9-ebfe-42b8-a1b7-88b1ac84bf12-parameters"}},{"url":"http://hl7.org/fhir/us/cqfmeasures/StructureDefinition/cqfm-testCaseDescription","valueMarkdown":"Enc. starts first day of MP (7/1), age 65 today, has Medicare, platelet test 24 hrs 1 min after start of admission which exceeds the timeframe"}],"modifierExtension":[{"url":"http://hl7.org/fhir/us/cqfmeasures/StructureDefinition/cqfm-isTestCase","valueBoolean":true}],"status":"complete","type":"individual","measure":"https://madie.cms.gov/Measure/CMSFHIR844HybridHospitalWideMortality","period":{"start":"2026-07-01","end":"2027-06-30"},"group":[{"population":[{"code":{"coding":[{"system":"http://terminology.hl7.org/CodeSystem/measure-population","code":"initial-population","display":"Initial Population"}]},"count":1}]}]},"request":{"method":"PUT","url":"MeasureReport/4c0b4831-a548-4de9-b2c6-346f346d8e4c"}}]}