{"resourceType":"Bundle","id":"tests-73b803bf-207c-411d-8db3-01908e5d9dda-bundle","type":"transaction","entry":[{"fullUrl":"https://madie.cms.gov/Patient/73b803bf-207c-411d-8db3-01908e5d9dda","resource":{"resourceType":"Patient","id":"73b803bf-207c-411d-8db3-01908e5d9dda","meta":{"profile":["http://hl7.org/fhir/us/qicore/StructureDefinition/qicore-patient"]},"text":{"status":"generated","div":"<div xmlns=\"http://www.w3.org/1999/xhtml\"><div class=\"hapiHeaderText\">LT24beforeAndLT2after <b>WBCPASS </b></div><table class=\"hapiPropertyTable\"><tbody><tr><td>Identifier</td><td>02a3c13b70ccf5a73b893e80582952bdd83e9cabbf053902bb5eb341874dc5ec</td></tr><tr><td>Date of birth</td><td><span>15 June 1956</span></td></tr></tbody></table></div>"},"extension":[{"url":"http://hl7.org/fhir/us/core/StructureDefinition/us-core-race","extension":[{"url":"ombCategory","valueCoding":{"system":"urn:oid:2.16.840.1.113883.6.238","code":"1002-5","display":"American Indian or Alaska Native","userSelected":true}},{"url":"text","valueString":"American Indian or Alaska Native"}]},{"url":"http://hl7.org/fhir/us/core/StructureDefinition/us-core-ethnicity","extension":[{"url":"ombCategory","valueCoding":{"system":"urn:oid:2.16.840.1.113883.6.238","code":"2186-5","display":"Not Hispanic or Latino","userSelected":true}},{"url":"text","valueString":"Not Hispanic or Latino"}]}],"identifier":[{"type":{"coding":[{"system":"http://terminology.hl7.org/CodeSystem/v2-0203","code":"MR"}]},"system":"https://bonnie-fhir.healthit.gov/","value":"63ec096accb3770120fe9fa2"}],"active":true,"name":[{"use":"usual","family":"WhiteBloodCellPass","given":["OneHourAfterAdmission"]}],"gender":"male","birthDate":"1960-07-01"},"request":{"method":"PUT","url":"Patient/73b803bf-207c-411d-8db3-01908e5d9dda"}},{"fullUrl":"https://madie.cms.gov/Encounter/02f4f641-f629-4b74-848a-be5caf06da6d","resource":{"resourceType":"Encounter","id":"02f4f641-f629-4b74-848a-be5caf06da6d","meta":{"profile":["http://hl7.org/fhir/us/qicore/StructureDefinition/qicore-encounter"]},"status":"finished","class":{"system":"http://terminology.hl7.org/CodeSystem/v3-ActCode","code":"IMP","display":"inpatient encounter","userSelected":true},"type":[{"coding":[{"system":"http://snomed.info/sct","code":"183452005"}]}],"subject":{"reference":"Patient/73b803bf-207c-411d-8db3-01908e5d9dda"},"period":{"start":"2026-07-01T08:00:00.000+00:00","end":"2026-07-03T23:59:00.000+00:00"},"length":{"value":1,"unit":"days"}},"request":{"method":"PUT","url":"Encounter/02f4f641-f629-4b74-848a-be5caf06da6d"}},{"fullUrl":"https://madie.cms.gov/Coverage/fe465539-fd43-485a-9a18-2bec7ad9ca1f","resource":{"resourceType":"Coverage","id":"fe465539-fd43-485a-9a18-2bec7ad9ca1f","meta":{"profile":["http://hl7.org/fhir/us/qicore/StructureDefinition/qicore-coverage"]},"status":"active","type":{"coding":[{"system":"https://nahdo.org/sopt","version":"1.0.1","code":"1","display":"Medicare payer","userSelected":true}]},"beneficiary":{"reference":"Patient/73b803bf-207c-411d-8db3-01908e5d9dda"},"payor":[{"reference":"Organization/5ad6ea38-07e9-4482-9e1b-c09eee595be9"}]},"request":{"method":"PUT","url":"Coverage/fe465539-fd43-485a-9a18-2bec7ad9ca1f"}},{"fullUrl":"https://madie.cms.gov/Observation/da923edb-d24a-4218-b48e-3a69aa1a21cd","resource":{"resourceType":"Observation","id":"da923edb-d24a-4218-b48e-3a69aa1a21cd","meta":{"profile":["http://hl7.org/fhir/us/core/StructureDefinition/us-core-observation-lab"]},"status":"amended","category":[{"coding":[{"system":"http://terminology.hl7.org/CodeSystem/observation-category","code":"laboratory","display":"laboratory","userSelected":true}]}],"code":{"coding":[{"system":"http://loinc.org","code":"26464-8","display":"Leukocytes [#/volume] in Blood"}]},"subject":{"reference":"Patient/73b803bf-207c-411d-8db3-01908e5d9dda"},"effectiveDateTime":"2026-07-01T08:09:01.000+00:00","issued":"2026-07-01T08:09:00.000+00:00","valueQuantity":{"value":4500,"unit":"uL","system":"http://unitsofmeasure.org","code":"uL"}},"request":{"method":"PUT","url":"Observation/da923edb-d24a-4218-b48e-3a69aa1a21cd"}},{"fullUrl":"https://madie.cms.gov/Observation/36336353-81a2-451d-8b7f-0a3d04fd416b","resource":{"resourceType":"Observation","id":"36336353-81a2-451d-8b7f-0a3d04fd416b","meta":{"profile":["http://hl7.org/fhir/us/core/StructureDefinition/us-core-observation-lab"]},"status":"final","category":[{"coding":[{"system":"http://terminology.hl7.org/CodeSystem/observation-category","code":"laboratory","display":"laboratory","userSelected":true}]}],"code":{"coding":[{"system":"http://loinc.org","code":"26464-8","display":"Leukocytes [#/volume] in Blood"}]},"subject":{"reference":"Patient/73b803bf-207c-411d-8db3-01908e5d9dda"},"issued":"2026-07-02T08:00:00.000+00:00","valueQuantity":{"value":5000,"unit":"uL","system":"http://unitsofmeasure.org","code":"uL"}},"request":{"method":"PUT","url":"Observation/36336353-81a2-451d-8b7f-0a3d04fd416b"}},{"fullUrl":"https://madie.cms.gov/Organization/80a78e0c-efb5-42e6-82ea-2d0358415b7c","resource":{"resourceType":"Organization","id":"5ad6ea38-07e9-4482-9e1b-c09eee595be9","meta":{"profile":["http://hl7.org/fhir/us/qicore/StructureDefinition/qicore-organization"]},"identifier":[{"use":"temp","system":"urn:oid:2.16.840.1.113883.4.4","value":"21-3259825"}],"active":true,"type":[{"coding":[{"system":"http://terminology.hl7.org/CodeSystem/organization-type","code":"pay","display":"Payer"}]}],"name":"Blue Cross Blue Shield of Texas","telecom":[{"system":"phone","value":"(+1) 972-766-6900"}],"address":[{"use":"billing","type":"postal","line":["P.O. Box 660044"],"city":"Dallas","state":"TX","postalCode":"75266-0044","country":"USA"}]},"request":{"method":"PUT","url":"Organization/5ad6ea38-07e9-4482-9e1b-c09eee595be9"}},{"fullUrl":"https://madie.cms.gov/Practitioner/199f0a5b-b31f-408d-8e59-b6e4b7d984e5","resource":{"resourceType":"Practitioner","id":"199f0a5b-b31f-408d-8e59-b6e4b7d984e5","meta":{"profile":["http://hl7.org/fhir/us/qicore/StructureDefinition/qicore-practitioner"]},"identifier":[{"system":"http://hl7.org/fhir/sid/us-npi","value":"123456"}],"name":[{"family":"Evil","prefix":["Dr"]}]},"request":{"method":"PUT","url":"Practitioner/199f0a5b-b31f-408d-8e59-b6e4b7d984e5"}},{"fullUrl":"https://madie.cms.gov/MeasureReport/ed4b8b3a-ca87-4612-8fd2-8cf10babfc03","resource":{"resourceType":"MeasureReport","id":"ed4b8b3a-ca87-4612-8fd2-8cf10babfc03","meta":{"profile":["http://hl7.org/fhir/us/cqfmeasures/StructureDefinition/test-case-cqfm"]},"contained":[{"resourceType":"Parameters","id":"c883f93c-0082-4fe5-be57-9a34f4f3664a-parameters","parameter":[{"name":"subject","valueString":"73b803bf-207c-411d-8db3-01908e5d9dda"}]}],"extension":[{"url":"http://hl7.org/fhir/us/cqfmeasures/StructureDefinition/cqfm-inputParameters","valueReference":{"reference":"#c883f93c-0082-4fe5-be57-9a34f4f3664a-parameters"}},{"url":"http://hl7.org/fhir/us/cqfmeasures/StructureDefinition/cqfm-testCaseDescription","valueMarkdown":"Enc first day of MP (7/1) WBC were evaluated 1 hr and 24 hours after admission  "}],"modifierExtension":[{"url":"http://hl7.org/fhir/us/cqfmeasures/StructureDefinition/cqfm-isTestCase","valueBoolean":true}],"status":"complete","type":"individual","measure":"https://madie.cms.gov/Measure/CMSFHIR844HybridHospitalWideMortality","period":{"start":"2026-07-01","end":"2027-06-30"},"group":[{"population":[{"code":{"coding":[{"system":"http://terminology.hl7.org/CodeSystem/measure-population","code":"initial-population","display":"Initial Population"}]},"count":1}]}]},"request":{"method":"PUT","url":"MeasureReport/ed4b8b3a-ca87-4612-8fd2-8cf10babfc03"}}]}