{"resourceType":"Bundle","id":"tests-d899eebd-1919-4fd6-aad4-8fb2fd07b243-bundle","type":"transaction","entry":[{"fullUrl":"https://madie.cms.gov/Patient/d899eebd-1919-4fd6-aad4-8fb2fd07b243","resource":{"resourceType":"Patient","id":"d899eebd-1919-4fd6-aad4-8fb2fd07b243","meta":{"profile":["http://hl7.org/fhir/us/qicore/StructureDefinition/qicore-patient"]},"text":{"status":"generated","div":"<div xmlns=\"http://www.w3.org/1999/xhtml\"><div class=\"hapiHeaderText\">NoEncInMP <b>IPFAIL </b></div><table class=\"hapiPropertyTable\"><tbody><tr><td>Identifier</td><td>43710ea259bfa3f092c118cedbbbfe284cbf8380fd20b162eb61108ed792cd13</td></tr><tr><td>Date of birth</td><td><span>15 June 1956</span></td></tr></tbody></table></div>"},"extension":[{"url":"http://hl7.org/fhir/us/core/StructureDefinition/us-core-race","extension":[{"url":"ombCategory","valueCoding":{"system":"urn:oid:2.16.840.1.113883.6.238","code":"2106-3","display":"White","userSelected":true}},{"url":"text","valueString":"White"}]},{"url":"http://hl7.org/fhir/us/core/StructureDefinition/us-core-ethnicity","extension":[{"url":"ombCategory","valueCoding":{"system":"urn:oid:2.16.840.1.113883.6.238","code":"2186-5","display":"Not Hispanic or Latino","userSelected":true}},{"url":"text","valueString":"Not Hispanic or Latino"}]}],"identifier":[{"type":{"coding":[{"system":"http://terminology.hl7.org/CodeSystem/v2-0203","code":"MR"}]},"system":"https://bonnie-fhir.healthit.gov/","value":"63ec096eccb3770120fea3dc"}],"active":true,"name":[{"use":"usual","family":"IPFail","given":["NoEncounter"]}],"gender":"unknown","birthDate":"1957-06-15"},"request":{"method":"PUT","url":"Patient/d899eebd-1919-4fd6-aad4-8fb2fd07b243"}},{"fullUrl":"https://madie.cms.gov/Coverage/2444e380-079b-4ed2-8341-44203fff8baf","resource":{"resourceType":"Coverage","id":"2444e380-079b-4ed2-8341-44203fff8baf","meta":{"profile":["http://hl7.org/fhir/us/qicore/StructureDefinition/qicore-coverage"]},"status":"active","type":{"coding":[{"system":"https://nahdo.org/sopt","version":"9.2","code":"1","display":"MEDICARE","userSelected":true}]},"beneficiary":{"reference":"Patient/d899eebd-1919-4fd6-aad4-8fb2fd07b243"},"payor":[{"reference":"Organization/a6c3e6fa-301e-4714-9d04-3dde9a7e7c49"}]},"request":{"method":"PUT","url":"Coverage/2444e380-079b-4ed2-8341-44203fff8baf"}},{"fullUrl":"https://madie.cms.gov/Organization/76ff2048-f0f9-4159-88b7-25956b62566d","resource":{"resourceType":"Organization","id":"a6c3e6fa-301e-4714-9d04-3dde9a7e7c49","meta":{"profile":["http://hl7.org/fhir/us/qicore/StructureDefinition/qicore-organization"]},"identifier":[{"use":"temp","system":"urn:oid:2.16.840.1.113883.4.4","value":"21-3259825"}],"active":true,"type":[{"coding":[{"system":"http://terminology.hl7.org/CodeSystem/organization-type","code":"pay","display":"Payer"}]}],"name":"Blue Cross Blue Shield of Texas","telecom":[{"system":"phone","value":"(+1) 972-766-6900"}],"address":[{"use":"billing","type":"postal","line":["P.O. Box 660044"],"city":"Dallas","state":"TX","postalCode":"75266-0044","country":"USA"}]},"request":{"method":"PUT","url":"Organization/a6c3e6fa-301e-4714-9d04-3dde9a7e7c49"}},{"fullUrl":"https://madie.cms.gov/Practitioner/b3fc28b8-dbf1-43b1-af25-89d18cf1c4b9","resource":{"resourceType":"Practitioner","id":"b3fc28b8-dbf1-43b1-af25-89d18cf1c4b9","meta":{"profile":["http://hl7.org/fhir/us/qicore/StructureDefinition/qicore-practitioner"]},"identifier":[{"system":"http://hl7.org/fhir/sid/us-npi","value":"123456"}],"name":[{"family":"Evil","prefix":["Dr"]}]},"request":{"method":"PUT","url":"Practitioner/b3fc28b8-dbf1-43b1-af25-89d18cf1c4b9"}},{"fullUrl":"https://madie.cms.gov/MeasureReport/b54067f0-1daa-4395-88d9-809be6c0f817","resource":{"resourceType":"MeasureReport","id":"b54067f0-1daa-4395-88d9-809be6c0f817","meta":{"profile":["http://hl7.org/fhir/us/cqfmeasures/StructureDefinition/test-case-cqfm"]},"contained":[{"resourceType":"Parameters","id":"3a0c0232-57bf-4204-a249-64ca39ab4812-parameters","parameter":[{"name":"subject","valueString":"d899eebd-1919-4fd6-aad4-8fb2fd07b243"}]}],"extension":[{"url":"http://hl7.org/fhir/us/cqfmeasures/StructureDefinition/cqfm-inputParameters","valueReference":{"reference":"#3a0c0232-57bf-4204-a249-64ca39ab4812-parameters"}},{"url":"http://hl7.org/fhir/us/cqfmeasures/StructureDefinition/cqfm-testCaseDescription","valueMarkdown":"No encounter but has Medicare; gender = unknown\n"}],"modifierExtension":[{"url":"http://hl7.org/fhir/us/cqfmeasures/StructureDefinition/cqfm-isTestCase","valueBoolean":true}],"status":"complete","type":"individual","measure":"https://madie.cms.gov/Measure/CMSFHIR844HybridHospitalWideMortality","period":{"start":"2026-07-01","end":"2027-06-30"},"group":[{"population":[{"code":{"coding":[{"system":"http://terminology.hl7.org/CodeSystem/measure-population","code":"initial-population","display":"Initial Population"}]},"count":0}]}]},"request":{"method":"PUT","url":"MeasureReport/b54067f0-1daa-4395-88d9-809be6c0f817"}}]}