{"resourceType":"Bundle","id":"tests-af1b9448-3e7a-4b7f-8934-15bb63258b75-bundle","type":"transaction","entry":[{"fullUrl":"https://madie.cms.gov/Patient/af1b9448-3e7a-4b7f-8934-15bb63258b75","resource":{"resourceType":"Patient","id":"af1b9448-3e7a-4b7f-8934-15bb63258b75","meta":{"profile":["http://hl7.org/fhir/us/qicore/StructureDefinition/qicore-patient"]},"text":{"status":"generated","div":"<div xmlns=\"http://www.w3.org/1999/xhtml\"><div class=\"hapiHeaderText\">LTE24before <b>BICARBPASS </b></div><table class=\"hapiPropertyTable\"><tbody><tr><td>Identifier</td><td>d69abbc179641b9cd673a4a9152886e8e63bc2e0e7b27e1a51505ef2a774679e</td></tr><tr><td>Date of birth</td><td><span>15 June 1956</span></td></tr></tbody></table></div>"},"extension":[{"url":"http://hl7.org/fhir/us/core/StructureDefinition/us-core-race","extension":[{"url":"ombCategory","valueCoding":{"system":"urn:oid:2.16.840.1.113883.6.238","code":"1002-5","display":"American Indian or Alaska Native","userSelected":true}},{"url":"text","valueString":"American Indian or Alaska Native"}]},{"url":"http://hl7.org/fhir/us/core/StructureDefinition/us-core-ethnicity","extension":[{"url":"ombCategory","valueCoding":{"system":"urn:oid:2.16.840.1.113883.6.238","code":"2186-5","display":"Not Hispanic or Latino","userSelected":true}},{"url":"text","valueString":"Not Hispanic or Latino"}]}],"identifier":[{"type":{"coding":[{"system":"http://terminology.hl7.org/CodeSystem/v2-0203","code":"MR"}]},"system":"https://bonnie-fhir.healthit.gov/","value":"63f3a249ccb3770120ffe6eb"}],"active":true,"name":[{"use":"usual","family":"BicarbonatePass","given":["24HourAfterStartOfAdmit"]}],"gender":"male","birthDate":"1961-07-01"},"request":{"method":"PUT","url":"Patient/af1b9448-3e7a-4b7f-8934-15bb63258b75"}},{"fullUrl":"https://madie.cms.gov/Encounter/b8e1e241-9fae-4651-b9cd-220055e7b0f4","resource":{"resourceType":"Encounter","id":"b8e1e241-9fae-4651-b9cd-220055e7b0f4","meta":{"profile":["http://hl7.org/fhir/us/qicore/StructureDefinition/qicore-encounter"]},"status":"finished","class":{"system":"http://terminology.hl7.org/CodeSystem/v3-ActCode","code":"IMP","display":"inpatient encounter","userSelected":true},"type":[{"coding":[{"system":"http://snomed.info/sct","code":"183452005"}]}],"subject":{"reference":"Patient/af1b9448-3e7a-4b7f-8934-15bb63258b75"},"period":{"start":"2026-07-01T08:00:00.000+00:00","end":"2026-07-03T08:15:00.000+00:00"}},"request":{"method":"PUT","url":"Encounter/b8e1e241-9fae-4651-b9cd-220055e7b0f4"}},{"fullUrl":"https://madie.cms.gov/Encounter/b8e1e241-9fae-4651-b9cd-220055e7b0f41","resource":{"resourceType":"Encounter","id":"b18fbf66-493d-47b5-b01f-f77cef4cf256","meta":{"profile":["http://hl7.org/fhir/us/qicore/StructureDefinition/qicore-encounter"]},"status":"finished","class":{"system":"http://terminology.hl7.org/CodeSystem/v3-ActCode","code":"IMP","display":"inpatient encounter","userSelected":true},"type":[{"coding":[{"system":"http://snomed.info/sct","code":"183452005"}]}],"subject":{"reference":"Patient/af1b9448-3e7a-4b7f-8934-15bb63258b75"},"period":{"start":"2027-01-01T08:00:00.000+00:00","end":"2027-01-03T08:15:00.000+00:00"}},"request":{"method":"PUT","url":"Encounter/b18fbf66-493d-47b5-b01f-f77cef4cf256"}},{"fullUrl":"https://madie.cms.gov/Coverage/e4e56e4c-04ae-42b7-8922-17ece5363e99","resource":{"resourceType":"Coverage","id":"e4e56e4c-04ae-42b7-8922-17ece5363e99","meta":{"profile":["http://hl7.org/fhir/us/qicore/StructureDefinition/qicore-coverage"]},"status":"active","type":{"coding":[{"system":"https://nahdo.org/sopt","version":"1.0.1","code":"1","display":"Medicare payer","userSelected":true}]},"beneficiary":{"reference":"Patient/af1b9448-3e7a-4b7f-8934-15bb63258b75"},"period":{"start":"2026-01-01T08:00:00.000+00:00","end":"2026-12-31T08:15:00.000+00:00"},"payor":[{"reference":"Organization/aeb2c6be-6577-4bba-a6b6-6eab95111f1b"}]},"request":{"method":"PUT","url":"Coverage/e4e56e4c-04ae-42b7-8922-17ece5363e99"}},{"fullUrl":"https://madie.cms.gov/Observation/84df470f-9d2e-40b6-9623-80ddbe57263c","resource":{"resourceType":"Observation","id":"84df470f-9d2e-40b6-9623-80ddbe57263c","meta":{"profile":["http://hl7.org/fhir/us/core/StructureDefinition/us-core-observation-lab"]},"status":"final","category":[{"coding":[{"system":"http://terminology.hl7.org/CodeSystem/observation-category","code":"laboratory","display":"laboratory","userSelected":true}]}],"code":{"coding":[{"system":"http://loinc.org","code":"14627-4","display":"Bicarbonate [Moles/volume] in Venous blood"}]},"subject":{"reference":"Patient/af1b9448-3e7a-4b7f-8934-15bb63258b75"},"effectiveDateTime":"2026-07-02T08:00:00.000+00:00","issued":"2026-07-02T08:00:00.000+00:00","valueQuantity":{"value":25,"unit":"mmol/L","system":"http://unitsofmeasure.org","code":"mg/dL"}},"request":{"method":"PUT","url":"Observation/84df470f-9d2e-40b6-9623-80ddbe57263c"}},{"fullUrl":"https://madie.cms.gov/Observation/84df470f-9d2e-40b6-9623-80ddbe57263c1","resource":{"resourceType":"Observation","id":"85ce94ea-54f9-46cd-bfad-9ec477243659","meta":{"profile":["http://hl7.org/fhir/us/core/StructureDefinition/us-core-observation-lab"]},"status":"final","category":[{"coding":[{"system":"http://terminology.hl7.org/CodeSystem/observation-category","code":"laboratory","display":"laboratory","userSelected":true}]}],"code":{"coding":[{"system":"http://loinc.org","code":"14627-4","display":"Bicarbonate [Moles/volume] in Venous blood"}]},"subject":{"reference":"Patient/af1b9448-3e7a-4b7f-8934-15bb63258b75"},"effectiveDateTime":"2027-01-01T08:00:00.000+00:00","issued":"2027-01-01T08:00:00.000+00:00","valueQuantity":{"value":28,"unit":"mmol/L","system":"http://unitsofmeasure.org","code":"mg/dL"}},"request":{"method":"PUT","url":"Observation/85ce94ea-54f9-46cd-bfad-9ec477243659"}},{"fullUrl":"https://madie.cms.gov/Organization/e0f7c1c2-b9eb-463c-a2f5-d3118125d5cf","resource":{"resourceType":"Organization","id":"aeb2c6be-6577-4bba-a6b6-6eab95111f1b","meta":{"profile":["http://hl7.org/fhir/us/qicore/StructureDefinition/qicore-organization"]},"identifier":[{"use":"temp","system":"urn:oid:2.16.840.1.113883.4.4","value":"21-3259825"}],"active":true,"type":[{"coding":[{"system":"http://terminology.hl7.org/CodeSystem/organization-type","code":"pay","display":"Payer"}]}],"name":"Blue Cross Blue Shield of Texas","telecom":[{"system":"phone","value":"(+1) 972-766-6900"}],"address":[{"use":"billing","type":"postal","line":["P.O. Box 660044"],"city":"Dallas","state":"TX","postalCode":"75266-0044","country":"USA"}]},"request":{"method":"PUT","url":"Organization/aeb2c6be-6577-4bba-a6b6-6eab95111f1b"}},{"fullUrl":"https://madie.cms.gov/Practitioner/b071ed40-1f89-46da-8641-ee3e14531c99","resource":{"resourceType":"Practitioner","id":"b071ed40-1f89-46da-8641-ee3e14531c99","meta":{"profile":["http://hl7.org/fhir/us/qicore/StructureDefinition/qicore-practitioner"]},"identifier":[{"system":"http://hl7.org/fhir/sid/us-npi","value":"123456"}],"name":[{"family":"Evil","prefix":["Dr"]}]},"request":{"method":"PUT","url":"Practitioner/b071ed40-1f89-46da-8641-ee3e14531c99"}},{"fullUrl":"https://madie.cms.gov/MeasureReport/1be0874b-073a-44b3-a1f9-fe1e09ff0cf8","resource":{"resourceType":"MeasureReport","id":"1be0874b-073a-44b3-a1f9-fe1e09ff0cf8","meta":{"profile":["http://hl7.org/fhir/us/cqfmeasures/StructureDefinition/test-case-cqfm"]},"contained":[{"resourceType":"Parameters","id":"1e8a1561-322e-4669-b4dc-d1a539cb509d-parameters","parameter":[{"name":"subject","valueString":"af1b9448-3e7a-4b7f-8934-15bb63258b75"}]}],"extension":[{"url":"http://hl7.org/fhir/us/cqfmeasures/StructureDefinition/cqfm-inputParameters","valueReference":{"reference":"#1e8a1561-322e-4669-b4dc-d1a539cb509d-parameters"}},{"url":"http://hl7.org/fhir/us/cqfmeasures/StructureDefinition/cqfm-testCaseDescription","valueMarkdown":"Enc 1 first day of MP bircarbonate 25 mmol/L 24 hrs after admission\nEnc 2 first day of MP bircarbonate 28 mmol/L at admission"}],"modifierExtension":[{"url":"http://hl7.org/fhir/us/cqfmeasures/StructureDefinition/cqfm-isTestCase","valueBoolean":true}],"status":"complete","type":"individual","measure":"https://madie.cms.gov/Measure/CMSFHIR844HybridHospitalWideMortality","period":{"start":"2026-07-01","end":"2027-06-30"},"group":[{"population":[{"code":{"coding":[{"system":"http://terminology.hl7.org/CodeSystem/measure-population","code":"initial-population","display":"Initial Population"}]},"count":2}]}]},"request":{"method":"PUT","url":"MeasureReport/1be0874b-073a-44b3-a1f9-fe1e09ff0cf8"}}]}