{"resourceType":"Bundle","id":"tests-60b3c46c-421e-401a-874b-a9deada38081-bundle","type":"transaction","entry":[{"fullUrl":"https://madie.cms.gov/Patient/60b3c46c-421e-401a-874b-a9deada38081","resource":{"resourceType":"Patient","id":"60b3c46c-421e-401a-874b-a9deada38081","meta":{"profile":["http://hl7.org/fhir/us/qicore/StructureDefinition/qicore-patient"]},"text":{"status":"generated","div":"<div xmlns=\"http://www.w3.org/1999/xhtml\"><div class=\"hapiHeaderText\">LT2after <b>SODIUMPASS </b></div><table class=\"hapiPropertyTable\"><tbody><tr><td>Identifier</td><td>d4e3b34860364263302d53f5aee51bce780068433d224144226a0193b20c9a22</td></tr><tr><td>Date of birth</td><td><span>21 June 1947</span></td></tr></tbody></table></div>"},"extension":[{"url":"http://hl7.org/fhir/us/core/StructureDefinition/us-core-race","extension":[{"url":"ombCategory","valueCoding":{"system":"urn:oid:2.16.840.1.113883.6.238","code":"1002-5","display":"American Indian or Alaska Native","userSelected":true}},{"url":"text","valueString":"American Indian or Alaska Native"}]},{"url":"http://hl7.org/fhir/us/core/StructureDefinition/us-core-ethnicity","extension":[{"url":"ombCategory","valueCoding":{"system":"urn:oid:2.16.840.1.113883.6.238","code":"2186-5","display":"Not Hispanic or Latino","userSelected":true}},{"url":"text","valueString":"Not Hispanic or Latino"}]}],"identifier":[{"type":{"coding":[{"system":"http://terminology.hl7.org/CodeSystem/v2-0203","code":"MR"}]},"system":"https://bonnie-fhir.healthit.gov/","value":"63ec09a2ccb3770120fea7fb"}],"active":true,"name":[{"use":"usual","family":"SodiumPass","given":["24HrsAfterStartOfEnc"]}],"gender":"male","birthDate":"1933-06-28"},"request":{"method":"PUT","url":"Patient/60b3c46c-421e-401a-874b-a9deada38081"}},{"fullUrl":"https://madie.cms.gov/Encounter/90cda230-78ae-49b6-b403-77d2fd5391bb","resource":{"resourceType":"Encounter","id":"90cda230-78ae-49b6-b403-77d2fd5391bb","meta":{"profile":["http://hl7.org/fhir/us/qicore/StructureDefinition/qicore-encounter"]},"status":"finished","class":{"system":"http://terminology.hl7.org/CodeSystem/v3-ActCode","code":"NONAC","display":"Nonacute","userSelected":true},"type":[{"coding":[{"system":"http://snomed.info/sct","code":"183452005"}]}],"subject":{"reference":"Patient/60b3c46c-421e-401a-874b-a9deada38081"},"period":{"start":"2027-06-28T08:00:00.000+00:00","end":"2027-06-30T08:15:00.000+00:00"}},"request":{"method":"PUT","url":"Encounter/90cda230-78ae-49b6-b403-77d2fd5391bb"}},{"fullUrl":"https://madie.cms.gov/Coverage/9aaae7d8-69e9-4ce7-8942-6d746ded94cf","resource":{"resourceType":"Coverage","id":"9aaae7d8-69e9-4ce7-8942-6d746ded94cf","meta":{"profile":["http://hl7.org/fhir/us/qicore/StructureDefinition/qicore-coverage"]},"status":"active","type":{"coding":[{"system":"https://nahdo.org/sopt","version":"1.0.1","code":"1","display":"Medicare payer","userSelected":true}]},"beneficiary":{"reference":"Patient/60b3c46c-421e-401a-874b-a9deada38081"},"period":{"start":"2025-01-01T06:00:00.000Z","end":"2027-01-01T11:06:01.000Z"},"payor":[{"reference":"Organization/18ca435c-cae6-4c34-8033-af717477f9fc"}]},"request":{"method":"PUT","url":"Coverage/9aaae7d8-69e9-4ce7-8942-6d746ded94cf"}},{"fullUrl":"https://madie.cms.gov/Observation/181b2836-e1b0-403d-9086-5917085e8622","resource":{"resourceType":"Observation","id":"181b2836-e1b0-403d-9086-5917085e8622","meta":{"profile":["http://hl7.org/fhir/us/core/StructureDefinition/us-core-observation-lab"]},"status":"final","category":[{"coding":[{"system":"http://terminology.hl7.org/CodeSystem/observation-category","code":"laboratory","display":"laboratory","userSelected":true}]}],"code":{"coding":[{"system":"http://loinc.org","code":"2947-0","display":"Sodium [Moles/volume] in Blood"}]},"subject":{"reference":"Patient/60b3c46c-421e-401a-874b-a9deada38081"},"effectiveDateTime":"2027-06-29T08:00:00.000+00:00","issued":"2027-06-29T07:59:00.000+00:00","valueQuantity":{"value":5.0,"unit":"meq/L","system":"http://unitsofmeasure.org","code":"meq/L"}},"request":{"method":"PUT","url":"Observation/181b2836-e1b0-403d-9086-5917085e8622"}},{"fullUrl":"https://madie.cms.gov/Organization/f1bb52f6-5fb4-4983-8f62-64a29fe783f0","resource":{"resourceType":"Organization","id":"18ca435c-cae6-4c34-8033-af717477f9fc","meta":{"profile":["http://hl7.org/fhir/us/qicore/StructureDefinition/qicore-organization"]},"identifier":[{"use":"temp","system":"urn:oid:2.16.840.1.113883.4.4","value":"21-3259825"}],"active":true,"type":[{"coding":[{"system":"http://terminology.hl7.org/CodeSystem/organization-type","code":"pay","display":"Payer"}]}],"name":"Blue Cross Blue Shield of Texas","telecom":[{"system":"phone","value":"(+1) 972-766-6900"}],"address":[{"use":"billing","type":"postal","line":["P.O. Box 660044"],"city":"Dallas","state":"TX","postalCode":"75266-0044","country":"USA"}]},"request":{"method":"PUT","url":"Organization/18ca435c-cae6-4c34-8033-af717477f9fc"}},{"fullUrl":"https://madie.cms.gov/Practitioner/a8710e9c-24c2-4eb7-af5d-263369dfde3a","resource":{"resourceType":"Practitioner","id":"a8710e9c-24c2-4eb7-af5d-263369dfde3a","meta":{"profile":["http://hl7.org/fhir/us/qicore/StructureDefinition/qicore-practitioner"]},"identifier":[{"system":"http://hl7.org/fhir/sid/us-npi","value":"123456"}],"name":[{"family":"Evil","prefix":["Dr"]}]},"request":{"method":"PUT","url":"Practitioner/a8710e9c-24c2-4eb7-af5d-263369dfde3a"}},{"fullUrl":"https://madie.cms.gov/MeasureReport/45901a14-b785-4974-9fd5-9aba7952fa6d","resource":{"resourceType":"MeasureReport","id":"45901a14-b785-4974-9fd5-9aba7952fa6d","meta":{"profile":["http://hl7.org/fhir/us/cqfmeasures/StructureDefinition/test-case-cqfm"]},"contained":[{"resourceType":"Parameters","id":"20dcb0ec-5770-4c6f-9f80-b9d6369f532d-parameters","parameter":[{"name":"subject","valueString":"60b3c46c-421e-401a-874b-a9deada38081"}]}],"extension":[{"url":"http://hl7.org/fhir/us/cqfmeasures/StructureDefinition/cqfm-inputParameters","valueReference":{"reference":"#20dcb0ec-5770-4c6f-9f80-b9d6369f532d-parameters"}},{"url":"http://hl7.org/fhir/us/cqfmeasures/StructureDefinition/cqfm-testCaseDescription","valueMarkdown":"Enc, ends last day of MP (6/30), age 94 first day of enc.  Sodium lab @ 24 hours after start of inpatient encounter. "}],"modifierExtension":[{"url":"http://hl7.org/fhir/us/cqfmeasures/StructureDefinition/cqfm-isTestCase","valueBoolean":true}],"status":"complete","type":"individual","measure":"https://madie.cms.gov/Measure/CMSFHIR844HybridHospitalWideMortality","period":{"start":"2026-07-01","end":"2027-06-30"},"group":[{"population":[{"code":{"coding":[{"system":"http://terminology.hl7.org/CodeSystem/measure-population","code":"initial-population","display":"Initial Population"}]},"count":1}]}]},"request":{"method":"PUT","url":"MeasureReport/45901a14-b785-4974-9fd5-9aba7952fa6d"}}]}