{"resourceType":"Bundle","id":"tests-e03c0afd-5337-4e14-9091-845f63bfbd83-bundle","type":"transaction","entry":[{"fullUrl":"https://madie.cms.gov/Patient/e03c0afd-5337-4e14-9091-845f63bfbd83","resource":{"resourceType":"Patient","id":"e03c0afd-5337-4e14-9091-845f63bfbd83","meta":{"profile":["http://hl7.org/fhir/us/qicore/StructureDefinition/qicore-patient"]},"text":{"status":"generated","div":"<div xmlns=\"http://www.w3.org/1999/xhtml\"><div class=\"hapiHeaderText\">HRSBP_relevantPeriod <b>COMBO1 </b></div><table class=\"hapiPropertyTable\"><tbody><tr><td>Identifier</td><td>647b828a576e8c34eaa21fd1cdb85d1e5f291be13e6a5c34a9fc817d4466c0f5</td></tr><tr><td>Date of birth</td><td><span>15 June 1956</span></td></tr></tbody></table></div>"},"extension":[{"url":"http://hl7.org/fhir/us/core/StructureDefinition/us-core-race","extension":[{"url":"ombCategory","valueCoding":{"system":"urn:oid:2.16.840.1.113883.6.238","code":"2054-5","display":"Black or African American","userSelected":true}},{"url":"text","valueString":"Black or African American"}]},{"url":"http://hl7.org/fhir/us/core/StructureDefinition/us-core-ethnicity","extension":[{"url":"ombCategory","valueCoding":{"system":"urn:oid:2.16.840.1.113883.6.238","code":"2186-5","display":"Not Hispanic or Latino","userSelected":true}},{"url":"text","valueString":"Not Hispanic or Latino"}]}],"identifier":[{"type":{"coding":[{"system":"http://terminology.hl7.org/CodeSystem/v2-0203","code":"MR"}]},"system":"https://bonnie-fhir.healthit.gov/","value":"63ec0966ccb3770120fe9c3c"}],"active":true,"name":[{"use":"usual","family":"HeartRateAndSystolicBPPass","given":["HR5MinsBP24HrsAfterStartOfAdmit"]}],"gender":"female","birthDate":"1957-06-15"},"request":{"method":"PUT","url":"Patient/e03c0afd-5337-4e14-9091-845f63bfbd83"}},{"fullUrl":"https://madie.cms.gov/Encounter/061ea77a-d3bd-41e3-b4b7-40a681a5137c","resource":{"resourceType":"Encounter","id":"061ea77a-d3bd-41e3-b4b7-40a681a5137c","meta":{"profile":["http://hl7.org/fhir/us/qicore/StructureDefinition/qicore-encounter"]},"status":"finished","class":{"system":"http://terminology.hl7.org/CodeSystem/v3-ActCode","code":"IMP","display":"inpatient encounter","userSelected":true},"type":[{"coding":[{"system":"http://snomed.info/sct","code":"183452005"}]}],"subject":{"reference":"Patient/e03c0afd-5337-4e14-9091-845f63bfbd83"},"period":{"start":"2027-06-29T08:10:00.000+00:00","end":"2027-06-30T15:15:00.000+00:00"},"length":{"value":1.0,"unit":"days"}},"request":{"method":"PUT","url":"Encounter/061ea77a-d3bd-41e3-b4b7-40a681a5137c"}},{"fullUrl":"https://madie.cms.gov/Coverage/d7ed4b0b-b90a-4362-b785-a992dd576f22","resource":{"resourceType":"Coverage","id":"d7ed4b0b-b90a-4362-b785-a992dd576f22","meta":{"profile":["http://hl7.org/fhir/us/qicore/StructureDefinition/qicore-coverage"]},"status":"active","type":{"coding":[{"system":"https://nahdo.org/sopt","version":"1.0.1","code":"1","display":"Medicare payer","userSelected":true}]},"beneficiary":{"reference":"Patient/e03c0afd-5337-4e14-9091-845f63bfbd83"},"payor":[{"reference":"Organization/880a275e-1cf2-4fb9-869b-f1d2173fdc2b"}]},"request":{"method":"PUT","url":"Coverage/d7ed4b0b-b90a-4362-b785-a992dd576f22"}},{"fullUrl":"https://madie.cms.gov/Observation/d2df32ad-17ea-4a59-941a-29dc90db5f90","resource":{"resourceType":"Observation","id":"d2df32ad-17ea-4a59-941a-29dc90db5f90","meta":{"profile":["http://hl7.org/fhir/StructureDefinition/heartrate"]},"status":"final","category":[{"coding":[{"system":"http://terminology.hl7.org/CodeSystem/observation-category","code":"vital-signs","display":"vital-signs","userSelected":true}]}],"code":{"coding":[{"system":"http://loinc.org","code":"8867-4","display":"Heart rate"}]},"subject":{"reference":"Patient/e03c0afd-5337-4e14-9091-845f63bfbd83"},"effectiveDateTime":"2027-06-29T10:10:00.000+00:00","valueQuantity":{"value":100.0,"unit":"/min","system":"http://unitsofmeasure.org","code":"/min"}},"request":{"method":"PUT","url":"Observation/d2df32ad-17ea-4a59-941a-29dc90db5f90"}},{"fullUrl":"https://madie.cms.gov/Observation/9f33bcc3-377c-44af-9438-49c297ffedd0","resource":{"resourceType":"Observation","id":"9f33bcc3-377c-44af-9438-49c297ffedd0","meta":{"profile":["http://hl7.org/fhir/StructureDefinition/heartrate"]},"status":"final","category":[{"coding":[{"system":"http://terminology.hl7.org/CodeSystem/observation-category","code":"vital-signs","display":"vital-signs","userSelected":true}]}],"code":{"coding":[{"system":"http://loinc.org","code":"8867-4","display":"Heart rate"}]},"subject":{"reference":"Patient/e03c0afd-5337-4e14-9091-845f63bfbd83"},"effectiveDateTime":"2027-06-29T20:10:00.000+00:00","valueQuantity":{"value":96,"unit":"/min","system":"http://unitsofmeasure.org","code":"/min"}},"request":{"method":"PUT","url":"Observation/9f33bcc3-377c-44af-9438-49c297ffedd0"}},{"fullUrl":"https://madie.cms.gov/Organization/4f8de444-a6f3-4b85-bc4d-408d801a4269","resource":{"resourceType":"Organization","id":"880a275e-1cf2-4fb9-869b-f1d2173fdc2b","meta":{"profile":["http://hl7.org/fhir/us/qicore/StructureDefinition/qicore-organization"]},"identifier":[{"use":"temp","system":"urn:oid:2.16.840.1.113883.4.4","value":"21-3259825"}],"active":true,"type":[{"coding":[{"system":"http://terminology.hl7.org/CodeSystem/organization-type","code":"pay","display":"Payer"}]}],"name":"Blue Cross Blue Shield of Texas","telecom":[{"system":"phone","value":"(+1) 972-766-6900"}],"address":[{"use":"billing","type":"postal","line":["P.O. Box 660044"],"city":"Dallas","state":"TX","postalCode":"75266-0044","country":"USA"}]},"request":{"method":"PUT","url":"Organization/880a275e-1cf2-4fb9-869b-f1d2173fdc2b"}},{"fullUrl":"https://madie.cms.gov/Observation/997bdcbd-d2dd-47da-b132-8ba244631b0b","resource":{"resourceType":"Observation","id":"997bdcbd-d2dd-47da-b132-8ba244631b0b","meta":{"profile":["http://hl7.org/fhir/StructureDefinition/bp"]},"status":"final","category":[{"coding":[{"system":"http://terminology.hl7.org/CodeSystem/observation-category","code":"vital-signs","display":"Vital Signs"}],"text":"Vital Signs"}],"code":{"coding":[{"system":"http://loinc.org","code":"85354-9","display":"Blood pressure panel"}]},"subject":{"reference":"Patient/e03c0afd-5337-4e14-9091-845f63bfbd83"},"effectiveDateTime":"2027-06-29T08:15:00.000+00:00","component":[{"code":{"coding":[{"system":"http://loinc.org","code":"8480-6","display":"Systolic blood pressure"}]},"valueQuantity":{"value":140,"unit":"mm[Hg]","system":"http://unitsofmeasure.org","code":"mm[Hg]"}},{"code":{"coding":[{"system":"http://loinc.org","code":"8462-4","display":"Diastolic blood pressure"}]},"valueQuantity":{"value":80,"unit":"mm[Hg]","system":"http://unitsofmeasure.org","code":"mm[Hg]"}}]},"request":{"method":"PUT","url":"Observation/997bdcbd-d2dd-47da-b132-8ba244631b0b"}},{"fullUrl":"https://madie.cms.gov/Practitioner/ae86f898-3cf4-4889-9798-63c83e3e0f8e","resource":{"resourceType":"Practitioner","id":"ae86f898-3cf4-4889-9798-63c83e3e0f8e","meta":{"profile":["http://hl7.org/fhir/us/qicore/StructureDefinition/qicore-practitioner"]},"identifier":[{"system":"http://hl7.org/fhir/sid/us-npi","value":"123456"}],"name":[{"family":"Evil","prefix":["Dr"]}]},"request":{"method":"PUT","url":"Practitioner/ae86f898-3cf4-4889-9798-63c83e3e0f8e"}},{"fullUrl":"https://madie.cms.gov/MeasureReport/c664e873-7183-43f1-91f2-2b422449fb01","resource":{"resourceType":"MeasureReport","id":"c664e873-7183-43f1-91f2-2b422449fb01","meta":{"profile":["http://hl7.org/fhir/us/cqfmeasures/StructureDefinition/test-case-cqfm"]},"contained":[{"resourceType":"Parameters","id":"f374223d-4ee9-47ab-88ad-3d13f83ca01e-parameters","parameter":[{"name":"subject","valueString":"e03c0afd-5337-4e14-9091-845f63bfbd83"}]}],"extension":[{"url":"http://hl7.org/fhir/us/cqfmeasures/StructureDefinition/cqfm-inputParameters","valueReference":{"reference":"#f374223d-4ee9-47ab-88ad-3d13f83ca01e-parameters"}},{"url":"http://hl7.org/fhir/us/cqfmeasures/StructureDefinition/cqfm-testCaseDescription","valueMarkdown":"Enc. ends last day of MP (6/30), Systolic BP taken 5 mins after admit; heart rate evaluated 2 hrs after admit; heart rate taken at discharge (24 hrs after admit)"}],"modifierExtension":[{"url":"http://hl7.org/fhir/us/cqfmeasures/StructureDefinition/cqfm-isTestCase","valueBoolean":true}],"status":"complete","type":"individual","measure":"https://madie.cms.gov/Measure/CMSFHIR844HybridHospitalWideMortality","period":{"start":"2026-07-01","end":"2027-06-30"},"group":[{"population":[{"code":{"coding":[{"system":"http://terminology.hl7.org/CodeSystem/measure-population","code":"initial-population","display":"Initial Population"}]},"count":1}]}]},"request":{"method":"PUT","url":"MeasureReport/c664e873-7183-43f1-91f2-2b422449fb01"}}]}