{"resourceType":"Bundle","id":"tests-71e6b3b2-0e7c-477a-ab93-e5af143e1003-bundle","type":"transaction","entry":[{"fullUrl":"https://madie.cms.gov/Patient/71e6b3b2-0e7c-477a-ab93-e5af143e1003","resource":{"resourceType":"Patient","id":"71e6b3b2-0e7c-477a-ab93-e5af143e1003","meta":{"profile":["http://hl7.org/fhir/us/core/StructureDefinition/us-core-patient","http://hl7.org/fhir/us/qicore/StructureDefinition/qicore-patient"]},"extension":[{"url":"http://hl7.org/fhir/us/core/StructureDefinition/us-core-race","extension":[{"url":"ombCategory","valueCoding":{"system":"urn:oid:2.16.840.1.113883.6.238","code":"2028-9","display":"Asian"}},{"url":"text","valueString":"Asian"}]},{"url":"http://hl7.org/fhir/us/core/StructureDefinition/us-core-ethnicity","extension":[{"url":"ombCategory","valueCoding":{"system":"urn:oid:2.16.840.1.113883.6.238","code":"2135-2","display":"Hispanic or Latino"}},{"url":"text","valueString":"Hispanic or Latino"}]}],"identifier":[{"system":"http://hospital.smarthealthit.org","value":"999999995"}],"name":[{"family":"InvalidUnits","given":["DENOMFail"]}],"gender":"female","birthDate":"1984-06-12"},"request":{"method":"PUT","url":"Patient/71e6b3b2-0e7c-477a-ab93-e5af143e1003"}},{"fullUrl":"https://madie.cms.gov/Observation/denomfail-invalidunits-1","resource":{"resourceType":"Observation","id":"f1dfa877-2d75-4f99-94b1-c0ca4bcf50bb","meta":{"profile":["http://hl7.org/fhir/us/qicore/StructureDefinition/qicore-observation"]},"status":"final","category":[{"coding":[{"system":"http://terminology.hl7.org/CodeSystem/observation-category","code":"imaging","display":"Imaging"}]}],"code":{"coding":[{"system":"http://loinc.org","code":"96914-7","display":"CT dose and image quality category"}],"text":"CT dose and image quality category"},"subject":{"reference":"Patient/71e6b3b2-0e7c-477a-ab93-e5af143e1003"},"effectiveDateTime":"2025-05-02T00:00:00.000Z","valueCodeableConcept":{"coding":[{"system":"http://loinc.org","code":"LA31752-1","display":"Abdomen and Pelvis Low Dose"}]},"component":[{"code":{"coding":[{"system":"http://loinc.org","code":"96912-1","display":"Calculated CT global noise"}]},"valueQuantity":{"value":63,"unit":"cm","system":"http://unitsofmeasure.org","code":"cm"}},{"code":{"coding":[{"system":"http://loinc.org","code":"96913-9","display":"Calculated CT size-adjusted dose"}]},"valueQuantity":{"value":597,"unit":"cm","system":"http://unitsofmeasure.org","code":"cm"}}]},"request":{"method":"PUT","url":"Observation/f1dfa877-2d75-4f99-94b1-c0ca4bcf50bb"}},{"fullUrl":"https://madie.cms.gov/MeasureReport/6f4bdb75-59b1-459f-bcca-e6ea8da4e639","resource":{"resourceType":"MeasureReport","id":"6f4bdb75-59b1-459f-bcca-e6ea8da4e639","meta":{"profile":["http://hl7.org/fhir/us/cqfmeasures/StructureDefinition/test-case-cqfm"]},"contained":[{"resourceType":"Parameters","id":"a36c3075-8b74-44dc-b763-b9f7e40bdf8b-parameters","parameter":[{"name":"subject","valueString":"71e6b3b2-0e7c-477a-ab93-e5af143e1003"}]}],"extension":[{"url":"http://hl7.org/fhir/us/cqfmeasures/StructureDefinition/cqfm-inputParameters","valueReference":{"reference":"#a36c3075-8b74-44dc-b763-b9f7e40bdf8b-parameters"}},{"url":"http://hl7.org/fhir/us/cqfmeasures/StructureDefinition/cqfm-testCaseDescription","valueMarkdown":"Patient has a CT Scan but the units are incorrect for reporting the dose and noise values"}],"modifierExtension":[{"url":"http://hl7.org/fhir/us/cqfmeasures/StructureDefinition/cqfm-isTestCase","valueBoolean":true}],"status":"complete","type":"individual","measure":"https://madie.cms.gov/Measure/AlaraCTClinicalFHIR","period":{"start":"2025-01-01","end":"2025-12-31"},"group":[{"population":[{"code":{"coding":[{"system":"http://terminology.hl7.org/CodeSystem/measure-population","code":"initial-population","display":"Initial Population"}]},"count":1},{"code":{"coding":[{"system":"http://terminology.hl7.org/CodeSystem/measure-population","code":"denominator","display":"Denominator"}]},"count":0},{"code":{"coding":[{"system":"http://terminology.hl7.org/CodeSystem/measure-population","code":"denominator-exclusion","display":"Denominator Exclusion"}]},"count":0},{"code":{"coding":[{"system":"http://terminology.hl7.org/CodeSystem/measure-population","code":"numerator","display":"Numerator"}]},"count":0}]}]},"request":{"method":"PUT","url":"MeasureReport/6f4bdb75-59b1-459f-bcca-e6ea8da4e639"}}]}