{
  "resourceType": "Bundle",
  "id": "612e6b0c02c62a011f2ec368",
  "type": "transaction",
  "entry": [ {
    "fullUrl": "https://madie.cms.gov/Patient/40c49d47-dc24-406a-8551-8b3890cf3be4",
    "resource": {
      "resourceType": "Patient",
      "id": "40c49d47-dc24-406a-8551-8b3890cf3be4",
      "meta": {
        "profile": [ "http://hl7.org/fhir/us/qicore/StructureDefinition/qicore-patient" ]
      },
      "text": {
        "status": "generated",
        "div": "<div xmlns=\"http://www.w3.org/1999/xhtml\"><div class=\"hapiHeaderText\">SCIP_GenSurgAfterEncEnds <b>DENEXFAIL </b></div><table class=\"hapiPropertyTable\"><tbody><tr><td>Identifier</td><td>66c70c125db369967b4b164e75338304</td></tr><tr><td>Date of birth</td><td><span>01 September 2000</span></td></tr></tbody></table></div>"
      },
      "extension": [ {
        "url": "http://hl7.org/fhir/us/core/StructureDefinition/us-core-race",
        "extension": [ {
          "url": "ombCategory",
          "valueCoding": {
            "system": "urn:oid:2.16.840.1.113883.6.238",
            "code": "1002-5",
            "display": "American Indian or Alaska Native",
            "userSelected": true
          }
        }, {
          "url": "text",
          "valueString": "American Indian or Alaska Native"
        } ]
      }, {
        "url": "http://hl7.org/fhir/us/core/StructureDefinition/us-core-ethnicity",
        "extension": [ {
          "url": "ombCategory",
          "valueCoding": {
            "system": "urn:oid:2.16.840.1.113883.6.238",
            "code": "2135-2",
            "display": "Hispanic or Latino",
            "userSelected": true
          }
        }, {
          "url": "text",
          "valueString": "Hispanic or Latino"
        } ]
      } ],
      "identifier": [ {
        "type": {
          "coding": [ {
            "system": "http://terminology.hl7.org/CodeSystem/v2-0203",
            "code": "MR"
          } ]
        },
        "system": "https://bonnie-fhir.healthit.gov/",
        "value": "612e6b0c02c62a011f2ec368"
      } ],
      "active": true,
      "name": [ {
        "use": "usual",
        "family": "DENEXFail ",
        "given": [ "SCIP_GenSurgAfterEncEnds" ]
      } ],
      "gender": "male",
      "birthDate": "2001-09-01"
    },
    "request": {
      "method": "PUT",
      "url": "Patient/40c49d47-dc24-406a-8551-8b3890cf3be4"
    }
  }, {
    "fullUrl": "https://madie.cms.gov/Encounter/5e08e45f-be83-43aa-a785-10bc646a5f66",
    "resource": {
      "resourceType": "Encounter",
      "id": "5e08e45f-be83-43aa-a785-10bc646a5f66",
      "meta": {
        "profile": [ "http://hl7.org/fhir/us/qicore/StructureDefinition/qicore-encounter" ]
      },
      "extension": [ {
        "url": "http://hl7.org/fhir/us/qicore/StructureDefinition/qicore-encounter-procedure",
        "extension": [ {
          "url": "type",
          "valueCodeableConcept": {
            "coding": [ {
              "system": "http://www.cms.gov/Medicare/Coding/ICD10",
              "code": "008Q0ZZ"
            } ]
          }
        }, {
          "url": "rank",
          "valuePositiveInt": 1
        }, {
          "url": "procedure",
          "valueReference": {
            "reference": "Procedure/95a68a5d-3ecb-4489-85d0-861a95e225c2"
          }
        } ]
      } ],
      "status": "finished",
      "class": {
        "system": "http://terminology.hl7.org/CodeSystem/v3-ActCode",
        "code": "IMP",
        "display": "inpatient encounter"
      },
      "type": [ {
        "coding": [ {
          "system": "http://snomed.info/sct",
          "code": "183452005"
        } ]
      } ],
      "subject": {
        "reference": "Patient/40c49d47-dc24-406a-8551-8b3890cf3be4"
      },
      "period": {
        "start": "2026-09-02T06:00:00+00:00",
        "end": "2026-12-31T10:00:00+00:00"
      },
      "length": {
        "value": 120.0,
        "unit": "days"
      }
    },
    "request": {
      "method": "PUT",
      "url": "Encounter/5e08e45f-be83-43aa-a785-10bc646a5f66"
    }
  }, {
    "fullUrl": "https://madie.cms.gov/Coverage/4c51dca8-36e1-422a-a92b-4faf4f79afbc",
    "resource": {
      "resourceType": "Coverage",
      "id": "4c51dca8-36e1-422a-a92b-4faf4f79afbc",
      "status": "active",
      "beneficiary": {
        "reference": "Patient/40c49d47-dc24-406a-8551-8b3890cf3be4"
      },
      "period": {
        "start": "2001-09-01T08:00:00+00:00"
      },
      "payor": [ {
        "reference": "Organization/395c1518-3d8a-47c8-8f9a-04d22288f4c4"
      } ]
    },
    "request": {
      "method": "PUT",
      "url": "Coverage/4c51dca8-36e1-422a-a92b-4faf4f79afbc"
    }
  }, {
    "fullUrl": "https://madie.cms.gov/Procedure/95a68a5d-3ecb-4489-85d0-861a95e225c2",
    "resource": {
      "resourceType": "Procedure",
      "id": "95a68a5d-3ecb-4489-85d0-861a95e225c2",
      "meta": {
        "profile": [ "http://hl7.org/fhir/us/qicore/StructureDefinition/qicore-procedure" ]
      },
      "extension": [ {
        "url": "http://hl7.org/fhir/us/qicore/StructureDefinition/qicore-recorded",
        "valueDateTime": "2013-12-04T09:35:00-04:00"
      } ],
      "status": "completed",
      "code": {
        "coding": [ {
          "system": "http://www.cms.gov/Medicare/Coding/ICD10",
          "code": "008Q0ZZ",
          "display": "Division of Vagus Nerve, Open Approach",
          "userSelected": true
        } ]
      },
      "subject": {
        "reference": "Patient/40c49d47-dc24-406a-8551-8b3890cf3be4"
      },
      "performedPeriod": {
        "start": "2026-12-31T10:30:00.000+00:00",
        "end": "2026-12-31T11:15:00.000+00:00"
      }
    },
    "request": {
      "method": "PUT",
      "url": "Procedure/95a68a5d-3ecb-4489-85d0-861a95e225c2"
    }
  }, {
    "fullUrl": "https://madie.cms.gov/Organization/395c1518-3d8a-47c8-8f9a-04d22288f4c4",
    "resource": {
      "resourceType": "Organization",
      "id": "395c1518-3d8a-47c8-8f9a-04d22288f4c4",
      "meta": {
        "profile": [ "http://hl7.org/fhir/us/qicore/StructureDefinition/qicore-organization" ]
      },
      "identifier": [ {
        "use": "temp",
        "system": "urn:oid:2.16.840.1.113883.4.4",
        "value": "21-3259825"
      } ],
      "active": true,
      "type": [ {
        "coding": [ {
          "system": "http://terminology.hl7.org/CodeSystem/organization-type",
          "code": "pay",
          "display": "Payer"
        } ]
      } ],
      "name": "Blue Cross Blue Shield of Texas",
      "telecom": [ {
        "system": "phone",
        "value": "(+1) 972-766-6900"
      } ],
      "address": [ {
        "use": "billing",
        "type": "postal",
        "line": [ "P.O. Box 660044" ],
        "city": "Dallas",
        "state": "TX",
        "postalCode": "75266-0044",
        "country": "USA"
      } ]
    },
    "request": {
      "method": "PUT",
      "url": "Organization/395c1518-3d8a-47c8-8f9a-04d22288f4c4"
    }
  }, {
    "fullUrl": "https://madie.cms.gov/Practitioner/6f25c0ed-02bf-4c21-881c-2bd35871e629",
    "resource": {
      "resourceType": "Practitioner",
      "id": "6f25c0ed-02bf-4c21-881c-2bd35871e629",
      "identifier": [ {
        "system": "http://hl7.org/fhir/sid/us-npi",
        "value": "123456"
      } ],
      "name": [ {
        "family": "Evil",
        "prefix": [ "Dr" ]
      } ]
    },
    "request": {
      "method": "PUT",
      "url": "Practitioner/6f25c0ed-02bf-4c21-881c-2bd35871e629"
    }
  }, {
    "fullUrl": "https://madie.cms.gov/MeasureReport/2d3ba069-2ca4-4e2c-a903-30c9f56977fd",
    "resource": {
      "resourceType": "MeasureReport",
      "id": "2d3ba069-2ca4-4e2c-a903-30c9f56977fd",
      "meta": {
        "profile": [ "http://hl7.org/fhir/us/cqfmeasures/StructureDefinition/test-case-cqfm" ]
      },
      "contained": [ {
        "resourceType": "Parameters",
        "id": "002c174b-5639-4f4b-8b1f-14bd911ba4ad-parameters",
        "parameter": [ {
          "name": "subject",
          "valueString": "40c49d47-dc24-406a-8551-8b3890cf3be4"
        } ]
      } ],
      "extension": [ {
        "url": "http://hl7.org/fhir/us/cqfmeasures/StructureDefinition/cqfm-inputParameters",
        "valueReference": {
          "reference": "#002c174b-5639-4f4b-8b1f-14bd911ba4ad-parameters"
        }
      }, {
        "url": "http://hl7.org/fhir/us/cqfmeasures/StructureDefinition/cqfm-testCaseDescription",
        "valueMarkdown": "Patient had SCIP -GenSurg ends 1 hour after Encounter and Rank =1\n"
      } ],
      "modifierExtension": [ {
        "url": "http://hl7.org/fhir/us/cqfmeasures/StructureDefinition/cqfm-isTestCase",
        "valueBoolean": true
      } ],
      "status": "complete",
      "type": "individual",
      "measure": "https://madie.cms.gov/Measure/CMS108VTEProphylaxisFHIR",
      "period": {
        "start": "2026-01-01",
        "end": "2026-12-31"
      },
      "group": [ {
        "population": [ {
          "code": {
            "coding": [ {
              "system": "http://terminology.hl7.org/CodeSystem/measure-population",
              "code": "initial-population",
              "display": "Initial Population"
            } ]
          },
          "count": 1
        }, {
          "code": {
            "coding": [ {
              "system": "http://terminology.hl7.org/CodeSystem/measure-population",
              "code": "denominator",
              "display": "Denominator"
            } ]
          },
          "count": 1
        }, {
          "code": {
            "coding": [ {
              "system": "http://terminology.hl7.org/CodeSystem/measure-population",
              "code": "denominator-exclusion",
              "display": "Denominator Exclusion"
            } ]
          },
          "count": 0
        }, {
          "code": {
            "coding": [ {
              "system": "http://terminology.hl7.org/CodeSystem/measure-population",
              "code": "numerator",
              "display": "Numerator"
            } ]
          },
          "count": 0
        } ]
      } ],
      "evaluatedResource": [ {
        "reference": "Patient/40c49d47-dc24-406a-8551-8b3890cf3be4"
      }, {
        "reference": "Encounter/5e08e45f-be83-43aa-a785-10bc646a5f66"
      }, {
        "reference": "Coverage/4c51dca8-36e1-422a-a92b-4faf4f79afbc"
      }, {
        "reference": "Procedure/95a68a5d-3ecb-4489-85d0-861a95e225c2"
      }, {
        "reference": "Organization/395c1518-3d8a-47c8-8f9a-04d22288f4c4"
      }, {
        "reference": "Practitioner/6f25c0ed-02bf-4c21-881c-2bd35871e629"
      } ]
    },
    "request": {
      "method": "PUT",
      "url": "MeasureReport/2d3ba069-2ca4-4e2c-a903-30c9f56977fd"
    }
  } ]
}