{
  "resourceType": "Bundle",
  "id": "661476b015ed5841a5547ebg",
  "type": "transaction",
  "entry": [ {
    "fullUrl": "https://madie.cms.gov/Patient/e37040f5-da02-49eb-98a8-60d5235f8e1f",
    "resource": {
      "resourceType": "Patient",
      "id": "e37040f5-da02-49eb-98a8-60d5235f8e1f",
      "meta": {
        "profile": [ "http://hl7.org/fhir/us/qicore/StructureDefinition/qicore-patient" ]
      },
      "extension": [ {
        "url": "http://hl7.org/fhir/us/core/StructureDefinition/us-core-race",
        "extension": [ {
          "url": "ombCategory",
          "valueCoding": {
            "system": "urn:oid:2.16.840.1.113883.6.238",
            "code": "1002-5",
            "display": "American Indian or Alaska Native",
            "userSelected": true
          }
        }, {
          "url": "text",
          "valueString": "American Indian or Alaska Native"
        } ]
      }, {
        "url": "http://hl7.org/fhir/us/core/StructureDefinition/us-core-ethnicity",
        "extension": [ {
          "url": "ombCategory",
          "valueCoding": {
            "system": "urn:oid:2.16.840.1.113883.6.238",
            "code": "2135-2",
            "display": "Hispanic or Latino",
            "userSelected": true
          }
        }, {
          "url": "text",
          "valueString": "Hispanic or Latino"
        } ]
      } ],
      "identifier": [ {
        "type": {
          "coding": [ {
            "system": "http://terminology.hl7.org/CodeSystem/v2-0203",
            "code": "MR"
          } ]
        },
        "system": "https://bonnie-fhir.healthit.gov/",
        "value": "661476b015ed5841a5547ebf"
      } ],
      "name": [ {
        "family": "NUMEXStrat4Pass",
        "given": [ "EDOBSOrderLOS" ]
      } ],
      "gender": "male",
      "birthDate": "2008-01-01"
    },
    "request": {
      "method": "PUT",
      "url": "Patient/e37040f5-da02-49eb-98a8-60d5235f8e1f"
    }
  }, {
    "fullUrl": "https://madie.cms.gov/Encounter/193fbd86-38bf-4db1-8ca0-36173ff8d343",
    "resource": {
      "resourceType": "Encounter",
      "id": "193fbd86-38bf-4db1-8ca0-36173ff8d343",
      "meta": {
        "profile": [ "http://hl7.org/fhir/us/qicore/StructureDefinition/qicore-encounter" ]
      },
      "status": "finished",
      "class": {
        "system": "http://terminology.hl7.org/CodeSystem/v3-ActCode",
        "code": "EMER",
        "display": "emergency department"
      },
      "type": [ {
        "coding": [ {
          "system": "http://snomed.info/sct",
          "version": "2023-09",
          "code": "4525004",
          "display": "Emergency department patient visit (procedure)",
          "userSelected": true
        } ]
      } ],
      "subject": {
        "reference": "Patient/e37040f5-da02-49eb-98a8-60d5235f8e1f"
      },
      "period": {
        "start": "2026-01-01T00:00:00.000+00:00",
        "end": "2026-01-01T08:00:00.000+00:00"
      },
      "diagnosis": [ {
        "condition": {
          "reference": "Condition/f89f4b08-e284-4cd5-b3c7-2bc7b411cbe3"
        },
        "use": {
          "coding": [ {
            "system": "http://terminology.hl7.org/CodeSystem/diagnosis-role",
            "code": "billing"
          } ]
        },
        "rank": 1
      } ],
      "location": [ {
        "location": {
          "reference": "Location/0856ee3e-8d09-4e19-9127-49d8488d2055"
        },
        "period": {
          "start": "2026-01-01T00:00:00.000+00:00",
          "end": "2026-01-01T08:01:00.000+00:00"
        }
      } ]
    },
    "request": {
      "method": "PUT",
      "url": "Encounter/193fbd86-38bf-4db1-8ca0-36173ff8d343"
    }
  }, {
    "fullUrl": "https://madie.cms.gov/Encounter/0abb8cce-853d-473d-806a-af087bf07f50",
    "resource": {
      "resourceType": "Encounter",
      "id": "0abb8cce-853d-473d-806a-af087bf07f50",
      "meta": {
        "profile": [ "http://hl7.org/fhir/us/qicore/StructureDefinition/qicore-encounter" ]
      },
      "status": "finished",
      "class": {
        "system": "http://terminology.hl7.org/CodeSystem/v3-ActCode",
        "code": "IMP",
        "display": "inpatient encounter"
      },
      "type": [ {
        "coding": [ {
          "system": "http://snomed.info/sct",
          "version": "2023-09",
          "code": "183452005",
          "display": "Emergency hospital admission (procedure)",
          "userSelected": true
        } ]
      } ],
      "subject": {
        "reference": "Patient/e37040f5-da02-49eb-98a8-60d5235f8e1f"
      },
      "period": {
        "start": "2026-01-01T05:00:00.000+00:00",
        "end": "2026-01-03T06:15:00.000+00:00"
      }
    },
    "request": {
      "method": "PUT",
      "url": "Encounter/0abb8cce-853d-473d-806a-af087bf07f50"
    }
  }, {
    "fullUrl": "https://madie.cms.gov/Location/0856ee3e-8d09-4e19-9127-49d8488d2055",
    "resource": {
      "resourceType": "Location",
      "id": "0856ee3e-8d09-4e19-9127-49d8488d2055",
      "meta": {
        "profile": [ "http://hl7.org/fhir/us/qicore/StructureDefinition/qicore-location" ]
      },
      "identifier": [ {
        "use": "usual",
        "system": "http://exampleoflocation.com",
        "value": "B1-S.F2"
      } ],
      "name": "Medical Surgical East, first floor",
      "type": [ {
        "coding": [ {
          "system": "https://www.cdc.gov/nhsn/cdaportal/terminology/codesystem/hsloc.html",
          "version": "2022",
          "code": "1108-0",
          "display": "Emergency Department",
          "userSelected": true
        } ]
      } ]
    },
    "request": {
      "method": "PUT",
      "url": "Location/0856ee3e-8d09-4e19-9127-49d8488d2055"
    }
  }, {
    "fullUrl": "https://madie.cms.gov/Coverage/c9175f6d-4d4d-4641-8ee6-ae57a5b98de0",
    "resource": {
      "resourceType": "Coverage",
      "id": "c9175f6d-4d4d-4641-8ee6-ae57a5b98de0",
      "meta": {
        "profile": [ "http://hl7.org/fhir/us/qicore/StructureDefinition/qicore-coverage" ]
      },
      "status": "active",
      "beneficiary": {
        "reference": "Patient/e37040f5-da02-49eb-98a8-60d5235f8e1f"
      },
      "payor": [ {
        "reference": "Organization/e36fa1b9-c31a-4f53-aa7b-9a7706e105b9"
      } ]
    },
    "request": {
      "method": "PUT",
      "url": "Coverage/c9175f6d-4d4d-4641-8ee6-ae57a5b98de0"
    }
  }, {
    "fullUrl": "https://madie.cms.gov/Condition/f89f4b08-e284-4cd5-b3c7-2bc7b411cbe3",
    "resource": {
      "resourceType": "Condition",
      "id": "f89f4b08-e284-4cd5-b3c7-2bc7b411cbe3",
      "meta": {
        "profile": [ "http://hl7.org/fhir/us/qicore/StructureDefinition/qicore-condition" ]
      },
      "category": [ {
        "coding": [ {
          "system": "http://terminology.hl7.org/CodeSystem/condition-category",
          "code": "encounter-diagnosis",
          "display": "Encounter Diagnosis"
        } ]
      } ],
      "code": {
        "coding": [ {
          "system": "http://snomed.info/sct",
          "version": "2023-09",
          "code": "66344007",
          "display": "Recurrent major depression (disorder)",
          "userSelected": true
        } ]
      },
      "subject": {
        "reference": "Patient/e37040f5-da02-49eb-98a8-60d5235f8e1f"
      },
      "recordedDate": "2025-04-18T08:00:00.000+00:00"
    },
    "request": {
      "method": "PUT",
      "url": "Condition/f89f4b08-e284-4cd5-b3c7-2bc7b411cbe3"
    }
  }, {
    "fullUrl": "https://madie.cms.gov/Coverage/871a4906-4084-4eac-bf82-17a9f56dfa3f",
    "resource": {
      "resourceType": "Coverage",
      "id": "871a4906-4084-4eac-bf82-17a9f56dfa3f",
      "meta": {
        "profile": [ "http://hl7.org/fhir/us/qicore/StructureDefinition/qicore-coverage" ]
      },
      "status": "active",
      "beneficiary": {
        "reference": "Patient/e37040f5-da02-49eb-98a8-60d5235f8e1f"
      },
      "payor": [ {
        "reference": "Organization/e36fa1b9-c31a-4f53-aa7b-9a7706e105b9"
      } ]
    },
    "request": {
      "method": "PUT",
      "url": "Coverage/871a4906-4084-4eac-bf82-17a9f56dfa3f"
    }
  }, {
    "fullUrl": "https://madie.cms.gov/ServiceRequest/3ce29cac-a799-4d3b-a996-db4399d1b0ac",
    "resource": {
      "resourceType": "ServiceRequest",
      "id": "3ce29cac-a799-4d3b-a996-db4399d1b0ac",
      "meta": {
        "profile": [ "http://hl7.org/fhir/us/qicore/StructureDefinition/qicore-servicerequest" ]
      },
      "status": "active",
      "intent": "order",
      "code": {
        "coding": [ {
          "system": "http://www.ama-assn.org/go/cpt",
          "version": "2024",
          "code": "99221",
          "display": "Initial hospital inpatient or observation care, per day, for the evaluation and management of a patient, which requires a medically appropriate history and/or examination and straightforward or low level medical decision making. When using total time on the date of the encounter for code selection, 40 minutes must be met or exceeded.",
          "userSelected": true
        } ]
      },
      "subject": {
        "reference": "Patient/e37040f5-da02-49eb-98a8-60d5235f8e1f"
      },
      "authoredOn": "2026-01-01T02:00:00.000+00:00"
    },
    "request": {
      "method": "PUT",
      "url": "ServiceRequest/3ce29cac-a799-4d3b-a996-db4399d1b0ac"
    }
  }, {
    "fullUrl": "https://madie.cms.gov/Organization/e36fa1b9-c31a-4f53-aa7b-9a7706e105b9",
    "resource": {
      "resourceType": "Organization",
      "id": "e36fa1b9-c31a-4f53-aa7b-9a7706e105b9",
      "meta": {
        "profile": [ "http://hl7.org/fhir/us/qicore/StructureDefinition/qicore-organization" ]
      },
      "identifier": [ {
        "use": "temp",
        "system": "urn:oid:2.16.840.1.113883.4.4",
        "value": "21-3259825"
      } ],
      "active": true,
      "type": [ {
        "coding": [ {
          "system": "http://terminology.hl7.org/CodeSystem/organization-type",
          "code": "pay",
          "display": "Payer"
        } ]
      } ],
      "name": "Blue Cross Blue Shield of Texas",
      "telecom": [ {
        "system": "phone",
        "value": "(+1) 972-766-6900"
      } ],
      "address": [ {
        "use": "billing",
        "type": "postal",
        "line": [ "P.O. Box 660044" ],
        "city": "Dallas",
        "state": "TX",
        "postalCode": "75266-0044",
        "country": "USA"
      } ]
    },
    "request": {
      "method": "PUT",
      "url": "Organization/e36fa1b9-c31a-4f53-aa7b-9a7706e105b9"
    }
  }, {
    "fullUrl": "https://madie.cms.gov/Practitioner/74dfaa1f-1e40-4774-a01f-e03b709a496d",
    "resource": {
      "resourceType": "Practitioner",
      "id": "74dfaa1f-1e40-4774-a01f-e03b709a496d",
      "meta": {
        "profile": [ "http://hl7.org/fhir/us/qicore/StructureDefinition/qicore-practitioner" ]
      },
      "identifier": [ {
        "system": "http://hl7.org/fhir/sid/us-npi",
        "value": "123456"
      } ],
      "name": [ {
        "family": "Evil",
        "prefix": [ "Dr" ]
      } ]
    },
    "request": {
      "method": "PUT",
      "url": "Practitioner/74dfaa1f-1e40-4774-a01f-e03b709a496d"
    }
  }, {
    "fullUrl": "https://madie.cms.gov/MeasureReport/a0c410db-31d6-41ab-85b9-07fcb34b00a2",
    "resource": {
      "resourceType": "MeasureReport",
      "id": "a0c410db-31d6-41ab-85b9-07fcb34b00a2",
      "meta": {
        "profile": [ "http://hl7.org/fhir/us/cqfmeasures/StructureDefinition/test-case-cqfm" ]
      },
      "contained": [ {
        "resourceType": "Parameters",
        "id": "895cf159-d60a-4782-8042-76f8fe56d12b-parameters",
        "parameter": [ {
          "name": "subject",
          "valueString": "e37040f5-da02-49eb-98a8-60d5235f8e1f"
        } ]
      } ],
      "extension": [ {
        "url": "http://hl7.org/fhir/us/cqfmeasures/StructureDefinition/cqfm-inputParameters",
        "valueReference": {
          "reference": "#895cf159-d60a-4782-8042-76f8fe56d12b-parameters"
        }
      }, {
        "url": "http://hl7.org/fhir/us/cqfmeasures/StructureDefinition/cqfm-testCaseDescription",
        "valueMarkdown": "Adult with mental diagnosis, LOS 8 hr 1 min with obs stay"
      } ],
      "modifierExtension": [ {
        "url": "http://hl7.org/fhir/us/cqfmeasures/StructureDefinition/cqfm-isTestCase",
        "valueBoolean": true
      } ],
      "status": "complete",
      "type": "individual",
      "measure": "https://madie.cms.gov/Measure/CMS1244ECCQHOQRFHIR",
      "period": {
        "start": "2026-01-01",
        "end": "2026-12-31"
      },
      "group": [ {
        "population": [ {
          "code": {
            "coding": [ {
              "system": "http://terminology.hl7.org/CodeSystem/measure-population",
              "code": "initial-population",
              "display": "Initial Population"
            } ]
          },
          "count": 1
        }, {
          "code": {
            "coding": [ {
              "system": "http://terminology.hl7.org/CodeSystem/measure-population",
              "code": "denominator",
              "display": "Denominator"
            } ]
          },
          "count": 1
        }, {
          "code": {
            "coding": [ {
              "system": "http://terminology.hl7.org/CodeSystem/measure-population",
              "code": "numerator",
              "display": "Numerator"
            } ]
          },
          "count": 0
        } ]
      } ],
      "evaluatedResource": [ {
        "reference": "Patient/e37040f5-da02-49eb-98a8-60d5235f8e1f"
      }, {
        "reference": "Encounter/193fbd86-38bf-4db1-8ca0-36173ff8d343"
      }, {
        "reference": "Encounter/0abb8cce-853d-473d-806a-af087bf07f50"
      }, {
        "reference": "Location/0856ee3e-8d09-4e19-9127-49d8488d2055"
      }, {
        "reference": "Coverage/c9175f6d-4d4d-4641-8ee6-ae57a5b98de0"
      }, {
        "reference": "Condition/f89f4b08-e284-4cd5-b3c7-2bc7b411cbe3"
      }, {
        "reference": "Coverage/871a4906-4084-4eac-bf82-17a9f56dfa3f"
      }, {
        "reference": "ServiceRequest/3ce29cac-a799-4d3b-a996-db4399d1b0ac"
      }, {
        "reference": "Organization/e36fa1b9-c31a-4f53-aa7b-9a7706e105b9"
      }, {
        "reference": "Practitioner/74dfaa1f-1e40-4774-a01f-e03b709a496d"
      } ]
    },
    "request": {
      "method": "PUT",
      "url": "MeasureReport/a0c410db-31d6-41ab-85b9-07fcb34b00a2"
    }
  } ]
}