{
  "resourceType": "Bundle",
  "id": "tests-DENEXPass-MV-GT1HrBeforeStartOfFirstProcRelDateTime-bundle",
  "type": "transaction",
  "entry": [ {
    "fullUrl": "https://madie.cms.gov/Encounter/e89ee3d7-79d5-4cb2-9863-85e9d9f2a27b",
    "resource": {
      "resourceType": "Encounter",
      "id": "e89ee3d7-79d5-4cb2-9863-85e9d9f2a27b",
      "meta": {
        "profile": [ "http://hl7.org/fhir/us/qicore/StructureDefinition/qicore-encounter" ]
      },
      "status": "finished",
      "class": {
        "system": "http://terminology.hl7.org/CodeSystem/v3-ActCode",
        "code": "IMP",
        "display": "inpatient encounter"
      },
      "type": [ {
        "coding": [ {
          "system": "http://snomed.info/sct",
          "code": "112689000",
          "display": "Hospital admission, elective, with complete pre-admission work-up"
        } ],
        "text": "Hospital admission, elective, with complete pre-admission work-up"
      } ],
      "priority": {
        "coding": [ {
          "system": "http://snomed.info/sct",
          "code": "103390000"
        } ]
      },
      "subject": {
        "reference": "Patient/29815dd6-1ee5-4811-8452-7aaed65ec1e7"
      },
      "period": {
        "start": "2026-04-10T08:00:00+00:00",
        "end": "2026-04-14T08:15:00+00:00"
      },
      "diagnosis": [ {
        "condition": {
          "reference": "Procedure/53b914fd-183d-41e6-846a-d1e1e1d04daa"
        },
        "rank": 1
      } ]
    },
    "request": {
      "method": "PUT",
      "url": "Encounter/e89ee3d7-79d5-4cb2-9863-85e9d9f2a27b"
    }
  }, {
    "fullUrl": "https://madie.cms.gov/Patient/29815dd6-1ee5-4811-8452-7aaed65ec1e7",
    "resource": {
      "resourceType": "Patient",
      "id": "29815dd6-1ee5-4811-8452-7aaed65ec1e7",
      "meta": {
        "profile": [ "http://hl7.org/fhir/us/qicore/StructureDefinition/qicore-patient" ]
      },
      "extension": [ {
        "url": "http://hl7.org/fhir/us/core/StructureDefinition/us-core-race",
        "extension": [ {
          "url": "ombCategory",
          "valueCoding": {
            "system": "urn:oid:2.16.840.1.113883.6.238",
            "code": "2054-5",
            "display": "Black or African American",
            "userSelected": true
          }
        }, {
          "url": "text",
          "valueString": "Black or African American"
        } ]
      }, {
        "url": "http://hl7.org/fhir/us/core/StructureDefinition/us-core-ethnicity",
        "extension": [ {
          "url": "ombCategory",
          "valueCoding": {
            "system": "urn:oid:2.16.840.1.113883.6.238",
            "code": "2186-5",
            "display": "Not Hispanic or Latino",
            "userSelected": true
          }
        }, {
          "url": "text",
          "valueString": "Not Hispanic or Latino"
        } ]
      } ],
      "identifier": [ {
        "type": {
          "coding": [ {
            "system": "http://terminology.hl7.org/CodeSystem/v2-0203",
            "code": "MR"
          } ]
        },
        "system": "https://bonnie-fhir.healthit.gov/",
        "value": "61152a3b98086b7a79cbd7c1"
      } ],
      "active": true,
      "name": [ {
        "use": "usual",
        "family": "DENEXPass",
        "given": [ "MV-GT1HrBeforeStartOfFirstProcRelDateTime" ]
      } ],
      "gender": "female",
      "birthDate": "1966-07-12"
    },
    "request": {
      "method": "PUT",
      "url": "Patient/29815dd6-1ee5-4811-8452-7aaed65ec1e7"
    }
  }, {
    "fullUrl": "https://madie.cms.gov/Procedure/53b914fd-183d-41e6-846a-d1e1e1d04daa",
    "resource": {
      "resourceType": "Procedure",
      "id": "53b914fd-183d-41e6-846a-d1e1e1d04daa",
      "meta": {
        "profile": [ "http://hl7.org/fhir/us/qicore/StructureDefinition/qicore-procedure" ]
      },
      "extension": [ {
        "url": "http://hl7.org/fhir/us/qicore/StructureDefinition/qicore-recorded",
        "valueDateTime": "2026-04-11T08:10:00+00:00"
      } ],
      "status": "completed",
      "category": {
        "coding": [ {
          "system": "http://snomed.info/sct",
          "code": "18286008",
          "display": "General or neuraxial anesthesia"
        } ]
      },
      "code": {
        "coding": [ {
          "system": "http://snomed.info/sct",
          "code": "112943005",
          "display": "Epidural injection of anesthetic substance, diagnostic, caudal, continuous"
        } ]
      },
      "subject": {
        "reference": "Patient/29815dd6-1ee5-4811-8452-7aaed65ec1e7"
      },
      "performedDateTime": "2026-04-11T08:00:00+00:00"
    },
    "request": {
      "method": "PUT",
      "url": "Procedure/53b914fd-183d-41e6-846a-d1e1e1d04daa"
    }
  }, {
    "fullUrl": "https://madie.cms.gov/Procedure/12cbde32-78f7-4d97-b158-227c8c022777",
    "resource": {
      "resourceType": "Procedure",
      "id": "12cbde32-78f7-4d97-b158-227c8c022777",
      "meta": {
        "profile": [ "http://hl7.org/fhir/us/qicore/StructureDefinition/qicore-procedure" ]
      },
      "extension": [ {
        "url": "http://hl7.org/fhir/us/qicore/StructureDefinition/qicore-recorded",
        "valueDateTime": "2026-04-13T10:10:30+00:00"
      } ],
      "status": "completed",
      "code": {
        "coding": [ {
          "system": "http://www.cms.gov/Medicare/Coding/ICD10",
          "code": "0BH13EZ",
          "display": "Insertion of Endotracheal Airway into Trachea, Percutaneous Approach"
        } ],
        "text": "Insertion of Endotracheal Airway into Trachea, Percutaneous Approach"
      },
      "subject": {
        "reference": "Patient/29815dd6-1ee5-4811-8452-7aaed65ec1e7"
      },
      "performedPeriod": {
        "start": "2026-04-12T08:00:00+00:00",
        "end": "2026-04-13T10:15:00+00:00"
      }
    },
    "request": {
      "method": "PUT",
      "url": "Procedure/12cbde32-78f7-4d97-b158-227c8c022777"
    }
  }, {
    "fullUrl": "https://madie.cms.gov/Procedure/5407eeff-9b4a-494a-bc08-6d49dba6f65c",
    "resource": {
      "resourceType": "Procedure",
      "id": "5407eeff-9b4a-494a-bc08-6d49dba6f65c",
      "meta": {
        "profile": [ "http://hl7.org/fhir/us/qicore/StructureDefinition/qicore-procedure" ]
      },
      "extension": [ {
        "url": "http://hl7.org/fhir/us/qicore/StructureDefinition/qicore-recorded",
        "valueDateTime": "2026-04-11T07:10:30+00:00"
      } ],
      "status": "completed",
      "code": {
        "coding": [ {
          "system": "http://snomed.info/sct",
          "code": "243141005",
          "display": "Mechanically assisted spontaneous ventilation"
        } ],
        "text": "Mechanically assisted spontaneous ventilation"
      },
      "subject": {
        "reference": "Patient/29815dd6-1ee5-4811-8452-7aaed65ec1e7"
      },
      "performedPeriod": {
        "start": "2026-04-11T06:00:00+00:00",
        "end": "2026-04-11T10:15:00+00:00"
      }
    },
    "request": {
      "method": "PUT",
      "url": "Procedure/5407eeff-9b4a-494a-bc08-6d49dba6f65c"
    }
  }, {
    "fullUrl": "https://madie.cms.gov/MeasureReport/65b3e9e3-4640-45f8-b687-7581911b2e3d",
    "resource": {
      "resourceType": "MeasureReport",
      "id": "65b3e9e3-4640-45f8-b687-7581911b2e3d",
      "meta": {
        "profile": [ "http://hl7.org/fhir/us/cqfmeasures/StructureDefinition/test-case-cqfm" ]
      },
      "contained": [ {
        "resourceType": "Parameters",
        "id": "5009152d-84cf-44cd-8065-644a84aa211d-parameters",
        "parameter": [ {
          "name": "subject",
          "valueString": "29815dd6-1ee5-4811-8452-7aaed65ec1e7"
        } ]
      } ],
      "extension": [ {
        "url": "http://hl7.org/fhir/us/cqfmeasures/StructureDefinition/cqfm-inputParameters",
        "valueReference": {
          "reference": "#5009152d-84cf-44cd-8065-644a84aa211d-parameters"
        }
      }, {
        "url": "http://hl7.org/fhir/us/cqfmeasures/StructureDefinition/cqfm-testCaseDescription",
        "valueMarkdown": "Elective hosp with proc (anesthesia) within first 3 days of encounter. Intubated within 30 days after end of anesthesia, outside of OR location. Had mech vent start >1 hr. before start of first proc's relevant datetime. Meets Exc.\n"
      } ],
      "modifierExtension": [ {
        "url": "http://hl7.org/fhir/us/cqfmeasures/StructureDefinition/cqfm-isTestCase",
        "valueBoolean": true
      } ],
      "status": "complete",
      "type": "individual",
      "measure": "https://madie.cms.gov/Measure/CMS1218HHRFFHIR",
      "period": {
        "start": "2026-01-01",
        "end": "2026-12-31"
      },
      "group": [ {
        "population": [ {
          "code": {
            "coding": [ {
              "system": "http://terminology.hl7.org/CodeSystem/measure-population",
              "code": "initial-population",
              "display": "Initial Population"
            } ]
          },
          "count": 1
        }, {
          "code": {
            "coding": [ {
              "system": "http://terminology.hl7.org/CodeSystem/measure-population",
              "code": "denominator",
              "display": "Denominator"
            } ]
          },
          "count": 1
        }, {
          "code": {
            "coding": [ {
              "system": "http://terminology.hl7.org/CodeSystem/measure-population",
              "code": "denominator-exclusion",
              "display": "Denominator Exclusion"
            } ]
          },
          "count": 1
        }, {
          "code": {
            "coding": [ {
              "system": "http://terminology.hl7.org/CodeSystem/measure-population",
              "code": "numerator",
              "display": "Numerator"
            } ]
          },
          "count": 0
        } ]
      } ],
      "evaluatedResource": [ {
        "reference": "Encounter/e89ee3d7-79d5-4cb2-9863-85e9d9f2a27b"
      }, {
        "reference": "Patient/29815dd6-1ee5-4811-8452-7aaed65ec1e7"
      }, {
        "reference": "Procedure/53b914fd-183d-41e6-846a-d1e1e1d04daa"
      }, {
        "reference": "Procedure/12cbde32-78f7-4d97-b158-227c8c022777"
      }, {
        "reference": "Procedure/5407eeff-9b4a-494a-bc08-6d49dba6f65c"
      } ]
    },
    "request": {
      "method": "PUT",
      "url": "MeasureReport/65b3e9e3-4640-45f8-b687-7581911b2e3d"
    }
  } ]
}