{
  "resourceType": "Bundle",
  "id": "6179e951ad1a790b7af7524e",
  "type": "transaction",
  "entry": [ {
    "fullUrl": "https://madie.cms.gov/Patient/baa3f56c-d4df-4922-96a1-603c234b6db4",
    "resource": {
      "resourceType": "Patient",
      "id": "baa3f56c-d4df-4922-96a1-603c234b6db4",
      "meta": {
        "profile": [ "http://hl7.org/fhir/us/qicore/StructureDefinition/qicore-patient" ]
      },
      "extension": [ {
        "url": "http://hl7.org/fhir/us/core/StructureDefinition/us-core-race",
        "extension": [ {
          "url": "ombCategory",
          "valueCoding": {
            "system": "urn:oid:2.16.840.1.113883.6.238",
            "code": "2076-8",
            "display": "Native Hawaiian or Other Pacific Islander",
            "userSelected": true
          }
        }, {
          "url": "text",
          "valueString": "Native Hawaiian or Other Pacific Islander"
        } ]
      }, {
        "url": "http://hl7.org/fhir/us/core/StructureDefinition/us-core-ethnicity",
        "extension": [ {
          "url": "ombCategory",
          "valueCoding": {
            "system": "urn:oid:2.16.840.1.113883.6.238",
            "code": "2186-5",
            "display": "Not Hispanic or Latino",
            "userSelected": true
          }
        }, {
          "url": "text",
          "valueString": "Not Hispanic or Latino"
        } ]
      } ],
      "identifier": [ {
        "type": {
          "coding": [ {
            "system": "http://terminology.hl7.org/CodeSystem/v2-0203",
            "code": "MR"
          } ]
        },
        "system": "https://bonnie-fhir.healthit.gov/",
        "value": "6179e951ad1a790b7af7524e"
      } ],
      "name": [ {
        "family": "DenExcl2Fail",
        "given": [ "PxExclStartsBeforeEDNoEnd" ]
      } ],
      "gender": "female",
      "birthDate": "1985-12-02"
    },
    "request": {
      "method": "PUT",
      "url": "Patient/baa3f56c-d4df-4922-96a1-603c234b6db4"
    }
  }, {
    "fullUrl": "https://madie.cms.gov/Encounter/1309de4b-6dd4-4ac7-a27d-35fef0c1331a",
    "resource": {
      "resourceType": "Encounter",
      "id": "1309de4b-6dd4-4ac7-a27d-35fef0c1331a",
      "meta": {
        "profile": [ "http://hl7.org/fhir/us/qicore/StructureDefinition/qicore-encounter" ]
      },
      "status": "finished",
      "class": {
        "system": "http://terminology.hl7.org/CodeSystem/v3-ActCode",
        "code": "EMER",
        "display": "emergency",
        "userSelected": true
      },
      "type": [ {
        "coding": [ {
          "system": "http://snomed.info/sct",
          "version": "2020-09",
          "code": "4525004",
          "display": "Emergency department patient visit (procedure)",
          "userSelected": true
        } ]
      } ],
      "subject": {
        "reference": "Patient/baa3f56c-d4df-4922-96a1-603c234b6db4"
      },
      "period": {
        "start": "2026-10-09T08:05:00.000+00:00",
        "end": "2026-10-10T07:15:00.000+00:00"
      }
    },
    "request": {
      "method": "PUT",
      "url": "Encounter/1309de4b-6dd4-4ac7-a27d-35fef0c1331a"
    }
  }, {
    "fullUrl": "https://madie.cms.gov/Condition/ab0ff6f4-2e05-4e2e-9d46-70c4893ce44f",
    "resource": {
      "resourceType": "Condition",
      "id": "ab0ff6f4-2e05-4e2e-9d46-70c4893ce44f",
      "meta": {
        "profile": [ "http://hl7.org/fhir/us/qicore/StructureDefinition/qicore-condition" ]
      },
      "clinicalStatus": {
        "coding": [ {
          "system": "http://terminology.hl7.org/CodeSystem/condition-clinical",
          "code": "active",
          "display": "active",
          "userSelected": true
        } ]
      },
      "category": [ {
        "coding": [ {
          "system": "http://terminology.hl7.org/CodeSystem/condition-category",
          "code": "encounter-diagnosis",
          "display": "Encounter Diagnosis",
          "userSelected": true
        } ]
      } ],
      "code": {
        "coding": [ {
          "system": "http://snomed.info/sct",
          "version": "2020-09",
          "code": "401303003",
          "display": "Acute ST segment elevation myocardial infarction (disorder)",
          "userSelected": true
        } ]
      },
      "subject": {
        "reference": "Patient/baa3f56c-d4df-4922-96a1-603c234b6db4"
      },
      "onsetDateTime": "2026-10-09T08:30:00.000+00:00"
    },
    "request": {
      "method": "PUT",
      "url": "Condition/ab0ff6f4-2e05-4e2e-9d46-70c4893ce44f"
    }
  }, {
    "fullUrl": "https://madie.cms.gov/Procedure/4dc9e63d-8a1d-4663-9236-ce40da81e669",
    "resource": {
      "resourceType": "Procedure",
      "id": "4dc9e63d-8a1d-4663-9236-ce40da81e669",
      "meta": {
        "profile": [ "http://hl7.org/fhir/us/qicore/StructureDefinition/qicore-procedure" ]
      },
      "extension": [ {
        "url": "http://hl7.org/fhir/us/qicore/StructureDefinition/qicore-recorded",
        "valueDateTime": "2026-10-01T13:15:00.000+00:00"
      } ],
      "status": "completed",
      "category": {
        "coding": [ {
          "system": "http://snomed.info/sct",
          "code": "387713003",
          "display": "Surgical procedure",
          "userSelected": true
        } ]
      },
      "code": {
        "coding": [ {
          "system": "http://www.icd10data.com/icd10pcs",
          "version": "2021",
          "code": "0B110F4",
          "display": "Bypass Trachea to Cutaneous with Tracheostomy Device, Open Approach",
          "userSelected": true
        } ]
      },
      "subject": {
        "reference": "Patient/baa3f56c-d4df-4922-96a1-603c234b6db4"
      },
      "performedDateTime": "2026-10-01T13:15:00.000+00:00"
    },
    "request": {
      "method": "PUT",
      "url": "Procedure/4dc9e63d-8a1d-4663-9236-ce40da81e669"
    }
  }, {
    "fullUrl": "https://madie.cms.gov/MeasureReport/c18978ee-2cd0-4861-ac5d-51cfffda4c5d",
    "resource": {
      "resourceType": "MeasureReport",
      "id": "c18978ee-2cd0-4861-ac5d-51cfffda4c5d",
      "meta": {
        "profile": [ "http://hl7.org/fhir/us/cqfmeasures/StructureDefinition/test-case-cqfm" ]
      },
      "contained": [ {
        "resourceType": "Parameters",
        "id": "6e32c3c4-a46b-4b20-938d-a0bbc6e98af3-parameters",
        "parameter": [ {
          "name": "subject",
          "valueString": "baa3f56c-d4df-4922-96a1-603c234b6db4"
        } ]
      } ],
      "extension": [ {
        "url": "http://hl7.org/fhir/us/cqfmeasures/StructureDefinition/cqfm-inputParameters",
        "valueReference": {
          "reference": "#6e32c3c4-a46b-4b20-938d-a0bbc6e98af3-parameters"
        }
      }, {
        "url": "http://hl7.org/fhir/us/cqfmeasures/StructureDefinition/cqfm-testCaseDescription",
        "valueMarkdown": "Patient has endotracheal intubation (exclusion procedure) that starts before the ED encounter and no end"
      } ],
      "modifierExtension": [ {
        "url": "http://hl7.org/fhir/us/cqfmeasures/StructureDefinition/cqfm-isTestCase",
        "valueBoolean": true
      } ],
      "status": "complete",
      "type": "individual",
      "measure": "https://madie.cms.gov/Measure/CMS996FHIRAptTxforSTEMI",
      "period": {
        "start": "2026-01-01",
        "end": "2026-12-31"
      },
      "group": [ {
        "population": [ {
          "code": {
            "coding": [ {
              "system": "http://terminology.hl7.org/CodeSystem/measure-population",
              "code": "initial-population",
              "display": "Initial Population"
            } ]
          },
          "count": 1
        }, {
          "code": {
            "coding": [ {
              "system": "http://terminology.hl7.org/CodeSystem/measure-population",
              "code": "denominator",
              "display": "Denominator"
            } ]
          },
          "count": 1
        }, {
          "code": {
            "coding": [ {
              "system": "http://terminology.hl7.org/CodeSystem/measure-population",
              "code": "denominator-exclusion",
              "display": "Denominator Exclusion"
            } ]
          },
          "count": 0
        }, {
          "code": {
            "coding": [ {
              "system": "http://terminology.hl7.org/CodeSystem/measure-population",
              "code": "numerator",
              "display": "Numerator"
            } ]
          },
          "count": 0
        }, {
          "code": {
            "coding": [ {
              "system": "http://terminology.hl7.org/CodeSystem/measure-population",
              "code": "denominator-exception",
              "display": "Denominator Exception"
            } ]
          },
          "count": 0
        } ]
      } ],
      "evaluatedResource": [ {
        "reference": "Patient/baa3f56c-d4df-4922-96a1-603c234b6db4"
      }, {
        "reference": "Encounter/1309de4b-6dd4-4ac7-a27d-35fef0c1331a"
      }, {
        "reference": "Condition/ab0ff6f4-2e05-4e2e-9d46-70c4893ce44f"
      }, {
        "reference": "Procedure/4dc9e63d-8a1d-4663-9236-ce40da81e669"
      } ]
    },
    "request": {
      "method": "PUT",
      "url": "MeasureReport/c18978ee-2cd0-4861-ac5d-51cfffda4c5d"
    }
  } ]
}