{
  "resourceType": "Bundle",
  "id": "NUMEXPass-FallPOAExcludedWith2ndFallNPOADuringEnc",
  "type": "transaction",
  "entry": [ {
    "fullUrl": "https://madie.cms.gov/Encounter/2fe91c39-8b8d-4e10-9d9e-db8044872039",
    "resource": {
      "resourceType": "Encounter",
      "id": "2fe91c39-8b8d-4e10-9d9e-db8044872039",
      "meta": {
        "profile": [ "http://hl7.org/fhir/us/qicore/StructureDefinition/qicore-encounter" ]
      },
      "status": "finished",
      "class": {
        "system": "http://terminology.hl7.org/CodeSystem/v3-ActCode",
        "code": "IMP",
        "display": "inpatient encounter"
      },
      "type": [ {
        "coding": [ {
          "system": "http://snomed.info/sct",
          "code": "183452005"
        } ]
      } ],
      "subject": {
        "reference": "Patient/788de509-5f56-45df-af1c-ed962256cfe6"
      },
      "period": {
        "start": "2026-11-09T11:00:00+00:00",
        "end": "2026-11-12T08:15:00+00:00"
      },
      "diagnosis": [ {
        "extension": [ {
          "url": "http://hl7.org/fhir/us/qicore/StructureDefinition/qicore-encounter-diagnosisPresentOnAdmission",
          "valueCodeableConcept": {
            "coding": [ {
              "system": "https://www.cms.gov/Medicare/Medicare-Fee-for-Service-Payment/HospitalAcqCond/Coding",
              "code": "W"
            } ]
          }
        } ],
        "condition": {
          "reference": "Condition/5972cb97-e24b-4433-9846-6f253ff5a3ad"
        }
      }, {
        "extension": [ {
          "url": "http://hl7.org/fhir/us/qicore/StructureDefinition/qicore-encounter-diagnosisPresentOnAdmission",
          "valueCodeableConcept": {
            "coding": [ {
              "system": "https://www.cms.gov/Medicare/Medicare-Fee-for-Service-Payment/HospitalAcqCond/Coding",
              "code": "N"
            } ]
          }
        } ],
        "condition": {
          "reference": "Condition/2b87b0d8-2c38-4b26-99be-213d798bc6c6"
        }
      }, {
        "extension": [ {
          "url": "http://hl7.org/fhir/us/qicore/StructureDefinition/qicore-encounter-diagnosisPresentOnAdmission",
          "valueCodeableConcept": {
            "coding": [ {
              "system": "https://www.cms.gov/Medicare/Medicare-Fee-for-Service-Payment/HospitalAcqCond/Coding",
              "code": "N"
            } ]
          }
        } ],
        "condition": {
          "reference": "Condition/781c5b89-837d-4e3c-aae8-cb7e4da6606f"
        }
      }, {
        "extension": [ {
          "url": "http://hl7.org/fhir/us/qicore/StructureDefinition/qicore-encounter-diagnosisPresentOnAdmission",
          "valueCodeableConcept": {
            "coding": [ {
              "system": "https://www.cms.gov/Medicare/Medicare-Fee-for-Service-Payment/HospitalAcqCond/Coding",
              "code": "N"
            } ]
          }
        } ],
        "condition": {
          "reference": "Condition/43ce65b9-c19d-4933-8418-f4be6d1592f2"
        }
      } ]
    },
    "request": {
      "method": "PUT",
      "url": "Encounter/2fe91c39-8b8d-4e10-9d9e-db8044872039"
    }
  }, {
    "fullUrl": "https://madie.cms.gov/Encounter/65594f4a-1710-4d55-892c-5eb30b0233d7",
    "resource": {
      "resourceType": "Encounter",
      "id": "65594f4a-1710-4d55-892c-5eb30b0233d7",
      "meta": {
        "profile": [ "http://hl7.org/fhir/us/qicore/StructureDefinition/qicore-encounter" ]
      },
      "status": "finished",
      "class": {
        "system": "http://terminology.hl7.org/CodeSystem/v3-ActCode",
        "code": "IMP",
        "display": "inpatient encounter"
      },
      "type": [ {
        "coding": [ {
          "system": "http://snomed.info/sct",
          "code": "4525004"
        } ]
      } ],
      "subject": {
        "reference": "Patient/788de509-5f56-45df-af1c-ed962256cfe6"
      },
      "period": {
        "start": "2026-11-09T08:00:00+00:00",
        "end": "2026-11-09T10:15:00+00:00"
      }
    },
    "request": {
      "method": "PUT",
      "url": "Encounter/65594f4a-1710-4d55-892c-5eb30b0233d7"
    }
  }, {
    "fullUrl": "https://madie.cms.gov/Condition/43ce65b9-c19d-4933-8418-f4be6d1592f2",
    "resource": {
      "resourceType": "Condition",
      "id": "43ce65b9-c19d-4933-8418-f4be6d1592f2",
      "meta": {
        "profile": [ "http://hl7.org/fhir/us/qicore/StructureDefinition/qicore-condition" ]
      },
      "clinicalStatus": {
        "coding": [ {
          "system": "http://terminology.hl7.org/CodeSystem/condition-clinical",
          "code": "active"
        } ]
      },
      "verificationStatus": {
        "coding": [ {
          "system": "http://terminology.hl7.org/CodeSystem/condition-ver-status",
          "code": "confirmed"
        } ]
      },
      "category": [ {
        "coding": [ {
          "system": "http://terminology.hl7.org/CodeSystem/condition-category",
          "code": "encounter-diagnosis",
          "display": "Encounter Diagnosis"
        } ]
      } ],
      "code": {
        "coding": [ {
          "system": "http://hl7.org/fhir/sid/icd-10-cm",
          "code": "M80.00XA"
        } ]
      },
      "subject": {
        "reference": "Patient/788de509-5f56-45df-af1c-ed962256cfe6"
      },
      "encounter": {
        "reference": "Encounter/2fe91c39-8b8d-4e10-9d9e-db8044872039"
      }
    },
    "request": {
      "method": "PUT",
      "url": "Condition/43ce65b9-c19d-4933-8418-f4be6d1592f2"
    }
  }, {
    "fullUrl": "https://madie.cms.gov/Condition/781c5b89-837d-4e3c-aae8-cb7e4da6606f",
    "resource": {
      "resourceType": "Condition",
      "id": "781c5b89-837d-4e3c-aae8-cb7e4da6606f",
      "meta": {
        "profile": [ "http://hl7.org/fhir/us/qicore/StructureDefinition/qicore-condition" ]
      },
      "clinicalStatus": {
        "coding": [ {
          "system": "http://terminology.hl7.org/CodeSystem/condition-clinical",
          "code": "active"
        } ]
      },
      "verificationStatus": {
        "coding": [ {
          "system": "http://terminology.hl7.org/CodeSystem/condition-ver-status",
          "code": "confirmed"
        } ]
      },
      "category": [ {
        "coding": [ {
          "system": "http://terminology.hl7.org/CodeSystem/condition-category",
          "code": "encounter-diagnosis",
          "display": "Encounter Diagnosis"
        } ]
      } ],
      "code": {
        "coding": [ {
          "system": "http://snomed.info/sct",
          "code": "14047009"
        } ]
      },
      "subject": {
        "reference": "Patient/788de509-5f56-45df-af1c-ed962256cfe6"
      },
      "encounter": {
        "reference": "Encounter/2fe91c39-8b8d-4e10-9d9e-db8044872039"
      }
    },
    "request": {
      "method": "PUT",
      "url": "Condition/781c5b89-837d-4e3c-aae8-cb7e4da6606f"
    }
  }, {
    "fullUrl": "https://madie.cms.gov/Condition/2b87b0d8-2c38-4b26-99be-213d798bc6c6",
    "resource": {
      "resourceType": "Condition",
      "id": "2b87b0d8-2c38-4b26-99be-213d798bc6c6",
      "meta": {
        "profile": [ "http://hl7.org/fhir/us/qicore/StructureDefinition/qicore-condition" ]
      },
      "clinicalStatus": {
        "coding": [ {
          "system": "http://terminology.hl7.org/CodeSystem/condition-clinical",
          "code": "active"
        } ]
      },
      "verificationStatus": {
        "coding": [ {
          "system": "http://terminology.hl7.org/CodeSystem/condition-ver-status",
          "code": "confirmed"
        } ]
      },
      "category": [ {
        "coding": [ {
          "system": "http://terminology.hl7.org/CodeSystem/condition-category",
          "code": "encounter-diagnosis",
          "display": "Encounter Diagnosis"
        } ]
      } ],
      "code": {
        "coding": [ {
          "system": "http://hl7.org/fhir/sid/icd-10-cm",
          "code": "S01.302A"
        } ]
      },
      "subject": {
        "reference": "Patient/788de509-5f56-45df-af1c-ed962256cfe6"
      },
      "encounter": {
        "reference": "Encounter/2fe91c39-8b8d-4e10-9d9e-db8044872039"
      }
    },
    "request": {
      "method": "PUT",
      "url": "Condition/2b87b0d8-2c38-4b26-99be-213d798bc6c6"
    }
  }, {
    "fullUrl": "https://madie.cms.gov/Condition/5972cb97-e24b-4433-9846-6f253ff5a3ad",
    "resource": {
      "resourceType": "Condition",
      "id": "5972cb97-e24b-4433-9846-6f253ff5a3ad",
      "meta": {
        "profile": [ "http://hl7.org/fhir/us/qicore/StructureDefinition/qicore-condition" ]
      },
      "clinicalStatus": {
        "coding": [ {
          "system": "http://terminology.hl7.org/CodeSystem/condition-clinical",
          "code": "active"
        } ]
      },
      "verificationStatus": {
        "coding": [ {
          "system": "http://terminology.hl7.org/CodeSystem/condition-ver-status",
          "code": "confirmed"
        } ]
      },
      "category": [ {
        "coding": [ {
          "system": "http://terminology.hl7.org/CodeSystem/condition-category",
          "code": "encounter-diagnosis",
          "display": "Encounter Diagnosis"
        } ]
      } ],
      "code": {
        "coding": [ {
          "system": "http://hl7.org/fhir/sid/icd-10-cm",
          "code": "W01.0XXA"
        } ]
      },
      "subject": {
        "reference": "Patient/788de509-5f56-45df-af1c-ed962256cfe6"
      },
      "encounter": {
        "reference": "Encounter/2fe91c39-8b8d-4e10-9d9e-db8044872039"
      }
    },
    "request": {
      "method": "PUT",
      "url": "Condition/5972cb97-e24b-4433-9846-6f253ff5a3ad"
    }
  }, {
    "fullUrl": "https://madie.cms.gov/Patient/788de509-5f56-45df-af1c-ed962256cfe6",
    "resource": {
      "resourceType": "Patient",
      "id": "788de509-5f56-45df-af1c-ed962256cfe6",
      "meta": {
        "profile": [ "http://hl7.org/fhir/us/qicore/StructureDefinition/qicore-patient" ]
      },
      "extension": [ {
        "url": "http://hl7.org/fhir/us/core/StructureDefinition/us-core-race",
        "extension": [ {
          "url": "ombCategory",
          "valueCoding": {
            "system": "urn:oid:2.16.840.1.113883.6.238",
            "code": "2054-5",
            "display": "Black or African American",
            "userSelected": true
          }
        }, {
          "url": "text",
          "valueString": "Black or African American"
        } ]
      }, {
        "url": "http://hl7.org/fhir/us/core/StructureDefinition/us-core-ethnicity",
        "extension": [ {
          "url": "ombCategory",
          "valueCoding": {
            "system": "urn:oid:2.16.840.1.113883.6.238",
            "code": "2186-5",
            "display": "Not Hispanic or Latino",
            "userSelected": true
          }
        }, {
          "url": "text",
          "valueString": "Not Hispanic or Latino"
        } ]
      } ],
      "identifier": [ {
        "type": {
          "coding": [ {
            "system": "http://terminology.hl7.org/CodeSystem/v2-0203",
            "code": "MR"
          } ]
        },
        "system": "https://bonnie-fhir.healthit.gov/",
        "value": "61152a3b98086b7a79cbd7c1"
      } ],
      "active": true,
      "name": [ {
        "use": "usual",
        "family": "NUMEXPass",
        "given": [ "FallPOAExcludedWith2ndFallNPOADuringEnc" ]
      } ],
      "gender": "male",
      "birthDate": "1964-12-11"
    },
    "request": {
      "method": "PUT",
      "url": "Patient/788de509-5f56-45df-af1c-ed962256cfe6"
    }
  }, {
    "fullUrl": "https://madie.cms.gov/AdverseEvent/0097a569-1f07-4738-aeb8-a660a57176df",
    "resource": {
      "resourceType": "AdverseEvent",
      "id": "0097a569-1f07-4738-aeb8-a660a57176df",
      "meta": {
        "profile": [ "http://hl7.org/fhir/us/qicore/StructureDefinition/qicore-adverseevent" ]
      },
      "actuality": "actual",
      "event": {
        "coding": [ {
          "system": "http://hl7.org/fhir/sid/icd-10-cm",
          "code": "W01.0XXA"
        } ]
      },
      "subject": {
        "reference": "Patient/788de509-5f56-45df-af1c-ed962256cfe6"
      },
      "date": "2026-11-10T08:30:00+00:00"
    },
    "request": {
      "method": "PUT",
      "url": "AdverseEvent/0097a569-1f07-4738-aeb8-a660a57176df"
    }
  }, {
    "fullUrl": "https://madie.cms.gov/MeasureReport/101369bd-9689-45dc-a723-bde343bf7e37",
    "resource": {
      "resourceType": "MeasureReport",
      "id": "101369bd-9689-45dc-a723-bde343bf7e37",
      "meta": {
        "profile": [ "http://hl7.org/fhir/us/cqfmeasures/StructureDefinition/test-case-cqfm" ]
      },
      "contained": [ {
        "resourceType": "Parameters",
        "id": "49f93592-cfb4-4abf-9ed2-38cc99a63fd9-parameters",
        "parameter": [ {
          "name": "subject",
          "valueString": "788de509-5f56-45df-af1c-ed962256cfe6"
        } ]
      } ],
      "extension": [ {
        "url": "http://hl7.org/fhir/us/cqfmeasures/StructureDefinition/cqfm-inputParameters",
        "valueReference": {
          "reference": "#49f93592-cfb4-4abf-9ed2-38cc99a63fd9-parameters"
        }
      }, {
        "url": "http://hl7.org/fhir/us/cqfmeasures/StructureDefinition/cqfm-testCaseDescription",
        "valueMarkdown": "Encounter with a fall POA (ind = W). Later had an adverse event fall during encounter  and encounter dx of moderate injury NPOA (ind = N) which meets Num. But Fall POA excludes case from Denom and Num, and both MOs = 0. "
      } ],
      "modifierExtension": [ {
        "url": "http://hl7.org/fhir/us/cqfmeasures/StructureDefinition/cqfm-isTestCase",
        "valueBoolean": true
      } ],
      "status": "complete",
      "type": "individual",
      "measure": "https://madie.cms.gov/Measure/FallsWithInjuryFHIR",
      "period": {
        "start": "2026-01-01",
        "end": "2026-12-31"
      },
      "group": [ {
        "population": [ {
          "code": {
            "coding": [ {
              "system": "http://terminology.hl7.org/CodeSystem/measure-population",
              "code": "initial-population",
              "display": "Initial Population"
            } ]
          },
          "count": 1
        }, {
          "code": {
            "coding": [ {
              "system": "http://terminology.hl7.org/CodeSystem/measure-population",
              "code": "denominator",
              "display": "Denominator"
            } ]
          },
          "count": 1
        }, {
          "code": {
            "coding": [ {
              "system": "http://terminology.hl7.org/CodeSystem/measure-population",
              "code": "denominator-exclusion",
              "display": "Denominator Exclusion"
            } ]
          },
          "count": 1
        }, {
          "code": {
            "coding": [ {
              "system": "http://terminology.hl7.org/CodeSystem/measure-population",
              "code": "numerator",
              "display": "Numerator"
            } ]
          },
          "count": 1
        }, {
          "code": {
            "coding": [ {
              "system": "http://terminology.hl7.org/CodeSystem/measure-population",
              "code": "numerator-exclusion",
              "display": "Numerator Exclusion"
            } ]
          },
          "count": 1
        } ]
      } ],
      "evaluatedResource": [ {
        "reference": "Encounter/2fe91c39-8b8d-4e10-9d9e-db8044872039"
      }, {
        "reference": "Encounter/65594f4a-1710-4d55-892c-5eb30b0233d7"
      }, {
        "reference": "Condition/43ce65b9-c19d-4933-8418-f4be6d1592f2"
      }, {
        "reference": "Condition/781c5b89-837d-4e3c-aae8-cb7e4da6606f"
      }, {
        "reference": "Condition/2b87b0d8-2c38-4b26-99be-213d798bc6c6"
      }, {
        "reference": "Condition/5972cb97-e24b-4433-9846-6f253ff5a3ad"
      }, {
        "reference": "Patient/788de509-5f56-45df-af1c-ed962256cfe6"
      }, {
        "reference": "AdverseEvent/0097a569-1f07-4738-aeb8-a660a57176df"
      } ]
    },
    "request": {
      "method": "PUT",
      "url": "MeasureReport/101369bd-9689-45dc-a723-bde343bf7e37"
    }
  } ]
}