{
  "resourceType": "Bundle",
  "id": "617ad5c91e8170ac98fce636",
  "type": "transaction",
  "entry": [ {
    "fullUrl": "https://madie.cms.gov/Patient/de428bd5-59d6-4d0f-a8ee-c581cf94b5e4",
    "resource": {
      "resourceType": "Patient",
      "id": "de428bd5-59d6-4d0f-a8ee-c581cf94b5e4",
      "meta": {
        "profile": [ "http://hl7.org/fhir/us/qicore/StructureDefinition/qicore-patient" ]
      },
      "extension": [ {
        "url": "http://hl7.org/fhir/us/core/StructureDefinition/us-core-race",
        "extension": [ {
          "url": "ombCategory",
          "valueCoding": {
            "system": "urn:oid:2.16.840.1.113883.6.238",
            "code": "2076-8",
            "display": "Native Hawaiian or Other Pacific Islander",
            "userSelected": true
          }
        }, {
          "url": "text",
          "valueString": "Native Hawaiian or Other Pacific Islander"
        } ]
      }, {
        "url": "http://hl7.org/fhir/us/core/StructureDefinition/us-core-ethnicity",
        "extension": [ {
          "url": "ombCategory",
          "valueCoding": {
            "system": "urn:oid:2.16.840.1.113883.6.238",
            "code": "2186-5",
            "display": "Not Hispanic or Latino",
            "userSelected": true
          }
        }, {
          "url": "text",
          "valueString": "Not Hispanic or Latino"
        } ]
      } ],
      "identifier": [ {
        "type": {
          "coding": [ {
            "system": "http://terminology.hl7.org/CodeSystem/v2-0203",
            "code": "MR"
          } ]
        },
        "system": "https://bonnie-fhir.healthit.gov/",
        "value": "617ad5c91e8170ac98fce636"
      } ],
      "name": [ {
        "family": "IPFail",
        "given": [ "EncBeforeMP" ]
      } ],
      "gender": "female",
      "birthDate": "1985-12-02"
    },
    "request": {
      "method": "PUT",
      "url": "Patient/de428bd5-59d6-4d0f-a8ee-c581cf94b5e4"
    }
  }, {
    "fullUrl": "https://madie.cms.gov/Encounter/71ac5995-51e7-4805-a9bd-98cb9ee205e8",
    "resource": {
      "resourceType": "Encounter",
      "id": "71ac5995-51e7-4805-a9bd-98cb9ee205e8",
      "meta": {
        "profile": [ "http://hl7.org/fhir/us/qicore/StructureDefinition/qicore-encounter" ]
      },
      "status": "finished",
      "class": {
        "system": "http://terminology.hl7.org/CodeSystem/v3-ActCode",
        "code": "EMER",
        "display": "emergency",
        "userSelected": true
      },
      "type": [ {
        "coding": [ {
          "system": "http://snomed.info/sct",
          "version": "2020-09",
          "code": "4525004",
          "display": "Emergency department patient visit (procedure)",
          "userSelected": true
        } ]
      } ],
      "subject": {
        "reference": "Patient/de428bd5-59d6-4d0f-a8ee-c581cf94b5e4"
      },
      "period": {
        "start": "2024-10-09T08:05:00.000+00:00",
        "end": "2024-10-10T07:15:00.000+00:00"
      },
      "diagnosis": [ {
        "condition": {
          "reference": "Condition/b05dd098-225f-4d35-be17-513b4547c1f0"
        }
      } ]
    },
    "request": {
      "method": "PUT",
      "url": "Encounter/71ac5995-51e7-4805-a9bd-98cb9ee205e8"
    }
  }, {
    "fullUrl": "https://madie.cms.gov/Condition/b05dd098-225f-4d35-be17-513b4547c1f0",
    "resource": {
      "resourceType": "Condition",
      "id": "b05dd098-225f-4d35-be17-513b4547c1f0",
      "meta": {
        "profile": [ "http://hl7.org/fhir/us/qicore/StructureDefinition/qicore-condition" ]
      },
      "clinicalStatus": {
        "coding": [ {
          "system": "http://terminology.hl7.org/CodeSystem/condition-clinical",
          "code": "active",
          "display": "active",
          "userSelected": true
        } ]
      },
      "category": [ {
        "coding": [ {
          "system": "http://terminology.hl7.org/CodeSystem/condition-category",
          "code": "encounter-diagnosis",
          "display": "Encounter Diagnosis",
          "userSelected": true
        } ]
      } ],
      "code": {
        "coding": [ {
          "system": "http://snomed.info/sct",
          "version": "2020-09",
          "code": "401303003",
          "display": "Acute ST segment elevation myocardial infarction (disorder)",
          "userSelected": true
        } ]
      },
      "subject": {
        "reference": "Patient/de428bd5-59d6-4d0f-a8ee-c581cf94b5e4"
      },
      "recordedDate": "2026-10-09T08:00:00.000+00:00"
    },
    "request": {
      "method": "PUT",
      "url": "Condition/b05dd098-225f-4d35-be17-513b4547c1f0"
    }
  }, {
    "fullUrl": "https://madie.cms.gov/MeasureReport/91200c35-e478-4c14-853c-aa15e5d8ed1f",
    "resource": {
      "resourceType": "MeasureReport",
      "id": "91200c35-e478-4c14-853c-aa15e5d8ed1f",
      "meta": {
        "profile": [ "http://hl7.org/fhir/us/cqfmeasures/StructureDefinition/test-case-cqfm" ]
      },
      "contained": [ {
        "resourceType": "Parameters",
        "id": "81be23f7-932c-4931-94ca-bbcbe2cacd05-parameters",
        "parameter": [ {
          "name": "subject",
          "valueString": "de428bd5-59d6-4d0f-a8ee-c581cf94b5e4"
        } ]
      } ],
      "extension": [ {
        "url": "http://hl7.org/fhir/us/cqfmeasures/StructureDefinition/cqfm-inputParameters",
        "valueReference": {
          "reference": "#81be23f7-932c-4931-94ca-bbcbe2cacd05-parameters"
        }
      }, {
        "url": "http://hl7.org/fhir/us/cqfmeasures/StructureDefinition/cqfm-testCaseDescription",
        "valueMarkdown": "Patient is over 18 years old and has an encounter before the MP"
      } ],
      "modifierExtension": [ {
        "url": "http://hl7.org/fhir/us/cqfmeasures/StructureDefinition/cqfm-isTestCase",
        "valueBoolean": true
      } ],
      "status": "complete",
      "type": "individual",
      "measure": "https://madie.cms.gov/Measure/CMS996FHIRAptTxforSTEMI",
      "period": {
        "start": "2026-01-01",
        "end": "2026-12-31"
      },
      "group": [ {
        "population": [ {
          "code": {
            "coding": [ {
              "system": "http://terminology.hl7.org/CodeSystem/measure-population",
              "code": "initial-population",
              "display": "Initial Population"
            } ]
          },
          "count": 0
        }, {
          "code": {
            "coding": [ {
              "system": "http://terminology.hl7.org/CodeSystem/measure-population",
              "code": "denominator",
              "display": "Denominator"
            } ]
          },
          "count": 0
        }, {
          "code": {
            "coding": [ {
              "system": "http://terminology.hl7.org/CodeSystem/measure-population",
              "code": "denominator-exclusion",
              "display": "Denominator Exclusion"
            } ]
          },
          "count": 0
        }, {
          "code": {
            "coding": [ {
              "system": "http://terminology.hl7.org/CodeSystem/measure-population",
              "code": "numerator",
              "display": "Numerator"
            } ]
          },
          "count": 0
        }, {
          "code": {
            "coding": [ {
              "system": "http://terminology.hl7.org/CodeSystem/measure-population",
              "code": "denominator-exception",
              "display": "Denominator Exception"
            } ]
          },
          "count": 0
        } ]
      } ],
      "evaluatedResource": [ {
        "reference": "Patient/de428bd5-59d6-4d0f-a8ee-c581cf94b5e4"
      }, {
        "reference": "Encounter/71ac5995-51e7-4805-a9bd-98cb9ee205e8"
      }, {
        "reference": "Condition/b05dd098-225f-4d35-be17-513b4547c1f0"
      } ]
    },
    "request": {
      "method": "PUT",
      "url": "MeasureReport/91200c35-e478-4c14-853c-aa15e5d8ed1f"
    }
  } ]
}