{
  "resourceType": "Bundle",
  "id": "612e6aaf02c62a011f2eaee7",
  "type": "transaction",
  "entry": [ {
    "fullUrl": "https://madie.cms.gov/Patient/2de13e4e-32bf-4b79-8750-9e0820d2eb4d",
    "resource": {
      "resourceType": "Patient",
      "id": "2de13e4e-32bf-4b79-8750-9e0820d2eb4d",
      "meta": {
        "profile": [ "http://hl7.org/fhir/us/qicore/StructureDefinition/qicore-patient" ]
      },
      "text": {
        "status": "generated",
        "div": "<div xmlns=\"http://www.w3.org/1999/xhtml\"><div class=\"hapiHeaderText\">PtRef_MA_LMWH_OBS <b>NUMERPASS </b></div><table class=\"hapiPropertyTable\"><tbody><tr><td>Identifier</td><td>3dc4a512478cd906257a70aca14edeef</td></tr><tr><td>Date of birth</td><td><span>02 January 1974</span></td></tr></tbody></table></div>"
      },
      "extension": [ {
        "url": "http://hl7.org/fhir/us/core/StructureDefinition/us-core-race",
        "extension": [ {
          "url": "ombCategory",
          "valueCoding": {
            "system": "urn:oid:2.16.840.1.113883.6.238",
            "code": "1002-5",
            "display": "American Indian or Alaska Native",
            "userSelected": true
          }
        }, {
          "url": "text",
          "valueString": "American Indian or Alaska Native"
        } ]
      }, {
        "url": "http://hl7.org/fhir/us/core/StructureDefinition/us-core-ethnicity",
        "extension": [ {
          "url": "ombCategory",
          "valueCoding": {
            "system": "urn:oid:2.16.840.1.113883.6.238",
            "code": "2135-2",
            "display": "Hispanic or Latino",
            "userSelected": true
          }
        }, {
          "url": "text",
          "valueString": "Hispanic or Latino"
        } ]
      } ],
      "identifier": [ {
        "type": {
          "coding": [ {
            "system": "http://terminology.hl7.org/CodeSystem/v2-0203",
            "code": "MR"
          } ]
        },
        "system": "https://bonnie-fhir.healthit.gov/",
        "value": "612e6aaf02c62a011f2eaee7"
      } ],
      "active": true,
      "name": [ {
        "use": "usual",
        "family": "NUMERPass",
        "given": [ "PtRef_MA_LMWH_OBS" ]
      } ],
      "gender": "male",
      "birthDate": "1975-01-02"
    },
    "request": {
      "method": "PUT",
      "url": "Patient/2de13e4e-32bf-4b79-8750-9e0820d2eb4d"
    }
  }, {
    "fullUrl": "https://madie.cms.gov/Encounter/df583a9d-0a82-4d7a-9b76-cc366d2e644e",
    "resource": {
      "resourceType": "Encounter",
      "id": "df583a9d-0a82-4d7a-9b76-cc366d2e644e",
      "meta": {
        "profile": [ "http://hl7.org/fhir/us/qicore/StructureDefinition/qicore-encounter" ]
      },
      "status": "finished",
      "class": {
        "system": "http://terminology.hl7.org/CodeSystem/v3-ActCode",
        "code": "OBSENC",
        "display": "observation encounter"
      },
      "type": [ {
        "coding": [ {
          "system": "http://snomed.info/sct",
          "code": "448951000124107"
        } ]
      } ],
      "subject": {
        "reference": "Patient/2de13e4e-32bf-4b79-8750-9e0820d2eb4d"
      },
      "period": {
        "start": "2026-10-31T05:00:00+00:00",
        "end": "2026-11-01T07:15:00+00:00"
      },
      "length": {
        "value": 1,
        "unit": "days"
      }
    },
    "request": {
      "method": "PUT",
      "url": "Encounter/df583a9d-0a82-4d7a-9b76-cc366d2e644e"
    }
  }, {
    "fullUrl": "https://madie.cms.gov/Encounter/9c4ce6aa-6908-4527-a0ae-b3013d1c8eb6",
    "resource": {
      "resourceType": "Encounter",
      "id": "9c4ce6aa-6908-4527-a0ae-b3013d1c8eb6",
      "meta": {
        "profile": [ "http://hl7.org/fhir/us/qicore/StructureDefinition/qicore-encounter" ]
      },
      "status": "finished",
      "class": {
        "system": "http://terminology.hl7.org/CodeSystem/v3-ActCode",
        "code": "IMP",
        "display": "inpatient encounter"
      },
      "type": [ {
        "coding": [ {
          "system": "http://snomed.info/sct",
          "code": "8715000"
        } ]
      } ],
      "subject": {
        "reference": "Patient/2de13e4e-32bf-4b79-8750-9e0820d2eb4d"
      },
      "period": {
        "start": "2026-11-01T08:00:00+00:00",
        "end": "2026-11-26T08:15:00+00:00"
      },
      "length": {
        "value": 25,
        "unit": "days"
      }
    },
    "request": {
      "method": "PUT",
      "url": "Encounter/9c4ce6aa-6908-4527-a0ae-b3013d1c8eb6"
    }
  }, {
    "fullUrl": "https://madie.cms.gov/Coverage/c34e3d1b-d172-46a8-99a4-d1d8f35c7f26",
    "resource": {
      "resourceType": "Coverage",
      "id": "c34e3d1b-d172-46a8-99a4-d1d8f35c7f26",
      "status": "active",
      "beneficiary": {
        "reference": "Patient/2de13e4e-32bf-4b79-8750-9e0820d2eb4d"
      },
      "period": {
        "start": "1975-01-02T08:00:00+00:00"
      },
      "payor": [ {
        "reference": "Organization/2644591a-0606-4699-9e46-c4f86aeeb1ce"
      } ]
    },
    "request": {
      "method": "PUT",
      "url": "Coverage/c34e3d1b-d172-46a8-99a4-d1d8f35c7f26"
    }
  }, {
    "fullUrl": "https://madie.cms.gov/MedicationAdministration/3a951c01-20bf-41e7-bf2e-edae4dee36c5",
    "resource": {
      "resourceType": "MedicationAdministration",
      "id": "3a951c01-20bf-41e7-bf2e-edae4dee36c5",
      "meta": {
        "profile": [ "http://hl7.org/fhir/us/qicore/StructureDefinition/qicore-mednotadministered" ]
      },
      "extension": [ {
        "url": "http://hl7.org/fhir/us/qicore/StructureDefinition/qicore-recorded",
        "valueDateTime": "2026-11-02T11:00:00+00:00"
      } ],
      "status": "not-done",
      "statusReason": [ {
        "coding": [ {
          "system": "http://snomed.info/sct",
          "code": "443390004",
          "display": "Refusal of treatment by patient (situation)"
        } ]
      } ],
      "medicationCodeableConcept": {
        "coding": [ {
          "system": "http://www.nlm.nih.gov/research/umls/rxnorm",
          "code": "854228"
        } ]
      },
      "subject": {
        "reference": "Patient/2de13e4e-32bf-4b79-8750-9e0820d2eb4d"
      },
      "effectivePeriod": {
        "start": "2026-11-01T06:00:00+00:00"
      }
    },
    "request": {
      "method": "PUT",
      "url": "MedicationAdministration/3a951c01-20bf-41e7-bf2e-edae4dee36c5"
    }
  }, {
    "fullUrl": "https://madie.cms.gov/Organization/2644591a-0606-4699-9e46-c4f86aeeb1ce",
    "resource": {
      "resourceType": "Organization",
      "id": "2644591a-0606-4699-9e46-c4f86aeeb1ce",
      "meta": {
        "profile": [ "http://hl7.org/fhir/us/qicore/StructureDefinition/qicore-organization" ]
      },
      "identifier": [ {
        "use": "temp",
        "system": "urn:oid:2.16.840.1.113883.4.4",
        "value": "21-3259825"
      } ],
      "active": true,
      "type": [ {
        "coding": [ {
          "system": "http://terminology.hl7.org/CodeSystem/organization-type",
          "code": "pay",
          "display": "Payer"
        } ]
      } ],
      "name": "Blue Cross Blue Shield of Texas",
      "telecom": [ {
        "system": "phone",
        "value": "(+1) 972-766-6900"
      } ],
      "address": [ {
        "use": "billing",
        "type": "postal",
        "line": [ "P.O. Box 660044" ],
        "city": "Dallas",
        "state": "TX",
        "postalCode": "75266-0044",
        "country": "USA"
      } ]
    },
    "request": {
      "method": "PUT",
      "url": "Organization/2644591a-0606-4699-9e46-c4f86aeeb1ce"
    }
  }, {
    "fullUrl": "https://madie.cms.gov/Practitioner/9da30a9a-fdb7-489c-b256-3c78bbe03ea6",
    "resource": {
      "resourceType": "Practitioner",
      "id": "9da30a9a-fdb7-489c-b256-3c78bbe03ea6",
      "identifier": [ {
        "system": "http://hl7.org/fhir/sid/us-npi",
        "value": "123456"
      } ],
      "name": [ {
        "family": "Evil",
        "prefix": [ "Dr" ]
      } ]
    },
    "request": {
      "method": "PUT",
      "url": "Practitioner/9da30a9a-fdb7-489c-b256-3c78bbe03ea6"
    }
  }, {
    "fullUrl": "https://madie.cms.gov/MeasureReport/21460066-9bbf-4761-b793-c3bff5e657be",
    "resource": {
      "resourceType": "MeasureReport",
      "id": "21460066-9bbf-4761-b793-c3bff5e657be",
      "meta": {
        "profile": [ "http://hl7.org/fhir/us/cqfmeasures/StructureDefinition/test-case-cqfm" ]
      },
      "contained": [ {
        "resourceType": "Parameters",
        "id": "bdccabaa-5d29-4cbb-a529-b07ab5116f86-parameters",
        "parameter": [ {
          "name": "subject",
          "valueString": "2de13e4e-32bf-4b79-8750-9e0820d2eb4d"
        } ]
      } ],
      "extension": [ {
        "url": "http://hl7.org/fhir/us/cqfmeasures/StructureDefinition/cqfm-inputParameters",
        "valueReference": {
          "reference": "#bdccabaa-5d29-4cbb-a529-b07ab5116f86-parameters"
        }
      }, {
        "url": "http://hl7.org/fhir/us/cqfmeasures/StructureDefinition/cqfm-testCaseDescription",
        "valueMarkdown": "lmwh not given due to patient refusal during Observation\n"
      } ],
      "modifierExtension": [ {
        "url": "http://hl7.org/fhir/us/cqfmeasures/StructureDefinition/cqfm-isTestCase",
        "valueBoolean": true
      } ],
      "status": "complete",
      "type": "individual",
      "measure": "https://madie.cms.gov/Measure/CMS108VTEProphylaxisFHIR",
      "period": {
        "start": "2026-01-01",
        "end": "2026-12-31"
      },
      "group": [ {
        "population": [ {
          "code": {
            "coding": [ {
              "system": "http://terminology.hl7.org/CodeSystem/measure-population",
              "code": "initial-population",
              "display": "Initial Population"
            } ]
          },
          "count": 1
        }, {
          "code": {
            "coding": [ {
              "system": "http://terminology.hl7.org/CodeSystem/measure-population",
              "code": "denominator",
              "display": "Denominator"
            } ]
          },
          "count": 1
        }, {
          "code": {
            "coding": [ {
              "system": "http://terminology.hl7.org/CodeSystem/measure-population",
              "code": "denominator-exclusion",
              "display": "Denominator Exclusion"
            } ]
          },
          "count": 0
        }, {
          "code": {
            "coding": [ {
              "system": "http://terminology.hl7.org/CodeSystem/measure-population",
              "code": "numerator",
              "display": "Numerator"
            } ]
          },
          "count": 1
        } ]
      } ],
      "evaluatedResource": [ {
        "reference": "Patient/2de13e4e-32bf-4b79-8750-9e0820d2eb4d"
      }, {
        "reference": "Encounter/df583a9d-0a82-4d7a-9b76-cc366d2e644e"
      }, {
        "reference": "Encounter/9c4ce6aa-6908-4527-a0ae-b3013d1c8eb6"
      }, {
        "reference": "Coverage/c34e3d1b-d172-46a8-99a4-d1d8f35c7f26"
      }, {
        "reference": "MedicationAdministration/3a951c01-20bf-41e7-bf2e-edae4dee36c5"
      }, {
        "reference": "Organization/2644591a-0606-4699-9e46-c4f86aeeb1ce"
      }, {
        "reference": "Practitioner/9da30a9a-fdb7-489c-b256-3c78bbe03ea6"
      } ]
    },
    "request": {
      "method": "PUT",
      "url": "MeasureReport/21460066-9bbf-4761-b793-c3bff5e657be"
    }
  } ]
}