{"resourceType":"Bundle","id":"tests-4365633e-3edf-4bcf-a30e-33efb41fd496-bundle","type":"transaction","entry":[{"fullUrl":"https://madie.cms.gov/Patient/4365633e-3edf-4bcf-a30e-33efb41fd496","resource":{"resourceType":"Patient","id":"4365633e-3edf-4bcf-a30e-33efb41fd496","meta":{"profile":["http://hl7.org/fhir/us/qicore/StructureDefinition/qicore-patient"]},"extension":[{"url":"http://hl7.org/fhir/us/core/StructureDefinition/us-core-race","extension":[{"url":"ombCategory","valueCoding":{"system":"urn:oid:2.16.840.1.113883.6.238","code":"2028-9","display":"Asian"}},{"url":"text","valueString":"Asian"}]},{"url":"http://hl7.org/fhir/us/core/StructureDefinition/us-core-ethnicity","extension":[{"url":"ombCategory","valueCoding":{"system":"urn:oid:2.16.840.1.113883.6.238","code":"2135-2","display":"Hispanic or Latino"}},{"url":"text","valueString":"Hispanic or Latino"}]}],"identifier":[{"system":"http://hospital.smarthealthit.org","value":"999999995"}],"name":[{"family":"Bertha","given":["Betty"]}],"gender":"female","birthDate":"2007-01-01"},"request":{"method":"PUT","url":"Patient/4365633e-3edf-4bcf-a30e-33efb41fd496"}},{"fullUrl":"https://madie.cms.gov/Encounter/Encounter-3","resource":{"resourceType":"Encounter","id":"8e469a39-c9d3-4a35-a3a0-15ca244bcac3","meta":{"profile":["http://hl7.org/fhir/us/qicore/StructureDefinition/qicore-encounter"]},"status":"finished","class":{"system":"http://terminology.hl7.org/CodeSystem/v3-ActCode","code":"AMB","display":"ambulatory"},"type":[{"coding":[{"system":"http://snomed.info/sct","code":"3391000175108","display":"Office visit for pediatric care and assessment (procedure)"}]}],"subject":{"reference":"Patient/4365633e-3edf-4bcf-a30e-33efb41fd496"},"period":{"start":"2025-01-01T00:00:00.000Z","end":"2025-01-01T01:00:00.000Z"}},"request":{"method":"PUT","url":"Encounter/8e469a39-c9d3-4a35-a3a0-15ca244bcac3"}},{"fullUrl":"https://madie.cms.gov/MedicationDispense/MedicationDispense-3","resource":{"resourceType":"MedicationDispense","id":"b7103b54-528a-4be2-be0e-43ed22ea455c","meta":{"profile":["http://hl7.org/fhir/us/qicore/StructureDefinition/qicore-medicationdispense"]},"status":"completed","medicationCodeableConcept":{"coding":[{"system":"http://www.nlm.nih.gov/research/umls/rxnorm","code":"1099316","display":"desipramine hydrochloride 75 MG Oral Tablet"}]},"subject":{"reference":"Patient/4365633e-3edf-4bcf-a30e-33efb41fd496"},"daysSupply":{"value":10,"system":"http://unitsofmeasure.org","code":"days"},"whenHandedOver":"2025-01-01T01:00:00.000Z"},"request":{"method":"PUT","url":"MedicationDispense/b7103b54-528a-4be2-be0e-43ed22ea455c"}},{"fullUrl":"https://madie.cms.gov/MedicationDispense/MedicationDispense-3-0","resource":{"resourceType":"MedicationDispense","id":"d3b39afc-1c2d-484d-9eae-5d6c499d360e","meta":{"profile":["http://hl7.org/fhir/us/qicore/StructureDefinition/qicore-medicationdispense"]},"status":"completed","medicationCodeableConcept":{"coding":[{"system":"http://www.nlm.nih.gov/research/umls/rxnorm","code":"1099316","display":"desipramine hydrochloride 75 MG Oral Tablet"}]},"subject":{"reference":"Patient/4365633e-3edf-4bcf-a30e-33efb41fd496"},"daysSupply":{"value":10,"system":"http://unitsofmeasure.org","code":"days"},"whenHandedOver":"2025-03-01T01:00:00.000Z"},"request":{"method":"PUT","url":"MedicationDispense/d3b39afc-1c2d-484d-9eae-5d6c499d360e"}},{"fullUrl":"https://madie.cms.gov/Condition/Condition-3","resource":{"resourceType":"Condition","id":"b6d1c2f8-540d-49ab-97be-81fff1736435","meta":{"profile":["http://hl7.org/fhir/us/qicore/StructureDefinition/qicore-condition"]},"clinicalStatus":{"coding":[{"system":"http://terminology.hl7.org/CodeSystem/condition-clinical","code":"active"}]},"category":[{"coding":[{"system":"http://terminology.hl7.org/CodeSystem/condition-category","code":"problem-list-item","display":"Problem List Item"}]}],"code":{"coding":[{"system":"http://snomed.info/sct","code":"15193003","display":"Severe recurrent major depression with psychotic features, mood-incongruent (disorder)"}]},"subject":{"reference":"Patient/4365633e-3edf-4bcf-a30e-33efb41fd496"},"onsetDateTime":"2025-01-01T01:00:00.000Z"},"request":{"method":"PUT","url":"Condition/b6d1c2f8-540d-49ab-97be-81fff1736435"}},{"fullUrl":"https://madie.cms.gov/MeasureReport/2388ddef-9c69-4236-9430-2ae06eea00ef","resource":{"resourceType":"MeasureReport","id":"2388ddef-9c69-4236-9430-2ae06eea00ef","meta":{"profile":["http://hl7.org/fhir/us/cqfmeasures/StructureDefinition/test-case-cqfm"]},"contained":[{"resourceType":"Parameters","id":"7c6c47bb-20ab-4493-be47-d387382e120f-parameters","parameter":[{"name":"subject","valueString":"4365633e-3edf-4bcf-a30e-33efb41fd496"}]}],"extension":[{"url":"http://hl7.org/fhir/us/cqfmeasures/StructureDefinition/cqfm-inputParameters","valueReference":{"reference":"#7c6c47bb-20ab-4493-be47-d387382e120f-parameters"}},{"url":"http://hl7.org/fhir/us/cqfmeasures/StructureDefinition/cqfm-testCaseDescription","valueMarkdown":"Two dispensing events where the first is considered IPSD"}],"modifierExtension":[{"url":"http://hl7.org/fhir/us/cqfmeasures/StructureDefinition/cqfm-isTestCase","valueBoolean":true}],"status":"complete","type":"individual","measure":"https://madie.cms.gov/Measure/AntidepressantMedicationManagementFHIR","period":{"start":"2025-01-01","end":"2025-12-31"},"group":[{"population":[{"code":{"coding":[{"system":"http://terminology.hl7.org/CodeSystem/measure-population","code":"initial-population","display":"Initial Population"}]},"count":1},{"code":{"coding":[{"system":"http://terminology.hl7.org/CodeSystem/measure-population","code":"denominator","display":"Denominator"}]},"count":1},{"code":{"coding":[{"system":"http://terminology.hl7.org/CodeSystem/measure-population","code":"denominator-exclusion","display":"Denominator Exclusion"}]},"count":0},{"code":{"coding":[{"system":"http://terminology.hl7.org/CodeSystem/measure-population","code":"numerator","display":"Numerator"}]},"count":0}]},{"population":[{"code":{"coding":[{"system":"http://terminology.hl7.org/CodeSystem/measure-population","code":"initial-population","display":"Initial Population"}]},"count":1},{"code":{"coding":[{"system":"http://terminology.hl7.org/CodeSystem/measure-population","code":"denominator","display":"Denominator"}]},"count":1},{"code":{"coding":[{"system":"http://terminology.hl7.org/CodeSystem/measure-population","code":"denominator-exclusion","display":"Denominator Exclusion"}]},"count":0},{"code":{"coding":[{"system":"http://terminology.hl7.org/CodeSystem/measure-population","code":"numerator","display":"Numerator"}]},"count":0}]}]},"request":{"method":"PUT","url":"MeasureReport/2388ddef-9c69-4236-9430-2ae06eea00ef"}}]}