{"resourceType":"Bundle","id":"tests-f737aa8d-fc32-41cd-82be-f0da91e7313c-bundle","type":"transaction","entry":[{"fullUrl":"https://madie.cms.gov/Patient/f737aa8d-fc32-41cd-82be-f0da91e7313c","resource":{"resourceType":"Patient","id":"f737aa8d-fc32-41cd-82be-f0da91e7313c","meta":{"profile":["http://hl7.org/fhir/us/qicore/StructureDefinition/qicore-patient"]},"extension":[{"url":"http://hl7.org/fhir/us/core/StructureDefinition/us-core-race","extension":[{"url":"ombCategory","valueCoding":{"system":"urn:oid:2.16.840.1.113883.6.238","code":"2106-3","display":"White"}},{"url":"text","valueString":"White"}]},{"url":"http://hl7.org/fhir/us/core/StructureDefinition/us-core-ethnicity","extension":[{"url":"ombCategory","valueCoding":{"system":"urn:oid:2.16.840.1.113883.6.238","code":"2186-5","display":"Not Hispanic or Latino"}},{"url":"text","valueString":"Not Hispanic or Latino"}]}],"identifier":[{"type":{"coding":[{"system":"http://terminology.hl7.org/CodeSystem/v2-0203","code":"MR"}]},"system":"https://bonnie-fhir.healthit.gov/","value":"630307cc0968f8012247857e"}],"name":[{"family":"NUMERPopStrat1Pass","given":["AssessmentWithin7DaysofEncounter"]}],"gender":"female","birthDate":"2012-01-01"},"request":{"method":"PUT","url":"Patient/f737aa8d-fc32-41cd-82be-f0da91e7313c"}},{"fullUrl":"https://madie.cms.gov/Encounter/846816468613163156","resource":{"resourceType":"Encounter","id":"fb16b60c-499c-4b80-bbff-ec9da396cbfb","meta":{"profile":["http://hl7.org/fhir/us/qicore/StructureDefinition/qicore-encounter"]},"status":"finished","class":{"system":"http://terminology.hl7.org/CodeSystem/v3-ActCode","code":"AMB","display":"ambulatory"},"type":[{"coding":[{"system":"http://www.ama-assn.org/go/cpt","version":"2024","code":"90791"}]}],"subject":{"reference":"Patient/f737aa8d-fc32-41cd-82be-f0da91e7313c"},"period":{"start":"2024-02-25T14:30:00+00:00","end":"2024-02-25T14:50:00+00:00"},"length":{"value":0,"unit":"days"}},"request":{"method":"PUT","url":"Encounter/fb16b60c-499c-4b80-bbff-ec9da396cbfb"}},{"fullUrl":"https://madie.cms.gov/Observation/98778613516461352131315","resource":{"resourceType":"Observation","id":"298a255f-3e3c-475c-b7d8-4805b55a92b2","meta":{"profile":["http://hl7.org/fhir/us/qicore/StructureDefinition/qicore-observation"]},"status":"final","category":[{"coding":[{"system":"http://terminology.hl7.org/CodeSystem/observation-category","code":"survey","display":"Survey"}]}],"code":{"coding":[{"system":"http://loinc.org","version":"2.76","code":"44261-6"}]},"subject":{"reference":"Patient/f737aa8d-fc32-41cd-82be-f0da91e7313c"},"effectiveDateTime":"2024-02-20T14:35:00+00:00","valueInteger":10},"request":{"method":"PUT","url":"Observation/298a255f-3e3c-475c-b7d8-4805b55a92b2"}},{"fullUrl":"https://madie.cms.gov/Observation/784651651684135131313","resource":{"resourceType":"Observation","id":"4c7f8b69-bd9c-43db-9dcc-e4851c0dfbfa","meta":{"profile":["http://hl7.org/fhir/us/qicore/StructureDefinition/qicore-observation"]},"status":"final","category":[{"coding":[{"system":"http://terminology.hl7.org/CodeSystem/observation-category","code":"survey","display":"Survey"}]}],"code":{"coding":[{"system":"http://loinc.org","version":"2.76","code":"44261-6"}]},"subject":{"reference":"Patient/f737aa8d-fc32-41cd-82be-f0da91e7313c"},"effectiveDateTime":"2025-02-19T14:30:00+00:00","valueInteger":3},"request":{"method":"PUT","url":"Observation/4c7f8b69-bd9c-43db-9dcc-e4851c0dfbfa"}},{"fullUrl":"https://madie.cms.gov/Condition/18961651646466486545","resource":{"resourceType":"Condition","id":"7e17db03-3c63-4dc7-b97b-446361fd3be8","meta":{"profile":["http://hl7.org/fhir/us/qicore/StructureDefinition/qicore-condition"]},"clinicalStatus":{"coding":[{"system":"http://terminology.hl7.org/CodeSystem/condition-clinical","code":"active","display":"active"}]},"verificationStatus":{"coding":[{"system":"http://terminology.hl7.org/CodeSystem/condition-ver-status","code":"confirmed"}]},"category":[{"coding":[{"system":"http://terminology.hl7.org/CodeSystem/condition-category","code":"problem-list-item","display":"Problem List Item"}]}],"code":{"coding":[{"system":"http://hl7.org/fhir/sid/icd-10-cm","version":"2024","code":"F32.9"}]},"subject":{"reference":"Patient/f737aa8d-fc32-41cd-82be-f0da91e7313c"},"onsetDateTime":"2024-02-25T14:35:00+00:00"},"request":{"method":"PUT","url":"Condition/7e17db03-3c63-4dc7-b97b-446361fd3be8"}},{"fullUrl":"https://madie.cms.gov/MeasureReport/9abcfa8a-c472-4394-b774-ccbe93b3fa68","resource":{"resourceType":"MeasureReport","id":"9abcfa8a-c472-4394-b774-ccbe93b3fa68","meta":{"profile":["http://hl7.org/fhir/us/cqfmeasures/StructureDefinition/test-case-cqfm"]},"contained":[{"resourceType":"Parameters","id":"f203094a-1d9d-46e0-8594-88dc092375e6-parameters","parameter":[{"name":"subject","valueString":"f737aa8d-fc32-41cd-82be-f0da91e7313c"}]}],"extension":[{"url":"http://hl7.org/fhir/us/cqfmeasures/StructureDefinition/cqfm-inputParameters","valueReference":{"reference":"#f203094a-1d9d-46e0-8594-88dc092375e6-parameters"}},{"url":"http://hl7.org/fhir/us/cqfmeasures/StructureDefinition/cqfm-testCaseDescription","valueMarkdown":"Patients is 12 years old and has a PHQ-9>9 and a Major Depression diagnosis during the denom ID period. Assessment occurs within 7 day window of encounter. Patient has PHQ-9<5 during MAP. Patient should be in numerator for strat 1. "}],"modifierExtension":[{"url":"http://hl7.org/fhir/us/cqfmeasures/StructureDefinition/cqfm-isTestCase","valueBoolean":true}],"status":"complete","type":"individual","measure":"https://madie.cms.gov/Measure/DepressionRemissionatTwelveMonthsFHIR","period":{"start":"2025-01-01","end":"2025-12-31"},"group":[{"population":[{"code":{"coding":[{"system":"http://terminology.hl7.org/CodeSystem/measure-population","code":"initial-population","display":"Initial Population"}]},"count":1},{"code":{"coding":[{"system":"http://terminology.hl7.org/CodeSystem/measure-population","code":"denominator","display":"Denominator"}]},"count":1},{"code":{"coding":[{"system":"http://terminology.hl7.org/CodeSystem/measure-population","code":"denominator-exclusion","display":"Denominator Exclusion"}]},"count":0},{"code":{"coding":[{"system":"http://terminology.hl7.org/CodeSystem/measure-population","code":"numerator","display":"Numerator"}]},"count":1}]}]},"request":{"method":"PUT","url":"MeasureReport/9abcfa8a-c472-4394-b774-ccbe93b3fa68"}}]}