{"resourceType":"Bundle","id":"tests-aedc0360-4636-4a4e-9617-4bf60c03f767-bundle","type":"transaction","entry":[{"fullUrl":"https://madie.cms.gov/Patient/aedc0360-4636-4a4e-9617-4bf60c03f767","resource":{"resourceType":"Patient","id":"aedc0360-4636-4a4e-9617-4bf60c03f767","meta":{"profile":["http://hl7.org/fhir/us/qicore/StructureDefinition/qicore-patient"]},"extension":[{"url":"http://hl7.org/fhir/us/core/StructureDefinition/us-core-race","extension":[{"url":"ombCategory","valueCoding":{"system":"urn:oid:2.16.840.1.113883.6.238","code":"2106-3","display":"White"}},{"url":"text","valueString":"White"}]},{"url":"http://hl7.org/fhir/us/core/StructureDefinition/us-core-ethnicity","extension":[{"url":"ombCategory","valueCoding":{"system":"urn:oid:2.16.840.1.113883.6.238","code":"2186-5","display":"Not Hispanic or Latino"}},{"url":"text","valueString":"Not Hispanic or Latino"}]}],"identifier":[{"type":{"coding":[{"system":"http://terminology.hl7.org/CodeSystem/v2-0203","code":"MR"}]},"system":"https://bonnie-fhir.healthit.gov/","value":"56464131316461"}],"name":[{"family":"DENEXPopStrat1Pass","given":["PalliativeCareProcedure"]}],"gender":"female","birthDate":"2010-01-01"},"request":{"method":"PUT","url":"Patient/aedc0360-4636-4a4e-9617-4bf60c03f767"}},{"fullUrl":"https://madie.cms.gov/Encounter/846816468613163156","resource":{"resourceType":"Encounter","id":"50575a6f-e228-4f7c-885f-e17ea94ace16","meta":{"profile":["http://hl7.org/fhir/us/qicore/StructureDefinition/qicore-encounter"]},"status":"finished","class":{"system":"http://terminology.hl7.org/CodeSystem/v3-ActCode","code":"AMB","display":"ambulatory"},"type":[{"coding":[{"system":"http://www.ama-assn.org/go/cpt","version":"2024","code":"90791"}]}],"subject":{"reference":"Patient/aedc0360-4636-4a4e-9617-4bf60c03f767"},"period":{"start":"2024-02-25T14:30:00+00:00","end":"2024-02-25T14:50:00+00:00"},"length":{"value":0,"unit":"days"}},"request":{"method":"PUT","url":"Encounter/50575a6f-e228-4f7c-885f-e17ea94ace16"}},{"fullUrl":"https://madie.cms.gov/Observation/98778613516461352131315","resource":{"resourceType":"Observation","id":"036b91f6-dff3-4324-9e5a-38f0579157bf","meta":{"profile":["http://hl7.org/fhir/us/qicore/StructureDefinition/qicore-observation"]},"status":"final","category":[{"coding":[{"system":"http://terminology.hl7.org/CodeSystem/observation-category","code":"survey","display":"Survey"}]}],"code":{"coding":[{"system":"http://loinc.org","version":"2.76","code":"44261-6"}]},"subject":{"reference":"Patient/aedc0360-4636-4a4e-9617-4bf60c03f767"},"effectiveDateTime":"2024-02-25T14:35:00+00:00","valueInteger":10},"request":{"method":"PUT","url":"Observation/036b91f6-dff3-4324-9e5a-38f0579157bf"}},{"fullUrl":"https://madie.cms.gov/Observation/784651651684135131313","resource":{"resourceType":"Observation","id":"8195c379-dbe1-4bc8-901d-4c8d507d92be","meta":{"profile":["http://hl7.org/fhir/us/qicore/StructureDefinition/qicore-observation"]},"status":"final","category":[{"coding":[{"system":"http://terminology.hl7.org/CodeSystem/observation-category","code":"survey","display":"Survey"}]}],"code":{"coding":[{"system":"http://loinc.org","version":"2.76","code":"44261-6"}]},"subject":{"reference":"Patient/aedc0360-4636-4a4e-9617-4bf60c03f767"},"effectiveDateTime":"2025-02-19T14:30:00+00:00","valueInteger":3},"request":{"method":"PUT","url":"Observation/8195c379-dbe1-4bc8-901d-4c8d507d92be"}},{"fullUrl":"https://madie.cms.gov/Condition/18961651646466486545","resource":{"resourceType":"Condition","id":"22d55690-84f2-4d01-a051-16b861326326","meta":{"profile":["http://hl7.org/fhir/us/qicore/StructureDefinition/qicore-condition"]},"clinicalStatus":{"coding":[{"system":"http://terminology.hl7.org/CodeSystem/condition-clinical","code":"active","display":"active"}]},"verificationStatus":{"coding":[{"system":"http://terminology.hl7.org/CodeSystem/condition-ver-status","code":"confirmed"}]},"category":[{"coding":[{"system":"http://terminology.hl7.org/CodeSystem/condition-category","code":"problem-list-item","display":"Problem List Item"}]}],"code":{"coding":[{"system":"http://hl7.org/fhir/sid/icd-10-cm","version":"2024","code":"F32.9","display":"Major Depressive Diagnosis"}]},"subject":{"reference":"Patient/aedc0360-4636-4a4e-9617-4bf60c03f767"},"onsetDateTime":"2024-02-25T14:35:00+00:00"},"request":{"method":"PUT","url":"Condition/22d55690-84f2-4d01-a051-16b861326326"}},{"fullUrl":"https://madie.cms.gov/Procedure/87612313456131","resource":{"resourceType":"Procedure","id":"205ec22c-8d26-45d2-8cd1-a86f87c1f205","meta":{"profile":["http://hl7.org/fhir/us/qicore/StructureDefinition/qicore-procedure"]},"extension":[{"url":"http://hl7.org/fhir/us/qicore/StructureDefinition/qicore-recorded","valueDateTime":"2025-02-05T09:35:00-04:00"}],"status":"completed","code":{"coding":[{"system":"http://snomed.info/sct","version":"http://snomed.info/sct/731000124108/version/20230901","code":"395669003","display":"Specialist palliative care treatment (regime/therapy)"}],"text":"Specialist palliative care treatment (regime/therapy)"},"subject":{"reference":"Patient/aedc0360-4636-4a4e-9617-4bf60c03f767"},"performedDateTime":"2025-02-05T09:35:00-04:00"},"request":{"method":"PUT","url":"Procedure/205ec22c-8d26-45d2-8cd1-a86f87c1f205"}},{"fullUrl":"https://madie.cms.gov/MeasureReport/66e232a4-70a5-45d4-afbb-61d62e8a8875","resource":{"resourceType":"MeasureReport","id":"66e232a4-70a5-45d4-afbb-61d62e8a8875","meta":{"profile":["http://hl7.org/fhir/us/cqfmeasures/StructureDefinition/test-case-cqfm"]},"contained":[{"resourceType":"Parameters","id":"e57773d6-2e7d-43cc-a318-0b24954d447e-parameters","parameter":[{"name":"subject","valueString":"aedc0360-4636-4a4e-9617-4bf60c03f767"}]}],"extension":[{"url":"http://hl7.org/fhir/us/cqfmeasures/StructureDefinition/cqfm-inputParameters","valueReference":{"reference":"#e57773d6-2e7d-43cc-a318-0b24954d447e-parameters"}},{"url":"http://hl7.org/fhir/us/cqfmeasures/StructureDefinition/cqfm-testCaseDescription","valueMarkdown":"Patient is 14 years old and has a Major Depressive Dx and PHQ-9>9 during the denom ID period. Palliative care procedure performed before end of MAP. Note: Stratification Issue."}],"modifierExtension":[{"url":"http://hl7.org/fhir/us/cqfmeasures/StructureDefinition/cqfm-isTestCase","valueBoolean":true}],"status":"complete","type":"individual","measure":"https://madie.cms.gov/Measure/DepressionRemissionatTwelveMonthsFHIR","period":{"start":"2025-01-01","end":"2025-12-31"},"group":[{"population":[{"code":{"coding":[{"system":"http://terminology.hl7.org/CodeSystem/measure-population","code":"initial-population","display":"Initial Population"}]},"count":1},{"code":{"coding":[{"system":"http://terminology.hl7.org/CodeSystem/measure-population","code":"denominator","display":"Denominator"}]},"count":1},{"code":{"coding":[{"system":"http://terminology.hl7.org/CodeSystem/measure-population","code":"denominator-exclusion","display":"Denominator Exclusion"}]},"count":1},{"code":{"coding":[{"system":"http://terminology.hl7.org/CodeSystem/measure-population","code":"numerator","display":"Numerator"}]},"count":0}]}]},"request":{"method":"PUT","url":"MeasureReport/66e232a4-70a5-45d4-afbb-61d62e8a8875"}}]}