{"resourceType":"Bundle","id":"tests-16eff6ae-362b-458a-b631-834ce4ba9402-bundle","type":"transaction","entry":[{"fullUrl":"https://madie.cms.gov/Patient/16eff6ae-362b-458a-b631-834ce4ba9402","resource":{"resourceType":"Patient","id":"16eff6ae-362b-458a-b631-834ce4ba9402","meta":{"profile":["http://hl7.org/fhir/us/qicore/StructureDefinition/qicore-patient"]},"extension":[{"url":"http://hl7.org/fhir/us/core/StructureDefinition/us-core-race","extension":[{"url":"ombCategory","valueCoding":{"system":"urn:oid:2.16.840.1.113883.6.238","code":"2106-3","display":"White"}},{"url":"text","valueString":"White"}]},{"url":"http://hl7.org/fhir/us/core/StructureDefinition/us-core-ethnicity","extension":[{"url":"ombCategory","valueCoding":{"system":"urn:oid:2.16.840.1.113883.6.238","code":"2186-5","display":"Not Hispanic or Latino"}},{"url":"text","valueString":"Not Hispanic or Latino"}]}],"identifier":[{"type":{"coding":[{"system":"http://terminology.hl7.org/CodeSystem/v2-0203","code":"MR"}]},"system":"https://bonnie-fhir.healthit.gov/","value":"630307c50968f80122477cf7"}],"name":[{"family":"DENEXPopStrat2Pass","given":["PersDisordDxMeasureAssessPeriod"]}],"gender":"female","birthDate":"1955-01-01"},"request":{"method":"PUT","url":"Patient/16eff6ae-362b-458a-b631-834ce4ba9402"}},{"fullUrl":"https://madie.cms.gov/Encounter/846816468613163156","resource":{"resourceType":"Encounter","id":"eb7ebb93-e9a3-47b8-8a1f-deb5d6879ab2","meta":{"profile":["http://hl7.org/fhir/us/qicore/StructureDefinition/qicore-encounter"]},"status":"finished","class":{"system":"http://terminology.hl7.org/CodeSystem/v3-ActCode","code":"AMB","display":"ambulatory"},"type":[{"coding":[{"system":"http://www.ama-assn.org/go/cpt","version":"2024","code":"90791"}]}],"subject":{"reference":"Patient/16eff6ae-362b-458a-b631-834ce4ba9402"},"period":{"start":"2024-02-25T14:30:00+00:00","end":"2024-02-25T14:50:00+00:00"},"length":{"value":0,"unit":"days"}},"request":{"method":"PUT","url":"Encounter/eb7ebb93-e9a3-47b8-8a1f-deb5d6879ab2"}},{"fullUrl":"https://madie.cms.gov/Observation/98778613516461352131315","resource":{"resourceType":"Observation","id":"7b07e674-1c0d-4216-9a51-d7571342c307","meta":{"profile":["http://hl7.org/fhir/us/qicore/StructureDefinition/qicore-observation"]},"status":"final","category":[{"coding":[{"system":"http://terminology.hl7.org/CodeSystem/observation-category","code":"survey","display":"Survey"}]}],"code":{"coding":[{"system":"http://loinc.org","version":"2.76","code":"44261-6"}]},"subject":{"reference":"Patient/16eff6ae-362b-458a-b631-834ce4ba9402"},"effectiveDateTime":"2024-02-25T14:35:00+00:00","valueInteger":10},"request":{"method":"PUT","url":"Observation/7b07e674-1c0d-4216-9a51-d7571342c307"}},{"fullUrl":"https://madie.cms.gov/Observation/784651651684135131313","resource":{"resourceType":"Observation","id":"f3c85671-658a-4b37-98de-eac390d3c07f","meta":{"profile":["http://hl7.org/fhir/us/qicore/StructureDefinition/qicore-observation"]},"status":"final","category":[{"coding":[{"system":"http://terminology.hl7.org/CodeSystem/observation-category","code":"survey","display":"Survey"}]}],"code":{"coding":[{"system":"http://loinc.org","version":"2.76","code":"44261-6"}]},"subject":{"reference":"Patient/16eff6ae-362b-458a-b631-834ce4ba9402"},"effectiveDateTime":"2025-02-19T14:30:00+00:00","valueInteger":3},"request":{"method":"PUT","url":"Observation/f3c85671-658a-4b37-98de-eac390d3c07f"}},{"fullUrl":"https://madie.cms.gov/Condition/18961651646466486545","resource":{"resourceType":"Condition","id":"9ab568a7-96dc-401f-82ca-e641e37971e7","meta":{"profile":["http://hl7.org/fhir/us/qicore/StructureDefinition/qicore-condition"]},"clinicalStatus":{"coding":[{"system":"http://terminology.hl7.org/CodeSystem/condition-clinical","code":"active","display":"active"}]},"verificationStatus":{"coding":[{"system":"http://terminology.hl7.org/CodeSystem/condition-ver-status","code":"confirmed"}]},"category":[{"coding":[{"system":"http://terminology.hl7.org/CodeSystem/condition-category","code":"problem-list-item","display":"Problem List Item"}]}],"code":{"coding":[{"system":"http://hl7.org/fhir/sid/icd-10-cm","version":"2024","code":"F32.9"}]},"subject":{"reference":"Patient/16eff6ae-362b-458a-b631-834ce4ba9402"},"onsetDateTime":"2024-02-25T14:35:00+00:00"},"request":{"method":"PUT","url":"Condition/9ab568a7-96dc-401f-82ca-e641e37971e7"}},{"fullUrl":"https://madie.cms.gov/Condition/6435132143513131","resource":{"resourceType":"Condition","id":"0b0a22f7-ae8a-4dcc-89dd-8d34f4f99a72","meta":{"profile":["http://hl7.org/fhir/us/qicore/StructureDefinition/qicore-condition"]},"clinicalStatus":{"coding":[{"system":"http://terminology.hl7.org/CodeSystem/condition-clinical","code":"active","display":"active"}]},"verificationStatus":{"coding":[{"system":"http://terminology.hl7.org/CodeSystem/condition-ver-status","code":"confirmed"}]},"category":[{"coding":[{"system":"http://terminology.hl7.org/CodeSystem/condition-category","code":"problem-list-item","display":"Problem List Item"}]}],"code":{"coding":[{"system":"http://snomed.info/sct","version":"http://snomed.info/sct/731000124108/version/20230301","code":"191765005","display":"Emotionally unstable personality disorder (disorder)"}]},"subject":{"reference":"Patient/16eff6ae-362b-458a-b631-834ce4ba9402"},"onsetDateTime":"2024-02-25T14:35:00+00:00"},"request":{"method":"PUT","url":"Condition/0b0a22f7-ae8a-4dcc-89dd-8d34f4f99a72"}},{"fullUrl":"https://madie.cms.gov/Encounter/13546841616846141","resource":{"resourceType":"Encounter","id":"6873cd2c-f474-4757-9ba6-6c9b8f4ffcb6","meta":{"profile":["http://hl7.org/fhir/us/qicore/StructureDefinition/qicore-encounter"]},"status":"finished","class":{"system":"http://terminology.hl7.org/CodeSystem/v3-ActCode","code":"HH","display":"home health"},"type":[{"coding":[{"system":"http://snomed.info/sct","version":"http://snomed.info/sct/731000124108/version/20240301","code":"305284002"}]}],"subject":{"reference":"Patient/16eff6ae-362b-458a-b631-834ce4ba9402"},"period":{"start":"2024-12-31T08:00:00+00:00","end":"2025-01-01T12:00:00+00:00"},"length":{"value":0,"unit":"days"}},"request":{"method":"PUT","url":"Encounter/6873cd2c-f474-4757-9ba6-6c9b8f4ffcb6"}},{"fullUrl":"https://madie.cms.gov/MeasureReport/16c6dec5-b388-4cc4-9de7-b1ac91b94be5","resource":{"resourceType":"MeasureReport","id":"16c6dec5-b388-4cc4-9de7-b1ac91b94be5","meta":{"profile":["http://hl7.org/fhir/us/cqfmeasures/StructureDefinition/test-case-cqfm"]},"contained":[{"resourceType":"Parameters","id":"8ea75dbd-2039-4f2e-82a4-e4650df2a7bd-parameters","parameter":[{"name":"subject","valueString":"16eff6ae-362b-458a-b631-834ce4ba9402"}]}],"extension":[{"url":"http://hl7.org/fhir/us/cqfmeasures/StructureDefinition/cqfm-inputParameters","valueReference":{"reference":"#8ea75dbd-2039-4f2e-82a4-e4650df2a7bd-parameters"}},{"url":"http://hl7.org/fhir/us/cqfmeasures/StructureDefinition/cqfm-testCaseDescription","valueMarkdown":"Patient has a Major depression including remission DX and PHQ-9>9 during the denom ID period. Patient diagnosed with personality disorder before end of MAP. Should be in denominator exclusion for Strat 2."}],"modifierExtension":[{"url":"http://hl7.org/fhir/us/cqfmeasures/StructureDefinition/cqfm-isTestCase","valueBoolean":true}],"status":"complete","type":"individual","measure":"https://madie.cms.gov/Measure/DepressionRemissionatTwelveMonthsFHIR","period":{"start":"2025-01-01","end":"2025-12-31"},"group":[{"population":[{"code":{"coding":[{"system":"http://terminology.hl7.org/CodeSystem/measure-population","code":"initial-population","display":"Initial Population"}]},"count":1},{"code":{"coding":[{"system":"http://terminology.hl7.org/CodeSystem/measure-population","code":"denominator","display":"Denominator"}]},"count":1},{"code":{"coding":[{"system":"http://terminology.hl7.org/CodeSystem/measure-population","code":"denominator-exclusion","display":"Denominator Exclusion"}]},"count":1},{"code":{"coding":[{"system":"http://terminology.hl7.org/CodeSystem/measure-population","code":"numerator","display":"Numerator"}]},"count":0}]}]},"request":{"method":"PUT","url":"MeasureReport/16c6dec5-b388-4cc4-9de7-b1ac91b94be5"}}]}