{"resourceType":"Bundle","id":"tests-a9d929e8-3e1b-49b8-aa68-44b3d860ef6f-bundle","type":"transaction","entry":[{"fullUrl":"https://madie.cms.gov/Patient/a9d929e8-3e1b-49b8-aa68-44b3d860ef6f","resource":{"resourceType":"Patient","id":"a9d929e8-3e1b-49b8-aa68-44b3d860ef6f","meta":{"profile":["http://hl7.org/fhir/us/core/StructureDefinition/us-core-patient","http://hl7.org/fhir/us/qicore/StructureDefinition/qicore-patient"]},"extension":[{"url":"http://hl7.org/fhir/us/core/StructureDefinition/us-core-race","extension":[{"url":"ombCategory","valueCoding":{"system":"urn:oid:2.16.840.1.113883.6.238","code":"2028-9","display":"Asian"}},{"url":"text","valueString":"Asian"}]},{"url":"http://hl7.org/fhir/us/core/StructureDefinition/us-core-ethnicity","extension":[{"url":"ombCategory","valueCoding":{"system":"urn:oid:2.16.840.1.113883.6.238","code":"2135-2","display":"Hispanic or Latino"}},{"url":"text","valueString":"Hispanic or Latino"}]}],"identifier":[{"system":"http://hospital.smarthealthit.org","value":"999999995"}],"name":[{"family":"HighDose","given":["NUMERPass"]}],"gender":"female","birthDate":"1988-06-12"},"request":{"method":"PUT","url":"Patient/a9d929e8-3e1b-49b8-aa68-44b3d860ef6f"}},{"fullUrl":"https://madie.cms.gov/Observation/eda1ab87-b92c-4582-a9ae-930cdfbcf2a5","resource":{"resourceType":"Observation","id":"eda1ab87-b92c-4582-a9ae-930cdfbcf2a5","meta":{"profile":["http://hl7.org/fhir/us/qicore/StructureDefinition/qicore-observation"]},"status":"final","category":[{"coding":[{"system":"http://terminology.hl7.org/CodeSystem/observation-category","code":"imaging","display":"Imaging"}]}],"code":{"coding":[{"system":"http://loinc.org","code":"96914-7","display":"CT dose and image quality category"}],"text":"CT dose and image quality category"},"subject":{"reference":"Patient/a9d929e8-3e1b-49b8-aa68-44b3d860ef6f"},"effectiveDateTime":"2026-01-02T00:00:00.000Z","valueCodeableConcept":{"coding":[{"system":"http://loinc.org","code":"LA31752-1","display":"Abdomen and Pelvis Low Dose"}]},"component":[{"code":{"coding":[{"system":"http://loinc.org","code":"96912-1","display":"Calculated CT global noise"}]},"valueQuantity":{"value":63,"unit":"[hnsf'U]","system":"http://unitsofmeasure.org","code":"[hnsf'U]"}},{"code":{"coding":[{"system":"http://loinc.org","code":"96913-9","display":"Calculated CT size-adjusted dose"}]},"valueQuantity":{"value":599,"unit":"mGy.cm","system":"http://unitsofmeasure.org","code":"mGy.cm"}}]},"request":{"method":"PUT","url":"Observation/eda1ab87-b92c-4582-a9ae-930cdfbcf2a5"}},{"fullUrl":"https://madie.cms.gov/MeasureReport/e9bb47f0-44c8-4f87-a0d0-799f1dc98c69","resource":{"resourceType":"MeasureReport","id":"e9bb47f0-44c8-4f87-a0d0-799f1dc98c69","meta":{"profile":["http://hl7.org/fhir/us/cqfmeasures/StructureDefinition/test-case-cqfm"]},"contained":[{"resourceType":"Parameters","id":"f8c921da-8c75-48b8-985f-74829fed5f23-parameters","parameter":[{"name":"subject","valueString":"a9d929e8-3e1b-49b8-aa68-44b3d860ef6f"}]}],"extension":[{"url":"http://hl7.org/fhir/us/cqfmeasures/StructureDefinition/cqfm-inputParameters","valueReference":{"reference":"#f8c921da-8c75-48b8-985f-74829fed5f23-parameters"}},{"url":"http://hl7.org/fhir/us/cqfmeasures/StructureDefinition/cqfm-testCaseDescription","valueMarkdown":"Patient has an ABDOPEL LD scan with good noise but high dose"}],"modifierExtension":[{"url":"http://hl7.org/fhir/us/cqfmeasures/StructureDefinition/cqfm-isTestCase","valueBoolean":true}],"status":"complete","type":"individual","measure":"https://madie.cms.gov/Measure/ALARACTOQRFHIR","period":{"start":"2026-01-01","end":"2026-12-31"},"group":[{"population":[{"code":{"coding":[{"system":"http://terminology.hl7.org/CodeSystem/measure-population","code":"initial-population","display":"Initial Population"}]},"count":1},{"code":{"coding":[{"system":"http://terminology.hl7.org/CodeSystem/measure-population","code":"denominator","display":"Denominator"}]},"count":1},{"code":{"coding":[{"system":"http://terminology.hl7.org/CodeSystem/measure-population","code":"denominator-exclusion","display":"Denominator Exclusion"}]},"count":0},{"code":{"coding":[{"system":"http://terminology.hl7.org/CodeSystem/measure-population","code":"numerator","display":"Numerator"}]},"count":1}]}]},"request":{"method":"PUT","url":"MeasureReport/e9bb47f0-44c8-4f87-a0d0-799f1dc98c69"}}]}