{"resourceType":"Bundle","id":"tests-9799ac8e-b6b6-4159-bd9a-97a4ba98366d-bundle","type":"transaction","entry":[{"fullUrl":"https://madie.cms.gov/Patient/9799ac8e-b6b6-4159-bd9a-97a4ba98366d","resource":{"resourceType":"Patient","id":"9799ac8e-b6b6-4159-bd9a-97a4ba98366d","meta":{"profile":["http://hl7.org/fhir/us/core/StructureDefinition/us-core-patient","http://hl7.org/fhir/us/qicore/StructureDefinition/qicore-patient"]},"extension":[{"url":"http://hl7.org/fhir/us/core/StructureDefinition/us-core-race","extension":[{"url":"ombCategory","valueCoding":{"system":"urn:oid:2.16.840.1.113883.6.238","code":"2028-9","display":"Asian"}},{"url":"text","valueString":"Asian"}]},{"url":"http://hl7.org/fhir/us/core/StructureDefinition/us-core-ethnicity","extension":[{"url":"ombCategory","valueCoding":{"system":"urn:oid:2.16.840.1.113883.6.238","code":"2135-2","display":"Hispanic or Latino"}},{"url":"text","valueString":"Hispanic or Latino"}]}],"identifier":[{"system":"http://hospital.smarthealthit.org","value":"999999995"}],"name":[{"family":"DuringEncounter","given":["IPPFail"]}],"gender":"male","birthDate":"1992-06-12"},"request":{"method":"PUT","url":"Patient/9799ac8e-b6b6-4159-bd9a-97a4ba98366d"}},{"fullUrl":"https://madie.cms.gov/Encounter/3533b415-2c88-4077-af9d-6e9be589058e","resource":{"resourceType":"Encounter","id":"3533b415-2c88-4077-af9d-6e9be589058e","meta":{"profile":["http://hl7.org/fhir/us/qicore/StructureDefinition/qicore-encounter"]},"status":"finished","class":{"system":"http://terminology.hl7.org/CodeSystem/v3-ActCode","code":"IMP","display":"inpatient encounter"},"type":[{"coding":[{"system":"http://snomed.info/sct","code":"183452005","display":"Emergency hospital admission"}]}],"subject":{"reference":"Patient/9799ac8e-b6b6-4159-bd9a-97a4ba98366d"},"period":{"start":"2026-02-01T00:00:00.000Z","end":"2026-02-03T01:00:00.000Z"}},"request":{"method":"PUT","url":"Encounter/3533b415-2c88-4077-af9d-6e9be589058e"}},{"fullUrl":"https://madie.cms.gov/Observation/a0cd16d7-6ed1-45fc-b585-6f31fa0c4bdf","resource":{"resourceType":"Observation","id":"a0cd16d7-6ed1-45fc-b585-6f31fa0c4bdf","meta":{"profile":["http://hl7.org/fhir/us/qicore/StructureDefinition/qicore-observation"]},"status":"final","category":[{"coding":[{"system":"http://terminology.hl7.org/CodeSystem/observation-category","code":"imaging","display":"Imaging"}]}],"code":{"coding":[{"system":"http://loinc.org","code":"96914-7","display":"CT dose and image quality category"}],"text":"CT dose and image quality category"},"subject":{"reference":"Patient/9799ac8e-b6b6-4159-bd9a-97a4ba98366d"},"encounter":{"reference":"Encounter/3533b415-2c88-4077-af9d-6e9be589058e"},"effectiveDateTime":"2026-02-02T00:00:00.000Z","valueCodeableConcept":{"coding":[{"system":"http://loinc.org","code":"LA31753-9","display":"Abdomen and Pelvis Routine Dose"}]},"component":[{"code":{"coding":[{"system":"http://loinc.org","code":"96912-1","display":"Calculated CT global noise"}]},"valueQuantity":{"value":63,"unit":"[hnsf'U]","system":"http://unitsofmeasure.org","code":"[hnsf'U]"}},{"code":{"coding":[{"system":"http://loinc.org","code":"96913-9","display":"Calculated CT size-adjusted dose"}]},"valueQuantity":{"value":597,"unit":"mGy.cm","system":"http://unitsofmeasure.org","code":"mGy.cm"}}]},"request":{"method":"PUT","url":"Observation/a0cd16d7-6ed1-45fc-b585-6f31fa0c4bdf"}},{"fullUrl":"https://madie.cms.gov/MeasureReport/da4f148a-b63d-4902-9ee3-2e077c1ea542","resource":{"resourceType":"MeasureReport","id":"da4f148a-b63d-4902-9ee3-2e077c1ea542","meta":{"profile":["http://hl7.org/fhir/us/cqfmeasures/StructureDefinition/test-case-cqfm"]},"contained":[{"resourceType":"Parameters","id":"c946d82c-66a8-4e66-a33d-dd282c8fcbfa-parameters","parameter":[{"name":"subject","valueString":"9799ac8e-b6b6-4159-bd9a-97a4ba98366d"}]}],"extension":[{"url":"http://hl7.org/fhir/us/cqfmeasures/StructureDefinition/cqfm-inputParameters","valueReference":{"reference":"#c946d82c-66a8-4e66-a33d-dd282c8fcbfa-parameters"}},{"url":"http://hl7.org/fhir/us/cqfmeasures/StructureDefinition/cqfm-testCaseDescription","valueMarkdown":"Patient has a valid scan but it occurs during an inpatient encounter so it should not meet IPP"}],"modifierExtension":[{"url":"http://hl7.org/fhir/us/cqfmeasures/StructureDefinition/cqfm-isTestCase","valueBoolean":true}],"status":"complete","type":"individual","measure":"https://madie.cms.gov/Measure/ALARACTOQRFHIR","period":{"start":"2026-01-01","end":"2026-12-31"},"group":[{"population":[{"code":{"coding":[{"system":"http://terminology.hl7.org/CodeSystem/measure-population","code":"initial-population","display":"Initial Population"}]},"count":0},{"code":{"coding":[{"system":"http://terminology.hl7.org/CodeSystem/measure-population","code":"denominator","display":"Denominator"}]},"count":0},{"code":{"coding":[{"system":"http://terminology.hl7.org/CodeSystem/measure-population","code":"denominator-exclusion","display":"Denominator Exclusion"}]},"count":0},{"code":{"coding":[{"system":"http://terminology.hl7.org/CodeSystem/measure-population","code":"numerator","display":"Numerator"}]},"count":0}]}]},"request":{"method":"PUT","url":"MeasureReport/da4f148a-b63d-4902-9ee3-2e077c1ea542"}}]}