{
  "resourceType": "Bundle",
  "id": "60f82c2f98086b570510e2a0",
  "type": "transaction",
  "entry": [ {
    "fullUrl": "https://madie.cms.gov/Patient/1adf4f03-c558-469c-aa91-b3a9927a90d4",
    "resource": {
      "resourceType": "Patient",
      "id": "1adf4f03-c558-469c-aa91-b3a9927a90d4",
      "meta": {
        "profile": [ "http://hl7.org/fhir/us/qicore/StructureDefinition/qicore-patient" ]
      },
      "text": {
        "status": "generated",
        "div": "<div xmlns=\"http://www.w3.org/1999/xhtml\"><div class=\"hapiHeaderText\">PharmContraDayOfEncStart_NoEDNoObsBFEnc <b>DENEXCEPPASS </b></div><table class=\"hapiPropertyTable\"><tbody><tr><td>Identifier</td><td>23ca8d220e136a05792f06f1300ec35c968458532c76c051729199b6b17df285</td></tr><tr><td>Date of birth</td><td><span>26 September 1975</span></td></tr></tbody></table></div>"
      },
      "extension": [ {
        "url": "http://hl7.org/fhir/us/core/StructureDefinition/us-core-race",
        "extension": [ {
          "url": "ombCategory",
          "valueCoding": {
            "system": "urn:oid:2.16.840.1.113883.6.238",
            "code": "2054-5",
            "display": "Black or African American",
            "userSelected": true
          }
        }, {
          "url": "text",
          "valueString": "Black or African American"
        } ]
      }, {
        "url": "http://hl7.org/fhir/us/core/StructureDefinition/us-core-ethnicity",
        "extension": [ {
          "url": "ombCategory",
          "valueCoding": {
            "system": "urn:oid:2.16.840.1.113883.6.238",
            "code": "2186-5",
            "display": "Not Hispanic or Latino",
            "userSelected": true
          }
        }, {
          "url": "text",
          "valueString": "Not Hispanic or Latino"
        } ]
      } ],
      "identifier": [ {
        "type": {
          "coding": [ {
            "system": "http://terminology.hl7.org/CodeSystem/v2-0203",
            "code": "MR"
          } ]
        },
        "system": "https://bonnie-fhir.healthit.gov/",
        "value": "60f82c2f98086b570510e2a0"
      } ],
      "active": true,
      "name": [ {
        "use": "usual",
        "family": "DENEXCEPPass",
        "given": [ "PharmContraDayOfEncStart_NoEDNoObsBFEnc" ]
      } ],
      "gender": "female",
      "birthDate": "1976-09-26"
    },
    "request": {
      "method": "PUT",
      "url": "Patient/1adf4f03-c558-469c-aa91-b3a9927a90d4"
    }
  }, {
    "fullUrl": "https://madie.cms.gov/Encounter/bab45390-662a-48fd-aeac-d798b537142a",
    "resource": {
      "resourceType": "Encounter",
      "id": "bab45390-662a-48fd-aeac-d798b537142a",
      "meta": {
        "profile": [ "http://hl7.org/fhir/us/qicore/StructureDefinition/qicore-encounter" ]
      },
      "status": "finished",
      "class": {
        "system": "http://terminology.hl7.org/CodeSystem/v3-ActCode",
        "code": "IMP",
        "display": "inpatient encounter",
        "userSelected": true
      },
      "type": [ {
        "coding": [ {
          "system": "http://snomed.info/sct",
          "code": "32485007"
        } ]
      } ],
      "subject": {
        "reference": "Patient/1adf4f03-c558-469c-aa91-b3a9927a90d4"
      },
      "period": {
        "start": "2026-10-10T09:00:00+00:00",
        "end": "2026-10-12T11:15:00+00:00"
      },
      "length": {
        "value": 2,
        "unit": "days"
      },
      "diagnosis": [ {
        "condition": {
          "reference": "Condition/19d22c7c-5d7c-4b86-a491-25c625024d22"
        },
        "use": {
          "coding": [ {
            "system": "http://terminology.hl7.org/CodeSystem/diagnosis-role",
            "code": "billing",
            "display": "Billing"
          } ]
        },
        "rank": 1
      } ]
    },
    "request": {
      "method": "PUT",
      "url": "Encounter/bab45390-662a-48fd-aeac-d798b537142a"
    }
  }, {
    "fullUrl": "https://madie.cms.gov/MedicationAdministration/a11849bf-db6c-4f88-9756-baf2543b81cd",
    "resource": {
      "resourceType": "MedicationAdministration",
      "id": "a11849bf-db6c-4f88-9756-baf2543b81cd",
      "meta": {
        "profile": [ "http://hl7.org/fhir/us/qicore/StructureDefinition/qicore-medicationadministration" ]
      },
      "status": "completed",
      "medicationCodeableConcept": {
        "coding": [ {
          "system": "http://www.nlm.nih.gov/research/umls/rxnorm",
          "code": "855812",
          "display": "prasugrel 10 MG Oral Tablet",
          "userSelected": true
        } ]
      },
      "subject": {
        "reference": "Patient/1adf4f03-c558-469c-aa91-b3a9927a90d4"
      },
      "effectivePeriod": {
        "start": "2026-10-10T09:00:00+00:00"
      }
    },
    "request": {
      "method": "PUT",
      "url": "MedicationAdministration/a11849bf-db6c-4f88-9756-baf2543b81cd"
    }
  }, {
    "fullUrl": "https://madie.cms.gov/Coverage/acc4a5b9-d81c-40b4-aa5a-a285f4b9fb9c",
    "resource": {
      "resourceType": "Coverage",
      "id": "acc4a5b9-d81c-40b4-aa5a-a285f4b9fb9c",
      "status": "active",
      "beneficiary": {
        "reference": "Patient/1adf4f03-c558-469c-aa91-b3a9927a90d4"
      },
      "period": {
        "start": "1976-09-26T08:00:00+00:00"
      },
      "payor": [ {
        "reference": "Organization/f9194556-5645-4cb4-8c0e-c5ae98ea06b7"
      } ]
    },
    "request": {
      "method": "PUT",
      "url": "Coverage/acc4a5b9-d81c-40b4-aa5a-a285f4b9fb9c"
    }
  }, {
    "fullUrl": "https://madie.cms.gov/Condition/19d22c7c-5d7c-4b86-a491-25c625024d22",
    "resource": {
      "resourceType": "Condition",
      "id": "19d22c7c-5d7c-4b86-a491-25c625024d22",
      "meta": {
        "profile": [ "http://hl7.org/fhir/us/qicore/StructureDefinition/qicore-condition" ]
      },
      "clinicalStatus": {
        "coding": [ {
          "system": "http://terminology.hl7.org/CodeSystem/condition-clinical",
          "code": "active"
        } ]
      },
      "verificationStatus": {
        "coding": [ {
          "system": "http://terminology.hl7.org/CodeSystem/condition-ver-status",
          "code": "confirmed"
        } ]
      },
      "category": [ {
        "coding": [ {
          "system": "http://terminology.hl7.org/CodeSystem/condition-category",
          "code": "encounter-diagnosis",
          "display": "Encounter Diagnosis"
        } ]
      } ],
      "code": {
        "coding": [ {
          "system": "http://snomed.info/sct",
          "version": "2020-09",
          "code": "111297002",
          "display": "Nonparalytic stroke (disorder)",
          "userSelected": true
        } ]
      },
      "subject": {
        "reference": "Patient/1adf4f03-c558-469c-aa91-b3a9927a90d4"
      },
      "recordedDate": "2026-08-06T08:00:00.000+00:00"
    },
    "request": {
      "method": "PUT",
      "url": "Condition/19d22c7c-5d7c-4b86-a491-25c625024d22"
    }
  }, {
    "fullUrl": "https://madie.cms.gov/Organization/f9194556-5645-4cb4-8c0e-c5ae98ea06b7",
    "resource": {
      "resourceType": "Organization",
      "id": "f9194556-5645-4cb4-8c0e-c5ae98ea06b7",
      "meta": {
        "profile": [ "http://hl7.org/fhir/us/qicore/StructureDefinition/qicore-organization" ]
      },
      "identifier": [ {
        "use": "temp",
        "system": "urn:oid:2.16.840.1.113883.4.4",
        "value": "21-3259825"
      } ],
      "active": true,
      "type": [ {
        "coding": [ {
          "system": "http://terminology.hl7.org/CodeSystem/organization-type",
          "code": "pay",
          "display": "Payer"
        } ]
      } ],
      "name": "Blue Cross Blue Shield of Texas",
      "telecom": [ {
        "system": "phone",
        "value": "(+1) 972-766-6900"
      } ],
      "address": [ {
        "use": "billing",
        "type": "postal",
        "line": [ "P.O. Box 660044" ],
        "city": "Dallas",
        "state": "TX",
        "postalCode": "75266-0044",
        "country": "USA"
      } ]
    },
    "request": {
      "method": "PUT",
      "url": "Organization/f9194556-5645-4cb4-8c0e-c5ae98ea06b7"
    }
  }, {
    "fullUrl": "https://madie.cms.gov/MeasureReport/20b5f093-56d6-429c-ad7e-370589049c8f",
    "resource": {
      "resourceType": "MeasureReport",
      "id": "20b5f093-56d6-429c-ad7e-370589049c8f",
      "meta": {
        "profile": [ "http://hl7.org/fhir/us/cqfmeasures/StructureDefinition/test-case-cqfm" ]
      },
      "contained": [ {
        "resourceType": "Parameters",
        "id": "a01e3d7d-f662-4ddd-a4ad-d22825597c1b-parameters",
        "parameter": [ {
          "name": "subject",
          "valueString": "1adf4f03-c558-469c-aa91-b3a9927a90d4"
        } ]
      } ],
      "extension": [ {
        "url": "http://hl7.org/fhir/us/cqfmeasures/StructureDefinition/cqfm-inputParameters",
        "valueReference": {
          "reference": "#a01e3d7d-f662-4ddd-a4ad-d22825597c1b-parameters"
        }
      } ],
      "modifierExtension": [ {
        "url": "http://hl7.org/fhir/us/cqfmeasures/StructureDefinition/cqfm-isTestCase",
        "valueBoolean": true
      } ],
      "status": "complete",
      "type": "individual",
      "measure": "https://madie.cms.gov/Measure/CMS72FHIRSTKAntithromboticDay2",
      "period": {
        "start": "2026-01-01",
        "end": "2026-12-31"
      },
      "group": [ {
        "population": [ {
          "code": {
            "coding": [ {
              "system": "http://terminology.hl7.org/CodeSystem/measure-population",
              "code": "initial-population",
              "display": "Initial Population"
            } ]
          },
          "count": 1
        }, {
          "code": {
            "coding": [ {
              "system": "http://terminology.hl7.org/CodeSystem/measure-population",
              "code": "denominator",
              "display": "Denominator"
            } ]
          },
          "count": 1
        }, {
          "code": {
            "coding": [ {
              "system": "http://terminology.hl7.org/CodeSystem/measure-population",
              "code": "denominator-exclusion",
              "display": "Denominator Exclusion"
            } ]
          },
          "count": 0
        }, {
          "code": {
            "coding": [ {
              "system": "http://terminology.hl7.org/CodeSystem/measure-population",
              "code": "numerator",
              "display": "Numerator"
            } ]
          },
          "count": 0
        }, {
          "code": {
            "coding": [ {
              "system": "http://terminology.hl7.org/CodeSystem/measure-population",
              "code": "denominator-exception",
              "display": "Denominator Exception"
            } ]
          },
          "count": 1
        } ]
      } ],
      "evaluatedResource": [ {
        "reference": "Patient/1adf4f03-c558-469c-aa91-b3a9927a90d4"
      }, {
        "reference": "Encounter/bab45390-662a-48fd-aeac-d798b537142a"
      }, {
        "reference": "MedicationAdministration/a11849bf-db6c-4f88-9756-baf2543b81cd"
      }, {
        "reference": "Coverage/acc4a5b9-d81c-40b4-aa5a-a285f4b9fb9c"
      }, {
        "reference": "Condition/19d22c7c-5d7c-4b86-a491-25c625024d22"
      }, {
        "reference": "Organization/f9194556-5645-4cb4-8c0e-c5ae98ea06b7"
      } ]
    },
    "request": {
      "method": "PUT",
      "url": "MeasureReport/20b5f093-56d6-429c-ad7e-370589049c8f"
    }
  } ]
}