{"resourceType":"Bundle","id":"tests-1f64a697-a90b-4aaf-a315-fa84168ac2b4-bundle","type":"transaction","entry":[{"fullUrl":"https://madie.cms.gov/Patient/1f64a697-a90b-4aaf-a315-fa84168ac2b4","resource":{"resourceType":"Patient","id":"1f64a697-a90b-4aaf-a315-fa84168ac2b4","meta":{"profile":["http://hl7.org/fhir/us/qicore/StructureDefinition/qicore-patient"]},"extension":[{"url":"http://hl7.org/fhir/us/core/StructureDefinition/us-core-race","extension":[{"url":"ombCategory","valueCoding":{"system":"urn:oid:2.16.840.1.113883.6.238","code":"1002-5","display":"American Indian or Alaska Native"}},{"url":"text","valueString":"American Indian or Alaska Native"}]},{"url":"http://hl7.org/fhir/us/core/StructureDefinition/us-core-ethnicity","extension":[{"url":"ombCategory","valueCoding":{"system":"urn:oid:2.16.840.1.113883.6.238","code":"2135-2","display":"Hispanic or Latino"}},{"url":"text","valueString":"Hispanic or Latino"}]}],"identifier":[{"type":{"coding":[{"system":"http://terminology.hl7.org/CodeSystem/v2-0203","code":"MR"}]},"system":"https://bonnie-fhir.healthit.gov/","value":"459646516330"}],"name":[{"family":"DENEXCEPPass","given":["MedicalReason"]}],"gender":"male","birthDate":"1981-01-01"},"request":{"method":"PUT","url":"Patient/1f64a697-a90b-4aaf-a315-fa84168ac2b4"}},{"fullUrl":"https://madie.cms.gov/Encounter/79843513118548","resource":{"resourceType":"Encounter","id":"c235dbef-c741-4d55-a3ea-322d86cca0af","meta":{"profile":["http://hl7.org/fhir/us/qicore/StructureDefinition/qicore-encounter"]},"status":"finished","class":{"system":"http://terminology.hl7.org/CodeSystem/v3-ActCode","code":"AMB","display":"ambulatory"},"type":[{"coding":[{"system":"http://snomed.info/sct","version":"http://snomed.info/sct/731000124108/version/20240301","code":"185463005","display":"Visit out of hours (procedure)"}]}],"subject":{"reference":"Patient/1f64a697-a90b-4aaf-a315-fa84168ac2b4"},"period":{"start":"2025-02-03T08:00:00.000+00:00","end":"2025-02-03T08:15:00.000+00:00"}},"request":{"method":"PUT","url":"Encounter/c235dbef-c741-4d55-a3ea-322d86cca0af"}},{"fullUrl":"https://madie.cms.gov/Encounter/7987431310","resource":{"resourceType":"Encounter","id":"c9358115-b367-413d-ac0c-45ee9daebe26","meta":{"profile":["http://hl7.org/fhir/us/qicore/StructureDefinition/qicore-encounter"]},"status":"finished","class":{"system":"http://terminology.hl7.org/CodeSystem/v3-ActCode","code":"AMB","display":"ambulatory"},"type":[{"coding":[{"system":"http://snomed.info/sct","version":"http://snomed.info/sct/731000124108/version/20240301","code":"185463005","display":"Visit out of hours (procedure)"}]}],"subject":{"reference":"Patient/1f64a697-a90b-4aaf-a315-fa84168ac2b4"},"period":{"start":"2025-03-01T08:00:00.000+00:00","end":"2025-03-01T08:15:00.000+00:00"}},"request":{"method":"PUT","url":"Encounter/c9358115-b367-413d-ac0c-45ee9daebe26"}},{"fullUrl":"https://madie.cms.gov/Condition/345656131","resource":{"resourceType":"Condition","id":"777d8d74-0948-4ec5-b383-9062b5074530","meta":{"profile":["http://hl7.org/fhir/us/qicore/StructureDefinition/qicore-condition"]},"clinicalStatus":{"coding":[{"system":"http://terminology.hl7.org/CodeSystem/condition-clinical","code":"active","display":"Active"}]},"verificationStatus":{"coding":[{"system":"http://terminology.hl7.org/CodeSystem/condition-ver-status","code":"confirmed","display":"Confirmed"}]},"category":[{"coding":[{"system":"http://terminology.hl7.org/CodeSystem/condition-category","code":"problem-list-item","display":"Problem List Item"}]}],"code":{"coding":[{"system":"http://snomed.info/sct","version":"http://snomed.info/sct/731000124108/version/20240301","code":"10091002","display":"High output heart failure (disorder)"}]},"subject":{"reference":"Patient/1f64a697-a90b-4aaf-a315-fa84168ac2b4"},"onsetPeriod":{"start":"2025-02-03T08:00:00.000+00:00","end":"2025-02-03T08:15:00.000+00:00"}},"request":{"method":"PUT","url":"Condition/777d8d74-0948-4ec5-b383-9062b5074530"}},{"fullUrl":"https://madie.cms.gov/Condition/78513132021","resource":{"resourceType":"Condition","id":"3c127ad6-2eb2-40dd-86c0-3a8b6651d2d4","meta":{"profile":["http://hl7.org/fhir/us/qicore/StructureDefinition/qicore-condition"]},"clinicalStatus":{"coding":[{"system":"http://terminology.hl7.org/CodeSystem/condition-clinical","code":"active","display":"Active"}]},"verificationStatus":{"coding":[{"system":"http://terminology.hl7.org/CodeSystem/condition-ver-status","code":"confirmed","display":"Confirmed"}]},"category":[{"coding":[{"system":"http://terminology.hl7.org/CodeSystem/condition-category","code":"problem-list-item","display":"Problem List Item"}]}],"severity":{"coding":[{"system":"http://snomed.info/sct","version":"http://snomed.info/sct/731000124108/version/20240301","code":"24484000","display":"Severe (severity modifier) (qualifier value)"}]},"code":{"coding":[{"system":"http://snomed.info/sct","version":"http://snomed.info/sct/731000124108/version/20240301","code":"134401001","display":"Left ventricular systolic dysfunction (disorder)"}]},"subject":{"reference":"Patient/1f64a697-a90b-4aaf-a315-fa84168ac2b4"},"onsetPeriod":{"start":"2025-02-03T08:00:00.000+00:00","end":"2025-02-03T08:15:00.000+00:00"}},"request":{"method":"PUT","url":"Condition/3c127ad6-2eb2-40dd-86c0-3a8b6651d2d4"}},{"fullUrl":"https://madie.cms.gov/MedicationRequest/316461666686165161631","resource":{"resourceType":"MedicationRequest","id":"d8b14e69-ce95-401a-818d-66b887e9de7e","meta":{"profile":["http://hl7.org/fhir/us/qicore/StructureDefinition/qicore-mednotrequested"]},"status":"completed","intent":"order","doNotPerform":true,"medicationCodeableConcept":{"coding":[{"system":"http://www.nlm.nih.gov/research/umls/rxnorm","version":"04012024","code":"1091652","display":"azilsartan medoxomil 80 MG Oral Tablet"}]},"subject":{"reference":"Patient/1f64a697-a90b-4aaf-a315-fa84168ac2b4"},"authoredOn":"2025-02-03T08:00:00.000+00:00","requester":{"reference":"Practitioner/78541321313"},"reasonCode":[{"coding":[{"system":"http://snomed.info/sct","code":"183966005","display":"Drug treatment not indicated (situation)"}]}]},"request":{"method":"PUT","url":"MedicationRequest/d8b14e69-ce95-401a-818d-66b887e9de7e"}},{"fullUrl":"https://madie.cms.gov/Practitioner/78541321313","resource":{"resourceType":"Practitioner","id":"60c07a0f-7cbc-4b96-8a6e-86df05cef1a1","meta":{"profile":["http://hl7.org/fhir/us/qicore/StructureDefinition/qicore-practitioner"]},"identifier":[{"use":"temp","system":"urn:oid:2.16.840.1.113883.4.336","value":"Practitioner-23"}],"active":true,"name":[{"family":"Careful","given":["Adam"],"prefix":["Dr"]}],"address":[{"use":"home","line":["534 Erewhon St"],"city":"PleasantVille","state":"UT","postalCode":"84414"}],"qualification":[{"identifier":[{"system":"http://example.org/UniversityIdentifier","value":"12345"}],"code":{"coding":[{"system":"http://terminology.hl7.org/CodeSystem/v2-0360|2.7","code":"BS","display":"Bachelor of Science"}],"text":"Bachelor of Science"},"period":{"start":"1995"},"issuer":{"display":"Example University"}}]},"request":{"method":"PUT","url":"Practitioner/60c07a0f-7cbc-4b96-8a6e-86df05cef1a1"}},{"fullUrl":"https://madie.cms.gov/MeasureReport/7f3a9e10-9fbf-41d5-bec5-c15102db2c20","resource":{"resourceType":"MeasureReport","id":"7f3a9e10-9fbf-41d5-bec5-c15102db2c20","meta":{"profile":["http://hl7.org/fhir/us/cqfmeasures/StructureDefinition/test-case-cqfm"]},"contained":[{"resourceType":"Parameters","id":"2bf9a35e-76f7-474a-8c91-abaa3640da23-parameters","parameter":[{"name":"subject","valueString":"1f64a697-a90b-4aaf-a315-fa84168ac2b4"}]}],"extension":[{"url":"http://hl7.org/fhir/us/cqfmeasures/StructureDefinition/cqfm-inputParameters","valueReference":{"reference":"#2bf9a35e-76f7-474a-8c91-abaa3640da23-parameters"}},{"url":"http://hl7.org/fhir/us/cqfmeasures/StructureDefinition/cqfm-testCaseDescription","valueMarkdown":"Patient with 2 ambulatory encounters, Heart Failure Dx, and LVEF < 40% falls into Denominator Exception due to Medical Reason for not prescribing an Ace or Arb medication. Note: Denominator Exception deselected for now due to negation issue."}],"modifierExtension":[{"url":"http://hl7.org/fhir/us/cqfmeasures/StructureDefinition/cqfm-isTestCase","valueBoolean":true}],"status":"complete","type":"individual","measure":"https://madie.cms.gov/Measure/HFACEIorARBorARNIforLVSDFHIR","period":{"start":"2025-01-01","end":"2025-12-31"},"group":[{"population":[{"code":{"coding":[{"system":"http://terminology.hl7.org/CodeSystem/measure-population","code":"initial-population","display":"Initial Population"}]},"count":1},{"code":{"coding":[{"system":"http://terminology.hl7.org/CodeSystem/measure-population","code":"denominator","display":"Denominator"}]},"count":1},{"code":{"coding":[{"system":"http://terminology.hl7.org/CodeSystem/measure-population","code":"denominator-exclusion","display":"Denominator Exclusion"}]},"count":0},{"code":{"coding":[{"system":"http://terminology.hl7.org/CodeSystem/measure-population","code":"numerator","display":"Numerator"}]},"count":0},{"code":{"coding":[{"system":"http://terminology.hl7.org/CodeSystem/measure-population","code":"denominator-exception","display":"Denominator Exception"}]},"count":0}]}]},"request":{"method":"PUT","url":"MeasureReport/7f3a9e10-9fbf-41d5-bec5-c15102db2c20"}}]}