{"resourceType":"Bundle","id":"tests-3a4004a0-b352-488d-8c18-8fd023308646-bundle","type":"transaction","entry":[{"fullUrl":"https://madie.cms.gov/Patient/3a4004a0-b352-488d-8c18-8fd023308646","resource":{"resourceType":"Patient","id":"3a4004a0-b352-488d-8c18-8fd023308646","meta":{"profile":["http://hl7.org/fhir/us/qicore/StructureDefinition/qicore-patient"]},"extension":[{"url":"http://hl7.org/fhir/us/core/StructureDefinition/us-core-race","extension":[{"url":"ombCategory","valueCoding":{"system":"urn:oid:2.16.840.1.113883.6.238","code":"1002-5","display":"American Indian or Alaska Native"}},{"url":"text","valueString":"American Indian or Alaska Native"}]},{"url":"http://hl7.org/fhir/us/core/StructureDefinition/us-core-ethnicity","extension":[{"url":"ombCategory","valueCoding":{"system":"urn:oid:2.16.840.1.113883.6.238","code":"2186-5","display":"Not Hispanic or Latino"}},{"url":"text","valueString":"Not Hispanic or Latino"}]}],"identifier":[{"type":{"coding":[{"system":"http://terminology.hl7.org/CodeSystem/v2-0203","code":"MR"}]},"system":"https://bonnie-fhir.healthit.gov/","value":"431385494631"}],"name":[{"family":"DENEXPass","given":["HrtTransplComplictnsRecorded"]}],"gender":"male","birthDate":"1968-06-14"},"request":{"method":"PUT","url":"Patient/3a4004a0-b352-488d-8c18-8fd023308646"}},{"fullUrl":"https://madie.cms.gov/Encounter/1354681313178798","resource":{"resourceType":"Encounter","id":"fc06b604-07be-441b-a6f8-53816d3dc3d7","meta":{"profile":["http://hl7.org/fhir/us/qicore/StructureDefinition/qicore-encounter"]},"status":"finished","class":{"system":"http://terminology.hl7.org/CodeSystem/v3-ActCode","code":"AMB","display":"ambulatory"},"type":[{"coding":[{"system":"http://snomed.info/sct","version":"http://snomed.info/sct/731000124108/version/20240301","code":"18170008","display":"Subsequent nursing facility visit (procedure)"}]}],"subject":{"reference":"Patient/3a4004a0-b352-488d-8c18-8fd023308646"},"period":{"start":"2025-03-31T14:40:00.000+00:00","end":"2025-03-31T14:40:00.000+00:00"}},"request":{"method":"PUT","url":"Encounter/fc06b604-07be-441b-a6f8-53816d3dc3d7"}},{"fullUrl":"https://madie.cms.gov/Encounter/8791638516516","resource":{"resourceType":"Encounter","id":"ff92f411-cf61-48fb-9cc9-08546b5cfccc","meta":{"profile":["http://hl7.org/fhir/us/qicore/StructureDefinition/qicore-encounter"]},"status":"finished","class":{"system":"http://terminology.hl7.org/CodeSystem/v3-ActCode","code":"AMB","display":"ambulatory"},"type":[{"coding":[{"system":"http://snomed.info/sct","version":"http://snomed.info/sct/731000124108/version/20240301","code":"185466002","display":"Home visit for urgent condition (procedure)"}]}],"subject":{"reference":"Patient/3a4004a0-b352-488d-8c18-8fd023308646"},"period":{"start":"2025-05-15T11:50:00.000+00:00","end":"2025-05-15T11:50:00.000+00:00"}},"request":{"method":"PUT","url":"Encounter/ff92f411-cf61-48fb-9cc9-08546b5cfccc"}},{"fullUrl":"https://madie.cms.gov/Condition/87946164331351","resource":{"resourceType":"Condition","id":"d201f00f-9eca-49ed-b15c-2faa78c016dc","meta":{"profile":["http://hl7.org/fhir/us/qicore/StructureDefinition/qicore-condition"]},"clinicalStatus":{"coding":[{"system":"http://terminology.hl7.org/CodeSystem/condition-clinical","code":"active","display":"active"}]},"verificationStatus":{"coding":[{"system":"http://terminology.hl7.org/CodeSystem/condition-ver-status","code":"confirmed","display":"Confirmed"}]},"category":[{"coding":[{"system":"http://terminology.hl7.org/CodeSystem/condition-category","code":"problem-list-item","display":"Problem List Item"}]}],"code":{"coding":[{"system":"http://snomed.info/sct","version":"http://snomed.info/sct/731000124108/version/20240301","code":"10091002","display":"High output heart failure (disorder)"}]},"subject":{"reference":"Patient/3a4004a0-b352-488d-8c18-8fd023308646"},"onsetPeriod":{"start":"2024-05-17T10:00:00.000+00:00"}},"request":{"method":"PUT","url":"Condition/d201f00f-9eca-49ed-b15c-2faa78c016dc"}},{"fullUrl":"https://madie.cms.gov/Condition/6846816565151","resource":{"resourceType":"Condition","id":"f84d2b59-1b75-403f-8b72-61bbee105e9a","meta":{"profile":["http://hl7.org/fhir/us/qicore/StructureDefinition/qicore-condition"]},"clinicalStatus":{"coding":[{"system":"http://terminology.hl7.org/CodeSystem/condition-clinical","code":"active","display":"Active"}]},"verificationStatus":{"coding":[{"system":"http://terminology.hl7.org/CodeSystem/condition-ver-status","code":"confirmed","display":"Confirmed"}]},"category":[{"coding":[{"system":"http://terminology.hl7.org/CodeSystem/condition-category","code":"problem-list-item","display":"Problem List Item"}]}],"code":{"coding":[{"system":"http://snomed.info/sct","version":"http://snomed.info/sct/731000124108/version/20240301","code":"991000124109","display":"Severe left ventricular systolic dysfunction (disorder)"}]},"subject":{"reference":"Patient/3a4004a0-b352-488d-8c18-8fd023308646"},"onsetPeriod":{"start":"2025-03-25T16:00:00.000+00:00","end":"2025-03-30T16:00:00.000+00:00"}},"request":{"method":"PUT","url":"Condition/f84d2b59-1b75-403f-8b72-61bbee105e9a"}},{"fullUrl":"https://madie.cms.gov/Condition/12163513511531","resource":{"resourceType":"Condition","id":"d2050883-95c0-49aa-a0da-2e0326d3de20","meta":{"profile":["http://hl7.org/fhir/us/qicore/StructureDefinition/qicore-condition"]},"clinicalStatus":{"coding":[{"system":"http://terminology.hl7.org/CodeSystem/condition-clinical","code":"active","display":"Active"}]},"verificationStatus":{"coding":[{"system":"http://terminology.hl7.org/CodeSystem/condition-ver-status","code":"confirmed","display":"Confirmed"}]},"category":[{"coding":[{"system":"http://terminology.hl7.org/CodeSystem/condition-category","code":"problem-list-item","display":"Problem List Item"}]}],"code":{"coding":[{"system":"http://snomed.info/sct","version":"http://snomed.info/sct/731000124108/version/20240301","code":"429257001","display":"Disorder of transplanted heart (disorder)"}]},"subject":{"reference":"Patient/3a4004a0-b352-488d-8c18-8fd023308646"},"recordedDate":"2024-09-25T16:00:00.000+00:00"},"request":{"method":"PUT","url":"Condition/d2050883-95c0-49aa-a0da-2e0326d3de20"}},{"fullUrl":"https://madie.cms.gov/MeasureReport/76e298ea-a935-4de2-8eb9-0cdc9bdefda7","resource":{"resourceType":"MeasureReport","id":"76e298ea-a935-4de2-8eb9-0cdc9bdefda7","meta":{"profile":["http://hl7.org/fhir/us/cqfmeasures/StructureDefinition/test-case-cqfm"]},"contained":[{"resourceType":"Parameters","id":"20fe1e63-404c-44b1-99f1-ebed467da9bb-parameters","parameter":[{"name":"subject","valueString":"3a4004a0-b352-488d-8c18-8fd023308646"}]}],"extension":[{"url":"http://hl7.org/fhir/us/cqfmeasures/StructureDefinition/cqfm-inputParameters","valueReference":{"reference":"#20fe1e63-404c-44b1-99f1-ebed467da9bb-parameters"}},{"url":"http://hl7.org/fhir/us/cqfmeasures/StructureDefinition/cqfm-testCaseDescription","valueMarkdown":"Patient with HF and LVSD encounters not prescribed ACE/ARB medication qualifies for denominator exclusion with Heart Transplant Complication history (using recorded time)."}],"modifierExtension":[{"url":"http://hl7.org/fhir/us/cqfmeasures/StructureDefinition/cqfm-isTestCase","valueBoolean":true}],"status":"complete","type":"individual","measure":"https://madie.cms.gov/Measure/HFACEIorARBorARNIforLVSDFHIR","period":{"start":"2025-01-01","end":"2025-12-31"},"group":[{"population":[{"code":{"coding":[{"system":"http://terminology.hl7.org/CodeSystem/measure-population","code":"initial-population","display":"Initial Population"}]},"count":1},{"code":{"coding":[{"system":"http://terminology.hl7.org/CodeSystem/measure-population","code":"denominator","display":"Denominator"}]},"count":1},{"code":{"coding":[{"system":"http://terminology.hl7.org/CodeSystem/measure-population","code":"denominator-exclusion","display":"Denominator Exclusion"}]},"count":1},{"code":{"coding":[{"system":"http://terminology.hl7.org/CodeSystem/measure-population","code":"numerator","display":"Numerator"}]},"count":0},{"code":{"coding":[{"system":"http://terminology.hl7.org/CodeSystem/measure-population","code":"denominator-exception","display":"Denominator Exception"}]},"count":0}]}]},"request":{"method":"PUT","url":"MeasureReport/76e298ea-a935-4de2-8eb9-0cdc9bdefda7"}}]}