{"resourceType":"Bundle","id":"tests-c095195c-8893-4bf1-aa7d-ad2bfd9bafa5-bundle","type":"transaction","entry":[{"fullUrl":"https://madie.cms.gov/Patient/c095195c-8893-4bf1-aa7d-ad2bfd9bafa5","resource":{"resourceType":"Patient","id":"c095195c-8893-4bf1-aa7d-ad2bfd9bafa5","meta":{"profile":["http://hl7.org/fhir/us/qicore/StructureDefinition/qicore-patient"]},"extension":[{"url":"http://hl7.org/fhir/us/core/StructureDefinition/us-core-race","extension":[{"url":"ombCategory","valueCoding":{"system":"urn:oid:2.16.840.1.113883.6.238","code":"1002-5","display":"American Indian or Alaska Native"}},{"url":"text","valueString":"American Indian or Alaska Native"}]},{"url":"http://hl7.org/fhir/us/core/StructureDefinition/us-core-ethnicity","extension":[{"url":"ombCategory","valueCoding":{"system":"urn:oid:2.16.840.1.113883.6.238","code":"2135-2","display":"Hispanic or Latino"}},{"url":"text","valueString":"Hispanic or Latino"}]}],"identifier":[{"type":{"coding":[{"system":"http://terminology.hl7.org/CodeSystem/v2-0203","code":"MR"}]},"system":"https://bonnie-fhir.healthit.gov/","value":"684964651963"}],"name":[{"family":"DENOMFail","given":["EFLT40Obsv1MinAfterEncEdge"]}],"gender":"female","birthDate":"1957-12-21"},"request":{"method":"PUT","url":"Patient/c095195c-8893-4bf1-aa7d-ad2bfd9bafa5"}},{"fullUrl":"https://madie.cms.gov/Encounter/5431631346","resource":{"resourceType":"Encounter","id":"32fb2cad-4f03-4199-afd3-3b4fff5cbf80","meta":{"profile":["http://hl7.org/fhir/us/qicore/StructureDefinition/qicore-encounter"]},"status":"finished","class":{"system":"http://terminology.hl7.org/CodeSystem/v3-ActCode","code":"AMB","display":"ambulatory"},"type":[{"coding":[{"system":"http://snomed.info/sct","version":"http://snomed.info/sct/731000124108/version/20240301","code":"281036007","display":"Follow-up consultation (procedure)"}]}],"subject":{"reference":"Patient/c095195c-8893-4bf1-aa7d-ad2bfd9bafa5"},"period":{"start":"2025-06-15T08:00:00.000+00:00","end":"2025-06-15T08:15:00.000+00:00"}},"request":{"method":"PUT","url":"Encounter/32fb2cad-4f03-4199-afd3-3b4fff5cbf80"}},{"fullUrl":"https://madie.cms.gov/Encounter/687613134531","resource":{"resourceType":"Encounter","id":"b2f8dfb2-776b-451b-abbd-a7fd3d31e271","meta":{"profile":["http://hl7.org/fhir/us/qicore/StructureDefinition/qicore-encounter"]},"status":"finished","class":{"system":"http://terminology.hl7.org/CodeSystem/v3-ActCode","code":"AMB","display":"ambulatory"},"type":[{"coding":[{"system":"http://snomed.info/sct","version":"http://snomed.info/sct/731000124108/version/20240301","code":"281036007","display":"Follow-up consultation (procedure)"}]}],"subject":{"reference":"Patient/c095195c-8893-4bf1-aa7d-ad2bfd9bafa5"},"period":{"start":"2025-07-15T08:00:00.000+00:00","end":"2025-07-15T08:15:00.000+00:00"}},"request":{"method":"PUT","url":"Encounter/b2f8dfb2-776b-451b-abbd-a7fd3d31e271"}},{"fullUrl":"https://madie.cms.gov/Condition/92455163535","resource":{"resourceType":"Condition","id":"c913ea64-b79b-4609-857f-7de668fa455c","meta":{"profile":["http://hl7.org/fhir/us/qicore/StructureDefinition/qicore-condition"]},"clinicalStatus":{"coding":[{"system":"http://terminology.hl7.org/CodeSystem/condition-clinical","code":"active","display":"active"}]},"verificationStatus":{"coding":[{"system":"http://terminology.hl7.org/CodeSystem/condition-ver-status","code":"confirmed","display":"Confirmed"}]},"category":[{"coding":[{"system":"http://terminology.hl7.org/CodeSystem/condition-category","code":"problem-list-item","display":"Problem List Item"}]}],"code":{"coding":[{"system":"http://snomed.info/sct","version":"http://snomed.info/sct/731000124108/version/20240301","code":"10091002","display":"High output heart failure (disorder)"}]},"subject":{"reference":"Patient/c095195c-8893-4bf1-aa7d-ad2bfd9bafa5"},"onsetPeriod":{"start":"2025-06-10T08:00:00.000+00:00","end":"2025-07-14T08:15:00.000+00:00"}},"request":{"method":"PUT","url":"Condition/c913ea64-b79b-4609-857f-7de668fa455c"}},{"fullUrl":"https://madie.cms.gov/Observation/687135143543","resource":{"resourceType":"Observation","id":"6b8b6bdc-3ac8-4814-962b-e160ab863f58","meta":{"profile":["http://hl7.org/fhir/us/qicore/StructureDefinition/qicore-observation"]},"status":"final","category":[{"coding":[{"system":"http://terminology.hl7.org/CodeSystem/observation-category","code":"imaging","display":"Imaging"}]}],"code":{"coding":[{"system":"http://loinc.org","version":"2.76","code":"10230-1","display":"Left ventricular Ejection fraction"}]},"subject":{"reference":"Patient/c095195c-8893-4bf1-aa7d-ad2bfd9bafa5"},"effectiveDateTime":"2025-07-15T08:16:00.000+00:00","valueQuantity":{"value":39,"unit":"%","system":"http://unitsofmeasure.org","code":"%"}},"request":{"method":"PUT","url":"Observation/6b8b6bdc-3ac8-4814-962b-e160ab863f58"}},{"fullUrl":"https://madie.cms.gov/MedicationRequest/684613546315","resource":{"resourceType":"MedicationRequest","id":"c288c658-b252-460c-90d9-a999d425db9d","meta":{"profile":["http://hl7.org/fhir/us/qicore/StructureDefinition/qicore-medicationrequest"]},"status":"completed","intent":"order","medicationReference":{"reference":"Medication/464351313445"},"subject":{"reference":"Patient/c095195c-8893-4bf1-aa7d-ad2bfd9bafa5"},"authoredOn":"2025-04-15T10:30:00.000+00:00","requester":{"reference":"Practitioner/6846131646135131"}},"request":{"method":"PUT","url":"MedicationRequest/c288c658-b252-460c-90d9-a999d425db9d"}},{"fullUrl":"https://madie.cms.gov/Medication/464351313445","resource":{"resourceType":"Medication","id":"8d9bec86-1b6c-4902-84be-093b17d881d7","meta":{"profile":["http://hl7.org/fhir/us/qicore/StructureDefinition/qicore-medication"]},"code":{"coding":[{"system":"http://www.nlm.nih.gov/research/umls/rxnorm","version":"04012024","code":"1000001","display":"amlodipine 5 MG / hydrochlorothiazide 25 MG / olmesartan medoxomil 40 MG Oral Tablet"}]}},"request":{"method":"PUT","url":"Medication/8d9bec86-1b6c-4902-84be-093b17d881d7"}},{"fullUrl":"https://madie.cms.gov/Coverage/1364676516311","resource":{"resourceType":"Coverage","id":"22a54dcd-ae2b-4bd8-8bf9-e6db5c52f916","meta":{"profile":["http://hl7.org/fhir/us/qicore/StructureDefinition/qicore-coverage"]},"status":"active","type":{"coding":[{"system":"https://nahdo.org/sopt","code":"59","display":"Other Private Insurance"}]},"beneficiary":{"reference":"Patient/c095195c-8893-4bf1-aa7d-ad2bfd9bafa5"},"period":{"start":"2024-01-01T08:00:00.000+00:00"},"payor":[{"reference":"Organization/42846cc3-1db0-4bf7-b9ff-8b81fa6e835d"}]},"request":{"method":"PUT","url":"Coverage/22a54dcd-ae2b-4bd8-8bf9-e6db5c52f916"}},{"fullUrl":"https://madie.cms.gov/Organization/123456","resource":{"resourceType":"Organization","id":"42846cc3-1db0-4bf7-b9ff-8b81fa6e835d","meta":{"profile":["http://hl7.org/fhir/us/qicore/StructureDefinition/qicore-organization"]},"identifier":[{"use":"temp","system":"urn:oid:2.16.840.1.113883.4.4","value":"21-3259825"}],"active":true,"type":[{"coding":[{"system":"http://terminology.hl7.org/CodeSystem/organization-type","code":"pay","display":"Payer"}]}],"name":"Blue Cross Blue Shield of Texas","telecom":[{"system":"phone","value":"(+1) 972-766-6900"}],"address":[{"use":"billing","type":"postal","line":["P.O. Box 660044"],"city":"Dallas","state":"TX","postalCode":"75266-0044","country":"USA"}]},"request":{"method":"PUT","url":"Organization/42846cc3-1db0-4bf7-b9ff-8b81fa6e835d"}},{"fullUrl":"https://madie.cms.gov/Practitioner/6846131646135131","resource":{"resourceType":"Practitioner","id":"e65a3d16-b0a9-4a54-8576-5f55e4fbefd9","meta":{"profile":["http://hl7.org/fhir/us/qicore/StructureDefinition/qicore-practitioner"]},"identifier":[{"use":"temp","system":"urn:oid:2.16.840.1.113883.4.336","value":"Practitioner-23"}],"active":true,"name":[{"family":"Careful","given":["Adam"],"prefix":["Dr"]}],"address":[{"use":"home","line":["534 Erewhon St"],"city":"PleasantVille","state":"UT","postalCode":"84414"}],"qualification":[{"identifier":[{"system":"http://example.org/UniversityIdentifier","value":"12345"}],"code":{"coding":[{"system":"http://terminology.hl7.org/CodeSystem/v2-0360|2.7","code":"BS","display":"Bachelor of Science"}],"text":"Bachelor of Science"},"period":{"start":"1995"},"issuer":{"display":"Example University"}}]},"request":{"method":"PUT","url":"Practitioner/e65a3d16-b0a9-4a54-8576-5f55e4fbefd9"}},{"fullUrl":"https://madie.cms.gov/MeasureReport/d46c3b9f-9e9d-430a-bb29-0fa53d2fdf2d","resource":{"resourceType":"MeasureReport","id":"d46c3b9f-9e9d-430a-bb29-0fa53d2fdf2d","meta":{"profile":["http://hl7.org/fhir/us/cqfmeasures/StructureDefinition/test-case-cqfm"]},"contained":[{"resourceType":"Parameters","id":"88ce6d5c-3663-43c4-8ee7-fba479e9b998-parameters","parameter":[{"name":"subject","valueString":"c095195c-8893-4bf1-aa7d-ad2bfd9bafa5"}]}],"extension":[{"url":"http://hl7.org/fhir/us/cqfmeasures/StructureDefinition/cqfm-inputParameters","valueReference":{"reference":"#88ce6d5c-3663-43c4-8ee7-fba479e9b998-parameters"}},{"url":"http://hl7.org/fhir/us/cqfmeasures/StructureDefinition/cqfm-testCaseDescription","valueMarkdown":"Fails denominator due to Ejection Fraction < 40 Observation being one minute past encounter"}],"modifierExtension":[{"url":"http://hl7.org/fhir/us/cqfmeasures/StructureDefinition/cqfm-isTestCase","valueBoolean":true}],"status":"complete","type":"individual","measure":"https://madie.cms.gov/Measure/HFACEIorARBorARNIforLVSDFHIR","period":{"start":"2025-01-01","end":"2025-12-31"},"group":[{"population":[{"code":{"coding":[{"system":"http://terminology.hl7.org/CodeSystem/measure-population","code":"initial-population","display":"Initial Population"}]},"count":1},{"code":{"coding":[{"system":"http://terminology.hl7.org/CodeSystem/measure-population","code":"denominator","display":"Denominator"}]},"count":0},{"code":{"coding":[{"system":"http://terminology.hl7.org/CodeSystem/measure-population","code":"denominator-exclusion","display":"Denominator Exclusion"}]},"count":0},{"code":{"coding":[{"system":"http://terminology.hl7.org/CodeSystem/measure-population","code":"numerator","display":"Numerator"}]},"count":0},{"code":{"coding":[{"system":"http://terminology.hl7.org/CodeSystem/measure-population","code":"denominator-exception","display":"Denominator Exception"}]},"count":0}]}]},"request":{"method":"PUT","url":"MeasureReport/d46c3b9f-9e9d-430a-bb29-0fa53d2fdf2d"}}]}