{"resourceType":"Bundle","id":"tests-2be46549-5ab0-4205-a0e0-166839906f95-bundle","type":"transaction","entry":[{"fullUrl":"https://madie.cms.gov/Patient/2be46549-5ab0-4205-a0e0-166839906f95","resource":{"resourceType":"Patient","id":"2be46549-5ab0-4205-a0e0-166839906f95","meta":{"profile":["http://hl7.org/fhir/us/qicore/StructureDefinition/qicore-patient"]},"extension":[{"url":"http://hl7.org/fhir/us/core/StructureDefinition/us-core-race","extension":[{"url":"ombCategory","valueCoding":{"system":"urn:oid:2.16.840.1.113883.6.238","code":"2106-3","display":"White"}},{"url":"detailed","valueCoding":{"system":"urn:oid:2.16.840.1.113883.6.238","code":"2036-2","display":"Filipino"}},{"url":"text","valueString":"mixed"}]},{"url":"http://hl7.org/fhir/us/core/StructureDefinition/us-core-ethnicity","extension":[{"url":"ombCategory","valueCoding":{"system":"urn:oid:2.16.840.1.113883.6.238","code":"2135-2","display":"Hispanic or Latino"}},{"url":"detailed","valueCoding":{"system":"urn:oid:2.16.840.1.113883.6.238","code":"2148-5","display":"Mexican"}},{"url":"text","valueString":"Hispanic or Latino"}]}],"identifier":[{"type":{"coding":[{"system":"http://terminology.hl7.org/CodeSystem/v2-0203","code":"MR"}]},"system":"https://bonnie-fhir.healthit.gov/","value":"464631315435131"}],"name":[{"family":"IPFail","given":["EncHasNoStartDate"]}],"gender":"other","birthDate":"1981-04-02"},"request":{"method":"PUT","url":"Patient/2be46549-5ab0-4205-a0e0-166839906f95"}},{"fullUrl":"https://madie.cms.gov/Encounter/684651316135131","resource":{"resourceType":"Encounter","id":"a3d47dad-11bc-442c-bbe0-1d3bfc58c314","meta":{"profile":["http://hl7.org/fhir/us/qicore/StructureDefinition/qicore-encounter"]},"status":"finished","class":{"system":"http://terminology.hl7.org/CodeSystem/v3-ActCode","code":"AMB","display":"ambulatory"},"type":[{"coding":[{"system":"http://snomed.info/sct","version":"http://snomed.info/sct/731000124108/version/20240301","code":"185463005","display":"Visit out of hours (procedure)"}]}],"subject":{"reference":"Patient/2be46549-5ab0-4205-a0e0-166839906f95"},"period":{"end":"2025-03-31T08:00:00.000+00:00"}},"request":{"method":"PUT","url":"Encounter/a3d47dad-11bc-442c-bbe0-1d3bfc58c314"}},{"fullUrl":"https://madie.cms.gov/Encounter/43451368464651","resource":{"resourceType":"Encounter","id":"b46a1193-292c-4da6-a3e1-1b173111967d","meta":{"profile":["http://hl7.org/fhir/us/qicore/StructureDefinition/qicore-encounter"]},"status":"finished","class":{"system":"http://terminology.hl7.org/CodeSystem/v3-ActCode","code":"AMB","display":"ambulatory"},"type":[{"coding":[{"system":"http://snomed.info/sct","version":"http://snomed.info/sct/731000124108/version/20240301","code":"185463005","display":"Visit out of hours (procedure)"}]}],"subject":{"reference":"Patient/2be46549-5ab0-4205-a0e0-166839906f95"},"period":{"start":"2025-05-15T08:00:00.000+00:00","end":"2025-05-15T08:15:00.000+00:00"}},"request":{"method":"PUT","url":"Encounter/b46a1193-292c-4da6-a3e1-1b173111967d"}},{"fullUrl":"https://madie.cms.gov/Condition/87781546435135","resource":{"resourceType":"Condition","id":"4942726c-e400-4d63-adc2-78bf7d7facd0","meta":{"profile":["http://hl7.org/fhir/us/qicore/StructureDefinition/qicore-condition"]},"clinicalStatus":{"coding":[{"system":"http://terminology.hl7.org/CodeSystem/condition-clinical","code":"active","display":"active"}]},"verificationStatus":{"coding":[{"system":"http://terminology.hl7.org/CodeSystem/condition-ver-status","code":"confirmed","display":"Confirmed"}]},"category":[{"coding":[{"system":"http://terminology.hl7.org/CodeSystem/condition-category","code":"problem-list-item","display":"Problem List Item"}]}],"code":{"coding":[{"system":"http://snomed.info/sct","version":"http://snomed.info/sct/731000124108/version/20240301","code":"10091002","display":"High output heart failure (disorder)"}]},"subject":{"reference":"Patient/2be46549-5ab0-4205-a0e0-166839906f95"},"onsetPeriod":{"start":"2024-05-17T08:00:00.000+00:00"}},"request":{"method":"PUT","url":"Condition/4942726c-e400-4d63-adc2-78bf7d7facd0"}},{"fullUrl":"https://madie.cms.gov/Condition/21464531351531","resource":{"resourceType":"Condition","id":"6210e7dc-9ff5-4a1a-8025-b065ae82d8fa","meta":{"profile":["http://hl7.org/fhir/us/qicore/StructureDefinition/qicore-condition"]},"clinicalStatus":{"coding":[{"system":"http://terminology.hl7.org/CodeSystem/condition-clinical","code":"active","display":"Active"}]},"verificationStatus":{"coding":[{"system":"http://terminology.hl7.org/CodeSystem/condition-ver-status","code":"confirmed","display":"Confirmed"}]},"category":[{"coding":[{"system":"http://terminology.hl7.org/CodeSystem/condition-category","code":"problem-list-item","display":"Problem List Item"}]}],"code":{"coding":[{"system":"http://snomed.info/sct","version":"http://snomed.info/sct/731000124108/version/20240301","code":"981000124106","display":"Moderate left ventricular systolic dysfunction (disorder)"}]},"subject":{"reference":"Patient/2be46549-5ab0-4205-a0e0-166839906f95"},"onsetPeriod":{"start":"2025-03-25T08:00:00.000+00:00","end":"2025-03-30T08:15:00.000+00:00"}},"request":{"method":"PUT","url":"Condition/6210e7dc-9ff5-4a1a-8025-b065ae82d8fa"}},{"fullUrl":"https://madie.cms.gov/MeasureReport/50c0bfed-737c-4da5-b0ad-7d2858a8dc79","resource":{"resourceType":"MeasureReport","id":"50c0bfed-737c-4da5-b0ad-7d2858a8dc79","meta":{"profile":["http://hl7.org/fhir/us/cqfmeasures/StructureDefinition/test-case-cqfm"]},"contained":[{"resourceType":"Parameters","id":"80d2d798-3676-4e5d-a00a-e3f77ddbac3f-parameters","parameter":[{"name":"subject","valueString":"2be46549-5ab0-4205-a0e0-166839906f95"}]}],"extension":[{"url":"http://hl7.org/fhir/us/cqfmeasures/StructureDefinition/cqfm-inputParameters","valueReference":{"reference":"#80d2d798-3676-4e5d-a00a-e3f77ddbac3f-parameters"}},{"url":"http://hl7.org/fhir/us/cqfmeasures/StructureDefinition/cqfm-testCaseDescription","valueMarkdown":"Patient with HF Dx and 2 Encounters in MP but Encounter does not have start date"}],"modifierExtension":[{"url":"http://hl7.org/fhir/us/cqfmeasures/StructureDefinition/cqfm-isTestCase","valueBoolean":true}],"status":"complete","type":"individual","measure":"https://madie.cms.gov/Measure/HFACEIorARBorARNIforLVSDFHIR","period":{"start":"2025-01-01","end":"2025-12-31"},"group":[{"population":[{"code":{"coding":[{"system":"http://terminology.hl7.org/CodeSystem/measure-population","code":"initial-population","display":"Initial Population"}]},"count":0},{"code":{"coding":[{"system":"http://terminology.hl7.org/CodeSystem/measure-population","code":"denominator","display":"Denominator"}]},"count":0},{"code":{"coding":[{"system":"http://terminology.hl7.org/CodeSystem/measure-population","code":"denominator-exclusion","display":"Denominator Exclusion"}]},"count":0},{"code":{"coding":[{"system":"http://terminology.hl7.org/CodeSystem/measure-population","code":"numerator","display":"Numerator"}]},"count":0},{"code":{"coding":[{"system":"http://terminology.hl7.org/CodeSystem/measure-population","code":"denominator-exception","display":"Denominator Exception"}]},"count":0}]}]},"request":{"method":"PUT","url":"MeasureReport/50c0bfed-737c-4da5-b0ad-7d2858a8dc79"}}]}