{
  "resourceType": "Bundle",
  "id": "DENEXFail-NeoplasmsAfterMP",
  "type": "transaction",
  "entry": [ {
    "fullUrl": "https://madie.cms.gov/Patient/9c6fd73e-9005-4518-b7f0-5d9db57a7ef5",
    "resource": {
      "resourceType": "Patient",
      "id": "9c6fd73e-9005-4518-b7f0-5d9db57a7ef5",
      "meta": {
        "profile": [ "http://hl7.org/fhir/us/qicore/StructureDefinition/qicore-patient" ]
      },
      "extension": [ {
        "url": "http://hl7.org/fhir/us/core/StructureDefinition/us-core-race",
        "extension": [ {
          "url": "ombCategory",
          "valueCoding": {
            "system": "urn:oid:2.16.840.1.113883.6.238",
            "code": "2028-9",
            "display": "Asian"
          }
        }, {
          "url": "text",
          "valueString": "Asian"
        } ]
      }, {
        "url": "http://hl7.org/fhir/us/core/StructureDefinition/us-core-ethnicity",
        "extension": [ {
          "url": "ombCategory",
          "valueCoding": {
            "system": "urn:oid:2.16.840.1.113883.6.238",
            "code": "2135-2",
            "display": "Hispanic or Latino"
          }
        }, {
          "url": "text",
          "valueString": "Hispanic or Latino"
        } ]
      } ],
      "identifier": [ {
        "system": "http://hospital.smarthealthit.org",
        "value": "999999995"
      } ],
      "name": [ {
        "family": "Bertha",
        "given": [ "Betty" ]
      } ],
      "gender": "female",
      "birthDate": "1979-01-01"
    },
    "request": {
      "method": "PUT",
      "url": "Patient/9c6fd73e-9005-4518-b7f0-5d9db57a7ef5"
    }
  }, {
    "fullUrl": "https://madie.cms.gov/Encounter/Encounter-38",
    "resource": {
      "resourceType": "Encounter",
      "id": "Encounter-38",
      "meta": {
        "profile": [ "http://hl7.org/fhir/us/qicore/StructureDefinition/qicore-encounter" ]
      },
      "status": "finished",
      "class": {
        "system": "http://terminology.hl7.org/CodeSystem/v3-ActCode",
        "code": "AMB",
        "display": "ambulatory"
      },
      "type": [ {
        "coding": [ {
          "system": "http://snomed.info/sct",
          "code": "185317003",
          "display": "Telephone encounter (procedure)"
        } ]
      } ],
      "subject": {
        "reference": "Patient/9c6fd73e-9005-4518-b7f0-5d9db57a7ef5"
      },
      "period": {
        "start": "2025-01-01T01:00:00.000Z",
        "end": "2025-01-01T01:15:00.000Z"
      }
    },
    "request": {
      "method": "PUT",
      "url": "Encounter/Encounter-38"
    }
  }, {
    "fullUrl": "https://madie.cms.gov/Condition/Condition-2",
    "resource": {
      "resourceType": "Condition",
      "id": "Condition-2",
      "meta": {
        "profile": [ "http://hl7.org/fhir/us/qicore/StructureDefinition/qicore-condition" ]
      },
      "clinicalStatus": {
        "coding": [ {
          "system": "http://terminology.hl7.org/CodeSystem/condition-clinical",
          "code": "active"
        } ]
      },
      "category": [ {
        "coding": [ {
          "system": "http://terminology.hl7.org/CodeSystem/condition-category",
          "code": "problem-list-item",
          "display": "Problem List Item"
        } ]
      } ],
      "code": {
        "coding": [ {
          "system": "http://snomed.info/sct",
          "code": "109838007",
          "display": "Overlapping malignant neoplasm of colon (disorder)"
        } ]
      },
      "subject": {
        "reference": "Patient/9c6fd73e-9005-4518-b7f0-5d9db57a7ef5"
      },
      "onsetDateTime": "2026-01-01T01:15:00.000Z"
    },
    "request": {
      "method": "PUT",
      "url": "Condition/Condition-2"
    }
  }, {
    "fullUrl": "https://madie.cms.gov/MeasureReport/29e58f63-7680-4908-bd0c-c7ebbfb61384",
    "resource": {
      "resourceType": "MeasureReport",
      "id": "29e58f63-7680-4908-bd0c-c7ebbfb61384",
      "meta": {
        "profile": [ "http://hl7.org/fhir/us/cqfmeasures/StructureDefinition/test-case-cqfm" ]
      },
      "contained": [ {
        "resourceType": "Parameters",
        "id": "2a68476b-3541-4715-86a5-85f0e05520cd-parameters",
        "parameter": [ {
          "name": "subject",
          "valueString": "9c6fd73e-9005-4518-b7f0-5d9db57a7ef5"
        } ]
      } ],
      "extension": [ {
        "url": "http://hl7.org/fhir/us/cqfmeasures/StructureDefinition/cqfm-inputParameters",
        "valueReference": {
          "reference": "#2a68476b-3541-4715-86a5-85f0e05520cd-parameters"
        }
      }, {
        "url": "http://hl7.org/fhir/us/cqfmeasures/StructureDefinition/cqfm-testCaseDescription",
        "valueMarkdown": "Patient has a malignant neoplasm after the measurement period."
      } ],
      "modifierExtension": [ {
        "url": "http://hl7.org/fhir/us/cqfmeasures/StructureDefinition/cqfm-isTestCase",
        "valueBoolean": true
      } ],
      "status": "complete",
      "type": "individual",
      "measure": "https://madie.cms.gov/Measure/ColonCancerScreeningFHIR",
      "period": {
        "start": "2025-01-01",
        "end": "2025-12-31"
      },
      "group": [ {
        "population": [ {
          "code": {
            "coding": [ {
              "system": "http://terminology.hl7.org/CodeSystem/measure-population",
              "code": "initial-population",
              "display": "Initial Population"
            } ]
          },
          "count": 1
        }, {
          "code": {
            "coding": [ {
              "system": "http://terminology.hl7.org/CodeSystem/measure-population",
              "code": "denominator",
              "display": "Denominator"
            } ]
          },
          "count": 1
        }, {
          "code": {
            "coding": [ {
              "system": "http://terminology.hl7.org/CodeSystem/measure-population",
              "code": "denominator-exclusion",
              "display": "Denominator Exclusion"
            } ]
          },
          "count": 0
        }, {
          "code": {
            "coding": [ {
              "system": "http://terminology.hl7.org/CodeSystem/measure-population",
              "code": "numerator",
              "display": "Numerator"
            } ]
          },
          "count": 0
        } ]
      } ],
      "evaluatedResource": [ {
        "reference": "Patient/9c6fd73e-9005-4518-b7f0-5d9db57a7ef5"
      }, {
        "reference": "Encounter/Encounter-38"
      }, {
        "reference": "Condition/Condition-2"
      } ]
    },
    "request": {
      "method": "PUT",
      "url": "MeasureReport/29e58f63-7680-4908-bd0c-c7ebbfb61384"
    }
  } ]
}