{
  "resourceType": "Bundle",
  "id": "633c9d030968f8012250fc94",
  "type": "transaction",
  "entry": [ {
    "fullUrl": "https://madie.cms.gov/Patient/20a54dae-abeb-4f61-b567-057b6ebc1c7e",
    "resource": {
      "resourceType": "Patient",
      "id": "20a54dae-abeb-4f61-b567-057b6ebc1c7e",
      "meta": {
        "profile": [ "http://hl7.org/fhir/us/qicore/StructureDefinition/qicore-patient" ]
      },
      "text": {
        "status": "generated",
        "div": "<div xmlns=\"http://www.w3.org/1999/xhtml\"><div class=\"hapiHeaderText\">EncDx=IschStk_EncDx=Afib/flutter <b>DENOMFAIL </b></div><table class=\"hapiPropertyTable\"><tbody><tr><td>Identifier</td><td>fd4a058d58e573f12079d828d09dad64</td></tr><tr><td>Date of birth</td><td><span>01 December 1960</span></td></tr></tbody></table></div>"
      },
      "extension": [ {
        "url": "http://hl7.org/fhir/us/core/StructureDefinition/us-core-race",
        "extension": [ {
          "url": "ombCategory",
          "valueCoding": {
            "system": "urn:oid:2.16.840.1.113883.6.238",
            "code": "1002-5",
            "display": "American Indian or Alaska Native",
            "userSelected": true
          }
        }, {
          "url": "text",
          "valueString": "American Indian or Alaska Native"
        } ]
      }, {
        "url": "http://hl7.org/fhir/us/core/StructureDefinition/us-core-ethnicity",
        "extension": [ {
          "url": "ombCategory",
          "valueCoding": {
            "system": "urn:oid:2.16.840.1.113883.6.238",
            "code": "2135-2",
            "display": "Hispanic or Latino",
            "userSelected": true
          }
        }, {
          "url": "text",
          "valueString": "Hispanic or Latino"
        } ]
      } ],
      "identifier": [ {
        "type": {
          "coding": [ {
            "system": "http://terminology.hl7.org/CodeSystem/v2-0203",
            "code": "MR"
          } ]
        },
        "system": "https://bonnie-fhir.healthit.gov/",
        "value": "633c9d030968f8012250fc94"
      } ],
      "active": true,
      "name": [ {
        "use": "usual",
        "family": "IPPFail",
        "given": [ "EncDx=IschStk_EncDx=Afib/flutter" ]
      } ],
      "gender": "male",
      "birthDate": "1961-12-01"
    },
    "request": {
      "method": "PUT",
      "url": "Patient/20a54dae-abeb-4f61-b567-057b6ebc1c7e"
    }
  }, {
    "fullUrl": "https://madie.cms.gov/Encounter/65e03df5-53df-45a3-a08b-b6196cb5ef95",
    "resource": {
      "resourceType": "Encounter",
      "id": "65e03df5-53df-45a3-a08b-b6196cb5ef95",
      "meta": {
        "profile": [ "http://hl7.org/fhir/us/qicore/StructureDefinition/qicore-encounter" ]
      },
      "status": "finished",
      "class": {
        "system": "http://terminology.hl7.org/CodeSystem/v3-ActCode",
        "code": "IMP",
        "display": "inpatient encounter"
      },
      "type": [ {
        "coding": [ {
          "system": "http://snomed.info/sct",
          "code": "183452005"
        } ]
      } ],
      "subject": {
        "reference": "Patient/20a54dae-abeb-4f61-b567-057b6ebc1c7e"
      },
      "period": {
        "start": "2026-02-08T08:00:00.000Z",
        "end": "2026-02-10T08:15:00.000Z"
      },
      "length": {
        "value": 2,
        "unit": "days"
      },
      "diagnosis": [ {
        "condition": {
          "reference": "Condition/f987c403-8f82-4dc3-b63e-09892add7be7"
        },
        "use": {
          "coding": [ {
            "system": "http://terminology.hl7.org/CodeSystem/diagnosis-role",
            "code": "billing",
            "display": "Billing"
          } ]
        }
      }, {
        "condition": {
          "reference": "Condition/161ac6e8-2cac-443e-a9af-7876e38e44b3"
        },
        "use": {
          "coding": [ {
            "system": "http://terminology.hl7.org/CodeSystem/diagnosis-role",
            "code": "billing",
            "display": "Billing"
          } ]
        }
      } ]
    },
    "request": {
      "method": "PUT",
      "url": "Encounter/65e03df5-53df-45a3-a08b-b6196cb5ef95"
    }
  }, {
    "fullUrl": "https://madie.cms.gov/Coverage/11d7832e-ccc7-43c6-a392-f57578ac0eb5",
    "resource": {
      "resourceType": "Coverage",
      "id": "11d7832e-ccc7-43c6-a392-f57578ac0eb5",
      "status": "active",
      "beneficiary": {
        "reference": "Patient/20a54dae-abeb-4f61-b567-057b6ebc1c7e"
      },
      "period": {
        "start": "1961-12-01T08:00:00.000Z"
      },
      "payor": [ {
        "reference": "Organization/27516383-9a7f-4693-bfd9-4b491ff49661"
      } ]
    },
    "request": {
      "method": "PUT",
      "url": "Coverage/11d7832e-ccc7-43c6-a392-f57578ac0eb5"
    }
  }, {
    "fullUrl": "https://madie.cms.gov/Condition/161ac6e8-2cac-443e-a9af-7876e38e44b3",
    "resource": {
      "resourceType": "Condition",
      "id": "161ac6e8-2cac-443e-a9af-7876e38e44b3",
      "meta": {
        "profile": [ "http://hl7.org/fhir/us/qicore/StructureDefinition/qicore-condition" ]
      },
      "clinicalStatus": {
        "coding": [ {
          "system": "http://terminology.hl7.org/CodeSystem/condition-clinical",
          "code": "active"
        } ]
      },
      "verificationStatus": {
        "coding": [ {
          "system": "http://terminology.hl7.org/CodeSystem/condition-ver-status",
          "code": "confirmed"
        } ]
      },
      "category": [ {
        "coding": [ {
          "system": "http://terminology.hl7.org/CodeSystem/condition-category",
          "code": "encounter-diagnosis",
          "display": "Encounter Diagnosis"
        } ]
      } ],
      "code": {
        "coding": [ {
          "system": "http://snomed.info/sct",
          "version": "2021-09",
          "code": "111297002",
          "display": "Nonparalytic stroke (disorder)",
          "userSelected": true
        } ]
      },
      "subject": {
        "reference": "Patient/20a54dae-abeb-4f61-b567-057b6ebc1c7e"
      },
      "recordedDate": "2026-10-13T08:00:00.000+00:00"
    },
    "request": {
      "method": "PUT",
      "url": "Condition/161ac6e8-2cac-443e-a9af-7876e38e44b3"
    }
  }, {
    "fullUrl": "https://madie.cms.gov/Condition/f987c403-8f82-4dc3-b63e-09892add7be7",
    "resource": {
      "resourceType": "Condition",
      "id": "f987c403-8f82-4dc3-b63e-09892add7be7",
      "meta": {
        "profile": [ "http://hl7.org/fhir/us/qicore/StructureDefinition/qicore-condition" ]
      },
      "clinicalStatus": {
        "coding": [ {
          "system": "http://terminology.hl7.org/CodeSystem/condition-clinical",
          "code": "active"
        } ]
      },
      "verificationStatus": {
        "coding": [ {
          "system": "http://terminology.hl7.org/CodeSystem/condition-ver-status",
          "code": "confirmed"
        } ]
      },
      "category": [ {
        "coding": [ {
          "system": "http://terminology.hl7.org/CodeSystem/condition-category",
          "code": "encounter-diagnosis",
          "display": "Encounter Diagnosis"
        } ]
      } ],
      "code": {
        "coding": [ {
          "system": "http://snomed.info/sct",
          "code": "120041000119109",
          "display": "Atrial Fibrillation/Flutter"
        } ]
      },
      "subject": {
        "reference": "Patient/20a54dae-abeb-4f61-b567-057b6ebc1c7e"
      },
      "recordedDate": "2026-10-13T08:00:00.000+00:00"
    },
    "request": {
      "method": "PUT",
      "url": "Condition/f987c403-8f82-4dc3-b63e-09892add7be7"
    }
  }, {
    "fullUrl": "https://madie.cms.gov/Organization/27516383-9a7f-4693-bfd9-4b491ff49661",
    "resource": {
      "resourceType": "Organization",
      "id": "27516383-9a7f-4693-bfd9-4b491ff49661",
      "meta": {
        "profile": [ "http://hl7.org/fhir/us/qicore/StructureDefinition/qicore-organization" ]
      },
      "identifier": [ {
        "use": "temp",
        "system": "urn:oid:2.16.840.1.113883.4.4",
        "value": "21-3259825"
      } ],
      "active": true,
      "type": [ {
        "coding": [ {
          "system": "http://terminology.hl7.org/CodeSystem/organization-type",
          "code": "pay",
          "display": "Payer"
        } ]
      } ],
      "name": "Blue Cross Blue Shield of Texas",
      "telecom": [ {
        "system": "phone",
        "value": "(+1) 972-766-6900"
      } ],
      "address": [ {
        "use": "billing",
        "type": "postal",
        "line": [ "P.O. Box 660044" ],
        "city": "Dallas",
        "state": "TX",
        "postalCode": "75266-0044",
        "country": "USA"
      } ]
    },
    "request": {
      "method": "PUT",
      "url": "Organization/27516383-9a7f-4693-bfd9-4b491ff49661"
    }
  }, {
    "fullUrl": "https://madie.cms.gov/Practitioner/64299ce6-e3ce-4591-b36a-95a89e3312e3",
    "resource": {
      "resourceType": "Practitioner",
      "id": "64299ce6-e3ce-4591-b36a-95a89e3312e3",
      "identifier": [ {
        "system": "http://hl7.org/fhir/sid/us-npi",
        "value": "123456"
      } ],
      "name": [ {
        "family": "Evil",
        "prefix": [ "Dr" ]
      } ]
    },
    "request": {
      "method": "PUT",
      "url": "Practitioner/64299ce6-e3ce-4591-b36a-95a89e3312e3"
    }
  }, {
    "fullUrl": "https://madie.cms.gov/MeasureReport/602f87a6-200d-4359-932d-94f725bd3920",
    "resource": {
      "resourceType": "MeasureReport",
      "id": "602f87a6-200d-4359-932d-94f725bd3920",
      "meta": {
        "profile": [ "http://hl7.org/fhir/us/cqfmeasures/StructureDefinition/test-case-cqfm" ]
      },
      "contained": [ {
        "resourceType": "Parameters",
        "id": "09ff64a5-fd2e-4632-a5e4-9eef59da95ff-parameters",
        "parameter": [ {
          "name": "subject",
          "valueString": "20a54dae-abeb-4f61-b567-057b6ebc1c7e"
        } ]
      } ],
      "extension": [ {
        "url": "http://hl7.org/fhir/us/cqfmeasures/StructureDefinition/cqfm-inputParameters",
        "valueReference": {
          "reference": "#09ff64a5-fd2e-4632-a5e4-9eef59da95ff-parameters"
        }
      }, {
        "url": "http://hl7.org/fhir/us/cqfmeasures/StructureDefinition/cqfm-testCaseDescription",
        "valueMarkdown": "\"Encounter Dx = Ischemic stroke,\nEncounter Dx = Atrial fib/flutter.  testing encounter diagnosis as an attribute \"\n"
      } ],
      "modifierExtension": [ {
        "url": "http://hl7.org/fhir/us/cqfmeasures/StructureDefinition/cqfm-isTestCase",
        "valueBoolean": true
      } ],
      "status": "complete",
      "type": "individual",
      "measure": "https://madie.cms.gov/Measure/CMS71FHIRSTKAnticoagAFFlutter",
      "period": {
        "start": "2026-01-01",
        "end": "2026-12-31"
      },
      "group": [ {
        "population": [ {
          "code": {
            "coding": [ {
              "system": "http://terminology.hl7.org/CodeSystem/measure-population",
              "code": "initial-population",
              "display": "Initial Population"
            } ]
          },
          "count": 0
        }, {
          "code": {
            "coding": [ {
              "system": "http://terminology.hl7.org/CodeSystem/measure-population",
              "code": "denominator",
              "display": "Denominator"
            } ]
          },
          "count": 0
        }, {
          "code": {
            "coding": [ {
              "system": "http://terminology.hl7.org/CodeSystem/measure-population",
              "code": "denominator-exclusion",
              "display": "Denominator Exclusion"
            } ]
          },
          "count": 0
        }, {
          "code": {
            "coding": [ {
              "system": "http://terminology.hl7.org/CodeSystem/measure-population",
              "code": "numerator",
              "display": "Numerator"
            } ]
          },
          "count": 0
        }, {
          "code": {
            "coding": [ {
              "system": "http://terminology.hl7.org/CodeSystem/measure-population",
              "code": "denominator-exception",
              "display": "Denominator Exception"
            } ]
          },
          "count": 0
        } ]
      } ],
      "evaluatedResource": [ {
        "reference": "Patient/20a54dae-abeb-4f61-b567-057b6ebc1c7e"
      }, {
        "reference": "Encounter/65e03df5-53df-45a3-a08b-b6196cb5ef95"
      }, {
        "reference": "Coverage/11d7832e-ccc7-43c6-a392-f57578ac0eb5"
      }, {
        "reference": "Condition/161ac6e8-2cac-443e-a9af-7876e38e44b3"
      }, {
        "reference": "Condition/f987c403-8f82-4dc3-b63e-09892add7be7"
      }, {
        "reference": "Organization/27516383-9a7f-4693-bfd9-4b491ff49661"
      }, {
        "reference": "Practitioner/64299ce6-e3ce-4591-b36a-95a89e3312e3"
      } ]
    },
    "request": {
      "method": "PUT",
      "url": "MeasureReport/602f87a6-200d-4359-932d-94f725bd3920"
    }
  } ]
}