{
  "resourceType": "Bundle",
  "id": "6109650598086b538055a0f2",
  "type": "transaction",
  "entry": [ {
    "fullUrl": "https://madie.cms.gov/Patient/b6c75347-6a1e-4545-bd64-ac5f2f55021b",
    "resource": {
      "resourceType": "Patient",
      "id": "b6c75347-6a1e-4545-bd64-ac5f2f55021b",
      "meta": {
        "profile": [ "http://hl7.org/fhir/us/qicore/StructureDefinition/qicore-patient" ]
      },
      "text": {
        "status": "generated",
        "div": "<div xmlns=\"http://www.w3.org/1999/xhtml\"><div class=\"hapiHeaderText\">OPEnc1DayAfterMP <b>IPPFAIL </b></div><table class=\"hapiPropertyTable\"><tbody><tr><td>Identifier</td><td>cb76ca79e162958d7a07677b4555c841</td></tr><tr><td>Date of birth</td><td><span>13 December 1995</span></td></tr></tbody></table></div>"
      },
      "extension": [ {
        "url": "http://hl7.org/fhir/us/core/StructureDefinition/us-core-race",
        "extension": [ {
          "url": "ombCategory",
          "valueCoding": {
            "system": "urn:oid:2.16.840.1.113883.6.238",
            "code": "1002-5",
            "display": "American Indian or Alaska Native",
            "userSelected": true
          }
        }, {
          "url": "text",
          "valueString": "American Indian or Alaska Native"
        } ]
      }, {
        "url": "http://hl7.org/fhir/us/core/StructureDefinition/us-core-ethnicity",
        "extension": [ {
          "url": "ombCategory",
          "valueCoding": {
            "system": "urn:oid:2.16.840.1.113883.6.238",
            "code": "2135-2",
            "display": "Hispanic or Latino",
            "userSelected": true
          }
        }, {
          "url": "text",
          "valueString": "Hispanic or Latino"
        } ]
      } ],
      "identifier": [ {
        "type": {
          "coding": [ {
            "system": "http://terminology.hl7.org/CodeSystem/v2-0203",
            "code": "MR"
          } ]
        },
        "system": "https://bonnie-fhir.healthit.gov/",
        "value": "6109650598086b538055a0f2"
      } ],
      "active": true,
      "name": [ {
        "use": "usual",
        "family": "IPFail",
        "given": [ "Enc1DayAfterMP" ]
      } ],
      "gender": "female",
      "birthDate": "2007-12-13"
    },
    "request": {
      "method": "POST",
      "url": "Patient/b6c75347-6a1e-4545-bd64-ac5f2f55021b"
    }
  }, {
    "fullUrl": "https://madie.cms.gov/Encounter/5c98fd1ab848464ed33e9eb2",
    "resource": {
      "resourceType": "Encounter",
      "id": "5c98fd1ab848464ed33e9eb2",
      "meta": {
        "profile": [ "http://hl7.org/fhir/us/qicore/StructureDefinition/qicore-encounter" ]
      },
      "status": "finished",
      "class": {
        "system": "http://terminology.hl7.org/CodeSystem/v3-ActCode",
        "code": "AMB",
        "display": "ambulatory",
        "userSelected": true
      },
      "type": [ {
        "coding": [ {
          "system": "http://www.ama-assn.org/go/cpt",
          "code": "99241"
        } ]
      } ],
      "subject": {
        "reference": "Patient/b6c75347-6a1e-4545-bd64-ac5f2f55021b"
      },
      "period": {
        "start": "2025-01-01T10:02:00.000+00:00",
        "end": "2025-01-01T10:23:00.000+00:00"
      },
      "length": {
        "value": 0.0,
        "unit": "days"
      },
      "diagnosis": [ {
        "condition": {
          "reference": "Condition/major-depressive-disorder-active-c3a7"
        },
        "use": {
          "coding": [ {
            "system": "http://snomed.info/sct",
            "version": "2022-09",
            "code": "191610000",
            "display": "Recurrent major depressive episodes, mild (disorder)",
            "userSelected": true
          } ]
        }
      } ]
    },
    "request": {
      "method": "POST",
      "url": "Encounter/5c98fd1ab848464ed33e9eb2"
    }
  }, {
    "fullUrl": "https://madie.cms.gov/Condition/major-depressive-disorder-active-c3a7",
    "resource": {
      "resourceType": "Condition",
      "id": "major-depressive-disorder-active-c3a7",
      "meta": {
        "profile": [ "http://hl7.org/fhir/us/qicore/StructureDefinition/qicore-condition" ]
      },
      "category": [ {
        "coding": [ {
          "system": "http://terminology.hl7.org/CodeSystem/condition-category",
          "code": "encounter-diagnosis",
          "display": "Encounter Diagnosis"
        } ]
      } ],
      "code": {
        "coding": [ {
          "system": "http://snomed.info/sct",
          "version": "2022-09",
          "code": "10811121000119102",
          "display": "Major depressive disorder in mother complicating childbirth (disorder)",
          "userSelected": true
        } ]
      },
      "subject": {
        "reference": "Patient/b6c75347-6a1e-4545-bd64-ac5f2f55021b"
      },
      "recordedDate": "2025-01-01T10:02:00.000+00:00"
    },
    "request": {
      "method": "POST",
      "url": "Condition/major-depressive-disorder-active-c3a7"
    }
  }, {
    "fullUrl": "https://madie.cms.gov/Coverage/1",
    "resource": {
      "resourceType": "Coverage",
      "id": "1",
      "meta": {
        "profile": [ "http://hl7.org/fhir/us/qicore/StructureDefinition/qicore-coverage" ]
      },
      "status": "active",
      "beneficiary": {
        "reference": "Patient/b6c75347-6a1e-4545-bd64-ac5f2f55021b"
      },
      "payor": [ {
        "reference": "Organization/123456"
      } ]
    },
    "request": {
      "method": "POST",
      "url": "Coverage/1"
    }
  }, {
    "fullUrl": "https://madie.cms.gov/Organization/123456",
    "resource": {
      "resourceType": "Organization",
      "id": "123456",
      "meta": {
        "profile": [ "http://hl7.org/fhir/us/qicore/StructureDefinition/qicore-organization" ]
      },
      "identifier": [ {
        "use": "temp",
        "system": "urn:oid:2.16.840.1.113883.4.4",
        "value": "21-3259825"
      } ],
      "active": true,
      "type": [ {
        "coding": [ {
          "system": "http://terminology.hl7.org/CodeSystem/organization-type",
          "code": "pay",
          "display": "Payer"
        } ]
      } ],
      "name": "Blue Cross Blue Shield of Texas",
      "telecom": [ {
        "system": "phone",
        "value": "(+1) 972-766-6900"
      } ],
      "address": [ {
        "use": "billing",
        "type": "postal",
        "line": [ "P.O. Box 660044" ],
        "city": "Dallas",
        "state": "TX",
        "postalCode": "75266-0044",
        "country": "USA"
      } ]
    },
    "request": {
      "method": "POST",
      "url": "Organization/123456"
    }
  }, {
    "fullUrl": "https://madie.cms.gov/Practitioner/practitioner-123456",
    "resource": {
      "resourceType": "Practitioner",
      "id": "practitioner-123456",
      "meta": {
        "profile": [ "http://hl7.org/fhir/us/qicore/StructureDefinition/qicore-practitioner" ]
      },
      "identifier": [ {
        "system": "http://hl7.org/fhir/sid/us-npi",
        "value": "123456"
      } ],
      "name": [ {
        "family": "Evil",
        "prefix": [ "Dr" ]
      } ]
    },
    "request": {
      "method": "POST",
      "url": "Practitioner/practitioner-123456"
    }
  }, {
    "fullUrl": "https://madie.cms.gov/MeasureReport/e8e34fed-8dbf-44bb-9ac2-dcb7815a6986",
    "resource": {
      "resourceType": "MeasureReport",
      "id": "e8e34fed-8dbf-44bb-9ac2-dcb7815a6986",
      "meta": {
        "profile": [ "http://hl7.org/fhir/us/cqfmeasures/StructureDefinition/test-case-cqfm" ]
      },
      "contained": [ {
        "resourceType": "Parameters",
        "id": "f0209e18-35e4-448c-b292-e75f9660fbf5-parameters",
        "parameter": [ {
          "name": "subject",
          "valueString": "b6c75347-6a1e-4545-bd64-ac5f2f55021b"
        } ]
      } ],
      "extension": [ {
        "url": "http://hl7.org/fhir/us/cqfmeasures/StructureDefinition/cqfm-inputParameters",
        "valueReference": {
          "reference": "#f0209e18-35e4-448c-b292-e75f9660fbf5-parameters"
        }
      }, {
        "url": "http://hl7.org/fhir/us/cqfmeasures/StructureDefinition/cqfm-testCaseDescription",
        "valueMarkdown": "Patient has Outpatient Consultation encounter 1 day after measurement period to test timing"
      } ],
      "modifierExtension": [ {
        "url": "http://hl7.org/fhir/us/cqfmeasures/StructureDefinition/cqfm-isTestCase",
        "valueBoolean": true
      } ],
      "status": "complete",
      "type": "individual",
      "measure": "https://madie.cms.gov/Measure/ChildandAdolescentMajorDepressiveDisorderMDDSuicideRiskAssessmentFHIR",
      "period": {
        "start": "2025-01-01",
        "end": "2025-12-31"
      },
      "group": [ {
        "population": [ {
          "code": {
            "coding": [ {
              "system": "http://terminology.hl7.org/CodeSystem/measure-population",
              "code": "initial-population",
              "display": "Initial Population"
            } ]
          },
          "count": 0
        }, {
          "code": {
            "coding": [ {
              "system": "http://terminology.hl7.org/CodeSystem/measure-population",
              "code": "denominator",
              "display": "Denominator"
            } ]
          },
          "count": 0
        }, {
          "code": {
            "coding": [ {
              "system": "http://terminology.hl7.org/CodeSystem/measure-population",
              "code": "numerator",
              "display": "Numerator"
            } ]
          },
          "count": 0
        } ]
      } ],
      "evaluatedResource": [ {
        "reference": "https://madie.cms.gov/Patient/b6c75347-6a1e-4545-bd64-ac5f2f55021b"
      }, {
        "reference": "https://madie.cms.gov/Encounter/5c98fd1ab848464ed33e9eb2"
      }, {
        "reference": "https://madie.cms.gov/Condition/major-depressive-disorder-active-c3a7"
      }, {
        "reference": "https://madie.cms.gov/Coverage/1"
      }, {
        "reference": "https://madie.cms.gov/Organization/123456"
      }, {
        "reference": "https://madie.cms.gov/Practitioner/practitioner-123456"
      } ]
    },
    "request": {
      "method": "POST",
      "url": "MeasureReport/e8e34fed-8dbf-44bb-9ac2-dcb7815a6986"
    }
  } ]
}