{
  "resourceType": "Bundle",
  "id": "DENOMPass-RVDeliriumDxPOA",
  "type": "transaction",
  "entry": [ {
    "fullUrl": "https://madie.cms.gov/Patient/1b700def-98b0-418c-b0a7-80ecb275597f",
    "resource": {
      "resourceType": "Patient",
      "id": "1b700def-98b0-418c-b0a7-80ecb275597f",
      "meta": {
        "profile": [ "http://hl7.org/fhir/us/qicore/StructureDefinition/qicore-patient" ]
      },
      "extension": [ {
        "url": "http://hl7.org/fhir/us/core/StructureDefinition/us-core-race",
        "extension": [ {
          "url": "ombCategory",
          "valueCoding": {
            "system": "urn:oid:2.16.840.1.113883.6.238",
            "code": "1002-5",
            "display": "American Indian or Alaska Native",
            "userSelected": true
          }
        }, {
          "url": "text",
          "valueString": "American Indian or Alaska Native"
        } ]
      }, {
        "url": "http://hl7.org/fhir/us/core/StructureDefinition/us-core-ethnicity",
        "extension": [ {
          "url": "ombCategory",
          "valueCoding": {
            "system": "urn:oid:2.16.840.1.113883.6.238",
            "code": "2135-2",
            "display": "Hispanic or Latino",
            "userSelected": true
          }
        }, {
          "url": "text",
          "valueString": "Hispanic or Latino"
        } ]
      } ],
      "identifier": [ {
        "type": {
          "coding": [ {
            "system": "http://terminology.hl7.org/CodeSystem/v2-0203",
            "code": "MR"
          } ]
        },
        "system": "https://bonnie-fhir.healthit.gov/",
        "value": "61152a3b98086b7a79cbd7c1"
      } ],
      "active": true,
      "name": [ {
        "use": "usual",
        "family": "DENOMPass",
        "given": [ "RVDeliriumDxPOA" ]
      } ],
      "gender": "female",
      "birthDate": "1964-12-11"
    },
    "request": {
      "method": "PUT",
      "url": "Patient/1b700def-98b0-418c-b0a7-80ecb275597f"
    }
  }, {
    "fullUrl": "https://madie.cms.gov/Encounter/203ae85d-2572-418c-b13e-ed0e21e70070",
    "resource": {
      "resourceType": "Encounter",
      "id": "203ae85d-2572-418c-b13e-ed0e21e70070",
      "meta": {
        "profile": [ "http://hl7.org/fhir/us/qicore/StructureDefinition/qicore-encounter" ]
      },
      "status": "finished",
      "class": {
        "system": "http://terminology.hl7.org/CodeSystem/v3-ActCode",
        "code": "IMP",
        "display": "inpatient encounter"
      },
      "type": [ {
        "coding": [ {
          "system": "http://snomed.info/sct",
          "code": "183452005",
          "display": "Emergency hospital admission"
        } ]
      } ],
      "subject": {
        "reference": "Patient/1b700def-98b0-418c-b0a7-80ecb275597f"
      },
      "period": {
        "start": "2026-11-12T08:00:00+00:00",
        "end": "2026-11-18T08:01:00+00:00"
      },
      "length": {
        "value": 6,
        "unit": "days"
      },
      "diagnosis": [ {
        "extension": [ {
          "url": "http://hl7.org/fhir/us/qicore/StructureDefinition/qicore-encounter-diagnosisPresentOnAdmission",
          "valueCodeableConcept": {
            "coding": [ {
              "system": "https://www.cms.gov/Medicare/Medicare-Fee-for-Service-Payment/HospitalAcqCond/Coding",
              "code": "W"
            } ]
          }
        } ],
        "condition": {
          "reference": "Condition/049cf3e5-d567-4a6d-a805-8622e45083c6"
        }
      } ]
    },
    "request": {
      "method": "PUT",
      "url": "Encounter/203ae85d-2572-418c-b13e-ed0e21e70070"
    }
  }, {
    "fullUrl": "https://madie.cms.gov/Condition/049cf3e5-d567-4a6d-a805-8622e45083c6",
    "resource": {
      "resourceType": "Condition",
      "id": "049cf3e5-d567-4a6d-a805-8622e45083c6",
      "meta": {
        "profile": [ "http://hl7.org/fhir/us/qicore/StructureDefinition/qicore-condition" ]
      },
      "clinicalStatus": {
        "coding": [ {
          "system": "http://terminology.hl7.org/CodeSystem/condition-clinical",
          "code": "active"
        } ]
      },
      "verificationStatus": {
        "coding": [ {
          "system": "http://terminology.hl7.org/CodeSystem/condition-ver-status",
          "code": "confirmed"
        } ]
      },
      "category": [ {
        "coding": [ {
          "system": "http://terminology.hl7.org/CodeSystem/condition-category",
          "code": "encounter-diagnosis",
          "display": "Encounter Diagnosis"
        } ]
      } ],
      "code": {
        "coding": [ {
          "system": "http://hl7.org/fhir/sid/icd-10-cm",
          "code": "F01.50",
          "display": "Vascular dementia, unspecified severity, without behavioral disturbance, psychotic disturbance, mood disturbance, and anxiety"
        } ]
      },
      "subject": {
        "reference": "Patient/1b700def-98b0-418c-b0a7-80ecb275597f"
      },
      "encounter": {
        "reference": "Encounter/203ae85d-2572-418c-b13e-ed0e21e70070"
      },
      "onsetDateTime": "2026-11-12T00:00:00+00:00",
      "recordedDate": "2026-11-12T00:00:00+00:00"
    },
    "request": {
      "method": "PUT",
      "url": "Condition/049cf3e5-d567-4a6d-a805-8622e45083c6"
    }
  }, {
    "fullUrl": "https://madie.cms.gov/MeasureReport/810d931b-3d2c-408e-af8a-80d7758db50e",
    "resource": {
      "resourceType": "MeasureReport",
      "id": "810d931b-3d2c-408e-af8a-80d7758db50e",
      "meta": {
        "profile": [ "http://hl7.org/fhir/us/cqfmeasures/StructureDefinition/test-case-cqfm" ]
      },
      "contained": [ {
        "resourceType": "Parameters",
        "id": "6dedea0c-c4d6-4b57-b262-d4c4677dd8db-parameters",
        "parameter": [ {
          "name": "subject",
          "valueString": "1b700def-98b0-418c-b0a7-80ecb275597f"
        } ]
      } ],
      "extension": [ {
        "url": "http://hl7.org/fhir/us/cqfmeasures/StructureDefinition/cqfm-inputParameters",
        "valueReference": {
          "reference": "#6dedea0c-c4d6-4b57-b262-d4c4677dd8db-parameters"
        }
      }, {
        "url": "http://hl7.org/fhir/us/cqfmeasures/StructureDefinition/cqfm-testCaseDescription",
        "valueMarkdown": "Encounter with delirium dx POA = Y. Meets RV"
      } ],
      "modifierExtension": [ {
        "url": "http://hl7.org/fhir/us/cqfmeasures/StructureDefinition/cqfm-isTestCase",
        "valueBoolean": true
      } ],
      "status": "complete",
      "type": "individual",
      "measure": "https://madie.cms.gov/Measure/FallsWithInjuryFHIR",
      "period": {
        "start": "2026-01-01",
        "end": "2026-12-31"
      },
      "group": [ {
        "population": [ {
          "code": {
            "coding": [ {
              "system": "http://terminology.hl7.org/CodeSystem/measure-population",
              "code": "initial-population",
              "display": "Initial Population"
            } ]
          },
          "count": 1
        }, {
          "code": {
            "coding": [ {
              "system": "http://terminology.hl7.org/CodeSystem/measure-population",
              "code": "denominator",
              "display": "Denominator"
            } ]
          },
          "count": 1
        }, {
          "code": {
            "coding": [ {
              "system": "http://terminology.hl7.org/CodeSystem/measure-population",
              "code": "denominator-exclusion",
              "display": "Denominator Exclusion"
            } ]
          },
          "count": 0
        }, {
          "code": {
            "coding": [ {
              "system": "http://terminology.hl7.org/CodeSystem/measure-population",
              "code": "numerator",
              "display": "Numerator"
            } ]
          },
          "count": 0
        }, {
          "code": {
            "coding": [ {
              "system": "http://terminology.hl7.org/CodeSystem/measure-population",
              "code": "numerator-exclusion",
              "display": "Numerator Exclusion"
            } ]
          },
          "count": 0
        }, {
          "code": {
            "coding": [ {
              "system": "http://terminology.hl7.org/CodeSystem/measure-population",
              "code": "denominator-observation",
              "display": "DenominatorObservation"
            } ]
          },
          "count": 6
        } ]
      } ],
      "evaluatedResource": [ {
        "reference": "Patient/1b700def-98b0-418c-b0a7-80ecb275597f"
      }, {
        "reference": "Encounter/203ae85d-2572-418c-b13e-ed0e21e70070"
      }, {
        "reference": "Condition/049cf3e5-d567-4a6d-a805-8622e45083c6"
      } ]
    },
    "request": {
      "method": "PUT",
      "url": "MeasureReport/810d931b-3d2c-408e-af8a-80d7758db50e"
    }
  } ]
}