{"resourceType":"Bundle","id":"tests-c8559a93-63e3-4bce-b0a6-01a85fb6db28-bundle","type":"transaction","entry":[{"fullUrl":"https://madie.cms.gov/Patient/c8559a93-63e3-4bce-b0a6-01a85fb6db28","resource":{"resourceType":"Patient","id":"c8559a93-63e3-4bce-b0a6-01a85fb6db28","meta":{"profile":["http://hl7.org/fhir/us/qicore/StructureDefinition/qicore-patient"]},"extension":[{"url":"http://hl7.org/fhir/us/core/StructureDefinition/us-core-race","extension":[{"url":"ombCategory","valueCoding":{"system":"urn:oid:2.16.840.1.113883.6.238","code":"2028-9","display":"Asian","userSelected":true}},{"url":"text","valueString":"Asian"}]},{"url":"http://hl7.org/fhir/us/core/StructureDefinition/us-core-ethnicity","extension":[{"url":"ombCategory","valueCoding":{"system":"urn:oid:2.16.840.1.113883.6.238","code":"2135-2","display":"Hispanic or Latino","userSelected":true}},{"url":"text","valueString":"Hispanic or Latino"}]}],"identifier":[{"type":{"coding":[{"system":"http://terminology.hl7.org/CodeSystem/v2-0203","code":"MR"}]},"system":"http://hospital.smarthealthit.org","value":"999999995"}],"name":[{"family":"Bertha","given":["Betty"]}],"gender":"female","birthDate":"2016-12-31"},"request":{"method":"PUT","url":"Patient/c8559a93-63e3-4bce-b0a6-01a85fb6db28"}},{"fullUrl":"https://madie.cms.gov/Encounter/Encounter-1","resource":{"resourceType":"Encounter","id":"2dafcb4f-20fe-425b-b528-8f77cfd1fe84","meta":{"profile":["http://hl7.org/fhir/us/qicore/StructureDefinition/qicore-encounter"]},"status":"finished","class":{"system":"http://terminology.hl7.org/CodeSystem/v3-ActCode","code":"AMB","display":"ambulatory"},"type":[{"coding":[{"system":"http://snomed.info/sct","code":"185464004","display":"Out of hours visit - not night visit (procedure)"}]}],"subject":{"reference":"Patient/c8559a93-63e3-4bce-b0a6-01a85fb6db28"},"period":{"start":"2025-01-01T00:00:00.000Z","end":"2025-01-01T01:00:00.000Z"}},"request":{"method":"PUT","url":"Encounter/2dafcb4f-20fe-425b-b528-8f77cfd1fe84"}},{"fullUrl":"https://madie.cms.gov/MedicationRequest/MedicationRequest-1","resource":{"resourceType":"MedicationRequest","id":"f095748c-2cf4-45a1-9475-aecdbecb4591","meta":{"profile":["http://hl7.org/fhir/us/qicore/StructureDefinition/qicore-medicationrequest"]},"status":"completed","intent":"order","medicationCodeableConcept":{"coding":[{"system":"http://www.nlm.nih.gov/research/umls/rxnorm","code":"884173","display":"clonidine hydrochloride 0.1 MG Oral Tablet"}]},"subject":{"reference":"Patient/c8559a93-63e3-4bce-b0a6-01a85fb6db28"},"authoredOn":"2025-01-02T00:00:00.000Z","requester":{"reference":"Practitioner/example"},"dosageInstruction":[{"timing":{"repeat":{"boundsPeriod":{"start":"2025-01-02T00:00:00.000Z","end":"2025-07-30T23:59:59.000Z"}}}}],"dispenseRequest":{"expectedSupplyDuration":{"value":210,"system":"http://unitsofmeasure.org","code":"d"}}},"request":{"method":"PUT","url":"MedicationRequest/f095748c-2cf4-45a1-9475-aecdbecb4591"}},{"fullUrl":"https://madie.cms.gov/Encounter/Encounter-2","resource":{"resourceType":"Encounter","id":"1b34d586-4d8e-4256-8b78-eaf066b03a74","meta":{"profile":["http://hl7.org/fhir/us/qicore/StructureDefinition/qicore-encounter"]},"status":"finished","class":{"system":"http://terminology.hl7.org/CodeSystem/v3-ActCode","code":"AMB","display":"ambulatory"},"type":[{"coding":[{"system":"http://www.ama-assn.org/go/cpt","code":"90791","display":"Psychiatric diagnostic evaluation"}]}],"subject":{"reference":"Patient/c8559a93-63e3-4bce-b0a6-01a85fb6db28"},"period":{"start":"2025-01-31T00:00:00.000Z","end":"2025-01-31T01:00:00.000Z"}},"request":{"method":"PUT","url":"Encounter/1b34d586-4d8e-4256-8b78-eaf066b03a74"}},{"fullUrl":"https://madie.cms.gov/Encounter/Encounter-3","resource":{"resourceType":"Encounter","id":"4f59e4a2-e0c3-44f6-a6fc-4c6045cc49a2","meta":{"profile":["http://hl7.org/fhir/us/qicore/StructureDefinition/qicore-encounter"]},"status":"finished","class":{"system":"http://terminology.hl7.org/CodeSystem/v3-ActCode","code":"AMB","display":"ambulatory"},"type":[{"coding":[{"system":"http://www.ama-assn.org/go/cpt","code":"90791","display":"Psychiatric diagnostic evaluation"}]}],"subject":{"reference":"Patient/c8559a93-63e3-4bce-b0a6-01a85fb6db28"},"period":{"start":"2025-06-30T00:00:00.000Z","end":"2025-06-30T01:00:00.000Z"}},"request":{"method":"PUT","url":"Encounter/4f59e4a2-e0c3-44f6-a6fc-4c6045cc49a2"}},{"fullUrl":"https://madie.cms.gov/Encounter/Encounter-4","resource":{"resourceType":"Encounter","id":"4d5b88f9-a632-46ba-a954-022a8814b478","meta":{"profile":["http://hl7.org/fhir/us/qicore/StructureDefinition/qicore-encounter"]},"status":"finished","class":{"system":"http://terminology.hl7.org/CodeSystem/v3-ActCode","code":"AMB","display":"ambulatory"},"type":[{"coding":[{"system":"http://www.ama-assn.org/go/cpt","code":"99245","display":"Office or other outpatient consultation for a new or established patient, which requires a medically appropriate history and/or examination and high level of medical decision making. When using total time on the date of the encounter for code selection, 55 minutes must be met or exceeded."}]}],"subject":{"reference":"Patient/c8559a93-63e3-4bce-b0a6-01a85fb6db28"},"period":{"start":"2025-08-31T00:00:00.000Z","end":"2025-08-31T01:00:00.000Z"}},"request":{"method":"PUT","url":"Encounter/4d5b88f9-a632-46ba-a954-022a8814b478"}},{"fullUrl":"https://madie.cms.gov/Condition/Condition-1","resource":{"resourceType":"Condition","id":"c408d867-65d0-4bd7-8a5f-33130ac2c676","meta":{"profile":["http://hl7.org/fhir/us/qicore/StructureDefinition/qicore-condition"]},"clinicalStatus":{"coding":[{"system":"http://terminology.hl7.org/CodeSystem/condition-clinical","code":"active"}]},"category":[{"coding":[{"system":"http://terminology.hl7.org/CodeSystem/condition-category","code":"problem-list-item","display":"Problem List Item"}]}],"code":{"coding":[{"system":"http://snomed.info/sct","code":"170935008","display":"Full care by hospice (finding)"}]},"subject":{"reference":"Patient/c8559a93-63e3-4bce-b0a6-01a85fb6db28"},"onsetDateTime":"2025-12-31T23:59:59.000Z"},"request":{"method":"PUT","url":"Condition/c408d867-65d0-4bd7-8a5f-33130ac2c676"}},{"fullUrl":"https://madie.cms.gov/MeasureReport/ea7f3075-1542-4ec4-8d6a-9d39ffc0b35c","resource":{"resourceType":"MeasureReport","id":"ea7f3075-1542-4ec4-8d6a-9d39ffc0b35c","meta":{"profile":["http://hl7.org/fhir/us/cqfmeasures/StructureDefinition/test-case-cqfm"]},"contained":[{"resourceType":"Parameters","id":"5edd0c21-3190-49b0-8305-622134578acd-parameters","parameter":[{"name":"subject","valueString":"c8559a93-63e3-4bce-b0a6-01a85fb6db28"}]}],"extension":[{"url":"http://hl7.org/fhir/us/cqfmeasures/StructureDefinition/cqfm-inputParameters","valueReference":{"reference":"#5edd0c21-3190-49b0-8305-622134578acd-parameters"}},{"url":"http://hl7.org/fhir/us/cqfmeasures/StructureDefinition/cqfm-testCaseDescription","valueMarkdown":"Hospice diagnosis overlaps the MP"}],"modifierExtension":[{"url":"http://hl7.org/fhir/us/cqfmeasures/StructureDefinition/cqfm-isTestCase","valueBoolean":true}],"status":"complete","type":"individual","measure":"https://madie.cms.gov/Measure/FollowUpCareforChildrenPrescribedADHDMedicationADDFHIR","period":{"start":"2025-01-01","end":"2025-12-31"},"group":[{"population":[{"code":{"coding":[{"system":"http://terminology.hl7.org/CodeSystem/measure-population","code":"initial-population","display":"Initial Population"}]},"count":1},{"code":{"coding":[{"system":"http://terminology.hl7.org/CodeSystem/measure-population","code":"denominator","display":"Denominator"}]},"count":1},{"code":{"coding":[{"system":"http://terminology.hl7.org/CodeSystem/measure-population","code":"denominator-exclusion","display":"Denominator Exclusion"}]},"count":1},{"code":{"coding":[{"system":"http://terminology.hl7.org/CodeSystem/measure-population","code":"numerator","display":"Numerator"}]},"count":0}]},{"population":[{"code":{"coding":[{"system":"http://terminology.hl7.org/CodeSystem/measure-population","code":"initial-population","display":"Initial Population"}]},"count":1},{"code":{"coding":[{"system":"http://terminology.hl7.org/CodeSystem/measure-population","code":"denominator","display":"Denominator"}]},"count":1},{"code":{"coding":[{"system":"http://terminology.hl7.org/CodeSystem/measure-population","code":"denominator-exclusion","display":"Denominator Exclusion"}]},"count":1},{"code":{"coding":[{"system":"http://terminology.hl7.org/CodeSystem/measure-population","code":"numerator","display":"Numerator"}]},"count":0}]}]},"request":{"method":"PUT","url":"MeasureReport/ea7f3075-1542-4ec4-8d6a-9d39ffc0b35c"}}]}