{"resourceType":"Bundle","id":"tests-08b5966a-8dbf-4f0d-a931-3c67f8018141-bundle","type":"transaction","entry":[{"fullUrl":"https://madie.cms.gov/Patient/08b5966a-8dbf-4f0d-a931-3c67f8018141","resource":{"resourceType":"Patient","id":"08b5966a-8dbf-4f0d-a931-3c67f8018141","meta":{"profile":["http://hl7.org/fhir/us/qicore/StructureDefinition/qicore-patient"]},"extension":[{"url":"http://hl7.org/fhir/us/core/StructureDefinition/us-core-race","extension":[{"url":"ombCategory","valueCoding":{"system":"urn:oid:2.16.840.1.113883.6.238","code":"2028-9","display":"Asian"}},{"url":"text","valueString":"Asian"}]},{"url":"http://hl7.org/fhir/us/core/StructureDefinition/us-core-ethnicity","extension":[{"url":"ombCategory","valueCoding":{"system":"urn:oid:2.16.840.1.113883.6.238","code":"2135-2","display":"Hispanic or Latino"}},{"url":"text","valueString":"Hispanic or Latino"}]}],"identifier":[{"system":"http://hospital.smarthealthit.org","value":"999999995"}],"name":[{"family":"Bertha","given":["Betty"]}],"gender":"female","birthDate":"2017-12-31"},"request":{"method":"PUT","url":"Patient/08b5966a-8dbf-4f0d-a931-3c67f8018141"}},{"fullUrl":"https://madie.cms.gov/Encounter/Encounter-1","resource":{"resourceType":"Encounter","id":"f201bec7-e645-4ac1-be4a-fd90e379d1e7","meta":{"profile":["http://hl7.org/fhir/us/qicore/StructureDefinition/qicore-encounter"]},"status":"finished","class":{"system":"http://terminology.hl7.org/CodeSystem/v3-ActCode","code":"AMB","display":"ambulatory"},"type":[{"coding":[{"system":"http://snomed.info/sct","code":"185464004","display":"Out of hours visit - not night visit (procedure)"}]}],"subject":{"reference":"Patient/08b5966a-8dbf-4f0d-a931-3c67f8018141"},"period":{"start":"2025-01-01T00:00:00.000Z","end":"2025-01-01T01:00:00.000Z"}},"request":{"method":"PUT","url":"Encounter/f201bec7-e645-4ac1-be4a-fd90e379d1e7"}},{"fullUrl":"https://madie.cms.gov/MedicationRequest/MedicationRequest-1","resource":{"resourceType":"MedicationRequest","id":"ab1d3679-2d8a-4085-be5c-8c0beccd4e72","meta":{"profile":["http://hl7.org/fhir/us/qicore/StructureDefinition/qicore-medicationrequest"]},"status":"completed","intent":"order","medicationCodeableConcept":{"coding":[{"system":"http://www.nlm.nih.gov/research/umls/rxnorm","code":"884173","display":"clonidine hydrochloride 0.1 MG Oral Tablet"}]},"subject":{"reference":"Patient/08b5966a-8dbf-4f0d-a931-3c67f8018141"},"authoredOn":"2025-01-02T00:00:00.000Z","requester":{"reference":"Practitioner/example"},"dosageInstruction":[{"timing":{"repeat":{"boundsPeriod":{"start":"2025-01-02T00:00:00.000Z","end":"2025-07-30T23:59:59.000Z"}}}}],"dispenseRequest":{"expectedSupplyDuration":{"value":210,"system":"http://unitsofmeasure.org","code":"d"}}},"request":{"method":"PUT","url":"MedicationRequest/ab1d3679-2d8a-4085-be5c-8c0beccd4e72"}},{"fullUrl":"https://madie.cms.gov/Encounter/Encounter-2","resource":{"resourceType":"Encounter","id":"92cc8613-ef7b-4aaa-811f-a515b913f476","meta":{"profile":["http://hl7.org/fhir/us/qicore/StructureDefinition/qicore-encounter"]},"status":"finished","class":{"system":"http://terminology.hl7.org/CodeSystem/v3-ActCode","code":"AMB","display":"ambulatory"},"type":[{"coding":[{"system":"http://www.ama-assn.org/go/cpt","code":"90791","display":"Psychiatric diagnostic evaluation"}]}],"subject":{"reference":"Patient/08b5966a-8dbf-4f0d-a931-3c67f8018141"},"period":{"start":"2025-01-31T00:00:00.000Z","end":"2025-01-31T01:00:00.000Z"}},"request":{"method":"PUT","url":"Encounter/92cc8613-ef7b-4aaa-811f-a515b913f476"}},{"fullUrl":"https://madie.cms.gov/Encounter/Encounter-3","resource":{"resourceType":"Encounter","id":"32d1add7-10d7-429c-a6ed-67d4ca377edc","meta":{"profile":["http://hl7.org/fhir/us/qicore/StructureDefinition/qicore-encounter"]},"status":"finished","class":{"system":"http://terminology.hl7.org/CodeSystem/v3-ActCode","code":"AMB","display":"ambulatory"},"type":[{"coding":[{"system":"http://www.ama-assn.org/go/cpt","code":"90791","display":"Psychiatric diagnostic evaluation"}]}],"subject":{"reference":"Patient/08b5966a-8dbf-4f0d-a931-3c67f8018141"},"period":{"start":"2025-06-30T00:00:00.000Z","end":"2025-06-30T01:00:00.000Z"}},"request":{"method":"PUT","url":"Encounter/32d1add7-10d7-429c-a6ed-67d4ca377edc"}},{"fullUrl":"https://madie.cms.gov/Encounter/Encounter-4","resource":{"resourceType":"Encounter","id":"12017fa7-d9d1-4525-a062-d10ed6e1dac1","meta":{"profile":["http://hl7.org/fhir/us/qicore/StructureDefinition/qicore-encounter"]},"status":"finished","class":{"system":"http://terminology.hl7.org/CodeSystem/v3-ActCode","code":"AMB","display":"ambulatory"},"type":[{"coding":[{"system":"http://www.ama-assn.org/go/cpt","code":"90791","display":"Psychiatric diagnostic evaluation"}]}],"subject":{"reference":"Patient/08b5966a-8dbf-4f0d-a931-3c67f8018141"},"period":{"start":"2025-08-31T00:00:00.000Z","end":"2025-08-31T01:00:00.000Z"}},"request":{"method":"PUT","url":"Encounter/12017fa7-d9d1-4525-a062-d10ed6e1dac1"}},{"fullUrl":"https://madie.cms.gov/MeasureReport/8f2df1c5-d696-4258-b049-a5a65306f6c5","resource":{"resourceType":"MeasureReport","id":"8f2df1c5-d696-4258-b049-a5a65306f6c5","meta":{"profile":["http://hl7.org/fhir/us/cqfmeasures/StructureDefinition/test-case-cqfm"]},"contained":[{"resourceType":"Parameters","id":"b52f677f-3914-4a8f-85a3-55e807a117ed-parameters","parameter":[{"name":"subject","valueString":"08b5966a-8dbf-4f0d-a931-3c67f8018141"}]}],"extension":[{"url":"http://hl7.org/fhir/us/cqfmeasures/StructureDefinition/cqfm-inputParameters","valueReference":{"reference":"#b52f677f-3914-4a8f-85a3-55e807a117ed-parameters"}},{"url":"http://hl7.org/fhir/us/cqfmeasures/StructureDefinition/cqfm-testCaseDescription","valueMarkdown":"Two more encounters during Continuation and Maintenance Phase"}],"modifierExtension":[{"url":"http://hl7.org/fhir/us/cqfmeasures/StructureDefinition/cqfm-isTestCase","valueBoolean":true}],"status":"complete","type":"individual","measure":"https://madie.cms.gov/Measure/FollowUpCareforChildrenPrescribedADHDMedicationADDFHIR","period":{"start":"2025-01-01","end":"2025-12-31"},"group":[{"population":[{"code":{"coding":[{"system":"http://terminology.hl7.org/CodeSystem/measure-population","code":"initial-population","display":"Initial Population"}]},"count":1},{"code":{"coding":[{"system":"http://terminology.hl7.org/CodeSystem/measure-population","code":"denominator","display":"Denominator"}]},"count":1},{"code":{"coding":[{"system":"http://terminology.hl7.org/CodeSystem/measure-population","code":"denominator-exclusion","display":"Denominator Exclusion"}]},"count":0},{"code":{"coding":[{"system":"http://terminology.hl7.org/CodeSystem/measure-population","code":"numerator","display":"Numerator"}]},"count":1}]},{"population":[{"code":{"coding":[{"system":"http://terminology.hl7.org/CodeSystem/measure-population","code":"initial-population","display":"Initial Population"}]},"count":1},{"code":{"coding":[{"system":"http://terminology.hl7.org/CodeSystem/measure-population","code":"denominator","display":"Denominator"}]},"count":1},{"code":{"coding":[{"system":"http://terminology.hl7.org/CodeSystem/measure-population","code":"denominator-exclusion","display":"Denominator Exclusion"}]},"count":0},{"code":{"coding":[{"system":"http://terminology.hl7.org/CodeSystem/measure-population","code":"numerator","display":"Numerator"}]},"count":1}]}]},"request":{"method":"PUT","url":"MeasureReport/8f2df1c5-d696-4258-b049-a5a65306f6c5"}}]}