{
  "resourceType": "Bundle",
  "id": "612e6a9302c62a011f2ea6da",
  "type": "transaction",
  "entry": [ {
    "fullUrl": "https://madie.cms.gov/Patient/fb687d5d-e0db-4fec-b04d-7fb8c37ba014",
    "resource": {
      "resourceType": "Patient",
      "id": "fb687d5d-e0db-4fec-b04d-7fb8c37ba014",
      "meta": {
        "profile": [ "http://hl7.org/fhir/us/qicore/StructureDefinition/qicore-patient" ]
      },
      "text": {
        "status": "generated",
        "div": "<div xmlns=\"http://www.w3.org/1999/xhtml\"><div class=\"hapiHeaderText\">MedReason_MO_InjXa_DA_VFP_DayAfAnes <b>NUMERPASS </b></div><table class=\"hapiPropertyTable\"><tbody><tr><td>Identifier</td><td>2e65528d235225a29036bb2a5e6ef1d4</td></tr><tr><td>Date of birth</td><td><span>02 January 1974</span></td></tr></tbody></table></div>"
      },
      "extension": [ {
        "url": "http://hl7.org/fhir/us/core/StructureDefinition/us-core-race",
        "extension": [ {
          "url": "ombCategory",
          "valueCoding": {
            "system": "urn:oid:2.16.840.1.113883.6.238",
            "code": "1002-5",
            "display": "American Indian or Alaska Native",
            "userSelected": true
          }
        }, {
          "url": "text",
          "valueString": "American Indian or Alaska Native"
        } ]
      }, {
        "url": "http://hl7.org/fhir/us/core/StructureDefinition/us-core-ethnicity",
        "extension": [ {
          "url": "ombCategory",
          "valueCoding": {
            "system": "urn:oid:2.16.840.1.113883.6.238",
            "code": "2135-2",
            "display": "Hispanic or Latino",
            "userSelected": true
          }
        }, {
          "url": "text",
          "valueString": "Hispanic or Latino"
        } ]
      } ],
      "identifier": [ {
        "type": {
          "coding": [ {
            "system": "http://terminology.hl7.org/CodeSystem/v2-0203",
            "code": "MR"
          } ]
        },
        "system": "https://bonnie-fhir.healthit.gov/",
        "value": "612e6a9302c62a011f2ea6da"
      } ],
      "active": true,
      "name": [ {
        "use": "usual",
        "family": "NUMERPass",
        "given": [ "MedReason_MA_InjXa_DA_VFP_DayAFAnes" ]
      } ],
      "gender": "male",
      "birthDate": "1975-01-02"
    },
    "request": {
      "method": "PUT",
      "url": "Patient/fb687d5d-e0db-4fec-b04d-7fb8c37ba014"
    }
  }, {
    "fullUrl": "https://madie.cms.gov/Encounter/b727cdfe-5ca8-48fe-be82-393458c152d2",
    "resource": {
      "resourceType": "Encounter",
      "id": "b727cdfe-5ca8-48fe-be82-393458c152d2",
      "meta": {
        "profile": [ "http://hl7.org/fhir/us/qicore/StructureDefinition/qicore-encounter" ]
      },
      "status": "finished",
      "class": {
        "system": "http://terminology.hl7.org/CodeSystem/v3-ActCode",
        "code": "IMP",
        "display": "inpatient encounter"
      },
      "type": [ {
        "coding": [ {
          "system": "http://snomed.info/sct",
          "code": "8715000"
        } ]
      } ],
      "subject": {
        "reference": "Patient/fb687d5d-e0db-4fec-b04d-7fb8c37ba014"
      },
      "period": {
        "start": "2026-11-01T08:00:00+00:00",
        "end": "2026-11-26T08:15:00+00:00"
      },
      "length": {
        "value": 25.0,
        "unit": "days"
      }
    },
    "request": {
      "method": "PUT",
      "url": "Encounter/b727cdfe-5ca8-48fe-be82-393458c152d2"
    }
  }, {
    "fullUrl": "https://madie.cms.gov/Coverage/203e9b8c-f301-4b3c-aab5-8475ff41f4bc",
    "resource": {
      "resourceType": "Coverage",
      "id": "203e9b8c-f301-4b3c-aab5-8475ff41f4bc",
      "status": "active",
      "beneficiary": {
        "reference": "Patient/fb687d5d-e0db-4fec-b04d-7fb8c37ba014"
      },
      "period": {
        "start": "1975-01-02T08:00:00+00:00"
      },
      "payor": [ {
        "reference": "Organization/bdf1e811-36fe-4dbf-85d3-452db9efda4c"
      } ]
    },
    "request": {
      "method": "PUT",
      "url": "Coverage/203e9b8c-f301-4b3c-aab5-8475ff41f4bc"
    }
  }, {
    "fullUrl": "https://madie.cms.gov/Procedure/d6984f24-8dc5-421c-a110-2037b9598ae2",
    "resource": {
      "resourceType": "Procedure",
      "id": "d6984f24-8dc5-421c-a110-2037b9598ae2",
      "meta": {
        "profile": [ "http://hl7.org/fhir/us/qicore/StructureDefinition/qicore-procedurenotdone" ]
      },
      "extension": [ {
        "url": "http://hl7.org/fhir/us/qicore/StructureDefinition/qicore-recorded",
        "valueDateTime": "2026-11-03T07:35:00-04:00"
      } ],
      "status": "not-done",
      "statusReason": {
        "coding": [ {
          "system": "http://snomed.info/sct",
          "code": "183932001",
          "display": "Procedure contraindicated (situation)",
          "userSelected": true
        } ]
      },
      "code": {
        "coding": [ {
          "system": "http://snomed.info/sct",
          "code": "424831005",
          "display": "Application of foot pump (procedure)",
          "userSelected": true
        } ]
      },
      "subject": {
        "reference": "Patient/fb687d5d-e0db-4fec-b04d-7fb8c37ba014"
      },
      "_performedDateTime": {
        "extension": [ {
          "url": "http://hl7.org/fhir/StructureDefinition/data-absent-reason",
          "valueCode": "not-performed"
        } ]
      }
    },
    "request": {
      "method": "PUT",
      "url": "Procedure/d6984f24-8dc5-421c-a110-2037b9598ae2"
    }
  }, {
    "fullUrl": "https://madie.cms.gov/MedicationRequest/c1162b1c-72e0-49b6-b973-60239364eeb3",
    "resource": {
      "resourceType": "MedicationRequest",
      "id": "c1162b1c-72e0-49b6-b973-60239364eeb3",
      "meta": {
        "profile": [ "http://hl7.org/fhir/us/qicore/StructureDefinition/qicore-mednotrequested" ]
      },
      "status": "completed",
      "intent": "order",
      "category": [ {
        "coding": [ {
          "system": "http://terminology.hl7.org/CodeSystem/medicationrequest-category",
          "code": "community"
        } ]
      } ],
      "doNotPerform": true,
      "medicationCodeableConcept": {
        "coding": [ {
          "system": "http://www.nlm.nih.gov/research/umls/rxnorm",
          "code": "861363"
        } ]
      },
      "subject": {
        "reference": "Patient/fb687d5d-e0db-4fec-b04d-7fb8c37ba014"
      },
      "authoredOn": "2026-11-03T09:00:00+00:00",
      "requester": {
        "reference": "Practitioner/123456"
      },
      "reasonCode": [ {
        "coding": [ {
          "system": "http://snomed.info/sct",
          "code": "183932001",
          "display": "Procedure contraindicated (situation)",
          "userSelected": true
        } ]
      } ],
      "dosageInstruction": [ {
        "timing": {
          "repeat": {
            "boundsPeriod": {
              "start": "2026-11-03T09:00:00+00:00"
            }
          }
        }
      } ]
    },
    "request": {
      "method": "PUT",
      "url": "MedicationRequest/c1162b1c-72e0-49b6-b973-60239364eeb3"
    }
  }, {
    "fullUrl": "https://madie.cms.gov/Procedure/1865838f-45d1-461d-9dac-1fb8aa60c865",
    "resource": {
      "resourceType": "Procedure",
      "id": "1865838f-45d1-461d-9dac-1fb8aa60c865",
      "meta": {
        "profile": [ "http://hl7.org/fhir/us/qicore/StructureDefinition/qicore-procedure" ]
      },
      "extension": [ {
        "url": "http://hl7.org/fhir/us/qicore/StructureDefinition/qicore-recorded",
        "valueDateTime": "2013-11-04T09:35:00-04:00"
      } ],
      "status": "completed",
      "code": {
        "coding": [ {
          "system": "http://snomed.info/sct",
          "code": "18946005"
        } ]
      },
      "subject": {
        "reference": "Patient/fb687d5d-e0db-4fec-b04d-7fb8c37ba014"
      },
      "performedPeriod": {
        "start": "2026-11-02T09:00:00+00:00",
        "end": "2026-11-02T09:15:00+00:00"
      }
    },
    "request": {
      "method": "PUT",
      "url": "Procedure/1865838f-45d1-461d-9dac-1fb8aa60c865"
    }
  }, {
    "fullUrl": "https://madie.cms.gov/Organization/bdf1e811-36fe-4dbf-85d3-452db9efda4c",
    "resource": {
      "resourceType": "Organization",
      "id": "bdf1e811-36fe-4dbf-85d3-452db9efda4c",
      "meta": {
        "profile": [ "http://hl7.org/fhir/us/qicore/StructureDefinition/qicore-organization" ]
      },
      "identifier": [ {
        "use": "temp",
        "system": "urn:oid:2.16.840.1.113883.4.4",
        "value": "21-3259825"
      } ],
      "active": true,
      "type": [ {
        "coding": [ {
          "system": "http://terminology.hl7.org/CodeSystem/organization-type",
          "code": "pay",
          "display": "Payer"
        } ]
      } ],
      "name": "Blue Cross Blue Shield of Texas",
      "telecom": [ {
        "system": "phone",
        "value": "(+1) 972-766-6900"
      } ],
      "address": [ {
        "use": "billing",
        "type": "postal",
        "line": [ "P.O. Box 660044" ],
        "city": "Dallas",
        "state": "TX",
        "postalCode": "75266-0044",
        "country": "USA"
      } ]
    },
    "request": {
      "method": "PUT",
      "url": "Organization/bdf1e811-36fe-4dbf-85d3-452db9efda4c"
    }
  }, {
    "fullUrl": "https://madie.cms.gov/Practitioner/87a9895b-2797-473a-b770-a49507a050b4",
    "resource": {
      "resourceType": "Practitioner",
      "id": "87a9895b-2797-473a-b770-a49507a050b4",
      "identifier": [ {
        "system": "http://hl7.org/fhir/sid/us-npi",
        "value": "123456"
      } ],
      "name": [ {
        "family": "Evil",
        "prefix": [ "Dr" ]
      } ]
    },
    "request": {
      "method": "PUT",
      "url": "Practitioner/87a9895b-2797-473a-b770-a49507a050b4"
    }
  }, {
    "fullUrl": "https://madie.cms.gov/MeasureReport/53e70e54-d1ec-44dc-8348-a2df36166cd3",
    "resource": {
      "resourceType": "MeasureReport",
      "id": "53e70e54-d1ec-44dc-8348-a2df36166cd3",
      "meta": {
        "profile": [ "http://hl7.org/fhir/us/cqfmeasures/StructureDefinition/test-case-cqfm" ]
      },
      "contained": [ {
        "resourceType": "Parameters",
        "id": "2b2100d3-b27a-433b-9f4c-21d32c93de49-parameters",
        "parameter": [ {
          "name": "subject",
          "valueString": "fb687d5d-e0db-4fec-b04d-7fb8c37ba014"
        } ]
      } ],
      "extension": [ {
        "url": "http://hl7.org/fhir/us/cqfmeasures/StructureDefinition/cqfm-inputParameters",
        "valueReference": {
          "reference": "#2b2100d3-b27a-433b-9f4c-21d32c93de49-parameters"
        }
      }, {
        "url": "http://hl7.org/fhir/us/cqfmeasures/StructureDefinition/cqfm-testCaseDescription",
        "valueMarkdown": "vfp  not applied and factor Xa inhibitor not administered due to medical reason 1 day after end of anesthesia\n"
      } ],
      "modifierExtension": [ {
        "url": "http://hl7.org/fhir/us/cqfmeasures/StructureDefinition/cqfm-isTestCase",
        "valueBoolean": true
      } ],
      "status": "complete",
      "type": "individual",
      "measure": "https://madie.cms.gov/Measure/CMS108VTEProphylaxisFHIR",
      "period": {
        "start": "2026-01-01",
        "end": "2026-12-31"
      },
      "group": [ {
        "population": [ {
          "code": {
            "coding": [ {
              "system": "http://terminology.hl7.org/CodeSystem/measure-population",
              "code": "initial-population",
              "display": "Initial Population"
            } ]
          },
          "count": 1
        }, {
          "code": {
            "coding": [ {
              "system": "http://terminology.hl7.org/CodeSystem/measure-population",
              "code": "denominator",
              "display": "Denominator"
            } ]
          },
          "count": 1
        }, {
          "code": {
            "coding": [ {
              "system": "http://terminology.hl7.org/CodeSystem/measure-population",
              "code": "denominator-exclusion",
              "display": "Denominator Exclusion"
            } ]
          },
          "count": 0
        }, {
          "code": {
            "coding": [ {
              "system": "http://terminology.hl7.org/CodeSystem/measure-population",
              "code": "numerator",
              "display": "Numerator"
            } ]
          },
          "count": 1
        } ]
      } ],
      "evaluatedResource": [ {
        "reference": "Patient/fb687d5d-e0db-4fec-b04d-7fb8c37ba014"
      }, {
        "reference": "Encounter/b727cdfe-5ca8-48fe-be82-393458c152d2"
      }, {
        "reference": "Coverage/203e9b8c-f301-4b3c-aab5-8475ff41f4bc"
      }, {
        "reference": "Procedure/d6984f24-8dc5-421c-a110-2037b9598ae2"
      }, {
        "reference": "MedicationRequest/c1162b1c-72e0-49b6-b973-60239364eeb3"
      }, {
        "reference": "Procedure/1865838f-45d1-461d-9dac-1fb8aa60c865"
      }, {
        "reference": "Organization/bdf1e811-36fe-4dbf-85d3-452db9efda4c"
      }, {
        "reference": "Practitioner/87a9895b-2797-473a-b770-a49507a050b4"
      } ]
    },
    "request": {
      "method": "PUT",
      "url": "MeasureReport/53e70e54-d1ec-44dc-8348-a2df36166cd3"
    }
  } ]
}