{"resourceType":"Bundle","id":"tests-2389a7bb-16a7-4800-ba4a-2585ebd98a0a-bundle","type":"transaction","entry":[{"fullUrl":"https://madie.cms.gov/Patient/2389a7bb-16a7-4800-ba4a-2585ebd98a0a","resource":{"resourceType":"Patient","id":"2389a7bb-16a7-4800-ba4a-2585ebd98a0a","meta":{"profile":["http://hl7.org/fhir/us/qicore/StructureDefinition/qicore-patient"]},"extension":[{"url":"http://hl7.org/fhir/us/core/StructureDefinition/us-core-race","extension":[{"url":"ombCategory","valueCoding":{"system":"urn:oid:2.16.840.1.113883.6.238","code":"2028-9","display":"Asian","userSelected":true}},{"url":"text","valueString":"Asian"}]},{"url":"http://hl7.org/fhir/us/core/StructureDefinition/us-core-ethnicity","extension":[{"url":"ombCategory","valueCoding":{"system":"urn:oid:2.16.840.1.113883.6.238","code":"2135-2","display":"Hispanic or Latino","userSelected":true}},{"url":"text","valueString":"Hispanic or Latino"}]}],"identifier":[{"type":{"coding":[{"system":"http://terminology.hl7.org/CodeSystem/v2-0203","code":"MR"}]},"system":"http://hospital.smarthealthit.org","value":"999999995"}],"name":[{"family":"Bertha","given":["Betty"]}],"gender":"female","birthDate":"1960-01-01"},"request":{"method":"PUT","url":"Patient/2389a7bb-16a7-4800-ba4a-2585ebd98a0a"}},{"fullUrl":"https://madie.cms.gov/Encounter/Encounter-45","resource":{"resourceType":"Encounter","id":"644ff877-6ec1-4df6-9e95-6bd89a10acab","meta":{"profile":["http://hl7.org/fhir/us/qicore/StructureDefinition/qicore-encounter"]},"status":"finished","class":{"system":"http://terminology.hl7.org/CodeSystem/v3-ActCode","code":"AMB","display":"ambulatory"},"type":[{"coding":[{"system":"http://snomed.info/sct","code":"185317003","display":"Telephone contact by consultant (procedure)"}]}],"subject":{"reference":"Patient/2389a7bb-16a7-4800-ba4a-2585ebd98a0a"},"period":{"start":"2025-01-01T00:00:00.000Z","end":"2025-01-01T01:15:00.000Z"}},"request":{"method":"PUT","url":"Encounter/644ff877-6ec1-4df6-9e95-6bd89a10acab"}},{"fullUrl":"https://madie.cms.gov/Condition/Condition-4","resource":{"resourceType":"Condition","id":"c9734047-51d5-4de3-bd09-d948045a4ab3","meta":{"profile":["http://hl7.org/fhir/us/qicore/StructureDefinition/qicore-condition"]},"clinicalStatus":{"coding":[{"system":"http://terminology.hl7.org/CodeSystem/condition-clinical","code":"active"}]},"category":[{"coding":[{"system":"http://terminology.hl7.org/CodeSystem/condition-category","code":"problem-list-item","display":"Problem List Item"}]}],"code":{"coding":[{"system":"http://snomed.info/sct","code":"415238003","display":"Rapid eye movement sleep behavior disorder (disorder)"}]},"subject":{"reference":"Patient/2389a7bb-16a7-4800-ba4a-2585ebd98a0a"},"onsetDateTime":"2024-01-01T00:00:00.000Z"},"request":{"method":"PUT","url":"Condition/c9734047-51d5-4de3-bd09-d948045a4ab3"}},{"fullUrl":"https://madie.cms.gov/MedicationRequest/MedicationRequest-49","resource":{"resourceType":"MedicationRequest","id":"d90de254-9bdf-4eb0-bec4-bb736d75d289","meta":{"profile":["http://hl7.org/fhir/us/qicore/StructureDefinition/qicore-medicationrequest"]},"status":"active","intent":"order","category":[{"coding":[{"system":"http://terminology.hl7.org/CodeSystem/medicationrequest-category","code":"discharge","display":"Discharge"}]}],"medicationCodeableConcept":{"coding":[{"system":"http://www.nlm.nih.gov/research/umls/rxnorm","code":"1366192","display":"clobazam 2.5 MG/ML Oral Suspension","userSelected":true}]},"subject":{"reference":"Patient/2389a7bb-16a7-4800-ba4a-2585ebd98a0a"},"authoredOn":"2025-01-01T00:00:00.000Z","requester":{"reference":"Practitioner/example"}},"request":{"method":"PUT","url":"MedicationRequest/d90de254-9bdf-4eb0-bec4-bb736d75d289"}},{"fullUrl":"https://madie.cms.gov/MedicationRequest/MedicationRequest-50","resource":{"resourceType":"MedicationRequest","id":"f89dc603-cd02-4e80-aeef-9fd4e5e730ae","meta":{"profile":["http://hl7.org/fhir/us/qicore/StructureDefinition/qicore-medicationrequest"]},"status":"active","intent":"order","category":[{"coding":[{"system":"http://terminology.hl7.org/CodeSystem/medicationrequest-category","code":"discharge","display":"Discharge"}]}],"medicationCodeableConcept":{"coding":[{"system":"http://www.nlm.nih.gov/research/umls/rxnorm","code":"1366192","display":"clobazam 2.5 MG/ML Oral Suspension","userSelected":true}]},"subject":{"reference":"Patient/2389a7bb-16a7-4800-ba4a-2585ebd98a0a"},"authoredOn":"2025-12-31T23:59:00.000Z","requester":{"reference":"Practitioner/example"}},"request":{"method":"PUT","url":"MedicationRequest/f89dc603-cd02-4e80-aeef-9fd4e5e730ae"}},{"fullUrl":"https://madie.cms.gov/MeasureReport/00f28f9b-3776-4cf7-aad1-a882f81deda9","resource":{"resourceType":"MeasureReport","id":"00f28f9b-3776-4cf7-aad1-a882f81deda9","meta":{"profile":["http://hl7.org/fhir/us/cqfmeasures/StructureDefinition/test-case-cqfm"]},"contained":[{"resourceType":"Parameters","id":"84c0d788-6020-48d0-99bb-ed2fd068a6b1-parameters","parameter":[{"name":"subject","valueString":"2389a7bb-16a7-4800-ba4a-2585ebd98a0a"}]}],"extension":[{"url":"http://hl7.org/fhir/us/cqfmeasures/StructureDefinition/cqfm-inputParameters","valueReference":{"reference":"#84c0d788-6020-48d0-99bb-ed2fd068a6b1-parameters"}},{"url":"http://hl7.org/fhir/us/cqfmeasures/StructureDefinition/cqfm-testCaseDescription","valueMarkdown":"REM sleep disorder overlaps year before MP"}],"modifierExtension":[{"url":"http://hl7.org/fhir/us/cqfmeasures/StructureDefinition/cqfm-isTestCase","valueBoolean":true}],"status":"complete","type":"individual","measure":"https://madie.cms.gov/Measure/UseofHighRiskMedicationsintheElderlyFHIR","period":{"start":"2025-01-01","end":"2025-12-31"},"group":[{"population":[{"code":{"coding":[{"system":"http://terminology.hl7.org/CodeSystem/measure-population","code":"initial-population","display":"Initial Population"}]},"count":1},{"code":{"coding":[{"system":"http://terminology.hl7.org/CodeSystem/measure-population","code":"denominator","display":"Denominator"}]},"count":1},{"code":{"coding":[{"system":"http://terminology.hl7.org/CodeSystem/measure-population","code":"denominator-exclusion","display":"Denominator Exclusion"}]},"count":0},{"code":{"coding":[{"system":"http://terminology.hl7.org/CodeSystem/measure-population","code":"numerator","display":"Numerator"}]},"count":0}]},{"population":[{"code":{"coding":[{"system":"http://terminology.hl7.org/CodeSystem/measure-population","code":"initial-population","display":"Initial Population"}]},"count":1},{"code":{"coding":[{"system":"http://terminology.hl7.org/CodeSystem/measure-population","code":"denominator","display":"Denominator"}]},"count":1},{"code":{"coding":[{"system":"http://terminology.hl7.org/CodeSystem/measure-population","code":"denominator-exclusion","display":"Denominator Exclusion"}]},"count":0},{"code":{"coding":[{"system":"http://terminology.hl7.org/CodeSystem/measure-population","code":"numerator","display":"Numerator"}]},"count":0}]},{"population":[{"code":{"coding":[{"system":"http://terminology.hl7.org/CodeSystem/measure-population","code":"initial-population","display":"Initial Population"}]},"count":1},{"code":{"coding":[{"system":"http://terminology.hl7.org/CodeSystem/measure-population","code":"denominator","display":"Denominator"}]},"count":1},{"code":{"coding":[{"system":"http://terminology.hl7.org/CodeSystem/measure-population","code":"denominator-exclusion","display":"Denominator Exclusion"}]},"count":0},{"code":{"coding":[{"system":"http://terminology.hl7.org/CodeSystem/measure-population","code":"numerator","display":"Numerator"}]},"count":0}]}]},"request":{"method":"PUT","url":"MeasureReport/00f28f9b-3776-4cf7-aad1-a882f81deda9"}}]}