{"resourceType":"Bundle","id":"tests-b73c50b0-bf5a-4060-aede-3b8cf7ef85e8-bundle","type":"transaction","entry":[{"fullUrl":"https://madie.cms.gov/Patient/b73c50b0-bf5a-4060-aede-3b8cf7ef85e8","resource":{"resourceType":"Patient","id":"b73c50b0-bf5a-4060-aede-3b8cf7ef85e8","meta":{"profile":["http://hl7.org/fhir/us/qicore/StructureDefinition/qicore-patient"]},"extension":[{"url":"http://hl7.org/fhir/us/core/StructureDefinition/us-core-race","extension":[{"url":"ombCategory","valueCoding":{"system":"urn:oid:2.16.840.1.113883.6.238","code":"2028-9","display":"Asian"}},{"url":"text","valueString":"Asian"}]},{"url":"http://hl7.org/fhir/us/core/StructureDefinition/us-core-ethnicity","extension":[{"url":"ombCategory","valueCoding":{"system":"urn:oid:2.16.840.1.113883.6.238","code":"2135-2","display":"Hispanic or Latino"}},{"url":"text","valueString":"Hispanic or Latino"}]}],"identifier":[{"system":"http://hospital.smarthealthit.org","value":"999999995"}],"name":[{"family":"Bertha","given":["Betty"]}],"gender":"female","birthDate":"2006-01-01"},"request":{"method":"PUT","url":"Patient/b73c50b0-bf5a-4060-aede-3b8cf7ef85e8"}},{"fullUrl":"https://madie.cms.gov/Procedure/Procedure-44","resource":{"resourceType":"Procedure","id":"7bc2df5d-39b1-49e3-8692-cc1c0bb58f40","meta":{"profile":["http://hl7.org/fhir/us/qicore/StructureDefinition/qicore-procedure"]},"extension":[{"url":"http://hl7.org/fhir/us/qicore/StructureDefinition/qicore-recorded","valueDateTime":"2023-11-01T00:00:00.000Z"}],"status":"completed","code":{"coding":[{"system":"http://www.cms.gov/Medicare/Coding/ICD10","code":"0SR9019","display":"Replacement of Right Hip Joint with Metal Synthetic Substitute, Cemented, Open Approach"}]},"subject":{"reference":"Patient/b73c50b0-bf5a-4060-aede-3b8cf7ef85e8"},"performedPeriod":{"start":"2023-11-01T00:00:00.000Z","end":"2023-11-01T01:00:00.000Z"}},"request":{"method":"PUT","url":"Procedure/7bc2df5d-39b1-49e3-8692-cc1c0bb58f40"}},{"fullUrl":"https://madie.cms.gov/Encounter/Encounter-44","resource":{"resourceType":"Encounter","id":"8c24a1ec-4a2e-4ea2-b5c5-50ab1931fba1","meta":{"profile":["http://hl7.org/fhir/us/qicore/StructureDefinition/qicore-encounter"]},"status":"finished","class":{"system":"http://terminology.hl7.org/CodeSystem/v3-ActCode","code":"AMB","display":"ambulatory"},"type":[{"coding":[{"system":"http://snomed.info/sct","code":"281036007","display":"Follow-up consultation (procedure)"}]}],"subject":{"reference":"Patient/b73c50b0-bf5a-4060-aede-3b8cf7ef85e8"},"period":{"start":"2024-11-01T00:00:00.000Z","end":"2024-11-01T01:15:00.000Z"}},"request":{"method":"PUT","url":"Encounter/8c24a1ec-4a2e-4ea2-b5c5-50ab1931fba1"}},{"fullUrl":"https://madie.cms.gov/Observation/Observation-44.1-1","resource":{"resourceType":"Observation","id":"3377ddc9-02f9-4764-8d7a-859cb60eaff6","meta":{"profile":["http://hl7.org/fhir/us/qicore/StructureDefinition/qicore-observation"]},"status":"final","category":[{"coding":[{"system":"http://terminology.hl7.org/CodeSystem/observation-category","code":"survey"}]}],"code":{"coding":[{"system":"http://loinc.org","code":"72028-4","display":"VR-12 Mental component summary (MCS) score - oblique method T-score"}]},"subject":{"reference":"Patient/b73c50b0-bf5a-4060-aede-3b8cf7ef85e8"},"effectivePeriod":{"start":"2023-08-03T00:00:00.000Z","end":"2023-08-03T01:00:00.000Z"},"valueInteger":60},"request":{"method":"PUT","url":"Observation/3377ddc9-02f9-4764-8d7a-859cb60eaff6"}},{"fullUrl":"https://madie.cms.gov/Observation/Observation-44.1-2","resource":{"resourceType":"Observation","id":"de6254fa-2b61-444d-8de5-1874bd0e3a59","meta":{"profile":["http://hl7.org/fhir/us/qicore/StructureDefinition/qicore-observation"]},"status":"final","category":[{"coding":[{"system":"http://terminology.hl7.org/CodeSystem/observation-category","code":"survey"}]}],"code":{"coding":[{"system":"http://loinc.org","code":"72027-6","display":"VR-12 Physical component summary (PCS) score - orthogonal method T-score"}]},"subject":{"reference":"Patient/b73c50b0-bf5a-4060-aede-3b8cf7ef85e8"},"effectivePeriod":{"start":"2023-08-03T00:00:00.000Z","end":"2023-08-03T01:00:00.000Z"},"valueInteger":60},"request":{"method":"PUT","url":"Observation/de6254fa-2b61-444d-8de5-1874bd0e3a59"}},{"fullUrl":"https://madie.cms.gov/Observation/Observation-44.2-1","resource":{"resourceType":"Observation","id":"0fb1ae04-36d6-42a2-bdc0-87c5b0591387","meta":{"profile":["http://hl7.org/fhir/us/qicore/StructureDefinition/qicore-observation"]},"status":"final","category":[{"coding":[{"system":"http://terminology.hl7.org/CodeSystem/observation-category","code":"survey"}]}],"code":{"coding":[{"system":"http://loinc.org","code":"72028-4","display":"VR-12 Mental component summary (MCS) score - oblique method T-score"}]},"subject":{"reference":"Patient/b73c50b0-bf5a-4060-aede-3b8cf7ef85e8"},"effectivePeriod":{"start":"2024-12-30T00:00:00.000Z","end":"2024-12-30T01:00:00.000Z"},"valueInteger":60},"request":{"method":"PUT","url":"Observation/0fb1ae04-36d6-42a2-bdc0-87c5b0591387"}},{"fullUrl":"https://madie.cms.gov/Observation/Observation-44.2-2","resource":{"resourceType":"Observation","id":"5dc7e3a8-b9cd-4589-9491-30546047e008","meta":{"profile":["http://hl7.org/fhir/us/qicore/StructureDefinition/qicore-observation"]},"status":"final","category":[{"coding":[{"system":"http://terminology.hl7.org/CodeSystem/observation-category","code":"survey"}]}],"code":{"coding":[{"system":"http://loinc.org","code":"72027-6","display":"VR-12 Physical component summary (PCS) score - orthogonal method T-score"}]},"subject":{"reference":"Patient/b73c50b0-bf5a-4060-aede-3b8cf7ef85e8"},"effectivePeriod":{"start":"2024-12-30T00:00:00.000Z","end":"2024-12-30T01:00:00.000Z"},"valueInteger":60},"request":{"method":"PUT","url":"Observation/5dc7e3a8-b9cd-4589-9491-30546047e008"}},{"fullUrl":"https://madie.cms.gov/MeasureReport/02299523-4f74-450e-b8d4-1e3944e7c55d","resource":{"resourceType":"MeasureReport","id":"02299523-4f74-450e-b8d4-1e3944e7c55d","meta":{"profile":["http://hl7.org/fhir/us/cqfmeasures/StructureDefinition/test-case-cqfm"]},"contained":[{"resourceType":"Parameters","id":"f6cad633-b599-458c-b476-062fc66452d0-parameters","parameter":[{"name":"subject","valueString":"b73c50b0-bf5a-4060-aede-3b8cf7ef85e8"}]}],"extension":[{"url":"http://hl7.org/fhir/us/cqfmeasures/StructureDefinition/cqfm-inputParameters","valueReference":{"reference":"#f6cad633-b599-458c-b476-062fc66452d0-parameters"}},{"url":"http://hl7.org/fhir/us/cqfmeasures/StructureDefinition/cqfm-testCaseDescription","valueMarkdown":"Patient w/ a THA Procedure 11/1, Initial Hip Assessment Orthogonal 90 days before THA Procedure(8/3), and FollowUp Hip Assessment Orthogonal 425 days after THA Procedure (12/30)"}],"modifierExtension":[{"url":"http://hl7.org/fhir/us/cqfmeasures/StructureDefinition/cqfm-isTestCase","valueBoolean":true}],"status":"complete","type":"individual","measure":"https://madie.cms.gov/Measure/FunctionalStatusAssessmentforTotalHipReplacementFHIR","period":{"start":"2025-01-01","end":"2025-12-31"},"group":[{"population":[{"code":{"coding":[{"system":"http://terminology.hl7.org/CodeSystem/measure-population","code":"initial-population","display":"Initial Population"}]},"count":1},{"code":{"coding":[{"system":"http://terminology.hl7.org/CodeSystem/measure-population","code":"denominator","display":"Denominator"}]},"count":1},{"code":{"coding":[{"system":"http://terminology.hl7.org/CodeSystem/measure-population","code":"denominator-exclusion","display":"Denominator Exclusion"}]},"count":0},{"code":{"coding":[{"system":"http://terminology.hl7.org/CodeSystem/measure-population","code":"numerator","display":"Numerator"}]},"count":1}]}]},"request":{"method":"PUT","url":"MeasureReport/02299523-4f74-450e-b8d4-1e3944e7c55d"}}]}