{"resourceType":"Bundle","id":"tests-49640f81-b5ff-408a-82eb-436cf41a9d1d-bundle","type":"transaction","entry":[{"fullUrl":"https://madie.cms.gov/Patient/49640f81-b5ff-408a-82eb-436cf41a9d1d","resource":{"resourceType":"Patient","id":"49640f81-b5ff-408a-82eb-436cf41a9d1d","meta":{"profile":["http://hl7.org/fhir/us/qicore/StructureDefinition/qicore-patient"]},"extension":[{"url":"http://hl7.org/fhir/us/core/StructureDefinition/us-core-race","extension":[{"url":"ombCategory","valueCoding":{"system":"urn:oid:2.16.840.1.113883.6.238","code":"2028-9","display":"Asian"}},{"url":"text","valueString":"Asian"}]},{"url":"http://hl7.org/fhir/us/core/StructureDefinition/us-core-ethnicity","extension":[{"url":"ombCategory","valueCoding":{"system":"urn:oid:2.16.840.1.113883.6.238","code":"2135-2","display":"Hispanic or Latino"}},{"url":"text","valueString":"Hispanic or Latino"}]}],"identifier":[{"system":"http://hospital.smarthealthit.org","value":"999999995"}],"name":[{"family":"Bertha","given":["Betty"]}],"gender":"female","birthDate":"2006-01-01"},"request":{"method":"PUT","url":"Patient/49640f81-b5ff-408a-82eb-436cf41a9d1d"}},{"fullUrl":"https://madie.cms.gov/Procedure/Procedure-32","resource":{"resourceType":"Procedure","id":"9aa61de1-5d8a-4a4c-8266-518369da5eec","meta":{"profile":["http://hl7.org/fhir/us/qicore/StructureDefinition/qicore-procedure"]},"extension":[{"url":"http://hl7.org/fhir/us/qicore/StructureDefinition/qicore-recorded","valueDateTime":"2023-11-01T00:00:00.000Z"}],"status":"completed","code":{"coding":[{"system":"http://www.cms.gov/Medicare/Coding/ICD10","code":"0SR9019","display":"Replacement of Right Hip Joint with Metal Synthetic Substitute, Cemented, Open Approach"}]},"subject":{"reference":"Patient/49640f81-b5ff-408a-82eb-436cf41a9d1d"},"performedPeriod":{"start":"2023-11-01T00:00:00.000Z","end":"2023-11-01T01:00:00.000Z"}},"request":{"method":"PUT","url":"Procedure/9aa61de1-5d8a-4a4c-8266-518369da5eec"}},{"fullUrl":"https://madie.cms.gov/Encounter/Encounter-32","resource":{"resourceType":"Encounter","id":"f0634149-c91b-4801-8773-688471a7042f","meta":{"profile":["http://hl7.org/fhir/us/qicore/StructureDefinition/qicore-encounter"]},"status":"finished","class":{"system":"http://terminology.hl7.org/CodeSystem/v3-ActCode","code":"AMB","display":"ambulatory"},"type":[{"coding":[{"system":"http://snomed.info/sct","code":"281036007","display":"Follow-up consultation (procedure)"}]}],"subject":{"reference":"Patient/49640f81-b5ff-408a-82eb-436cf41a9d1d"},"period":{"start":"2024-11-01T00:00:00.000Z","end":"2024-11-01T01:15:00.000Z"}},"request":{"method":"PUT","url":"Encounter/f0634149-c91b-4801-8773-688471a7042f"}},{"fullUrl":"https://madie.cms.gov/Observation/Observation-32.1-1","resource":{"resourceType":"Observation","id":"619d3885-d628-4ee5-a584-6d1c10b1c7de","meta":{"profile":["http://hl7.org/fhir/us/qicore/StructureDefinition/qicore-observation"]},"status":"final","category":[{"coding":[{"system":"http://terminology.hl7.org/CodeSystem/observation-category","code":"survey"}]}],"code":{"coding":[{"system":"http://loinc.org","code":"72093-8","display":"Quality of life score [HOOS]"}]},"subject":{"reference":"Patient/49640f81-b5ff-408a-82eb-436cf41a9d1d"},"effectivePeriod":{"start":"2023-11-02T00:00:00.000Z","end":"2023-11-02T01:00:00.000Z"},"valueInteger":60},"request":{"method":"PUT","url":"Observation/619d3885-d628-4ee5-a584-6d1c10b1c7de"}},{"fullUrl":"https://madie.cms.gov/Observation/Observation-32.1-2","resource":{"resourceType":"Observation","id":"cd2df9c1-4949-4160-b418-ad930e40e54c","meta":{"profile":["http://hl7.org/fhir/us/qicore/StructureDefinition/qicore-observation"]},"status":"final","category":[{"coding":[{"system":"http://terminology.hl7.org/CodeSystem/observation-category","code":"survey"}]}],"code":{"coding":[{"system":"http://loinc.org","code":"72094-6","display":"Sport-recreation score [HOOS]"}]},"subject":{"reference":"Patient/49640f81-b5ff-408a-82eb-436cf41a9d1d"},"effectivePeriod":{"start":"2023-11-02T00:00:00.000Z","end":"2023-11-02T01:00:00.000Z"},"valueInteger":60},"request":{"method":"PUT","url":"Observation/cd2df9c1-4949-4160-b418-ad930e40e54c"}},{"fullUrl":"https://madie.cms.gov/Observation/Observation-32.1-3","resource":{"resourceType":"Observation","id":"212acadd-98b4-4e30-a8b0-ff33506e1556","meta":{"profile":["http://hl7.org/fhir/us/qicore/StructureDefinition/qicore-observation"]},"status":"final","category":[{"coding":[{"system":"http://terminology.hl7.org/CodeSystem/observation-category","code":"survey"}]}],"code":{"coding":[{"system":"http://loinc.org","code":"72095-3","display":"Activities of daily living score [HOOS]"}]},"subject":{"reference":"Patient/49640f81-b5ff-408a-82eb-436cf41a9d1d"},"effectivePeriod":{"start":"2023-11-02T00:00:00.000Z","end":"2023-11-02T01:00:00.000Z"},"valueInteger":60},"request":{"method":"PUT","url":"Observation/212acadd-98b4-4e30-a8b0-ff33506e1556"}},{"fullUrl":"https://madie.cms.gov/Observation/Observation-32.1-4","resource":{"resourceType":"Observation","id":"d5dfeaa7-9c23-4c06-b35e-7af0970861ca","meta":{"profile":["http://hl7.org/fhir/us/qicore/StructureDefinition/qicore-observation"]},"status":"final","category":[{"coding":[{"system":"http://terminology.hl7.org/CodeSystem/observation-category","code":"survey"}]}],"code":{"coding":[{"system":"http://loinc.org","code":"72096-1","display":"Symptoms score [HOOS]"}]},"subject":{"reference":"Patient/49640f81-b5ff-408a-82eb-436cf41a9d1d"},"effectivePeriod":{"start":"2023-11-02T00:00:00.000Z","end":"2023-11-02T01:00:00.000Z"},"valueInteger":60},"request":{"method":"PUT","url":"Observation/d5dfeaa7-9c23-4c06-b35e-7af0970861ca"}},{"fullUrl":"https://madie.cms.gov/Observation/Observation-32.1-5","resource":{"resourceType":"Observation","id":"ee8cca74-4b7f-4c68-8543-9845b7849d9d","meta":{"profile":["http://hl7.org/fhir/us/qicore/StructureDefinition/qicore-observation"]},"status":"final","category":[{"coding":[{"system":"http://terminology.hl7.org/CodeSystem/observation-category","code":"survey"}]}],"code":{"coding":[{"system":"http://loinc.org","code":"72097-9","display":"Pain score [HOOS]"}]},"subject":{"reference":"Patient/49640f81-b5ff-408a-82eb-436cf41a9d1d"},"effectivePeriod":{"start":"2023-11-02T00:00:00.000Z","end":"2023-11-02T01:00:00.000Z"},"valueInteger":60},"request":{"method":"PUT","url":"Observation/ee8cca74-4b7f-4c68-8543-9845b7849d9d"}},{"fullUrl":"https://madie.cms.gov/Observation/Observation-32.2-1","resource":{"resourceType":"Observation","id":"bc20b071-714a-475c-9ba5-c42302110f5b","meta":{"profile":["http://hl7.org/fhir/us/qicore/StructureDefinition/qicore-observation"]},"status":"final","category":[{"coding":[{"system":"http://terminology.hl7.org/CodeSystem/observation-category","code":"survey"}]}],"code":{"coding":[{"system":"http://loinc.org","code":"72093-8","display":"Quality of life score [HOOS]"}]},"subject":{"reference":"Patient/49640f81-b5ff-408a-82eb-436cf41a9d1d"},"effectivePeriod":{"start":"2023-11-02T00:00:00.000Z","end":"2023-11-02T01:00:00.000Z"},"valueInteger":60},"request":{"method":"PUT","url":"Observation/bc20b071-714a-475c-9ba5-c42302110f5b"}},{"fullUrl":"https://madie.cms.gov/Observation/Observation-32.2-2","resource":{"resourceType":"Observation","id":"471c9183-ce64-4d88-a3c1-200f02a6c30d","meta":{"profile":["http://hl7.org/fhir/us/qicore/StructureDefinition/qicore-observation"]},"status":"final","category":[{"coding":[{"system":"http://terminology.hl7.org/CodeSystem/observation-category","code":"survey"}]}],"code":{"coding":[{"system":"http://loinc.org","code":"72094-6","display":"Sport-recreation score [HOOS]"}]},"subject":{"reference":"Patient/49640f81-b5ff-408a-82eb-436cf41a9d1d"},"effectivePeriod":{"start":"2023-11-02T00:00:00.000Z","end":"2023-11-02T01:00:00.000Z"},"valueInteger":60},"request":{"method":"PUT","url":"Observation/471c9183-ce64-4d88-a3c1-200f02a6c30d"}},{"fullUrl":"https://madie.cms.gov/Observation/Observation-32.2-3","resource":{"resourceType":"Observation","id":"52dd6d1d-2cb8-4631-a7e4-8a13e2b94792","meta":{"profile":["http://hl7.org/fhir/us/qicore/StructureDefinition/qicore-observation"]},"status":"final","category":[{"coding":[{"system":"http://terminology.hl7.org/CodeSystem/observation-category","code":"survey"}]}],"code":{"coding":[{"system":"http://loinc.org","code":"72095-3","display":"Activities of daily living score [HOOS]"}]},"subject":{"reference":"Patient/49640f81-b5ff-408a-82eb-436cf41a9d1d"},"effectivePeriod":{"start":"2023-11-02T00:00:00.000Z","end":"2023-11-02T01:00:00.000Z"},"valueInteger":60},"request":{"method":"PUT","url":"Observation/52dd6d1d-2cb8-4631-a7e4-8a13e2b94792"}},{"fullUrl":"https://madie.cms.gov/Observation/Observation-32.2-4","resource":{"resourceType":"Observation","id":"1056b87d-327f-41a0-968f-53ba35a6c705","meta":{"profile":["http://hl7.org/fhir/us/qicore/StructureDefinition/qicore-observation"]},"status":"final","category":[{"coding":[{"system":"http://terminology.hl7.org/CodeSystem/observation-category","code":"survey"}]}],"code":{"coding":[{"system":"http://loinc.org","code":"72096-1","display":"Symptoms score [HOOS]"}]},"subject":{"reference":"Patient/49640f81-b5ff-408a-82eb-436cf41a9d1d"},"effectivePeriod":{"start":"2023-11-02T00:00:00.000Z","end":"2023-11-02T01:00:00.000Z"},"valueInteger":60},"request":{"method":"PUT","url":"Observation/1056b87d-327f-41a0-968f-53ba35a6c705"}},{"fullUrl":"https://madie.cms.gov/Observation/Observation-32.2-5","resource":{"resourceType":"Observation","id":"9baa37a5-3b36-4c7c-bb33-3c0627ded45e","meta":{"profile":["http://hl7.org/fhir/us/qicore/StructureDefinition/qicore-observation"]},"status":"final","category":[{"coding":[{"system":"http://terminology.hl7.org/CodeSystem/observation-category","code":"survey"}]}],"code":{"coding":[{"system":"http://loinc.org","code":"72097-9","display":"Pain score [HOOS]"}]},"subject":{"reference":"Patient/49640f81-b5ff-408a-82eb-436cf41a9d1d"},"effectivePeriod":{"start":"2023-11-02T00:00:00.000Z","end":"2023-11-02T01:00:00.000Z"},"valueInteger":60},"request":{"method":"PUT","url":"Observation/9baa37a5-3b36-4c7c-bb33-3c0627ded45e"}},{"fullUrl":"https://madie.cms.gov/MeasureReport/6b277e16-c6af-4236-b303-abafc187f6c5","resource":{"resourceType":"MeasureReport","id":"6b277e16-c6af-4236-b303-abafc187f6c5","meta":{"profile":["http://hl7.org/fhir/us/cqfmeasures/StructureDefinition/test-case-cqfm"]},"contained":[{"resourceType":"Parameters","id":"b052f2db-9ff7-4883-a51c-4c8756161dcd-parameters","parameter":[{"name":"subject","valueString":"49640f81-b5ff-408a-82eb-436cf41a9d1d"}]}],"extension":[{"url":"http://hl7.org/fhir/us/cqfmeasures/StructureDefinition/cqfm-inputParameters","valueReference":{"reference":"#b052f2db-9ff7-4883-a51c-4c8756161dcd-parameters"}},{"url":"http://hl7.org/fhir/us/cqfmeasures/StructureDefinition/cqfm-testCaseDescription","valueMarkdown":"Patient w/ a THA Procedure 11/1, Initial Hip Assessment HOOS day after THA Procedure(11/2), and FollowUp Hip Assessment HOOS 300 days after THA Procedure (8/27)"}],"modifierExtension":[{"url":"http://hl7.org/fhir/us/cqfmeasures/StructureDefinition/cqfm-isTestCase","valueBoolean":true}],"status":"complete","type":"individual","measure":"https://madie.cms.gov/Measure/FunctionalStatusAssessmentforTotalHipReplacementFHIR","period":{"start":"2025-01-01","end":"2025-12-31"},"group":[{"population":[{"code":{"coding":[{"system":"http://terminology.hl7.org/CodeSystem/measure-population","code":"initial-population","display":"Initial Population"}]},"count":1},{"code":{"coding":[{"system":"http://terminology.hl7.org/CodeSystem/measure-population","code":"denominator","display":"Denominator"}]},"count":1},{"code":{"coding":[{"system":"http://terminology.hl7.org/CodeSystem/measure-population","code":"denominator-exclusion","display":"Denominator Exclusion"}]},"count":0},{"code":{"coding":[{"system":"http://terminology.hl7.org/CodeSystem/measure-population","code":"numerator","display":"Numerator"}]},"count":0}]}]},"request":{"method":"PUT","url":"MeasureReport/6b277e16-c6af-4236-b303-abafc187f6c5"}}]}