{"resourceType":"Bundle","id":"tests-98493a07-9ac2-4760-b215-bda012ce1877-bundle","type":"transaction","entry":[{"fullUrl":"https://madie.cms.gov/Patient/98493a07-9ac2-4760-b215-bda012ce1877","resource":{"resourceType":"Patient","id":"98493a07-9ac2-4760-b215-bda012ce1877","meta":{"profile":["http://hl7.org/fhir/us/qicore/StructureDefinition/qicore-patient"]},"extension":[{"url":"http://hl7.org/fhir/us/core/StructureDefinition/us-core-race","extension":[{"url":"ombCategory","valueCoding":{"system":"urn:oid:2.16.840.1.113883.6.238","code":"2028-9","display":"Asian"}},{"url":"text","valueString":"Asian"}]},{"url":"http://hl7.org/fhir/us/core/StructureDefinition/us-core-ethnicity","extension":[{"url":"ombCategory","valueCoding":{"system":"urn:oid:2.16.840.1.113883.6.238","code":"2135-2","display":"Hispanic or Latino"}},{"url":"text","valueString":"Hispanic or Latino"}]}],"identifier":[{"system":"http://hospital.smarthealthit.org","value":"999999995"}],"name":[{"family":"Bertha","given":["Betty"]}],"gender":"female","birthDate":"2006-01-01"},"request":{"method":"PUT","url":"Patient/98493a07-9ac2-4760-b215-bda012ce1877"}},{"fullUrl":"https://madie.cms.gov/Procedure/Procedure-31","resource":{"resourceType":"Procedure","id":"609a0e29-ac79-4f66-a4de-2dd66798ae05","meta":{"profile":["http://hl7.org/fhir/us/qicore/StructureDefinition/qicore-procedure"]},"extension":[{"url":"http://hl7.org/fhir/us/qicore/StructureDefinition/qicore-recorded","valueDateTime":"2023-11-01T00:00:00.000Z"}],"status":"completed","code":{"coding":[{"system":"http://www.cms.gov/Medicare/Coding/ICD10","code":"0SR9019","display":"Replacement of Right Hip Joint with Metal Synthetic Substitute, Cemented, Open Approach"}]},"subject":{"reference":"Patient/98493a07-9ac2-4760-b215-bda012ce1877"},"performedPeriod":{"start":"2023-11-01T00:00:00.000Z","end":"2023-11-01T01:00:00.000Z"}},"request":{"method":"PUT","url":"Procedure/609a0e29-ac79-4f66-a4de-2dd66798ae05"}},{"fullUrl":"https://madie.cms.gov/Encounter/Encounter-31","resource":{"resourceType":"Encounter","id":"dcef0b60-7992-4b6e-9a16-e86c4e1eeb27","meta":{"profile":["http://hl7.org/fhir/us/qicore/StructureDefinition/qicore-encounter"]},"status":"finished","class":{"system":"http://terminology.hl7.org/CodeSystem/v3-ActCode","code":"AMB","display":"ambulatory"},"type":[{"coding":[{"system":"http://snomed.info/sct","code":"281036007","display":"Follow-up consultation (procedure)"}]}],"subject":{"reference":"Patient/98493a07-9ac2-4760-b215-bda012ce1877"},"period":{"start":"2024-11-01T00:00:00.000Z","end":"2024-11-01T01:15:00.000Z"}},"request":{"method":"PUT","url":"Encounter/dcef0b60-7992-4b6e-9a16-e86c4e1eeb27"}},{"fullUrl":"https://madie.cms.gov/Observation/Observation-31.1-1","resource":{"resourceType":"Observation","id":"4b6c9fb1-e70d-4d1c-a735-2d7750ed7c80","meta":{"profile":["http://hl7.org/fhir/us/qicore/StructureDefinition/qicore-observation"]},"status":"final","category":[{"coding":[{"system":"http://terminology.hl7.org/CodeSystem/observation-category","code":"survey"}]}],"code":{"coding":[{"system":"http://loinc.org","code":"72093-8","display":"Quality of life score [HOOS]"}]},"subject":{"reference":"Patient/98493a07-9ac2-4760-b215-bda012ce1877"},"effectivePeriod":{"start":"2023-11-01T00:00:00.000Z","end":"2023-11-01T01:00:00.000Z"},"valueInteger":60},"request":{"method":"PUT","url":"Observation/4b6c9fb1-e70d-4d1c-a735-2d7750ed7c80"}},{"fullUrl":"https://madie.cms.gov/Observation/Observation-31.1-2","resource":{"resourceType":"Observation","id":"4c491976-238f-4208-b2bd-a3dafd8d8f89","meta":{"profile":["http://hl7.org/fhir/us/qicore/StructureDefinition/qicore-observation"]},"status":"final","category":[{"coding":[{"system":"http://terminology.hl7.org/CodeSystem/observation-category","code":"survey"}]}],"code":{"coding":[{"system":"http://loinc.org","code":"72094-6","display":"Sport-recreation score [HOOS]"}]},"subject":{"reference":"Patient/98493a07-9ac2-4760-b215-bda012ce1877"},"effectivePeriod":{"start":"2023-11-01T00:00:00.000Z","end":"2023-11-01T01:00:00.000Z"},"valueInteger":60},"request":{"method":"PUT","url":"Observation/4c491976-238f-4208-b2bd-a3dafd8d8f89"}},{"fullUrl":"https://madie.cms.gov/Observation/Observation-31.1-3","resource":{"resourceType":"Observation","id":"c57ece5a-2dad-4942-a751-11cc9709dad4","meta":{"profile":["http://hl7.org/fhir/us/qicore/StructureDefinition/qicore-observation"]},"status":"final","category":[{"coding":[{"system":"http://terminology.hl7.org/CodeSystem/observation-category","code":"survey"}]}],"code":{"coding":[{"system":"http://loinc.org","code":"72095-3","display":"Activities of daily living score [HOOS]"}]},"subject":{"reference":"Patient/98493a07-9ac2-4760-b215-bda012ce1877"},"effectivePeriod":{"start":"2023-11-01T00:00:00.000Z","end":"2023-11-01T01:00:00.000Z"},"valueInteger":60},"request":{"method":"PUT","url":"Observation/c57ece5a-2dad-4942-a751-11cc9709dad4"}},{"fullUrl":"https://madie.cms.gov/Observation/Observation-31.1-4","resource":{"resourceType":"Observation","id":"f1c2a5fc-82f5-4baf-8f64-3f9042ffd80a","meta":{"profile":["http://hl7.org/fhir/us/qicore/StructureDefinition/qicore-observation"]},"status":"final","category":[{"coding":[{"system":"http://terminology.hl7.org/CodeSystem/observation-category","code":"survey"}]}],"code":{"coding":[{"system":"http://loinc.org","code":"72096-1","display":"Symptoms score [HOOS]"}]},"subject":{"reference":"Patient/98493a07-9ac2-4760-b215-bda012ce1877"},"effectivePeriod":{"start":"2023-11-01T00:00:00.000Z","end":"2023-11-01T01:00:00.000Z"},"valueInteger":60},"request":{"method":"PUT","url":"Observation/f1c2a5fc-82f5-4baf-8f64-3f9042ffd80a"}},{"fullUrl":"https://madie.cms.gov/Observation/Observation-31.1-5","resource":{"resourceType":"Observation","id":"9749dc47-453d-42ed-90e9-6bbedda426aa","meta":{"profile":["http://hl7.org/fhir/us/qicore/StructureDefinition/qicore-observation"]},"status":"final","category":[{"coding":[{"system":"http://terminology.hl7.org/CodeSystem/observation-category","code":"survey"}]}],"code":{"coding":[{"system":"http://loinc.org","code":"72097-9","display":"Pain score [HOOS]"}]},"subject":{"reference":"Patient/98493a07-9ac2-4760-b215-bda012ce1877"},"effectivePeriod":{"start":"2023-11-01T00:00:00.000Z","end":"2023-11-01T01:00:00.000Z"},"valueInteger":60},"request":{"method":"PUT","url":"Observation/9749dc47-453d-42ed-90e9-6bbedda426aa"}},{"fullUrl":"https://madie.cms.gov/Observation/Observation-31.2-1","resource":{"resourceType":"Observation","id":"bd02f129-462b-4d7b-a37b-98abd48601f5","meta":{"profile":["http://hl7.org/fhir/us/qicore/StructureDefinition/qicore-observation"]},"status":"final","category":[{"coding":[{"system":"http://terminology.hl7.org/CodeSystem/observation-category","code":"survey"}]}],"code":{"coding":[{"system":"http://loinc.org","code":"72093-8","display":"Quality of life score [HOOS]"}]},"subject":{"reference":"Patient/98493a07-9ac2-4760-b215-bda012ce1877"},"effectivePeriod":{"start":"2024-08-27T00:00:00.000Z","end":"2024-08-27T01:00:00.000Z"},"valueInteger":60},"request":{"method":"PUT","url":"Observation/bd02f129-462b-4d7b-a37b-98abd48601f5"}},{"fullUrl":"https://madie.cms.gov/Observation/Observation-31.2-2","resource":{"resourceType":"Observation","id":"e4c3199c-3ceb-4a05-914d-3c3dd156251d","meta":{"profile":["http://hl7.org/fhir/us/qicore/StructureDefinition/qicore-observation"]},"status":"final","category":[{"coding":[{"system":"http://terminology.hl7.org/CodeSystem/observation-category","code":"survey"}]}],"code":{"coding":[{"system":"http://loinc.org","code":"72094-6","display":"Sport-recreation score [HOOS]"}]},"subject":{"reference":"Patient/98493a07-9ac2-4760-b215-bda012ce1877"},"effectivePeriod":{"start":"2024-08-27T00:00:00.000Z","end":"2024-08-27T01:00:00.000Z"},"valueInteger":60},"request":{"method":"PUT","url":"Observation/e4c3199c-3ceb-4a05-914d-3c3dd156251d"}},{"fullUrl":"https://madie.cms.gov/Observation/Observation-31.2-3","resource":{"resourceType":"Observation","id":"84e3bc8f-9708-4d47-a0ad-f70865ad8e37","meta":{"profile":["http://hl7.org/fhir/us/qicore/StructureDefinition/qicore-observation"]},"status":"final","category":[{"coding":[{"system":"http://terminology.hl7.org/CodeSystem/observation-category","code":"survey"}]}],"code":{"coding":[{"system":"http://loinc.org","code":"72095-3","display":"Activities of daily living score [HOOS]"}]},"subject":{"reference":"Patient/98493a07-9ac2-4760-b215-bda012ce1877"},"effectivePeriod":{"start":"2024-08-27T00:00:00.000Z","end":"2024-08-27T01:00:00.000Z"},"valueInteger":60},"request":{"method":"PUT","url":"Observation/84e3bc8f-9708-4d47-a0ad-f70865ad8e37"}},{"fullUrl":"https://madie.cms.gov/Observation/Observation-31.2-4","resource":{"resourceType":"Observation","id":"9aecbeaa-838f-4553-aa46-47bdbe3a8158","meta":{"profile":["http://hl7.org/fhir/us/qicore/StructureDefinition/qicore-observation"]},"status":"final","category":[{"coding":[{"system":"http://terminology.hl7.org/CodeSystem/observation-category","code":"survey"}]}],"code":{"coding":[{"system":"http://loinc.org","code":"72096-1","display":"Symptoms score [HOOS]"}]},"subject":{"reference":"Patient/98493a07-9ac2-4760-b215-bda012ce1877"},"effectivePeriod":{"start":"2024-08-27T00:00:00.000Z","end":"2024-08-27T01:00:00.000Z"},"valueInteger":60},"request":{"method":"PUT","url":"Observation/9aecbeaa-838f-4553-aa46-47bdbe3a8158"}},{"fullUrl":"https://madie.cms.gov/Observation/Observation-31.2-5","resource":{"resourceType":"Observation","id":"936e8bc2-21c9-4a23-8d91-d2662031c8ab","meta":{"profile":["http://hl7.org/fhir/us/qicore/StructureDefinition/qicore-observation"]},"status":"final","category":[{"coding":[{"system":"http://terminology.hl7.org/CodeSystem/observation-category","code":"survey"}]}],"code":{"coding":[{"system":"http://loinc.org","code":"72097-9","display":"Pain score [HOOS]"}]},"subject":{"reference":"Patient/98493a07-9ac2-4760-b215-bda012ce1877"},"effectivePeriod":{"start":"2024-08-27T00:00:00.000Z","end":"2024-08-27T01:00:00.000Z"},"valueInteger":60},"request":{"method":"PUT","url":"Observation/936e8bc2-21c9-4a23-8d91-d2662031c8ab"}},{"fullUrl":"https://madie.cms.gov/MeasureReport/aa9f78a4-bbc2-4d62-a6ce-f00b075d4fc9","resource":{"resourceType":"MeasureReport","id":"aa9f78a4-bbc2-4d62-a6ce-f00b075d4fc9","meta":{"profile":["http://hl7.org/fhir/us/cqfmeasures/StructureDefinition/test-case-cqfm"]},"contained":[{"resourceType":"Parameters","id":"3a9afb0c-4326-4a08-941e-a3e0a660dda7-parameters","parameter":[{"name":"subject","valueString":"98493a07-9ac2-4760-b215-bda012ce1877"}]}],"extension":[{"url":"http://hl7.org/fhir/us/cqfmeasures/StructureDefinition/cqfm-inputParameters","valueReference":{"reference":"#3a9afb0c-4326-4a08-941e-a3e0a660dda7-parameters"}},{"url":"http://hl7.org/fhir/us/cqfmeasures/StructureDefinition/cqfm-testCaseDescription","valueMarkdown":"Patient w/ a THA Procedure 11/1, Initial Hip Assessment HOOS Same day as THA Procedure(11/1), and FollowUp Hip Assessment HOOS 300 days after THA Procedure (8/27)"}],"modifierExtension":[{"url":"http://hl7.org/fhir/us/cqfmeasures/StructureDefinition/cqfm-isTestCase","valueBoolean":true}],"status":"complete","type":"individual","measure":"https://madie.cms.gov/Measure/FunctionalStatusAssessmentforTotalHipReplacementFHIR","period":{"start":"2025-01-01","end":"2025-12-31"},"group":[{"population":[{"code":{"coding":[{"system":"http://terminology.hl7.org/CodeSystem/measure-population","code":"initial-population","display":"Initial Population"}]},"count":1},{"code":{"coding":[{"system":"http://terminology.hl7.org/CodeSystem/measure-population","code":"denominator","display":"Denominator"}]},"count":1},{"code":{"coding":[{"system":"http://terminology.hl7.org/CodeSystem/measure-population","code":"denominator-exclusion","display":"Denominator Exclusion"}]},"count":0},{"code":{"coding":[{"system":"http://terminology.hl7.org/CodeSystem/measure-population","code":"numerator","display":"Numerator"}]},"count":1}]}]},"request":{"method":"PUT","url":"MeasureReport/aa9f78a4-bbc2-4d62-a6ce-f00b075d4fc9"}}]}