{"resourceType":"Bundle","id":"tests-ba296236-cee8-4ec1-aa6b-341477c99af2-bundle","type":"transaction","entry":[{"fullUrl":"https://madie.cms.gov/Patient/ba296236-cee8-4ec1-aa6b-341477c99af2","resource":{"resourceType":"Patient","id":"ba296236-cee8-4ec1-aa6b-341477c99af2","meta":{"profile":["http://hl7.org/fhir/us/qicore/StructureDefinition/qicore-patient"]},"extension":[{"url":"http://hl7.org/fhir/us/core/StructureDefinition/us-core-race","extension":[{"url":"ombCategory","valueCoding":{"system":"urn:oid:2.16.840.1.113883.6.238","code":"2028-9","display":"Asian"}},{"url":"text","valueString":"Asian"}]},{"url":"http://hl7.org/fhir/us/core/StructureDefinition/us-core-ethnicity","extension":[{"url":"ombCategory","valueCoding":{"system":"urn:oid:2.16.840.1.113883.6.238","code":"2135-2","display":"Hispanic or Latino"}},{"url":"text","valueString":"Hispanic or Latino"}]}],"identifier":[{"system":"http://hospital.smarthealthit.org","value":"999999995"}],"name":[{"family":"Bertha","given":["Betty"]}],"gender":"female","birthDate":"2006-01-01"},"request":{"method":"PUT","url":"Patient/ba296236-cee8-4ec1-aa6b-341477c99af2"}},{"fullUrl":"https://madie.cms.gov/Procedure/Procedure-35","resource":{"resourceType":"Procedure","id":"749ffc7e-98b2-44fc-84e9-609df6253bc0","meta":{"profile":["http://hl7.org/fhir/us/qicore/StructureDefinition/qicore-procedure"]},"extension":[{"url":"http://hl7.org/fhir/us/qicore/StructureDefinition/qicore-recorded","valueDateTime":"2023-11-01T00:00:00.000Z"}],"status":"completed","code":{"coding":[{"system":"http://www.cms.gov/Medicare/Coding/ICD10","code":"0SR9019","display":"Replacement of Right Hip Joint with Metal Synthetic Substitute, Cemented, Open Approach"}]},"subject":{"reference":"Patient/ba296236-cee8-4ec1-aa6b-341477c99af2"},"performedPeriod":{"start":"2023-11-01T00:00:00.000Z","end":"2023-11-01T01:00:00.000Z"}},"request":{"method":"PUT","url":"Procedure/749ffc7e-98b2-44fc-84e9-609df6253bc0"}},{"fullUrl":"https://madie.cms.gov/Encounter/Encounter-35","resource":{"resourceType":"Encounter","id":"57f8becc-7b4d-483d-8595-e45cb133c287","meta":{"profile":["http://hl7.org/fhir/us/qicore/StructureDefinition/qicore-encounter"]},"status":"finished","class":{"system":"http://terminology.hl7.org/CodeSystem/v3-ActCode","code":"AMB","display":"ambulatory"},"type":[{"coding":[{"system":"http://snomed.info/sct","code":"281036007","display":"Follow-up consultation (procedure)"}]}],"subject":{"reference":"Patient/ba296236-cee8-4ec1-aa6b-341477c99af2"},"period":{"start":"2024-11-01T00:00:00.000Z","end":"2024-11-01T01:15:00.000Z"}},"request":{"method":"PUT","url":"Encounter/57f8becc-7b4d-483d-8595-e45cb133c287"}},{"fullUrl":"https://madie.cms.gov/Observation/Observation-35.1-1","resource":{"resourceType":"Observation","id":"211e1d3f-7517-4099-a638-ec2ccdf49531","meta":{"profile":["http://hl7.org/fhir/us/qicore/StructureDefinition/qicore-observation"]},"status":"final","category":[{"coding":[{"system":"http://terminology.hl7.org/CodeSystem/observation-category","code":"survey"}]}],"code":{"coding":[{"system":"http://loinc.org","code":"72093-8","display":"Quality of life score [HOOS]"}]},"subject":{"reference":"Patient/ba296236-cee8-4ec1-aa6b-341477c99af2"},"effectivePeriod":{"start":"2023-11-01T00:00:00.000Z","end":"2023-11-01T01:00:00.000Z"},"valueInteger":60},"request":{"method":"PUT","url":"Observation/211e1d3f-7517-4099-a638-ec2ccdf49531"}},{"fullUrl":"https://madie.cms.gov/Observation/Observation-35.1-2","resource":{"resourceType":"Observation","id":"b4450b0b-f685-445a-a76c-f26996cb5d4d","meta":{"profile":["http://hl7.org/fhir/us/qicore/StructureDefinition/qicore-observation"]},"status":"final","category":[{"coding":[{"system":"http://terminology.hl7.org/CodeSystem/observation-category","code":"survey"}]}],"code":{"coding":[{"system":"http://loinc.org","code":"72094-6","display":"Sport-recreation score [HOOS]"}]},"subject":{"reference":"Patient/ba296236-cee8-4ec1-aa6b-341477c99af2"},"effectivePeriod":{"start":"2023-11-01T00:00:00.000Z","end":"2023-11-01T01:00:00.000Z"},"valueInteger":60},"request":{"method":"PUT","url":"Observation/b4450b0b-f685-445a-a76c-f26996cb5d4d"}},{"fullUrl":"https://madie.cms.gov/Observation/Observation-35.1-3","resource":{"resourceType":"Observation","id":"add97807-fefc-4091-bb86-bfca41bcb4fc","meta":{"profile":["http://hl7.org/fhir/us/qicore/StructureDefinition/qicore-observation"]},"status":"final","category":[{"coding":[{"system":"http://terminology.hl7.org/CodeSystem/observation-category","code":"survey"}]}],"code":{"coding":[{"system":"http://loinc.org","code":"72095-3","display":"Activities of daily living score [HOOS]"}]},"subject":{"reference":"Patient/ba296236-cee8-4ec1-aa6b-341477c99af2"},"effectivePeriod":{"start":"2023-11-01T00:00:00.000Z","end":"2023-11-01T01:00:00.000Z"},"valueInteger":60},"request":{"method":"PUT","url":"Observation/add97807-fefc-4091-bb86-bfca41bcb4fc"}},{"fullUrl":"https://madie.cms.gov/Observation/Observation-35.1-4","resource":{"resourceType":"Observation","id":"22541fbc-b106-477c-b6bf-2c83eadf689e","meta":{"profile":["http://hl7.org/fhir/us/qicore/StructureDefinition/qicore-observation"]},"status":"final","category":[{"coding":[{"system":"http://terminology.hl7.org/CodeSystem/observation-category","code":"survey"}]}],"code":{"coding":[{"system":"http://loinc.org","code":"72096-1","display":"Symptoms score [HOOS]"}]},"subject":{"reference":"Patient/ba296236-cee8-4ec1-aa6b-341477c99af2"},"effectivePeriod":{"start":"2023-11-01T00:00:00.000Z","end":"2023-11-01T01:00:00.000Z"},"valueInteger":60},"request":{"method":"PUT","url":"Observation/22541fbc-b106-477c-b6bf-2c83eadf689e"}},{"fullUrl":"https://madie.cms.gov/Observation/Observation-35.1-5","resource":{"resourceType":"Observation","id":"15e9efc5-604b-4834-be8d-4180201e0723","meta":{"profile":["http://hl7.org/fhir/us/qicore/StructureDefinition/qicore-observation"]},"status":"final","category":[{"coding":[{"system":"http://terminology.hl7.org/CodeSystem/observation-category","code":"survey"}]}],"code":{"coding":[{"system":"http://loinc.org","code":"72097-9","display":"Pain score [HOOS]"}]},"subject":{"reference":"Patient/ba296236-cee8-4ec1-aa6b-341477c99af2"},"effectivePeriod":{"start":"2023-11-01T00:00:00.000Z","end":"2023-11-01T01:00:00.000Z"},"valueInteger":60},"request":{"method":"PUT","url":"Observation/15e9efc5-604b-4834-be8d-4180201e0723"}},{"fullUrl":"https://madie.cms.gov/Observation/Observation-35.2-1","resource":{"resourceType":"Observation","id":"a11bd9c1-9adc-4c0e-a36c-1e0b5be1516c","meta":{"profile":["http://hl7.org/fhir/us/qicore/StructureDefinition/qicore-observation"]},"status":"final","category":[{"coding":[{"system":"http://terminology.hl7.org/CodeSystem/observation-category","code":"survey"}]}],"code":{"coding":[{"system":"http://loinc.org","code":"72093-8","display":"Quality of life score [HOOS]"}]},"subject":{"reference":"Patient/ba296236-cee8-4ec1-aa6b-341477c99af2"},"effectivePeriod":{"start":"2024-08-26T00:00:00.000Z","end":"2024-08-26T01:00:00.000Z"},"valueInteger":60},"request":{"method":"PUT","url":"Observation/a11bd9c1-9adc-4c0e-a36c-1e0b5be1516c"}},{"fullUrl":"https://madie.cms.gov/Observation/Observation-35.2-2","resource":{"resourceType":"Observation","id":"86f010fa-12ef-4a5a-b7bd-fe21e159544d","meta":{"profile":["http://hl7.org/fhir/us/qicore/StructureDefinition/qicore-observation"]},"status":"final","category":[{"coding":[{"system":"http://terminology.hl7.org/CodeSystem/observation-category","code":"survey"}]}],"code":{"coding":[{"system":"http://loinc.org","code":"72094-6","display":"Sport-recreation score [HOOS]"}]},"subject":{"reference":"Patient/ba296236-cee8-4ec1-aa6b-341477c99af2"},"effectivePeriod":{"start":"2024-08-26T00:00:00.000Z","end":"2024-08-26T01:00:00.000Z"},"valueInteger":60},"request":{"method":"PUT","url":"Observation/86f010fa-12ef-4a5a-b7bd-fe21e159544d"}},{"fullUrl":"https://madie.cms.gov/Observation/Observation-35.2-3","resource":{"resourceType":"Observation","id":"02fa95e0-642e-4053-b249-01a2188d6657","meta":{"profile":["http://hl7.org/fhir/us/qicore/StructureDefinition/qicore-observation"]},"status":"final","category":[{"coding":[{"system":"http://terminology.hl7.org/CodeSystem/observation-category","code":"survey"}]}],"code":{"coding":[{"system":"http://loinc.org","code":"72095-3","display":"Activities of daily living score [HOOS]"}]},"subject":{"reference":"Patient/ba296236-cee8-4ec1-aa6b-341477c99af2"},"effectivePeriod":{"start":"2024-08-26T00:00:00.000Z","end":"2024-08-26T01:00:00.000Z"},"valueInteger":60},"request":{"method":"PUT","url":"Observation/02fa95e0-642e-4053-b249-01a2188d6657"}},{"fullUrl":"https://madie.cms.gov/Observation/Observation-35.2-4","resource":{"resourceType":"Observation","id":"41097f54-504a-47f4-a7cc-18d7650c5cef","meta":{"profile":["http://hl7.org/fhir/us/qicore/StructureDefinition/qicore-observation"]},"status":"final","category":[{"coding":[{"system":"http://terminology.hl7.org/CodeSystem/observation-category","code":"survey"}]}],"code":{"coding":[{"system":"http://loinc.org","code":"72096-1","display":"Symptoms score [HOOS]"}]},"subject":{"reference":"Patient/ba296236-cee8-4ec1-aa6b-341477c99af2"},"effectivePeriod":{"start":"2024-08-26T00:00:00.000Z","end":"2024-08-26T01:00:00.000Z"},"valueInteger":60},"request":{"method":"PUT","url":"Observation/41097f54-504a-47f4-a7cc-18d7650c5cef"}},{"fullUrl":"https://madie.cms.gov/Observation/Observation-35.2-5","resource":{"resourceType":"Observation","id":"bda091a0-edf0-46ad-bce9-4e97e9f7063b","meta":{"profile":["http://hl7.org/fhir/us/qicore/StructureDefinition/qicore-observation"]},"status":"final","category":[{"coding":[{"system":"http://terminology.hl7.org/CodeSystem/observation-category","code":"survey"}]}],"code":{"coding":[{"system":"http://loinc.org","code":"72097-9","display":"Pain score [HOOS]"}]},"subject":{"reference":"Patient/ba296236-cee8-4ec1-aa6b-341477c99af2"},"effectivePeriod":{"start":"2024-08-26T00:00:00.000Z","end":"2024-08-26T01:00:00.000Z"},"valueInteger":60},"request":{"method":"PUT","url":"Observation/bda091a0-edf0-46ad-bce9-4e97e9f7063b"}},{"fullUrl":"https://madie.cms.gov/MeasureReport/2357baea-8370-4dd0-a9d2-222ecabe49ee","resource":{"resourceType":"MeasureReport","id":"2357baea-8370-4dd0-a9d2-222ecabe49ee","meta":{"profile":["http://hl7.org/fhir/us/cqfmeasures/StructureDefinition/test-case-cqfm"]},"contained":[{"resourceType":"Parameters","id":"62ea43ee-5970-4b2e-a706-acc87e38d382-parameters","parameter":[{"name":"subject","valueString":"ba296236-cee8-4ec1-aa6b-341477c99af2"}]}],"extension":[{"url":"http://hl7.org/fhir/us/cqfmeasures/StructureDefinition/cqfm-inputParameters","valueReference":{"reference":"#62ea43ee-5970-4b2e-a706-acc87e38d382-parameters"}},{"url":"http://hl7.org/fhir/us/cqfmeasures/StructureDefinition/cqfm-testCaseDescription","valueMarkdown":"Patient w/ a THA Procedure 11/1, Initial Hip Assessment HOOS Same day as THA Procedure(11/1), and FollowUp Hip Assessment HOOS 299 days after THA Procedure (8/26)"}],"modifierExtension":[{"url":"http://hl7.org/fhir/us/cqfmeasures/StructureDefinition/cqfm-isTestCase","valueBoolean":true}],"status":"complete","type":"individual","measure":"https://madie.cms.gov/Measure/FunctionalStatusAssessmentforTotalHipReplacementFHIR","period":{"start":"2025-01-01","end":"2025-12-31"},"group":[{"population":[{"code":{"coding":[{"system":"http://terminology.hl7.org/CodeSystem/measure-population","code":"initial-population","display":"Initial Population"}]},"count":1},{"code":{"coding":[{"system":"http://terminology.hl7.org/CodeSystem/measure-population","code":"denominator","display":"Denominator"}]},"count":1},{"code":{"coding":[{"system":"http://terminology.hl7.org/CodeSystem/measure-population","code":"denominator-exclusion","display":"Denominator Exclusion"}]},"count":0},{"code":{"coding":[{"system":"http://terminology.hl7.org/CodeSystem/measure-population","code":"numerator","display":"Numerator"}]},"count":0}]}]},"request":{"method":"PUT","url":"MeasureReport/2357baea-8370-4dd0-a9d2-222ecabe49ee"}}]}