{"resourceType":"Bundle","id":"tests-d79d1c9d-5a9c-4f54-8c7c-e61801697c55-bundle","type":"transaction","entry":[{"fullUrl":"https://madie.cms.gov/Patient/d79d1c9d-5a9c-4f54-8c7c-e61801697c55","resource":{"resourceType":"Patient","id":"d79d1c9d-5a9c-4f54-8c7c-e61801697c55","meta":{"profile":["http://hl7.org/fhir/us/qicore/StructureDefinition/qicore-patient"]},"extension":[{"url":"http://hl7.org/fhir/us/core/StructureDefinition/us-core-race","extension":[{"url":"ombCategory","valueCoding":{"system":"urn:oid:2.16.840.1.113883.6.238","code":"2028-9","display":"Asian"}},{"url":"text","valueString":"Asian"}]},{"url":"http://hl7.org/fhir/us/core/StructureDefinition/us-core-ethnicity","extension":[{"url":"ombCategory","valueCoding":{"system":"urn:oid:2.16.840.1.113883.6.238","code":"2135-2","display":"Hispanic or Latino"}},{"url":"text","valueString":"Hispanic or Latino"}]}],"identifier":[{"system":"http://hospital.smarthealthit.org","value":"999999995"}],"name":[{"family":"Bertha","given":["Betty"]}],"gender":"female","birthDate":"2006-01-01"},"request":{"method":"PUT","url":"Patient/d79d1c9d-5a9c-4f54-8c7c-e61801697c55"}},{"fullUrl":"https://madie.cms.gov/Procedure/Procedure-36","resource":{"resourceType":"Procedure","id":"d4f44d95-2c9b-4ee0-bcbb-eb8405736a62","meta":{"profile":["http://hl7.org/fhir/us/qicore/StructureDefinition/qicore-procedure"]},"extension":[{"url":"http://hl7.org/fhir/us/qicore/StructureDefinition/qicore-recorded","valueDateTime":"2023-11-01T00:00:00.000Z"}],"status":"completed","code":{"coding":[{"system":"http://www.cms.gov/Medicare/Coding/ICD10","code":"0SR9019","display":"Replacement of Right Hip Joint with Metal Synthetic Substitute, Cemented, Open Approach"}]},"subject":{"reference":"Patient/d79d1c9d-5a9c-4f54-8c7c-e61801697c55"},"performedPeriod":{"start":"2023-11-01T00:00:00.000Z","end":"2023-11-01T01:00:00.000Z"}},"request":{"method":"PUT","url":"Procedure/d4f44d95-2c9b-4ee0-bcbb-eb8405736a62"}},{"fullUrl":"https://madie.cms.gov/Encounter/Encounter-36","resource":{"resourceType":"Encounter","id":"8a0ef2cb-6383-40c7-aca0-81b606b77d13","meta":{"profile":["http://hl7.org/fhir/us/qicore/StructureDefinition/qicore-encounter"]},"status":"finished","class":{"system":"http://terminology.hl7.org/CodeSystem/v3-ActCode","code":"AMB","display":"ambulatory"},"type":[{"coding":[{"system":"http://snomed.info/sct","code":"281036007","display":"Follow-up consultation (procedure)"}]}],"subject":{"reference":"Patient/d79d1c9d-5a9c-4f54-8c7c-e61801697c55"},"period":{"start":"2024-11-01T00:00:00.000Z","end":"2024-11-01T01:15:00.000Z"}},"request":{"method":"PUT","url":"Encounter/8a0ef2cb-6383-40c7-aca0-81b606b77d13"}},{"fullUrl":"https://madie.cms.gov/Observation/Observation-36.1-1","resource":{"resourceType":"Observation","id":"26d1930c-67ef-4a0d-a83e-3bf1d65b1e52","meta":{"profile":["http://hl7.org/fhir/us/qicore/StructureDefinition/qicore-observation"]},"status":"final","category":[{"coding":[{"system":"http://terminology.hl7.org/CodeSystem/observation-category","code":"survey"}]}],"code":{"coding":[{"system":"http://loinc.org","code":"72093-8","display":"Quality of life score [HOOS]"}]},"subject":{"reference":"Patient/d79d1c9d-5a9c-4f54-8c7c-e61801697c55"},"effectivePeriod":{"start":"2023-08-02T00:00:00.000Z","end":"2023-08-02T01:00:00.000Z"},"valueInteger":60},"request":{"method":"PUT","url":"Observation/26d1930c-67ef-4a0d-a83e-3bf1d65b1e52"}},{"fullUrl":"https://madie.cms.gov/Observation/Observation-36.1-2","resource":{"resourceType":"Observation","id":"0ba9b3ac-84c1-4d7c-b95d-a027cc70dcf8","meta":{"profile":["http://hl7.org/fhir/us/qicore/StructureDefinition/qicore-observation"]},"status":"final","category":[{"coding":[{"system":"http://terminology.hl7.org/CodeSystem/observation-category","code":"survey"}]}],"code":{"coding":[{"system":"http://loinc.org","code":"72094-6","display":"Sport-recreation score [HOOS]"}]},"subject":{"reference":"Patient/d79d1c9d-5a9c-4f54-8c7c-e61801697c55"},"effectivePeriod":{"start":"2023-08-02T00:00:00.000Z","end":"2023-08-02T01:00:00.000Z"},"valueInteger":60},"request":{"method":"PUT","url":"Observation/0ba9b3ac-84c1-4d7c-b95d-a027cc70dcf8"}},{"fullUrl":"https://madie.cms.gov/Observation/Observation-36.1-3","resource":{"resourceType":"Observation","id":"20167624-571a-4c99-a291-63c62d67651e","meta":{"profile":["http://hl7.org/fhir/us/qicore/StructureDefinition/qicore-observation"]},"status":"final","category":[{"coding":[{"system":"http://terminology.hl7.org/CodeSystem/observation-category","code":"survey"}]}],"code":{"coding":[{"system":"http://loinc.org","code":"72095-3","display":"Activities of daily living score [HOOS]"}]},"subject":{"reference":"Patient/d79d1c9d-5a9c-4f54-8c7c-e61801697c55"},"effectivePeriod":{"start":"2023-08-02T00:00:00.000Z","end":"2023-08-02T01:00:00.000Z"},"valueInteger":60},"request":{"method":"PUT","url":"Observation/20167624-571a-4c99-a291-63c62d67651e"}},{"fullUrl":"https://madie.cms.gov/Observation/Observation-36.1-4","resource":{"resourceType":"Observation","id":"b09017d8-fa4e-4c98-8f1b-bb38d63656a3","meta":{"profile":["http://hl7.org/fhir/us/qicore/StructureDefinition/qicore-observation"]},"status":"final","category":[{"coding":[{"system":"http://terminology.hl7.org/CodeSystem/observation-category","code":"survey"}]}],"code":{"coding":[{"system":"http://loinc.org","code":"72096-1","display":"Symptoms score [HOOS]"}]},"subject":{"reference":"Patient/d79d1c9d-5a9c-4f54-8c7c-e61801697c55"},"effectivePeriod":{"start":"2023-08-02T00:00:00.000Z","end":"2023-08-02T01:00:00.000Z"},"valueInteger":60},"request":{"method":"PUT","url":"Observation/b09017d8-fa4e-4c98-8f1b-bb38d63656a3"}},{"fullUrl":"https://madie.cms.gov/Observation/Observation-36.1-5","resource":{"resourceType":"Observation","id":"bae90698-8601-4d8d-8f56-25d8ddb5a27a","meta":{"profile":["http://hl7.org/fhir/us/qicore/StructureDefinition/qicore-observation"]},"status":"final","category":[{"coding":[{"system":"http://terminology.hl7.org/CodeSystem/observation-category","code":"survey"}]}],"code":{"coding":[{"system":"http://loinc.org","code":"72097-9","display":"Pain score [HOOS]"}]},"subject":{"reference":"Patient/d79d1c9d-5a9c-4f54-8c7c-e61801697c55"},"effectivePeriod":{"start":"2023-08-02T00:00:00.000Z","end":"2023-08-02T01:00:00.000Z"},"valueInteger":60},"request":{"method":"PUT","url":"Observation/bae90698-8601-4d8d-8f56-25d8ddb5a27a"}},{"fullUrl":"https://madie.cms.gov/Observation/Observation-36.2-1","resource":{"resourceType":"Observation","id":"bf7fd6b6-94ef-4d4c-abb2-47f52b24ae86","meta":{"profile":["http://hl7.org/fhir/us/qicore/StructureDefinition/qicore-observation"]},"status":"final","category":[{"coding":[{"system":"http://terminology.hl7.org/CodeSystem/observation-category","code":"survey"}]}],"code":{"coding":[{"system":"http://loinc.org","code":"72093-8","display":"Quality of life score [HOOS]"}]},"subject":{"reference":"Patient/d79d1c9d-5a9c-4f54-8c7c-e61801697c55"},"effectivePeriod":{"start":"2024-12-31T00:00:00.000Z","end":"2024-12-31T01:00:00.000Z"},"valueInteger":60},"request":{"method":"PUT","url":"Observation/bf7fd6b6-94ef-4d4c-abb2-47f52b24ae86"}},{"fullUrl":"https://madie.cms.gov/Observation/Observation-36.2-2","resource":{"resourceType":"Observation","id":"19a09bd1-736f-483a-bb5b-03a161731809","meta":{"profile":["http://hl7.org/fhir/us/qicore/StructureDefinition/qicore-observation"]},"status":"final","category":[{"coding":[{"system":"http://terminology.hl7.org/CodeSystem/observation-category","code":"survey"}]}],"code":{"coding":[{"system":"http://loinc.org","code":"72094-6","display":"Sport-recreation score [HOOS]"}]},"subject":{"reference":"Patient/d79d1c9d-5a9c-4f54-8c7c-e61801697c55"},"effectivePeriod":{"start":"2024-12-31T00:00:00.000Z","end":"2024-12-31T01:00:00.000Z"},"valueInteger":60},"request":{"method":"PUT","url":"Observation/19a09bd1-736f-483a-bb5b-03a161731809"}},{"fullUrl":"https://madie.cms.gov/Observation/Observation-36.2-3","resource":{"resourceType":"Observation","id":"8f92a8f3-da54-4edf-b597-c668191c06c1","meta":{"profile":["http://hl7.org/fhir/us/qicore/StructureDefinition/qicore-observation"]},"status":"final","category":[{"coding":[{"system":"http://terminology.hl7.org/CodeSystem/observation-category","code":"survey"}]}],"code":{"coding":[{"system":"http://loinc.org","code":"72095-3","display":"Activities of daily living score [HOOS]"}]},"subject":{"reference":"Patient/d79d1c9d-5a9c-4f54-8c7c-e61801697c55"},"effectivePeriod":{"start":"2024-12-31T00:00:00.000Z","end":"2024-12-31T01:00:00.000Z"},"valueInteger":60},"request":{"method":"PUT","url":"Observation/8f92a8f3-da54-4edf-b597-c668191c06c1"}},{"fullUrl":"https://madie.cms.gov/Observation/Observation-36.2-4","resource":{"resourceType":"Observation","id":"3297dde7-7239-48b8-bf72-35f0daafb17a","meta":{"profile":["http://hl7.org/fhir/us/qicore/StructureDefinition/qicore-observation"]},"status":"final","category":[{"coding":[{"system":"http://terminology.hl7.org/CodeSystem/observation-category","code":"survey"}]}],"code":{"coding":[{"system":"http://loinc.org","code":"72096-1","display":"Symptoms score [HOOS]"}]},"subject":{"reference":"Patient/d79d1c9d-5a9c-4f54-8c7c-e61801697c55"},"effectivePeriod":{"start":"2024-12-31T00:00:00.000Z","end":"2024-12-31T01:00:00.000Z"},"valueInteger":60},"request":{"method":"PUT","url":"Observation/3297dde7-7239-48b8-bf72-35f0daafb17a"}},{"fullUrl":"https://madie.cms.gov/Observation/Observation-36.2-5","resource":{"resourceType":"Observation","id":"dfa870f6-77d1-4cfb-a012-0d2e70af514e","meta":{"profile":["http://hl7.org/fhir/us/qicore/StructureDefinition/qicore-observation"]},"status":"final","category":[{"coding":[{"system":"http://terminology.hl7.org/CodeSystem/observation-category","code":"survey"}]}],"code":{"coding":[{"system":"http://loinc.org","code":"72097-9","display":"Pain score [HOOS]"}]},"subject":{"reference":"Patient/d79d1c9d-5a9c-4f54-8c7c-e61801697c55"},"effectivePeriod":{"start":"2024-12-31T00:00:00.000Z","end":"2024-12-31T01:00:00.000Z"},"valueInteger":60},"request":{"method":"PUT","url":"Observation/dfa870f6-77d1-4cfb-a012-0d2e70af514e"}},{"fullUrl":"https://madie.cms.gov/MeasureReport/537ff646-cde4-4951-8d97-a7f2f551d27a","resource":{"resourceType":"MeasureReport","id":"537ff646-cde4-4951-8d97-a7f2f551d27a","meta":{"profile":["http://hl7.org/fhir/us/cqfmeasures/StructureDefinition/test-case-cqfm"]},"contained":[{"resourceType":"Parameters","id":"5ee9fb9a-bf44-40b8-a4e2-f0202adacc84-parameters","parameter":[{"name":"subject","valueString":"d79d1c9d-5a9c-4f54-8c7c-e61801697c55"}]}],"extension":[{"url":"http://hl7.org/fhir/us/cqfmeasures/StructureDefinition/cqfm-inputParameters","valueReference":{"reference":"#5ee9fb9a-bf44-40b8-a4e2-f0202adacc84-parameters"}},{"url":"http://hl7.org/fhir/us/cqfmeasures/StructureDefinition/cqfm-testCaseDescription","valueMarkdown":"Patient w/ a THA Procedure 11/1, Initial Hip Assessment 91 days before THA Procedure(8/2), and FollowUp Hip Assessment HOOS 425 days after THA Procedure (12/30)"}],"modifierExtension":[{"url":"http://hl7.org/fhir/us/cqfmeasures/StructureDefinition/cqfm-isTestCase","valueBoolean":true}],"status":"complete","type":"individual","measure":"https://madie.cms.gov/Measure/FunctionalStatusAssessmentforTotalHipReplacementFHIR","period":{"start":"2025-01-01","end":"2025-12-31"},"group":[{"population":[{"code":{"coding":[{"system":"http://terminology.hl7.org/CodeSystem/measure-population","code":"initial-population","display":"Initial Population"}]},"count":1},{"code":{"coding":[{"system":"http://terminology.hl7.org/CodeSystem/measure-population","code":"denominator","display":"Denominator"}]},"count":1},{"code":{"coding":[{"system":"http://terminology.hl7.org/CodeSystem/measure-population","code":"denominator-exclusion","display":"Denominator Exclusion"}]},"count":0},{"code":{"coding":[{"system":"http://terminology.hl7.org/CodeSystem/measure-population","code":"numerator","display":"Numerator"}]},"count":0}]}]},"request":{"method":"PUT","url":"MeasureReport/537ff646-cde4-4951-8d97-a7f2f551d27a"}}]}