{"resourceType":"Bundle","id":"tests-50c6997f-0aab-4baa-af63-a2d05a2ad3ac-bundle","type":"transaction","entry":[{"fullUrl":"https://madie.cms.gov/Patient/50c6997f-0aab-4baa-af63-a2d05a2ad3ac","resource":{"resourceType":"Patient","id":"50c6997f-0aab-4baa-af63-a2d05a2ad3ac","meta":{"profile":["http://hl7.org/fhir/us/qicore/StructureDefinition/qicore-patient"]},"extension":[{"url":"http://hl7.org/fhir/us/core/StructureDefinition/us-core-race","extension":[{"url":"ombCategory","valueCoding":{"system":"urn:oid:2.16.840.1.113883.6.238","code":"2028-9","display":"Asian"}},{"url":"text","valueString":"Asian"}]},{"url":"http://hl7.org/fhir/us/core/StructureDefinition/us-core-ethnicity","extension":[{"url":"ombCategory","valueCoding":{"system":"urn:oid:2.16.840.1.113883.6.238","code":"2135-2","display":"Hispanic or Latino"}},{"url":"text","valueString":"Hispanic or Latino"}]}],"identifier":[{"system":"http://hospital.smarthealthit.org","value":"999999995"}],"name":[{"family":"Bertha","given":["Betty"]}],"gender":"female","birthDate":"2006-01-01"},"request":{"method":"PUT","url":"Patient/50c6997f-0aab-4baa-af63-a2d05a2ad3ac"}},{"fullUrl":"https://madie.cms.gov/Procedure/Procedure-33","resource":{"resourceType":"Procedure","id":"73041358-5307-4627-8a78-21c26874c64d","meta":{"profile":["http://hl7.org/fhir/us/qicore/StructureDefinition/qicore-procedure"]},"extension":[{"url":"http://hl7.org/fhir/us/qicore/StructureDefinition/qicore-recorded","valueDateTime":"2023-11-01T00:00:00.000Z"}],"status":"completed","code":{"coding":[{"system":"http://www.cms.gov/Medicare/Coding/ICD10","code":"0SR9019","display":"Replacement of Right Hip Joint with Metal Synthetic Substitute, Cemented, Open Approach"}]},"subject":{"reference":"Patient/50c6997f-0aab-4baa-af63-a2d05a2ad3ac"},"performedPeriod":{"start":"2023-11-01T00:00:00.000Z","end":"2023-11-01T01:00:00.000Z"}},"request":{"method":"PUT","url":"Procedure/73041358-5307-4627-8a78-21c26874c64d"}},{"fullUrl":"https://madie.cms.gov/Encounter/Encounter-33","resource":{"resourceType":"Encounter","id":"fb055c28-abd1-46d8-8df1-5305777479bc","meta":{"profile":["http://hl7.org/fhir/us/qicore/StructureDefinition/qicore-encounter"]},"status":"finished","class":{"system":"http://terminology.hl7.org/CodeSystem/v3-ActCode","code":"AMB","display":"ambulatory"},"type":[{"coding":[{"system":"http://snomed.info/sct","code":"281036007","display":"Follow-up consultation (procedure)"}]}],"subject":{"reference":"Patient/50c6997f-0aab-4baa-af63-a2d05a2ad3ac"},"period":{"start":"2024-11-01T00:00:00.000Z","end":"2024-11-01T01:15:00.000Z"}},"request":{"method":"PUT","url":"Encounter/fb055c28-abd1-46d8-8df1-5305777479bc"}},{"fullUrl":"https://madie.cms.gov/Observation/Observation-33.1-1","resource":{"resourceType":"Observation","id":"82202c3c-9e13-4107-93d6-94f988fabe2e","meta":{"profile":["http://hl7.org/fhir/us/qicore/StructureDefinition/qicore-observation"]},"status":"final","category":[{"coding":[{"system":"http://terminology.hl7.org/CodeSystem/observation-category","code":"survey"}]}],"code":{"coding":[{"system":"http://loinc.org","code":"72093-8","display":"Quality of life score [HOOS]"}]},"subject":{"reference":"Patient/50c6997f-0aab-4baa-af63-a2d05a2ad3ac"},"effectivePeriod":{"start":"2023-08-03T00:00:00.000Z","end":"2023-08-03T01:00:00.000Z"},"valueInteger":60},"request":{"method":"PUT","url":"Observation/82202c3c-9e13-4107-93d6-94f988fabe2e"}},{"fullUrl":"https://madie.cms.gov/Observation/Observation-33.1-2","resource":{"resourceType":"Observation","id":"8c957f4d-869f-4b00-907d-96179e9a6058","meta":{"profile":["http://hl7.org/fhir/us/qicore/StructureDefinition/qicore-observation"]},"status":"final","category":[{"coding":[{"system":"http://terminology.hl7.org/CodeSystem/observation-category","code":"survey"}]}],"code":{"coding":[{"system":"http://loinc.org","code":"72094-6","display":"Sport-recreation score [HOOS]"}]},"subject":{"reference":"Patient/50c6997f-0aab-4baa-af63-a2d05a2ad3ac"},"effectivePeriod":{"start":"2023-08-03T00:00:00.000Z","end":"2023-08-03T01:00:00.000Z"},"valueInteger":60},"request":{"method":"PUT","url":"Observation/8c957f4d-869f-4b00-907d-96179e9a6058"}},{"fullUrl":"https://madie.cms.gov/Observation/Observation-33.1-3","resource":{"resourceType":"Observation","id":"11633c86-ec87-4bb8-8db2-df214656aaa2","meta":{"profile":["http://hl7.org/fhir/us/qicore/StructureDefinition/qicore-observation"]},"status":"final","category":[{"coding":[{"system":"http://terminology.hl7.org/CodeSystem/observation-category","code":"survey"}]}],"code":{"coding":[{"system":"http://loinc.org","code":"72095-3","display":"Activities of daily living score [HOOS]"}]},"subject":{"reference":"Patient/50c6997f-0aab-4baa-af63-a2d05a2ad3ac"},"effectivePeriod":{"start":"2023-08-03T00:00:00.000Z","end":"2023-08-03T01:00:00.000Z"},"valueInteger":60},"request":{"method":"PUT","url":"Observation/11633c86-ec87-4bb8-8db2-df214656aaa2"}},{"fullUrl":"https://madie.cms.gov/Observation/Observation-33.1-4","resource":{"resourceType":"Observation","id":"a7551880-4512-4b86-bbd8-81f5955b1f79","meta":{"profile":["http://hl7.org/fhir/us/qicore/StructureDefinition/qicore-observation"]},"status":"final","category":[{"coding":[{"system":"http://terminology.hl7.org/CodeSystem/observation-category","code":"survey"}]}],"code":{"coding":[{"system":"http://loinc.org","code":"72096-1","display":"Symptoms score [HOOS]"}]},"subject":{"reference":"Patient/50c6997f-0aab-4baa-af63-a2d05a2ad3ac"},"effectivePeriod":{"start":"2023-08-03T00:00:00.000Z","end":"2023-08-03T01:00:00.000Z"},"valueInteger":60},"request":{"method":"PUT","url":"Observation/a7551880-4512-4b86-bbd8-81f5955b1f79"}},{"fullUrl":"https://madie.cms.gov/Observation/Observation-33.1-5","resource":{"resourceType":"Observation","id":"c4956aa8-2608-4ee6-942d-64b5c6466797","meta":{"profile":["http://hl7.org/fhir/us/qicore/StructureDefinition/qicore-observation"]},"status":"final","category":[{"coding":[{"system":"http://terminology.hl7.org/CodeSystem/observation-category","code":"survey"}]}],"code":{"coding":[{"system":"http://loinc.org","code":"72097-9","display":"Pain score [HOOS]"}]},"subject":{"reference":"Patient/50c6997f-0aab-4baa-af63-a2d05a2ad3ac"},"effectivePeriod":{"start":"2023-08-03T00:00:00.000Z","end":"2023-08-03T01:00:00.000Z"},"valueInteger":60},"request":{"method":"PUT","url":"Observation/c4956aa8-2608-4ee6-942d-64b5c6466797"}},{"fullUrl":"https://madie.cms.gov/Observation/Observation-33.2-1","resource":{"resourceType":"Observation","id":"20101011-c19d-40e1-a844-a51c403d9a56","meta":{"profile":["http://hl7.org/fhir/us/qicore/StructureDefinition/qicore-observation"]},"status":"final","category":[{"coding":[{"system":"http://terminology.hl7.org/CodeSystem/observation-category","code":"survey"}]}],"code":{"coding":[{"system":"http://loinc.org","code":"72093-8","display":"Quality of life score [HOOS]"}]},"subject":{"reference":"Patient/50c6997f-0aab-4baa-af63-a2d05a2ad3ac"},"effectivePeriod":{"start":"2024-12-30T00:00:00.000Z","end":"2024-12-30T01:00:00.000Z"},"valueInteger":60},"request":{"method":"PUT","url":"Observation/20101011-c19d-40e1-a844-a51c403d9a56"}},{"fullUrl":"https://madie.cms.gov/Observation/Observation-33.2-2","resource":{"resourceType":"Observation","id":"7bb1956b-f8ff-476a-9636-fe952d8fa4fd","meta":{"profile":["http://hl7.org/fhir/us/qicore/StructureDefinition/qicore-observation"]},"status":"final","category":[{"coding":[{"system":"http://terminology.hl7.org/CodeSystem/observation-category","code":"survey"}]}],"code":{"coding":[{"system":"http://loinc.org","code":"72094-6","display":"Sport-recreation score [HOOS]"}]},"subject":{"reference":"Patient/50c6997f-0aab-4baa-af63-a2d05a2ad3ac"},"effectivePeriod":{"start":"2024-12-30T00:00:00.000Z","end":"2024-12-30T01:00:00.000Z"},"valueInteger":60},"request":{"method":"PUT","url":"Observation/7bb1956b-f8ff-476a-9636-fe952d8fa4fd"}},{"fullUrl":"https://madie.cms.gov/Observation/Observation-33.2-3","resource":{"resourceType":"Observation","id":"6376cbb2-410f-4be4-b5f1-94b33ad57994","meta":{"profile":["http://hl7.org/fhir/us/qicore/StructureDefinition/qicore-observation"]},"status":"final","category":[{"coding":[{"system":"http://terminology.hl7.org/CodeSystem/observation-category","code":"survey"}]}],"code":{"coding":[{"system":"http://loinc.org","code":"72095-3","display":"Activities of daily living score [HOOS]"}]},"subject":{"reference":"Patient/50c6997f-0aab-4baa-af63-a2d05a2ad3ac"},"effectivePeriod":{"start":"2024-12-30T00:00:00.000Z","end":"2024-12-30T01:00:00.000Z"},"valueInteger":60},"request":{"method":"PUT","url":"Observation/6376cbb2-410f-4be4-b5f1-94b33ad57994"}},{"fullUrl":"https://madie.cms.gov/Observation/Observation-33.2-4","resource":{"resourceType":"Observation","id":"ed962731-3aee-44aa-950a-ec2f0eabf49e","meta":{"profile":["http://hl7.org/fhir/us/qicore/StructureDefinition/qicore-observation"]},"status":"final","category":[{"coding":[{"system":"http://terminology.hl7.org/CodeSystem/observation-category","code":"survey"}]}],"code":{"coding":[{"system":"http://loinc.org","code":"72096-1","display":"Symptoms score [HOOS]"}]},"subject":{"reference":"Patient/50c6997f-0aab-4baa-af63-a2d05a2ad3ac"},"effectivePeriod":{"start":"2024-12-30T00:00:00.000Z","end":"2024-12-30T01:00:00.000Z"},"valueInteger":60},"request":{"method":"PUT","url":"Observation/ed962731-3aee-44aa-950a-ec2f0eabf49e"}},{"fullUrl":"https://madie.cms.gov/Observation/Observation-33.2-5","resource":{"resourceType":"Observation","id":"72407905-0745-457d-99a4-134274fe2b33","meta":{"profile":["http://hl7.org/fhir/us/qicore/StructureDefinition/qicore-observation"]},"status":"final","category":[{"coding":[{"system":"http://terminology.hl7.org/CodeSystem/observation-category","code":"survey"}]}],"code":{"coding":[{"system":"http://loinc.org","code":"72097-9","display":"Pain score [HOOS]"}]},"subject":{"reference":"Patient/50c6997f-0aab-4baa-af63-a2d05a2ad3ac"},"effectivePeriod":{"start":"2024-12-30T00:00:00.000Z","end":"2024-12-30T01:00:00.000Z"},"valueInteger":60},"request":{"method":"PUT","url":"Observation/72407905-0745-457d-99a4-134274fe2b33"}},{"fullUrl":"https://madie.cms.gov/MeasureReport/12c3cceb-8269-496a-8b47-19c7eca0a1c6","resource":{"resourceType":"MeasureReport","id":"12c3cceb-8269-496a-8b47-19c7eca0a1c6","meta":{"profile":["http://hl7.org/fhir/us/cqfmeasures/StructureDefinition/test-case-cqfm"]},"contained":[{"resourceType":"Parameters","id":"83ccdcc8-1283-4e94-93bd-2d6820d5afaa-parameters","parameter":[{"name":"subject","valueString":"50c6997f-0aab-4baa-af63-a2d05a2ad3ac"}]}],"extension":[{"url":"http://hl7.org/fhir/us/cqfmeasures/StructureDefinition/cqfm-inputParameters","valueReference":{"reference":"#83ccdcc8-1283-4e94-93bd-2d6820d5afaa-parameters"}},{"url":"http://hl7.org/fhir/us/cqfmeasures/StructureDefinition/cqfm-testCaseDescription","valueMarkdown":"Patient w/ a THA Procedure 11/1, Initial Hip Assessment 90 days before THA Procedure(8/3), and FollowUp Hip Assessment HOOS 425 days after THA Procedure (12/30)"}],"modifierExtension":[{"url":"http://hl7.org/fhir/us/cqfmeasures/StructureDefinition/cqfm-isTestCase","valueBoolean":true}],"status":"complete","type":"individual","measure":"https://madie.cms.gov/Measure/FunctionalStatusAssessmentforTotalHipReplacementFHIR","period":{"start":"2025-01-01","end":"2025-12-31"},"group":[{"population":[{"code":{"coding":[{"system":"http://terminology.hl7.org/CodeSystem/measure-population","code":"initial-population","display":"Initial Population"}]},"count":1},{"code":{"coding":[{"system":"http://terminology.hl7.org/CodeSystem/measure-population","code":"denominator","display":"Denominator"}]},"count":1},{"code":{"coding":[{"system":"http://terminology.hl7.org/CodeSystem/measure-population","code":"denominator-exclusion","display":"Denominator Exclusion"}]},"count":0},{"code":{"coding":[{"system":"http://terminology.hl7.org/CodeSystem/measure-population","code":"numerator","display":"Numerator"}]},"count":1}]}]},"request":{"method":"PUT","url":"MeasureReport/12c3cceb-8269-496a-8b47-19c7eca0a1c6"}}]}