{"resourceType":"Bundle","id":"tests-98493a07-9ac2-4760-b215-bda012ce1877-bundle","type":"transaction","entry":[{"fullUrl":"https://madie.cms.gov/Patient/98493a07-9ac2-4760-b215-bda012ce1877","resource":{"resourceType":"Patient","id":"98493a07-9ac2-4760-b215-bda012ce1877","meta":{"profile":["http://hl7.org/fhir/us/qicore/StructureDefinition/qicore-patient"]},"extension":[{"url":"http://hl7.org/fhir/us/core/StructureDefinition/us-core-race","extension":[{"url":"ombCategory","valueCoding":{"system":"urn:oid:2.16.840.1.113883.6.238","code":"2028-9","display":"Asian"}},{"url":"text","valueString":"Asian"}]},{"url":"http://hl7.org/fhir/us/core/StructureDefinition/us-core-ethnicity","extension":[{"url":"ombCategory","valueCoding":{"system":"urn:oid:2.16.840.1.113883.6.238","code":"2135-2","display":"Hispanic or Latino"}},{"url":"text","valueString":"Hispanic or Latino"}]}],"identifier":[{"system":"http://hospital.smarthealthit.org","value":"999999995"}],"name":[{"family":"Bertha","given":["Betty"]}],"gender":"female","birthDate":"2006-01-01"},"request":{"method":"PUT","url":"Patient/98493a07-9ac2-4760-b215-bda012ce1877"}},{"fullUrl":"https://madie.cms.gov/Procedure/Procedure-31","resource":{"resourceType":"Procedure","id":"25bd13f4-a21b-40c1-a539-62eb15f6b02c","meta":{"profile":["http://hl7.org/fhir/us/qicore/StructureDefinition/qicore-procedure"]},"extension":[{"url":"http://hl7.org/fhir/us/qicore/StructureDefinition/qicore-recorded","valueDateTime":"2023-11-01T00:00:00.000Z"}],"status":"completed","code":{"coding":[{"system":"http://www.cms.gov/Medicare/Coding/ICD10","code":"0SR9019","display":"Replacement of Right Hip Joint with Metal Synthetic Substitute, Cemented, Open Approach"}]},"subject":{"reference":"Patient/98493a07-9ac2-4760-b215-bda012ce1877"},"performedPeriod":{"start":"2023-11-01T00:00:00.000Z","end":"2023-11-01T01:00:00.000Z"}},"request":{"method":"PUT","url":"Procedure/25bd13f4-a21b-40c1-a539-62eb15f6b02c"}},{"fullUrl":"https://madie.cms.gov/Encounter/Encounter-31","resource":{"resourceType":"Encounter","id":"c635dbe5-d152-4446-a955-980ae6f56abc","meta":{"profile":["http://hl7.org/fhir/us/qicore/StructureDefinition/qicore-encounter"]},"status":"finished","class":{"system":"http://terminology.hl7.org/CodeSystem/v3-ActCode","code":"AMB","display":"ambulatory"},"type":[{"coding":[{"system":"http://snomed.info/sct","code":"281036007","display":"Follow-up consultation (procedure)"}]}],"subject":{"reference":"Patient/98493a07-9ac2-4760-b215-bda012ce1877"},"period":{"start":"2024-11-01T00:00:00.000Z","end":"2024-11-01T01:15:00.000Z"}},"request":{"method":"PUT","url":"Encounter/c635dbe5-d152-4446-a955-980ae6f56abc"}},{"fullUrl":"https://madie.cms.gov/Observation/Observation-31.1-1","resource":{"resourceType":"Observation","id":"b5d54066-a256-4aec-9655-909c79683933","meta":{"profile":["http://hl7.org/fhir/us/qicore/StructureDefinition/qicore-observation"]},"status":"final","category":[{"coding":[{"system":"http://terminology.hl7.org/CodeSystem/observation-category","code":"survey"}]}],"code":{"coding":[{"system":"http://loinc.org","code":"72093-8","display":"Quality of life score [HOOS]"}]},"subject":{"reference":"Patient/98493a07-9ac2-4760-b215-bda012ce1877"},"effectivePeriod":{"start":"2023-11-01T00:00:00.000Z","end":"2023-11-01T01:00:00.000Z"},"valueInteger":60},"request":{"method":"PUT","url":"Observation/b5d54066-a256-4aec-9655-909c79683933"}},{"fullUrl":"https://madie.cms.gov/Observation/Observation-31.1-2","resource":{"resourceType":"Observation","id":"7aac6a9c-04f8-4fbf-88f6-4716b22eb722","meta":{"profile":["http://hl7.org/fhir/us/qicore/StructureDefinition/qicore-observation"]},"status":"final","category":[{"coding":[{"system":"http://terminology.hl7.org/CodeSystem/observation-category","code":"survey"}]}],"code":{"coding":[{"system":"http://loinc.org","code":"72094-6","display":"Sport-recreation score [HOOS]"}]},"subject":{"reference":"Patient/98493a07-9ac2-4760-b215-bda012ce1877"},"effectivePeriod":{"start":"2023-11-01T00:00:00.000Z","end":"2023-11-01T01:00:00.000Z"},"valueInteger":60},"request":{"method":"PUT","url":"Observation/7aac6a9c-04f8-4fbf-88f6-4716b22eb722"}},{"fullUrl":"https://madie.cms.gov/Observation/Observation-31.1-3","resource":{"resourceType":"Observation","id":"963ec7d9-9650-438a-a67a-a7d9256092aa","meta":{"profile":["http://hl7.org/fhir/us/qicore/StructureDefinition/qicore-observation"]},"status":"final","category":[{"coding":[{"system":"http://terminology.hl7.org/CodeSystem/observation-category","code":"survey"}]}],"code":{"coding":[{"system":"http://loinc.org","code":"72095-3","display":"Activities of daily living score [HOOS]"}]},"subject":{"reference":"Patient/98493a07-9ac2-4760-b215-bda012ce1877"},"effectivePeriod":{"start":"2023-11-01T00:00:00.000Z","end":"2023-11-01T01:00:00.000Z"},"valueInteger":60},"request":{"method":"PUT","url":"Observation/963ec7d9-9650-438a-a67a-a7d9256092aa"}},{"fullUrl":"https://madie.cms.gov/Observation/Observation-31.1-4","resource":{"resourceType":"Observation","id":"5e0fc6fb-cfde-4c59-b80f-ba600f41533f","meta":{"profile":["http://hl7.org/fhir/us/qicore/StructureDefinition/qicore-observation"]},"status":"final","category":[{"coding":[{"system":"http://terminology.hl7.org/CodeSystem/observation-category","code":"survey"}]}],"code":{"coding":[{"system":"http://loinc.org","code":"72096-1","display":"Symptoms score [HOOS]"}]},"subject":{"reference":"Patient/98493a07-9ac2-4760-b215-bda012ce1877"},"effectivePeriod":{"start":"2023-11-01T00:00:00.000Z","end":"2023-11-01T01:00:00.000Z"},"valueInteger":60},"request":{"method":"PUT","url":"Observation/5e0fc6fb-cfde-4c59-b80f-ba600f41533f"}},{"fullUrl":"https://madie.cms.gov/Observation/Observation-31.1-5","resource":{"resourceType":"Observation","id":"944c8778-9cef-4fd2-9aa6-f619aa448af0","meta":{"profile":["http://hl7.org/fhir/us/qicore/StructureDefinition/qicore-observation"]},"status":"final","category":[{"coding":[{"system":"http://terminology.hl7.org/CodeSystem/observation-category","code":"survey"}]}],"code":{"coding":[{"system":"http://loinc.org","code":"72097-9","display":"Pain score [HOOS]"}]},"subject":{"reference":"Patient/98493a07-9ac2-4760-b215-bda012ce1877"},"effectivePeriod":{"start":"2023-11-01T00:00:00.000Z","end":"2023-11-01T01:00:00.000Z"},"valueInteger":60},"request":{"method":"PUT","url":"Observation/944c8778-9cef-4fd2-9aa6-f619aa448af0"}},{"fullUrl":"https://madie.cms.gov/Observation/Observation-31.2-1","resource":{"resourceType":"Observation","id":"ab30e894-e067-4a9a-81b8-27d83be1ef42","meta":{"profile":["http://hl7.org/fhir/us/qicore/StructureDefinition/qicore-observation"]},"status":"final","category":[{"coding":[{"system":"http://terminology.hl7.org/CodeSystem/observation-category","code":"survey"}]}],"code":{"coding":[{"system":"http://loinc.org","code":"72093-8","display":"Quality of life score [HOOS]"}]},"subject":{"reference":"Patient/98493a07-9ac2-4760-b215-bda012ce1877"},"effectivePeriod":{"start":"2024-08-27T00:00:00.000Z","end":"2024-08-27T01:00:00.000Z"},"valueInteger":60},"request":{"method":"PUT","url":"Observation/ab30e894-e067-4a9a-81b8-27d83be1ef42"}},{"fullUrl":"https://madie.cms.gov/Observation/Observation-31.2-2","resource":{"resourceType":"Observation","id":"0175d202-40fe-4615-9185-5c7f131e52af","meta":{"profile":["http://hl7.org/fhir/us/qicore/StructureDefinition/qicore-observation"]},"status":"final","category":[{"coding":[{"system":"http://terminology.hl7.org/CodeSystem/observation-category","code":"survey"}]}],"code":{"coding":[{"system":"http://loinc.org","code":"72094-6","display":"Sport-recreation score [HOOS]"}]},"subject":{"reference":"Patient/98493a07-9ac2-4760-b215-bda012ce1877"},"effectivePeriod":{"start":"2024-08-27T00:00:00.000Z","end":"2024-08-27T01:00:00.000Z"},"valueInteger":60},"request":{"method":"PUT","url":"Observation/0175d202-40fe-4615-9185-5c7f131e52af"}},{"fullUrl":"https://madie.cms.gov/Observation/Observation-31.2-3","resource":{"resourceType":"Observation","id":"63322735-77da-4721-bd91-6feec5f12efa","meta":{"profile":["http://hl7.org/fhir/us/qicore/StructureDefinition/qicore-observation"]},"status":"final","category":[{"coding":[{"system":"http://terminology.hl7.org/CodeSystem/observation-category","code":"survey"}]}],"code":{"coding":[{"system":"http://loinc.org","code":"72095-3","display":"Activities of daily living score [HOOS]"}]},"subject":{"reference":"Patient/98493a07-9ac2-4760-b215-bda012ce1877"},"effectivePeriod":{"start":"2024-08-27T00:00:00.000Z","end":"2024-08-27T01:00:00.000Z"},"valueInteger":60},"request":{"method":"PUT","url":"Observation/63322735-77da-4721-bd91-6feec5f12efa"}},{"fullUrl":"https://madie.cms.gov/Observation/Observation-31.2-4","resource":{"resourceType":"Observation","id":"d79b9536-016b-48a8-829e-2b04df70fd46","meta":{"profile":["http://hl7.org/fhir/us/qicore/StructureDefinition/qicore-observation"]},"status":"final","category":[{"coding":[{"system":"http://terminology.hl7.org/CodeSystem/observation-category","code":"survey"}]}],"code":{"coding":[{"system":"http://loinc.org","code":"72096-1","display":"Symptoms score [HOOS]"}]},"subject":{"reference":"Patient/98493a07-9ac2-4760-b215-bda012ce1877"},"effectivePeriod":{"start":"2024-08-27T00:00:00.000Z","end":"2024-08-27T01:00:00.000Z"},"valueInteger":60},"request":{"method":"PUT","url":"Observation/d79b9536-016b-48a8-829e-2b04df70fd46"}},{"fullUrl":"https://madie.cms.gov/Observation/Observation-31.2-5","resource":{"resourceType":"Observation","id":"1e6886c2-587b-4be9-a103-96a07d461733","meta":{"profile":["http://hl7.org/fhir/us/qicore/StructureDefinition/qicore-observation"]},"status":"final","category":[{"coding":[{"system":"http://terminology.hl7.org/CodeSystem/observation-category","code":"survey"}]}],"code":{"coding":[{"system":"http://loinc.org","code":"72097-9","display":"Pain score [HOOS]"}]},"subject":{"reference":"Patient/98493a07-9ac2-4760-b215-bda012ce1877"},"effectivePeriod":{"start":"2024-08-27T00:00:00.000Z","end":"2024-08-27T01:00:00.000Z"},"valueInteger":60},"request":{"method":"PUT","url":"Observation/1e6886c2-587b-4be9-a103-96a07d461733"}},{"fullUrl":"https://madie.cms.gov/MeasureReport/aa9f78a4-bbc2-4d62-a6ce-f00b075d4fc9","resource":{"resourceType":"MeasureReport","id":"aa9f78a4-bbc2-4d62-a6ce-f00b075d4fc9","meta":{"profile":["http://hl7.org/fhir/us/cqfmeasures/StructureDefinition/test-case-cqfm"]},"contained":[{"resourceType":"Parameters","id":"3a9afb0c-4326-4a08-941e-a3e0a660dda7-parameters","parameter":[{"name":"subject","valueString":"98493a07-9ac2-4760-b215-bda012ce1877"}]}],"extension":[{"url":"http://hl7.org/fhir/us/cqfmeasures/StructureDefinition/cqfm-inputParameters","valueReference":{"reference":"#3a9afb0c-4326-4a08-941e-a3e0a660dda7-parameters"}},{"url":"http://hl7.org/fhir/us/cqfmeasures/StructureDefinition/cqfm-testCaseDescription","valueMarkdown":"Patient w/ a THA Procedure 11/1, Initial Hip Assessment HOOS Same day as THA Procedure(11/1), and FollowUp Hip Assessment HOOS 300 days after THA Procedure (8/27)"}],"modifierExtension":[{"url":"http://hl7.org/fhir/us/cqfmeasures/StructureDefinition/cqfm-isTestCase","valueBoolean":true}],"status":"complete","type":"individual","measure":"https://madie.cms.gov/Measure/FunctionalStatusAssessmentforTotalHipReplacementFHIR","period":{"start":"2025-01-01","end":"2025-12-31"},"group":[{"population":[{"code":{"coding":[{"system":"http://terminology.hl7.org/CodeSystem/measure-population","code":"initial-population","display":"Initial Population"}]},"count":1},{"code":{"coding":[{"system":"http://terminology.hl7.org/CodeSystem/measure-population","code":"denominator","display":"Denominator"}]},"count":1},{"code":{"coding":[{"system":"http://terminology.hl7.org/CodeSystem/measure-population","code":"denominator-exclusion","display":"Denominator Exclusion"}]},"count":0},{"code":{"coding":[{"system":"http://terminology.hl7.org/CodeSystem/measure-population","code":"numerator","display":"Numerator"}]},"count":1}]}]},"request":{"method":"PUT","url":"MeasureReport/aa9f78a4-bbc2-4d62-a6ce-f00b075d4fc9"}}]}