{"resourceType":"Bundle","id":"tests-7f657b60-128b-4453-b085-73e8b21a48cc-bundle","type":"transaction","entry":[{"fullUrl":"https://madie.cms.gov/Patient/7f657b60-128b-4453-b085-73e8b21a48cc","resource":{"resourceType":"Patient","id":"7f657b60-128b-4453-b085-73e8b21a48cc","meta":{"profile":["http://hl7.org/fhir/us/qicore/StructureDefinition/qicore-patient"]},"extension":[{"url":"http://hl7.org/fhir/us/core/StructureDefinition/us-core-race","extension":[{"url":"ombCategory","valueCoding":{"system":"urn:oid:2.16.840.1.113883.6.238","code":"2028-9","display":"Asian"}},{"url":"text","valueString":"Asian"}]},{"url":"http://hl7.org/fhir/us/core/StructureDefinition/us-core-ethnicity","extension":[{"url":"ombCategory","valueCoding":{"system":"urn:oid:2.16.840.1.113883.6.238","code":"2135-2","display":"Hispanic or Latino"}},{"url":"text","valueString":"Hispanic or Latino"}]}],"identifier":[{"system":"http://hospital.smarthealthit.org","value":"999999995"}],"name":[{"family":"Bertha","given":["Betty"]}],"gender":"female","birthDate":"2006-01-01"},"request":{"method":"PUT","url":"Patient/7f657b60-128b-4453-b085-73e8b21a48cc"}},{"fullUrl":"https://madie.cms.gov/Procedure/Procedure-34","resource":{"resourceType":"Procedure","id":"a96d2fb8-9948-47e4-ac0b-c44326cc06da","meta":{"profile":["http://hl7.org/fhir/us/qicore/StructureDefinition/qicore-procedure"]},"extension":[{"url":"http://hl7.org/fhir/us/qicore/StructureDefinition/qicore-recorded","valueDateTime":"2023-11-01T00:00:00.000Z"}],"status":"completed","code":{"coding":[{"system":"http://www.cms.gov/Medicare/Coding/ICD10","code":"0SR9019","display":"Replacement of Right Hip Joint with Metal Synthetic Substitute, Cemented, Open Approach"}]},"subject":{"reference":"Patient/7f657b60-128b-4453-b085-73e8b21a48cc"},"performedPeriod":{"start":"2023-11-01T00:00:00.000Z","end":"2023-11-01T01:00:00.000Z"}},"request":{"method":"PUT","url":"Procedure/a96d2fb8-9948-47e4-ac0b-c44326cc06da"}},{"fullUrl":"https://madie.cms.gov/Encounter/Encounter-34","resource":{"resourceType":"Encounter","id":"2b731ad1-1d21-4671-9663-a26781bfe591","meta":{"profile":["http://hl7.org/fhir/us/qicore/StructureDefinition/qicore-encounter"]},"status":"finished","class":{"system":"http://terminology.hl7.org/CodeSystem/v3-ActCode","code":"AMB","display":"ambulatory"},"type":[{"coding":[{"system":"http://snomed.info/sct","code":"281036007","display":"Follow-up consultation (procedure)"}]}],"subject":{"reference":"Patient/7f657b60-128b-4453-b085-73e8b21a48cc"},"period":{"start":"2024-11-01T00:00:00.000Z","end":"2024-11-01T01:15:00.000Z"}},"request":{"method":"PUT","url":"Encounter/2b731ad1-1d21-4671-9663-a26781bfe591"}},{"fullUrl":"https://madie.cms.gov/Observation/Observation-34.1-1","resource":{"resourceType":"Observation","id":"ae717d92-88ce-48ba-a441-6bf6ac4f8345","meta":{"profile":["http://hl7.org/fhir/us/qicore/StructureDefinition/qicore-observation"]},"status":"final","category":[{"coding":[{"system":"http://terminology.hl7.org/CodeSystem/observation-category","code":"survey"}]}],"code":{"coding":[{"system":"http://loinc.org","code":"72093-8","display":"Quality of life score [HOOS]"}]},"subject":{"reference":"Patient/7f657b60-128b-4453-b085-73e8b21a48cc"},"effectivePeriod":{"start":"2023-08-02T00:00:00.000Z","end":"2023-08-02T01:00:00.000Z"},"valueInteger":60},"request":{"method":"PUT","url":"Observation/ae717d92-88ce-48ba-a441-6bf6ac4f8345"}},{"fullUrl":"https://madie.cms.gov/Observation/Observation-34.1-2","resource":{"resourceType":"Observation","id":"580d00da-0359-4e26-8e16-752edd7cdbf6","meta":{"profile":["http://hl7.org/fhir/us/qicore/StructureDefinition/qicore-observation"]},"status":"final","category":[{"coding":[{"system":"http://terminology.hl7.org/CodeSystem/observation-category","code":"survey"}]}],"code":{"coding":[{"system":"http://loinc.org","code":"72094-6","display":"Sport-recreation score [HOOS]"}]},"subject":{"reference":"Patient/7f657b60-128b-4453-b085-73e8b21a48cc"},"effectivePeriod":{"start":"2023-08-02T00:00:00.000Z","end":"2023-08-02T01:00:00.000Z"},"valueInteger":60},"request":{"method":"PUT","url":"Observation/580d00da-0359-4e26-8e16-752edd7cdbf6"}},{"fullUrl":"https://madie.cms.gov/Observation/Observation-34.1-3","resource":{"resourceType":"Observation","id":"a083ed0a-c5c1-4bb9-8bd0-9edc32461898","meta":{"profile":["http://hl7.org/fhir/us/qicore/StructureDefinition/qicore-observation"]},"status":"final","category":[{"coding":[{"system":"http://terminology.hl7.org/CodeSystem/observation-category","code":"survey"}]}],"code":{"coding":[{"system":"http://loinc.org","code":"72095-3","display":"Activities of daily living score [HOOS]"}]},"subject":{"reference":"Patient/7f657b60-128b-4453-b085-73e8b21a48cc"},"effectivePeriod":{"start":"2023-08-02T00:00:00.000Z","end":"2023-08-02T01:00:00.000Z"},"valueInteger":60},"request":{"method":"PUT","url":"Observation/a083ed0a-c5c1-4bb9-8bd0-9edc32461898"}},{"fullUrl":"https://madie.cms.gov/Observation/Observation-34.1-4","resource":{"resourceType":"Observation","id":"55631223-236b-4d9f-a66a-85c6e0c1c881","meta":{"profile":["http://hl7.org/fhir/us/qicore/StructureDefinition/qicore-observation"]},"status":"final","category":[{"coding":[{"system":"http://terminology.hl7.org/CodeSystem/observation-category","code":"survey"}]}],"code":{"coding":[{"system":"http://loinc.org","code":"72096-1","display":"Symptoms score [HOOS]"}]},"subject":{"reference":"Patient/7f657b60-128b-4453-b085-73e8b21a48cc"},"effectivePeriod":{"start":"2023-08-02T00:00:00.000Z","end":"2023-08-02T01:00:00.000Z"},"valueInteger":60},"request":{"method":"PUT","url":"Observation/55631223-236b-4d9f-a66a-85c6e0c1c881"}},{"fullUrl":"https://madie.cms.gov/Observation/Observation-34.1-5","resource":{"resourceType":"Observation","id":"2a20ca14-115b-464d-bbd1-28d3fa6eccc1","meta":{"profile":["http://hl7.org/fhir/us/qicore/StructureDefinition/qicore-observation"]},"status":"final","category":[{"coding":[{"system":"http://terminology.hl7.org/CodeSystem/observation-category","code":"survey"}]}],"code":{"coding":[{"system":"http://loinc.org","code":"72097-9","display":"Pain score [HOOS]"}]},"subject":{"reference":"Patient/7f657b60-128b-4453-b085-73e8b21a48cc"},"effectivePeriod":{"start":"2023-08-02T00:00:00.000Z","end":"2023-08-02T01:00:00.000Z"},"valueInteger":60},"request":{"method":"PUT","url":"Observation/2a20ca14-115b-464d-bbd1-28d3fa6eccc1"}},{"fullUrl":"https://madie.cms.gov/Observation/Observation-34.2-1","resource":{"resourceType":"Observation","id":"5c86b64f-d4c7-48a2-a4a0-a4f3b8e66590","meta":{"profile":["http://hl7.org/fhir/us/qicore/StructureDefinition/qicore-observation"]},"status":"final","category":[{"coding":[{"system":"http://terminology.hl7.org/CodeSystem/observation-category","code":"survey"}]}],"code":{"coding":[{"system":"http://loinc.org","code":"72093-8","display":"Quality of life score [HOOS]"}]},"subject":{"reference":"Patient/7f657b60-128b-4453-b085-73e8b21a48cc"},"effectivePeriod":{"start":"2024-12-30T00:00:00.000Z","end":"2024-12-30T01:00:00.000Z"},"valueInteger":60},"request":{"method":"PUT","url":"Observation/5c86b64f-d4c7-48a2-a4a0-a4f3b8e66590"}},{"fullUrl":"https://madie.cms.gov/Observation/Observation-34.2-2","resource":{"resourceType":"Observation","id":"0c61d1d5-1e2d-4b61-ad4f-ba58246cacd4","meta":{"profile":["http://hl7.org/fhir/us/qicore/StructureDefinition/qicore-observation"]},"status":"final","category":[{"coding":[{"system":"http://terminology.hl7.org/CodeSystem/observation-category","code":"survey"}]}],"code":{"coding":[{"system":"http://loinc.org","code":"72094-6","display":"Sport-recreation score [HOOS]"}]},"subject":{"reference":"Patient/7f657b60-128b-4453-b085-73e8b21a48cc"},"effectivePeriod":{"start":"2024-12-30T00:00:00.000Z","end":"2024-12-30T01:00:00.000Z"},"valueInteger":60},"request":{"method":"PUT","url":"Observation/0c61d1d5-1e2d-4b61-ad4f-ba58246cacd4"}},{"fullUrl":"https://madie.cms.gov/Observation/Observation-34.2-3","resource":{"resourceType":"Observation","id":"cbb44815-e28b-4319-90bd-73c9802cd6d9","meta":{"profile":["http://hl7.org/fhir/us/qicore/StructureDefinition/qicore-observation"]},"status":"final","category":[{"coding":[{"system":"http://terminology.hl7.org/CodeSystem/observation-category","code":"survey"}]}],"code":{"coding":[{"system":"http://loinc.org","code":"72095-3","display":"Activities of daily living score [HOOS]"}]},"subject":{"reference":"Patient/7f657b60-128b-4453-b085-73e8b21a48cc"},"effectivePeriod":{"start":"2024-12-30T00:00:00.000Z","end":"2024-12-30T01:00:00.000Z"},"valueInteger":60},"request":{"method":"PUT","url":"Observation/cbb44815-e28b-4319-90bd-73c9802cd6d9"}},{"fullUrl":"https://madie.cms.gov/Observation/Observation-34.2-4","resource":{"resourceType":"Observation","id":"96e486e7-2732-4d59-9b6c-be8805748e85","meta":{"profile":["http://hl7.org/fhir/us/qicore/StructureDefinition/qicore-observation"]},"status":"final","category":[{"coding":[{"system":"http://terminology.hl7.org/CodeSystem/observation-category","code":"survey"}]}],"code":{"coding":[{"system":"http://loinc.org","code":"72096-1","display":"Symptoms score [HOOS]"}]},"subject":{"reference":"Patient/7f657b60-128b-4453-b085-73e8b21a48cc"},"effectivePeriod":{"start":"2024-12-30T00:00:00.000Z","end":"2024-12-30T01:00:00.000Z"},"valueInteger":60},"request":{"method":"PUT","url":"Observation/96e486e7-2732-4d59-9b6c-be8805748e85"}},{"fullUrl":"https://madie.cms.gov/Observation/Observation-34.2-5","resource":{"resourceType":"Observation","id":"0ffeebe7-5a31-4bd3-ae3b-8800a6a43090","meta":{"profile":["http://hl7.org/fhir/us/qicore/StructureDefinition/qicore-observation"]},"status":"final","category":[{"coding":[{"system":"http://terminology.hl7.org/CodeSystem/observation-category","code":"survey"}]}],"code":{"coding":[{"system":"http://loinc.org","code":"72097-9","display":"Pain score [HOOS]"}]},"subject":{"reference":"Patient/7f657b60-128b-4453-b085-73e8b21a48cc"},"effectivePeriod":{"start":"2024-12-30T00:00:00.000Z","end":"2024-12-30T01:00:00.000Z"},"valueInteger":60},"request":{"method":"PUT","url":"Observation/0ffeebe7-5a31-4bd3-ae3b-8800a6a43090"}},{"fullUrl":"https://madie.cms.gov/MeasureReport/0b9913ba-8752-41ab-8b1e-6675a3844926","resource":{"resourceType":"MeasureReport","id":"0b9913ba-8752-41ab-8b1e-6675a3844926","meta":{"profile":["http://hl7.org/fhir/us/cqfmeasures/StructureDefinition/test-case-cqfm"]},"contained":[{"resourceType":"Parameters","id":"1a0a3836-fc61-4a6b-b9a0-2484babc9869-parameters","parameter":[{"name":"subject","valueString":"7f657b60-128b-4453-b085-73e8b21a48cc"}]}],"extension":[{"url":"http://hl7.org/fhir/us/cqfmeasures/StructureDefinition/cqfm-inputParameters","valueReference":{"reference":"#1a0a3836-fc61-4a6b-b9a0-2484babc9869-parameters"}},{"url":"http://hl7.org/fhir/us/cqfmeasures/StructureDefinition/cqfm-testCaseDescription","valueMarkdown":"Patient w/ a THA Procedure 11/1, Initial Hip Assessment 91 days before THA Procedure(8/2), and FollowUp Hip Assessment HOOS 425 days after THA Procedure (12/30)\""}],"modifierExtension":[{"url":"http://hl7.org/fhir/us/cqfmeasures/StructureDefinition/cqfm-isTestCase","valueBoolean":true}],"status":"complete","type":"individual","measure":"https://madie.cms.gov/Measure/FunctionalStatusAssessmentforTotalHipReplacementFHIR","period":{"start":"2025-01-01","end":"2025-12-31"},"group":[{"population":[{"code":{"coding":[{"system":"http://terminology.hl7.org/CodeSystem/measure-population","code":"initial-population","display":"Initial Population"}]},"count":1},{"code":{"coding":[{"system":"http://terminology.hl7.org/CodeSystem/measure-population","code":"denominator","display":"Denominator"}]},"count":1},{"code":{"coding":[{"system":"http://terminology.hl7.org/CodeSystem/measure-population","code":"denominator-exclusion","display":"Denominator Exclusion"}]},"count":0},{"code":{"coding":[{"system":"http://terminology.hl7.org/CodeSystem/measure-population","code":"numerator","display":"Numerator"}]},"count":0}]}]},"request":{"method":"PUT","url":"MeasureReport/0b9913ba-8752-41ab-8b1e-6675a3844926"}}]}