{"resourceType":"Bundle","id":"tests-d79d1c9d-5a9c-4f54-8c7c-e61801697c55-bundle","type":"transaction","entry":[{"fullUrl":"https://madie.cms.gov/Patient/d79d1c9d-5a9c-4f54-8c7c-e61801697c55","resource":{"resourceType":"Patient","id":"d79d1c9d-5a9c-4f54-8c7c-e61801697c55","meta":{"profile":["http://hl7.org/fhir/us/qicore/StructureDefinition/qicore-patient"]},"extension":[{"url":"http://hl7.org/fhir/us/core/StructureDefinition/us-core-race","extension":[{"url":"ombCategory","valueCoding":{"system":"urn:oid:2.16.840.1.113883.6.238","code":"2028-9","display":"Asian"}},{"url":"text","valueString":"Asian"}]},{"url":"http://hl7.org/fhir/us/core/StructureDefinition/us-core-ethnicity","extension":[{"url":"ombCategory","valueCoding":{"system":"urn:oid:2.16.840.1.113883.6.238","code":"2135-2","display":"Hispanic or Latino"}},{"url":"text","valueString":"Hispanic or Latino"}]}],"identifier":[{"system":"http://hospital.smarthealthit.org","value":"999999995"}],"name":[{"family":"Bertha","given":["Betty"]}],"gender":"female","birthDate":"2006-01-01"},"request":{"method":"PUT","url":"Patient/d79d1c9d-5a9c-4f54-8c7c-e61801697c55"}},{"fullUrl":"https://madie.cms.gov/Procedure/Procedure-36","resource":{"resourceType":"Procedure","id":"33be2d12-dca1-4dfe-aa5f-c252b8ff417d","meta":{"profile":["http://hl7.org/fhir/us/qicore/StructureDefinition/qicore-procedure"]},"extension":[{"url":"http://hl7.org/fhir/us/qicore/StructureDefinition/qicore-recorded","valueDateTime":"2023-11-01T00:00:00.000Z"}],"status":"completed","code":{"coding":[{"system":"http://www.cms.gov/Medicare/Coding/ICD10","code":"0SR9019","display":"Replacement of Right Hip Joint with Metal Synthetic Substitute, Cemented, Open Approach"}]},"subject":{"reference":"Patient/d79d1c9d-5a9c-4f54-8c7c-e61801697c55"},"performedPeriod":{"start":"2023-11-01T00:00:00.000Z","end":"2023-11-01T01:00:00.000Z"}},"request":{"method":"PUT","url":"Procedure/33be2d12-dca1-4dfe-aa5f-c252b8ff417d"}},{"fullUrl":"https://madie.cms.gov/Encounter/Encounter-36","resource":{"resourceType":"Encounter","id":"46650f56-01e2-4004-86b2-6d74db59368f","meta":{"profile":["http://hl7.org/fhir/us/qicore/StructureDefinition/qicore-encounter"]},"status":"finished","class":{"system":"http://terminology.hl7.org/CodeSystem/v3-ActCode","code":"AMB","display":"ambulatory"},"type":[{"coding":[{"system":"http://snomed.info/sct","code":"281036007","display":"Follow-up consultation (procedure)"}]}],"subject":{"reference":"Patient/d79d1c9d-5a9c-4f54-8c7c-e61801697c55"},"period":{"start":"2024-11-01T00:00:00.000Z","end":"2024-11-01T01:15:00.000Z"}},"request":{"method":"PUT","url":"Encounter/46650f56-01e2-4004-86b2-6d74db59368f"}},{"fullUrl":"https://madie.cms.gov/Observation/Observation-36.1-1","resource":{"resourceType":"Observation","id":"5179465e-335e-42b2-b60c-fc807953a055","meta":{"profile":["http://hl7.org/fhir/us/qicore/StructureDefinition/qicore-observation"]},"status":"final","category":[{"coding":[{"system":"http://terminology.hl7.org/CodeSystem/observation-category","code":"survey"}]}],"code":{"coding":[{"system":"http://loinc.org","code":"72093-8","display":"Quality of life score [HOOS]"}]},"subject":{"reference":"Patient/d79d1c9d-5a9c-4f54-8c7c-e61801697c55"},"effectivePeriod":{"start":"2023-08-02T00:00:00.000Z","end":"2023-08-02T01:00:00.000Z"},"valueInteger":60},"request":{"method":"PUT","url":"Observation/5179465e-335e-42b2-b60c-fc807953a055"}},{"fullUrl":"https://madie.cms.gov/Observation/Observation-36.1-2","resource":{"resourceType":"Observation","id":"cfbd7049-0ad4-4a63-9210-3f334851c756","meta":{"profile":["http://hl7.org/fhir/us/qicore/StructureDefinition/qicore-observation"]},"status":"final","category":[{"coding":[{"system":"http://terminology.hl7.org/CodeSystem/observation-category","code":"survey"}]}],"code":{"coding":[{"system":"http://loinc.org","code":"72094-6","display":"Sport-recreation score [HOOS]"}]},"subject":{"reference":"Patient/d79d1c9d-5a9c-4f54-8c7c-e61801697c55"},"effectivePeriod":{"start":"2023-08-02T00:00:00.000Z","end":"2023-08-02T01:00:00.000Z"},"valueInteger":60},"request":{"method":"PUT","url":"Observation/cfbd7049-0ad4-4a63-9210-3f334851c756"}},{"fullUrl":"https://madie.cms.gov/Observation/Observation-36.1-3","resource":{"resourceType":"Observation","id":"4a45124a-c68b-4268-abc1-2aa5b3b8f63e","meta":{"profile":["http://hl7.org/fhir/us/qicore/StructureDefinition/qicore-observation"]},"status":"final","category":[{"coding":[{"system":"http://terminology.hl7.org/CodeSystem/observation-category","code":"survey"}]}],"code":{"coding":[{"system":"http://loinc.org","code":"72095-3","display":"Activities of daily living score [HOOS]"}]},"subject":{"reference":"Patient/d79d1c9d-5a9c-4f54-8c7c-e61801697c55"},"effectivePeriod":{"start":"2023-08-02T00:00:00.000Z","end":"2023-08-02T01:00:00.000Z"},"valueInteger":60},"request":{"method":"PUT","url":"Observation/4a45124a-c68b-4268-abc1-2aa5b3b8f63e"}},{"fullUrl":"https://madie.cms.gov/Observation/Observation-36.1-4","resource":{"resourceType":"Observation","id":"f6306adb-c475-4e97-97b3-0fa64ae34816","meta":{"profile":["http://hl7.org/fhir/us/qicore/StructureDefinition/qicore-observation"]},"status":"final","category":[{"coding":[{"system":"http://terminology.hl7.org/CodeSystem/observation-category","code":"survey"}]}],"code":{"coding":[{"system":"http://loinc.org","code":"72096-1","display":"Symptoms score [HOOS]"}]},"subject":{"reference":"Patient/d79d1c9d-5a9c-4f54-8c7c-e61801697c55"},"effectivePeriod":{"start":"2023-08-02T00:00:00.000Z","end":"2023-08-02T01:00:00.000Z"},"valueInteger":60},"request":{"method":"PUT","url":"Observation/f6306adb-c475-4e97-97b3-0fa64ae34816"}},{"fullUrl":"https://madie.cms.gov/Observation/Observation-36.1-5","resource":{"resourceType":"Observation","id":"8df02d03-d43c-49ee-bc12-7efe32e8a6b9","meta":{"profile":["http://hl7.org/fhir/us/qicore/StructureDefinition/qicore-observation"]},"status":"final","category":[{"coding":[{"system":"http://terminology.hl7.org/CodeSystem/observation-category","code":"survey"}]}],"code":{"coding":[{"system":"http://loinc.org","code":"72097-9","display":"Pain score [HOOS]"}]},"subject":{"reference":"Patient/d79d1c9d-5a9c-4f54-8c7c-e61801697c55"},"effectivePeriod":{"start":"2023-08-02T00:00:00.000Z","end":"2023-08-02T01:00:00.000Z"},"valueInteger":60},"request":{"method":"PUT","url":"Observation/8df02d03-d43c-49ee-bc12-7efe32e8a6b9"}},{"fullUrl":"https://madie.cms.gov/Observation/Observation-36.2-1","resource":{"resourceType":"Observation","id":"16f85899-7fa7-4bcf-aa42-c527af20798c","meta":{"profile":["http://hl7.org/fhir/us/qicore/StructureDefinition/qicore-observation"]},"status":"final","category":[{"coding":[{"system":"http://terminology.hl7.org/CodeSystem/observation-category","code":"survey"}]}],"code":{"coding":[{"system":"http://loinc.org","code":"72093-8","display":"Quality of life score [HOOS]"}]},"subject":{"reference":"Patient/d79d1c9d-5a9c-4f54-8c7c-e61801697c55"},"effectivePeriod":{"start":"2024-12-31T00:00:00.000Z","end":"2024-12-31T01:00:00.000Z"},"valueInteger":60},"request":{"method":"PUT","url":"Observation/16f85899-7fa7-4bcf-aa42-c527af20798c"}},{"fullUrl":"https://madie.cms.gov/Observation/Observation-36.2-2","resource":{"resourceType":"Observation","id":"f842cb16-0f67-4263-837e-31da63dbd1d1","meta":{"profile":["http://hl7.org/fhir/us/qicore/StructureDefinition/qicore-observation"]},"status":"final","category":[{"coding":[{"system":"http://terminology.hl7.org/CodeSystem/observation-category","code":"survey"}]}],"code":{"coding":[{"system":"http://loinc.org","code":"72094-6","display":"Sport-recreation score [HOOS]"}]},"subject":{"reference":"Patient/d79d1c9d-5a9c-4f54-8c7c-e61801697c55"},"effectivePeriod":{"start":"2024-12-31T00:00:00.000Z","end":"2024-12-31T01:00:00.000Z"},"valueInteger":60},"request":{"method":"PUT","url":"Observation/f842cb16-0f67-4263-837e-31da63dbd1d1"}},{"fullUrl":"https://madie.cms.gov/Observation/Observation-36.2-3","resource":{"resourceType":"Observation","id":"6bfdd474-e980-4b00-8a0e-38f610590cc7","meta":{"profile":["http://hl7.org/fhir/us/qicore/StructureDefinition/qicore-observation"]},"status":"final","category":[{"coding":[{"system":"http://terminology.hl7.org/CodeSystem/observation-category","code":"survey"}]}],"code":{"coding":[{"system":"http://loinc.org","code":"72095-3","display":"Activities of daily living score [HOOS]"}]},"subject":{"reference":"Patient/d79d1c9d-5a9c-4f54-8c7c-e61801697c55"},"effectivePeriod":{"start":"2024-12-31T00:00:00.000Z","end":"2024-12-31T01:00:00.000Z"},"valueInteger":60},"request":{"method":"PUT","url":"Observation/6bfdd474-e980-4b00-8a0e-38f610590cc7"}},{"fullUrl":"https://madie.cms.gov/Observation/Observation-36.2-4","resource":{"resourceType":"Observation","id":"2346322b-2053-41a6-afb7-3476f48f763f","meta":{"profile":["http://hl7.org/fhir/us/qicore/StructureDefinition/qicore-observation"]},"status":"final","category":[{"coding":[{"system":"http://terminology.hl7.org/CodeSystem/observation-category","code":"survey"}]}],"code":{"coding":[{"system":"http://loinc.org","code":"72096-1","display":"Symptoms score [HOOS]"}]},"subject":{"reference":"Patient/d79d1c9d-5a9c-4f54-8c7c-e61801697c55"},"effectivePeriod":{"start":"2024-12-31T00:00:00.000Z","end":"2024-12-31T01:00:00.000Z"},"valueInteger":60},"request":{"method":"PUT","url":"Observation/2346322b-2053-41a6-afb7-3476f48f763f"}},{"fullUrl":"https://madie.cms.gov/Observation/Observation-36.2-5","resource":{"resourceType":"Observation","id":"752a9bd0-10ad-4254-b0dc-a82e70a7f2ea","meta":{"profile":["http://hl7.org/fhir/us/qicore/StructureDefinition/qicore-observation"]},"status":"final","category":[{"coding":[{"system":"http://terminology.hl7.org/CodeSystem/observation-category","code":"survey"}]}],"code":{"coding":[{"system":"http://loinc.org","code":"72097-9","display":"Pain score [HOOS]"}]},"subject":{"reference":"Patient/d79d1c9d-5a9c-4f54-8c7c-e61801697c55"},"effectivePeriod":{"start":"2024-12-31T00:00:00.000Z","end":"2024-12-31T01:00:00.000Z"},"valueInteger":60},"request":{"method":"PUT","url":"Observation/752a9bd0-10ad-4254-b0dc-a82e70a7f2ea"}},{"fullUrl":"https://madie.cms.gov/MeasureReport/537ff646-cde4-4951-8d97-a7f2f551d27a","resource":{"resourceType":"MeasureReport","id":"537ff646-cde4-4951-8d97-a7f2f551d27a","meta":{"profile":["http://hl7.org/fhir/us/cqfmeasures/StructureDefinition/test-case-cqfm"]},"contained":[{"resourceType":"Parameters","id":"5ee9fb9a-bf44-40b8-a4e2-f0202adacc84-parameters","parameter":[{"name":"subject","valueString":"d79d1c9d-5a9c-4f54-8c7c-e61801697c55"}]}],"extension":[{"url":"http://hl7.org/fhir/us/cqfmeasures/StructureDefinition/cqfm-inputParameters","valueReference":{"reference":"#5ee9fb9a-bf44-40b8-a4e2-f0202adacc84-parameters"}},{"url":"http://hl7.org/fhir/us/cqfmeasures/StructureDefinition/cqfm-testCaseDescription","valueMarkdown":"Patient w/ a THA Procedure 11/1, Initial Hip Assessment 91 days before THA Procedure(8/2), and FollowUp Hip Assessment HOOS 425 days after THA Procedure (12/30)"}],"modifierExtension":[{"url":"http://hl7.org/fhir/us/cqfmeasures/StructureDefinition/cqfm-isTestCase","valueBoolean":true}],"status":"complete","type":"individual","measure":"https://madie.cms.gov/Measure/FunctionalStatusAssessmentforTotalHipReplacementFHIR","period":{"start":"2025-01-01","end":"2025-12-31"},"group":[{"population":[{"code":{"coding":[{"system":"http://terminology.hl7.org/CodeSystem/measure-population","code":"initial-population","display":"Initial Population"}]},"count":1},{"code":{"coding":[{"system":"http://terminology.hl7.org/CodeSystem/measure-population","code":"denominator","display":"Denominator"}]},"count":1},{"code":{"coding":[{"system":"http://terminology.hl7.org/CodeSystem/measure-population","code":"denominator-exclusion","display":"Denominator Exclusion"}]},"count":0},{"code":{"coding":[{"system":"http://terminology.hl7.org/CodeSystem/measure-population","code":"numerator","display":"Numerator"}]},"count":0}]}]},"request":{"method":"PUT","url":"MeasureReport/537ff646-cde4-4951-8d97-a7f2f551d27a"}}]}