{"resourceType":"Bundle","id":"tests-50c6997f-0aab-4baa-af63-a2d05a2ad3ac-bundle","type":"transaction","entry":[{"fullUrl":"https://madie.cms.gov/Patient/50c6997f-0aab-4baa-af63-a2d05a2ad3ac","resource":{"resourceType":"Patient","id":"50c6997f-0aab-4baa-af63-a2d05a2ad3ac","meta":{"profile":["http://hl7.org/fhir/us/qicore/StructureDefinition/qicore-patient"]},"extension":[{"url":"http://hl7.org/fhir/us/core/StructureDefinition/us-core-race","extension":[{"url":"ombCategory","valueCoding":{"system":"urn:oid:2.16.840.1.113883.6.238","code":"2028-9","display":"Asian"}},{"url":"text","valueString":"Asian"}]},{"url":"http://hl7.org/fhir/us/core/StructureDefinition/us-core-ethnicity","extension":[{"url":"ombCategory","valueCoding":{"system":"urn:oid:2.16.840.1.113883.6.238","code":"2135-2","display":"Hispanic or Latino"}},{"url":"text","valueString":"Hispanic or Latino"}]}],"identifier":[{"system":"http://hospital.smarthealthit.org","value":"999999995"}],"name":[{"family":"Bertha","given":["Betty"]}],"gender":"female","birthDate":"2006-01-01"},"request":{"method":"PUT","url":"Patient/50c6997f-0aab-4baa-af63-a2d05a2ad3ac"}},{"fullUrl":"https://madie.cms.gov/Procedure/Procedure-33","resource":{"resourceType":"Procedure","id":"30a70c15-6700-4287-8561-11c319174458","meta":{"profile":["http://hl7.org/fhir/us/qicore/StructureDefinition/qicore-procedure"]},"extension":[{"url":"http://hl7.org/fhir/us/qicore/StructureDefinition/qicore-recorded","valueDateTime":"2023-11-01T00:00:00.000Z"}],"status":"completed","code":{"coding":[{"system":"http://www.cms.gov/Medicare/Coding/ICD10","code":"0SR9019","display":"Replacement of Right Hip Joint with Metal Synthetic Substitute, Cemented, Open Approach"}]},"subject":{"reference":"Patient/50c6997f-0aab-4baa-af63-a2d05a2ad3ac"},"performedPeriod":{"start":"2023-11-01T00:00:00.000Z","end":"2023-11-01T01:00:00.000Z"}},"request":{"method":"PUT","url":"Procedure/30a70c15-6700-4287-8561-11c319174458"}},{"fullUrl":"https://madie.cms.gov/Encounter/Encounter-33","resource":{"resourceType":"Encounter","id":"dae7adba-36ee-41d8-a445-60d6a8d7a74f","meta":{"profile":["http://hl7.org/fhir/us/qicore/StructureDefinition/qicore-encounter"]},"status":"finished","class":{"system":"http://terminology.hl7.org/CodeSystem/v3-ActCode","code":"AMB","display":"ambulatory"},"type":[{"coding":[{"system":"http://snomed.info/sct","code":"281036007","display":"Follow-up consultation (procedure)"}]}],"subject":{"reference":"Patient/50c6997f-0aab-4baa-af63-a2d05a2ad3ac"},"period":{"start":"2024-11-01T00:00:00.000Z","end":"2024-11-01T01:15:00.000Z"}},"request":{"method":"PUT","url":"Encounter/dae7adba-36ee-41d8-a445-60d6a8d7a74f"}},{"fullUrl":"https://madie.cms.gov/Observation/Observation-33.1-1","resource":{"resourceType":"Observation","id":"be469a81-983c-4cfc-b3b0-cfa4846491ab","meta":{"profile":["http://hl7.org/fhir/us/qicore/StructureDefinition/qicore-observation"]},"status":"final","category":[{"coding":[{"system":"http://terminology.hl7.org/CodeSystem/observation-category","code":"survey"}]}],"code":{"coding":[{"system":"http://loinc.org","code":"72093-8","display":"Quality of life score [HOOS]"}]},"subject":{"reference":"Patient/50c6997f-0aab-4baa-af63-a2d05a2ad3ac"},"effectivePeriod":{"start":"2023-08-03T00:00:00.000Z","end":"2023-08-03T01:00:00.000Z"},"valueInteger":60},"request":{"method":"PUT","url":"Observation/be469a81-983c-4cfc-b3b0-cfa4846491ab"}},{"fullUrl":"https://madie.cms.gov/Observation/Observation-33.1-2","resource":{"resourceType":"Observation","id":"d0be0f4c-0089-4fc3-b03a-573751199779","meta":{"profile":["http://hl7.org/fhir/us/qicore/StructureDefinition/qicore-observation"]},"status":"final","category":[{"coding":[{"system":"http://terminology.hl7.org/CodeSystem/observation-category","code":"survey"}]}],"code":{"coding":[{"system":"http://loinc.org","code":"72094-6","display":"Sport-recreation score [HOOS]"}]},"subject":{"reference":"Patient/50c6997f-0aab-4baa-af63-a2d05a2ad3ac"},"effectivePeriod":{"start":"2023-08-03T00:00:00.000Z","end":"2023-08-03T01:00:00.000Z"},"valueInteger":60},"request":{"method":"PUT","url":"Observation/d0be0f4c-0089-4fc3-b03a-573751199779"}},{"fullUrl":"https://madie.cms.gov/Observation/Observation-33.1-3","resource":{"resourceType":"Observation","id":"fbe51a3c-5e91-4666-996e-050b55a75d11","meta":{"profile":["http://hl7.org/fhir/us/qicore/StructureDefinition/qicore-observation"]},"status":"final","category":[{"coding":[{"system":"http://terminology.hl7.org/CodeSystem/observation-category","code":"survey"}]}],"code":{"coding":[{"system":"http://loinc.org","code":"72095-3","display":"Activities of daily living score [HOOS]"}]},"subject":{"reference":"Patient/50c6997f-0aab-4baa-af63-a2d05a2ad3ac"},"effectivePeriod":{"start":"2023-08-03T00:00:00.000Z","end":"2023-08-03T01:00:00.000Z"},"valueInteger":60},"request":{"method":"PUT","url":"Observation/fbe51a3c-5e91-4666-996e-050b55a75d11"}},{"fullUrl":"https://madie.cms.gov/Observation/Observation-33.1-4","resource":{"resourceType":"Observation","id":"c231d58a-bff8-4da7-83ab-f36fc295edbf","meta":{"profile":["http://hl7.org/fhir/us/qicore/StructureDefinition/qicore-observation"]},"status":"final","category":[{"coding":[{"system":"http://terminology.hl7.org/CodeSystem/observation-category","code":"survey"}]}],"code":{"coding":[{"system":"http://loinc.org","code":"72096-1","display":"Symptoms score [HOOS]"}]},"subject":{"reference":"Patient/50c6997f-0aab-4baa-af63-a2d05a2ad3ac"},"effectivePeriod":{"start":"2023-08-03T00:00:00.000Z","end":"2023-08-03T01:00:00.000Z"},"valueInteger":60},"request":{"method":"PUT","url":"Observation/c231d58a-bff8-4da7-83ab-f36fc295edbf"}},{"fullUrl":"https://madie.cms.gov/Observation/Observation-33.1-5","resource":{"resourceType":"Observation","id":"1c73e6fb-6eb1-4f44-9386-68c2cc6a182a","meta":{"profile":["http://hl7.org/fhir/us/qicore/StructureDefinition/qicore-observation"]},"status":"final","category":[{"coding":[{"system":"http://terminology.hl7.org/CodeSystem/observation-category","code":"survey"}]}],"code":{"coding":[{"system":"http://loinc.org","code":"72097-9","display":"Pain score [HOOS]"}]},"subject":{"reference":"Patient/50c6997f-0aab-4baa-af63-a2d05a2ad3ac"},"effectivePeriod":{"start":"2023-08-03T00:00:00.000Z","end":"2023-08-03T01:00:00.000Z"},"valueInteger":60},"request":{"method":"PUT","url":"Observation/1c73e6fb-6eb1-4f44-9386-68c2cc6a182a"}},{"fullUrl":"https://madie.cms.gov/Observation/Observation-33.2-1","resource":{"resourceType":"Observation","id":"0560517c-a943-45ec-b4c9-d0811722ad70","meta":{"profile":["http://hl7.org/fhir/us/qicore/StructureDefinition/qicore-observation"]},"status":"final","category":[{"coding":[{"system":"http://terminology.hl7.org/CodeSystem/observation-category","code":"survey"}]}],"code":{"coding":[{"system":"http://loinc.org","code":"72093-8","display":"Quality of life score [HOOS]"}]},"subject":{"reference":"Patient/50c6997f-0aab-4baa-af63-a2d05a2ad3ac"},"effectivePeriod":{"start":"2024-12-30T00:00:00.000Z","end":"2024-12-30T01:00:00.000Z"},"valueInteger":60},"request":{"method":"PUT","url":"Observation/0560517c-a943-45ec-b4c9-d0811722ad70"}},{"fullUrl":"https://madie.cms.gov/Observation/Observation-33.2-2","resource":{"resourceType":"Observation","id":"e2872061-439d-4ec5-a49f-aab1b16be8ff","meta":{"profile":["http://hl7.org/fhir/us/qicore/StructureDefinition/qicore-observation"]},"status":"final","category":[{"coding":[{"system":"http://terminology.hl7.org/CodeSystem/observation-category","code":"survey"}]}],"code":{"coding":[{"system":"http://loinc.org","code":"72094-6","display":"Sport-recreation score [HOOS]"}]},"subject":{"reference":"Patient/50c6997f-0aab-4baa-af63-a2d05a2ad3ac"},"effectivePeriod":{"start":"2024-12-30T00:00:00.000Z","end":"2024-12-30T01:00:00.000Z"},"valueInteger":60},"request":{"method":"PUT","url":"Observation/e2872061-439d-4ec5-a49f-aab1b16be8ff"}},{"fullUrl":"https://madie.cms.gov/Observation/Observation-33.2-3","resource":{"resourceType":"Observation","id":"be0d268c-83c7-47a1-8929-9ac32a7ece10","meta":{"profile":["http://hl7.org/fhir/us/qicore/StructureDefinition/qicore-observation"]},"status":"final","category":[{"coding":[{"system":"http://terminology.hl7.org/CodeSystem/observation-category","code":"survey"}]}],"code":{"coding":[{"system":"http://loinc.org","code":"72095-3","display":"Activities of daily living score [HOOS]"}]},"subject":{"reference":"Patient/50c6997f-0aab-4baa-af63-a2d05a2ad3ac"},"effectivePeriod":{"start":"2024-12-30T00:00:00.000Z","end":"2024-12-30T01:00:00.000Z"},"valueInteger":60},"request":{"method":"PUT","url":"Observation/be0d268c-83c7-47a1-8929-9ac32a7ece10"}},{"fullUrl":"https://madie.cms.gov/Observation/Observation-33.2-4","resource":{"resourceType":"Observation","id":"bb93ab48-8495-46cb-8232-7470535c917b","meta":{"profile":["http://hl7.org/fhir/us/qicore/StructureDefinition/qicore-observation"]},"status":"final","category":[{"coding":[{"system":"http://terminology.hl7.org/CodeSystem/observation-category","code":"survey"}]}],"code":{"coding":[{"system":"http://loinc.org","code":"72096-1","display":"Symptoms score [HOOS]"}]},"subject":{"reference":"Patient/50c6997f-0aab-4baa-af63-a2d05a2ad3ac"},"effectivePeriod":{"start":"2024-12-30T00:00:00.000Z","end":"2024-12-30T01:00:00.000Z"},"valueInteger":60},"request":{"method":"PUT","url":"Observation/bb93ab48-8495-46cb-8232-7470535c917b"}},{"fullUrl":"https://madie.cms.gov/Observation/Observation-33.2-5","resource":{"resourceType":"Observation","id":"b90f07a5-0f4c-4a80-9a22-734e177d2e7f","meta":{"profile":["http://hl7.org/fhir/us/qicore/StructureDefinition/qicore-observation"]},"status":"final","category":[{"coding":[{"system":"http://terminology.hl7.org/CodeSystem/observation-category","code":"survey"}]}],"code":{"coding":[{"system":"http://loinc.org","code":"72097-9","display":"Pain score [HOOS]"}]},"subject":{"reference":"Patient/50c6997f-0aab-4baa-af63-a2d05a2ad3ac"},"effectivePeriod":{"start":"2024-12-30T00:00:00.000Z","end":"2024-12-30T01:00:00.000Z"},"valueInteger":60},"request":{"method":"PUT","url":"Observation/b90f07a5-0f4c-4a80-9a22-734e177d2e7f"}},{"fullUrl":"https://madie.cms.gov/MeasureReport/12c3cceb-8269-496a-8b47-19c7eca0a1c6","resource":{"resourceType":"MeasureReport","id":"12c3cceb-8269-496a-8b47-19c7eca0a1c6","meta":{"profile":["http://hl7.org/fhir/us/cqfmeasures/StructureDefinition/test-case-cqfm"]},"contained":[{"resourceType":"Parameters","id":"83ccdcc8-1283-4e94-93bd-2d6820d5afaa-parameters","parameter":[{"name":"subject","valueString":"50c6997f-0aab-4baa-af63-a2d05a2ad3ac"}]}],"extension":[{"url":"http://hl7.org/fhir/us/cqfmeasures/StructureDefinition/cqfm-inputParameters","valueReference":{"reference":"#83ccdcc8-1283-4e94-93bd-2d6820d5afaa-parameters"}},{"url":"http://hl7.org/fhir/us/cqfmeasures/StructureDefinition/cqfm-testCaseDescription","valueMarkdown":"Patient w/ a THA Procedure 11/1, Initial Hip Assessment 90 days before THA Procedure(8/3), and FollowUp Hip Assessment HOOS 425 days after THA Procedure (12/30)"}],"modifierExtension":[{"url":"http://hl7.org/fhir/us/cqfmeasures/StructureDefinition/cqfm-isTestCase","valueBoolean":true}],"status":"complete","type":"individual","measure":"https://madie.cms.gov/Measure/FunctionalStatusAssessmentforTotalHipReplacementFHIR","period":{"start":"2025-01-01","end":"2025-12-31"},"group":[{"population":[{"code":{"coding":[{"system":"http://terminology.hl7.org/CodeSystem/measure-population","code":"initial-population","display":"Initial Population"}]},"count":1},{"code":{"coding":[{"system":"http://terminology.hl7.org/CodeSystem/measure-population","code":"denominator","display":"Denominator"}]},"count":1},{"code":{"coding":[{"system":"http://terminology.hl7.org/CodeSystem/measure-population","code":"denominator-exclusion","display":"Denominator Exclusion"}]},"count":0},{"code":{"coding":[{"system":"http://terminology.hl7.org/CodeSystem/measure-population","code":"numerator","display":"Numerator"}]},"count":1}]}]},"request":{"method":"PUT","url":"MeasureReport/12c3cceb-8269-496a-8b47-19c7eca0a1c6"}}]}