{"resourceType":"Bundle","id":"tests-98493a07-9ac2-4760-b215-bda012ce1877-bundle","type":"transaction","entry":[{"fullUrl":"https://madie.cms.gov/Patient/98493a07-9ac2-4760-b215-bda012ce1877","resource":{"resourceType":"Patient","id":"98493a07-9ac2-4760-b215-bda012ce1877","meta":{"profile":["http://hl7.org/fhir/us/qicore/StructureDefinition/qicore-patient"]},"extension":[{"url":"http://hl7.org/fhir/us/core/StructureDefinition/us-core-race","extension":[{"url":"ombCategory","valueCoding":{"system":"urn:oid:2.16.840.1.113883.6.238","code":"2028-9","display":"Asian"}},{"url":"text","valueString":"Asian"}]},{"url":"http://hl7.org/fhir/us/core/StructureDefinition/us-core-ethnicity","extension":[{"url":"ombCategory","valueCoding":{"system":"urn:oid:2.16.840.1.113883.6.238","code":"2135-2","display":"Hispanic or Latino"}},{"url":"text","valueString":"Hispanic or Latino"}]}],"identifier":[{"system":"http://hospital.smarthealthit.org","value":"999999995"}],"name":[{"family":"Bertha","given":["Betty"]}],"gender":"female","birthDate":"2006-01-01"},"request":{"method":"PUT","url":"Patient/98493a07-9ac2-4760-b215-bda012ce1877"}},{"fullUrl":"https://madie.cms.gov/Procedure/Procedure-31","resource":{"resourceType":"Procedure","id":"c9c838ce-eead-4e3b-8796-148e6d4a5f9e","meta":{"profile":["http://hl7.org/fhir/us/qicore/StructureDefinition/qicore-procedure"]},"extension":[{"url":"http://hl7.org/fhir/us/qicore/StructureDefinition/qicore-recorded","valueDateTime":"2023-11-01T00:00:00.000Z"}],"status":"completed","code":{"coding":[{"system":"http://www.cms.gov/Medicare/Coding/ICD10","code":"0SR9019","display":"Replacement of Right Hip Joint with Metal Synthetic Substitute, Cemented, Open Approach"}]},"subject":{"reference":"Patient/98493a07-9ac2-4760-b215-bda012ce1877"},"performedPeriod":{"start":"2023-11-01T00:00:00.000Z","end":"2023-11-01T01:00:00.000Z"}},"request":{"method":"PUT","url":"Procedure/c9c838ce-eead-4e3b-8796-148e6d4a5f9e"}},{"fullUrl":"https://madie.cms.gov/Encounter/Encounter-31","resource":{"resourceType":"Encounter","id":"5710a627-fe05-4359-9200-1299affe042c","meta":{"profile":["http://hl7.org/fhir/us/qicore/StructureDefinition/qicore-encounter"]},"status":"finished","class":{"system":"http://terminology.hl7.org/CodeSystem/v3-ActCode","code":"AMB","display":"ambulatory"},"type":[{"coding":[{"system":"http://snomed.info/sct","code":"281036007","display":"Follow-up consultation (procedure)"}]}],"subject":{"reference":"Patient/98493a07-9ac2-4760-b215-bda012ce1877"},"period":{"start":"2024-11-01T00:00:00.000Z","end":"2024-11-01T01:15:00.000Z"}},"request":{"method":"PUT","url":"Encounter/5710a627-fe05-4359-9200-1299affe042c"}},{"fullUrl":"https://madie.cms.gov/Observation/Observation-31.1-1","resource":{"resourceType":"Observation","id":"46406bf2-d4c8-4d87-aa24-2892f679bfb4","meta":{"profile":["http://hl7.org/fhir/us/qicore/StructureDefinition/qicore-observation"]},"status":"final","category":[{"coding":[{"system":"http://terminology.hl7.org/CodeSystem/observation-category","code":"survey"}]}],"code":{"coding":[{"system":"http://loinc.org","code":"72093-8","display":"Quality of life score [HOOS]"}]},"subject":{"reference":"Patient/98493a07-9ac2-4760-b215-bda012ce1877"},"effectivePeriod":{"start":"2023-11-01T00:00:00.000Z","end":"2023-11-01T01:00:00.000Z"},"valueInteger":60},"request":{"method":"PUT","url":"Observation/46406bf2-d4c8-4d87-aa24-2892f679bfb4"}},{"fullUrl":"https://madie.cms.gov/Observation/Observation-31.1-2","resource":{"resourceType":"Observation","id":"03740021-f1e4-48ba-9dba-63668ccad566","meta":{"profile":["http://hl7.org/fhir/us/qicore/StructureDefinition/qicore-observation"]},"status":"final","category":[{"coding":[{"system":"http://terminology.hl7.org/CodeSystem/observation-category","code":"survey"}]}],"code":{"coding":[{"system":"http://loinc.org","code":"72094-6","display":"Sport-recreation score [HOOS]"}]},"subject":{"reference":"Patient/98493a07-9ac2-4760-b215-bda012ce1877"},"effectivePeriod":{"start":"2023-11-01T00:00:00.000Z","end":"2023-11-01T01:00:00.000Z"},"valueInteger":60},"request":{"method":"PUT","url":"Observation/03740021-f1e4-48ba-9dba-63668ccad566"}},{"fullUrl":"https://madie.cms.gov/Observation/Observation-31.1-3","resource":{"resourceType":"Observation","id":"1c233fd5-6c2d-4600-b84a-0b3a5cf5ff98","meta":{"profile":["http://hl7.org/fhir/us/qicore/StructureDefinition/qicore-observation"]},"status":"final","category":[{"coding":[{"system":"http://terminology.hl7.org/CodeSystem/observation-category","code":"survey"}]}],"code":{"coding":[{"system":"http://loinc.org","code":"72095-3","display":"Activities of daily living score [HOOS]"}]},"subject":{"reference":"Patient/98493a07-9ac2-4760-b215-bda012ce1877"},"effectivePeriod":{"start":"2023-11-01T00:00:00.000Z","end":"2023-11-01T01:00:00.000Z"},"valueInteger":60},"request":{"method":"PUT","url":"Observation/1c233fd5-6c2d-4600-b84a-0b3a5cf5ff98"}},{"fullUrl":"https://madie.cms.gov/Observation/Observation-31.1-4","resource":{"resourceType":"Observation","id":"b812b36b-ab0c-4a2f-bfab-048413268337","meta":{"profile":["http://hl7.org/fhir/us/qicore/StructureDefinition/qicore-observation"]},"status":"final","category":[{"coding":[{"system":"http://terminology.hl7.org/CodeSystem/observation-category","code":"survey"}]}],"code":{"coding":[{"system":"http://loinc.org","code":"72096-1","display":"Symptoms score [HOOS]"}]},"subject":{"reference":"Patient/98493a07-9ac2-4760-b215-bda012ce1877"},"effectivePeriod":{"start":"2023-11-01T00:00:00.000Z","end":"2023-11-01T01:00:00.000Z"},"valueInteger":60},"request":{"method":"PUT","url":"Observation/b812b36b-ab0c-4a2f-bfab-048413268337"}},{"fullUrl":"https://madie.cms.gov/Observation/Observation-31.1-5","resource":{"resourceType":"Observation","id":"2e3d3210-68f9-431b-a316-4dd5a4587237","meta":{"profile":["http://hl7.org/fhir/us/qicore/StructureDefinition/qicore-observation"]},"status":"final","category":[{"coding":[{"system":"http://terminology.hl7.org/CodeSystem/observation-category","code":"survey"}]}],"code":{"coding":[{"system":"http://loinc.org","code":"72097-9","display":"Pain score [HOOS]"}]},"subject":{"reference":"Patient/98493a07-9ac2-4760-b215-bda012ce1877"},"effectivePeriod":{"start":"2023-11-01T00:00:00.000Z","end":"2023-11-01T01:00:00.000Z"},"valueInteger":60},"request":{"method":"PUT","url":"Observation/2e3d3210-68f9-431b-a316-4dd5a4587237"}},{"fullUrl":"https://madie.cms.gov/Observation/Observation-31.2-1","resource":{"resourceType":"Observation","id":"01ef4816-a9b9-4c37-852b-d64acf600a38","meta":{"profile":["http://hl7.org/fhir/us/qicore/StructureDefinition/qicore-observation"]},"status":"final","category":[{"coding":[{"system":"http://terminology.hl7.org/CodeSystem/observation-category","code":"survey"}]}],"code":{"coding":[{"system":"http://loinc.org","code":"72093-8","display":"Quality of life score [HOOS]"}]},"subject":{"reference":"Patient/98493a07-9ac2-4760-b215-bda012ce1877"},"effectivePeriod":{"start":"2024-08-27T00:00:00.000Z","end":"2024-08-27T01:00:00.000Z"},"valueInteger":60},"request":{"method":"PUT","url":"Observation/01ef4816-a9b9-4c37-852b-d64acf600a38"}},{"fullUrl":"https://madie.cms.gov/Observation/Observation-31.2-2","resource":{"resourceType":"Observation","id":"2c5cf082-c66d-4ae7-bb0c-5e263c12582c","meta":{"profile":["http://hl7.org/fhir/us/qicore/StructureDefinition/qicore-observation"]},"status":"final","category":[{"coding":[{"system":"http://terminology.hl7.org/CodeSystem/observation-category","code":"survey"}]}],"code":{"coding":[{"system":"http://loinc.org","code":"72094-6","display":"Sport-recreation score [HOOS]"}]},"subject":{"reference":"Patient/98493a07-9ac2-4760-b215-bda012ce1877"},"effectivePeriod":{"start":"2024-08-27T00:00:00.000Z","end":"2024-08-27T01:00:00.000Z"},"valueInteger":60},"request":{"method":"PUT","url":"Observation/2c5cf082-c66d-4ae7-bb0c-5e263c12582c"}},{"fullUrl":"https://madie.cms.gov/Observation/Observation-31.2-3","resource":{"resourceType":"Observation","id":"650af507-f46a-40b9-a6b9-8e54dbe40021","meta":{"profile":["http://hl7.org/fhir/us/qicore/StructureDefinition/qicore-observation"]},"status":"final","category":[{"coding":[{"system":"http://terminology.hl7.org/CodeSystem/observation-category","code":"survey"}]}],"code":{"coding":[{"system":"http://loinc.org","code":"72095-3","display":"Activities of daily living score [HOOS]"}]},"subject":{"reference":"Patient/98493a07-9ac2-4760-b215-bda012ce1877"},"effectivePeriod":{"start":"2024-08-27T00:00:00.000Z","end":"2024-08-27T01:00:00.000Z"},"valueInteger":60},"request":{"method":"PUT","url":"Observation/650af507-f46a-40b9-a6b9-8e54dbe40021"}},{"fullUrl":"https://madie.cms.gov/Observation/Observation-31.2-4","resource":{"resourceType":"Observation","id":"659827a6-1faf-4a25-932d-5f8a522ff5c5","meta":{"profile":["http://hl7.org/fhir/us/qicore/StructureDefinition/qicore-observation"]},"status":"final","category":[{"coding":[{"system":"http://terminology.hl7.org/CodeSystem/observation-category","code":"survey"}]}],"code":{"coding":[{"system":"http://loinc.org","code":"72096-1","display":"Symptoms score [HOOS]"}]},"subject":{"reference":"Patient/98493a07-9ac2-4760-b215-bda012ce1877"},"effectivePeriod":{"start":"2024-08-27T00:00:00.000Z","end":"2024-08-27T01:00:00.000Z"},"valueInteger":60},"request":{"method":"PUT","url":"Observation/659827a6-1faf-4a25-932d-5f8a522ff5c5"}},{"fullUrl":"https://madie.cms.gov/Observation/Observation-31.2-5","resource":{"resourceType":"Observation","id":"2cd4fa5c-f8c0-4b78-942e-808170751d9a","meta":{"profile":["http://hl7.org/fhir/us/qicore/StructureDefinition/qicore-observation"]},"status":"final","category":[{"coding":[{"system":"http://terminology.hl7.org/CodeSystem/observation-category","code":"survey"}]}],"code":{"coding":[{"system":"http://loinc.org","code":"72097-9","display":"Pain score [HOOS]"}]},"subject":{"reference":"Patient/98493a07-9ac2-4760-b215-bda012ce1877"},"effectivePeriod":{"start":"2024-08-27T00:00:00.000Z","end":"2024-08-27T01:00:00.000Z"},"valueInteger":60},"request":{"method":"PUT","url":"Observation/2cd4fa5c-f8c0-4b78-942e-808170751d9a"}},{"fullUrl":"https://madie.cms.gov/MeasureReport/aa9f78a4-bbc2-4d62-a6ce-f00b075d4fc9","resource":{"resourceType":"MeasureReport","id":"aa9f78a4-bbc2-4d62-a6ce-f00b075d4fc9","meta":{"profile":["http://hl7.org/fhir/us/cqfmeasures/StructureDefinition/test-case-cqfm"]},"contained":[{"resourceType":"Parameters","id":"3a9afb0c-4326-4a08-941e-a3e0a660dda7-parameters","parameter":[{"name":"subject","valueString":"98493a07-9ac2-4760-b215-bda012ce1877"}]}],"extension":[{"url":"http://hl7.org/fhir/us/cqfmeasures/StructureDefinition/cqfm-inputParameters","valueReference":{"reference":"#3a9afb0c-4326-4a08-941e-a3e0a660dda7-parameters"}},{"url":"http://hl7.org/fhir/us/cqfmeasures/StructureDefinition/cqfm-testCaseDescription","valueMarkdown":"Patient w/ a THA Procedure 11/1, Initial Hip Assessment HOOS Same day as THA Procedure(11/1), and FollowUp Hip Assessment HOOS 300 days after THA Procedure (8/27)"}],"modifierExtension":[{"url":"http://hl7.org/fhir/us/cqfmeasures/StructureDefinition/cqfm-isTestCase","valueBoolean":true}],"status":"complete","type":"individual","measure":"https://madie.cms.gov/Measure/FunctionalStatusAssessmentforTotalHipReplacementFHIR","period":{"start":"2025-01-01","end":"2025-12-31"},"group":[{"population":[{"code":{"coding":[{"system":"http://terminology.hl7.org/CodeSystem/measure-population","code":"initial-population","display":"Initial Population"}]},"count":1},{"code":{"coding":[{"system":"http://terminology.hl7.org/CodeSystem/measure-population","code":"denominator","display":"Denominator"}]},"count":1},{"code":{"coding":[{"system":"http://terminology.hl7.org/CodeSystem/measure-population","code":"denominator-exclusion","display":"Denominator Exclusion"}]},"count":0},{"code":{"coding":[{"system":"http://terminology.hl7.org/CodeSystem/measure-population","code":"numerator","display":"Numerator"}]},"count":1}]}]},"request":{"method":"PUT","url":"MeasureReport/aa9f78a4-bbc2-4d62-a6ce-f00b075d4fc9"}}]}