{"resourceType":"Bundle","id":"tests-49640f81-b5ff-408a-82eb-436cf41a9d1d-bundle","type":"transaction","entry":[{"fullUrl":"https://madie.cms.gov/Patient/49640f81-b5ff-408a-82eb-436cf41a9d1d","resource":{"resourceType":"Patient","id":"49640f81-b5ff-408a-82eb-436cf41a9d1d","meta":{"profile":["http://hl7.org/fhir/us/qicore/StructureDefinition/qicore-patient"]},"extension":[{"url":"http://hl7.org/fhir/us/core/StructureDefinition/us-core-race","extension":[{"url":"ombCategory","valueCoding":{"system":"urn:oid:2.16.840.1.113883.6.238","code":"2028-9","display":"Asian"}},{"url":"text","valueString":"Asian"}]},{"url":"http://hl7.org/fhir/us/core/StructureDefinition/us-core-ethnicity","extension":[{"url":"ombCategory","valueCoding":{"system":"urn:oid:2.16.840.1.113883.6.238","code":"2135-2","display":"Hispanic or Latino"}},{"url":"text","valueString":"Hispanic or Latino"}]}],"identifier":[{"system":"http://hospital.smarthealthit.org","value":"999999995"}],"name":[{"family":"Bertha","given":["Betty"]}],"gender":"female","birthDate":"2006-01-01"},"request":{"method":"PUT","url":"Patient/49640f81-b5ff-408a-82eb-436cf41a9d1d"}},{"fullUrl":"https://madie.cms.gov/Procedure/Procedure-32","resource":{"resourceType":"Procedure","id":"a0b53905-ef6d-452f-b372-b7c5adc06cd8","meta":{"profile":["http://hl7.org/fhir/us/qicore/StructureDefinition/qicore-procedure"]},"extension":[{"url":"http://hl7.org/fhir/us/qicore/StructureDefinition/qicore-recorded","valueDateTime":"2023-11-01T00:00:00.000Z"}],"status":"completed","code":{"coding":[{"system":"http://www.cms.gov/Medicare/Coding/ICD10","code":"0SR9019","display":"Replacement of Right Hip Joint with Metal Synthetic Substitute, Cemented, Open Approach"}]},"subject":{"reference":"Patient/49640f81-b5ff-408a-82eb-436cf41a9d1d"},"performedPeriod":{"start":"2023-11-01T00:00:00.000Z","end":"2023-11-01T01:00:00.000Z"}},"request":{"method":"PUT","url":"Procedure/a0b53905-ef6d-452f-b372-b7c5adc06cd8"}},{"fullUrl":"https://madie.cms.gov/Encounter/Encounter-32","resource":{"resourceType":"Encounter","id":"9c833337-c88f-4507-8bc6-2e1fdbeedf63","meta":{"profile":["http://hl7.org/fhir/us/qicore/StructureDefinition/qicore-encounter"]},"status":"finished","class":{"system":"http://terminology.hl7.org/CodeSystem/v3-ActCode","code":"AMB","display":"ambulatory"},"type":[{"coding":[{"system":"http://snomed.info/sct","code":"281036007","display":"Follow-up consultation (procedure)"}]}],"subject":{"reference":"Patient/49640f81-b5ff-408a-82eb-436cf41a9d1d"},"period":{"start":"2024-11-01T00:00:00.000Z","end":"2024-11-01T01:15:00.000Z"}},"request":{"method":"PUT","url":"Encounter/9c833337-c88f-4507-8bc6-2e1fdbeedf63"}},{"fullUrl":"https://madie.cms.gov/Observation/Observation-32.1-1","resource":{"resourceType":"Observation","id":"e043c6bd-d157-4fed-b24c-21880635e204","meta":{"profile":["http://hl7.org/fhir/us/qicore/StructureDefinition/qicore-observation"]},"status":"final","category":[{"coding":[{"system":"http://terminology.hl7.org/CodeSystem/observation-category","code":"survey"}]}],"code":{"coding":[{"system":"http://loinc.org","code":"72093-8","display":"Quality of life score [HOOS]"}]},"subject":{"reference":"Patient/49640f81-b5ff-408a-82eb-436cf41a9d1d"},"effectivePeriod":{"start":"2023-11-02T00:00:00.000Z","end":"2023-11-02T01:00:00.000Z"},"valueInteger":60},"request":{"method":"PUT","url":"Observation/e043c6bd-d157-4fed-b24c-21880635e204"}},{"fullUrl":"https://madie.cms.gov/Observation/Observation-32.1-2","resource":{"resourceType":"Observation","id":"5dae10e5-5837-41a3-aad7-5acf0664776a","meta":{"profile":["http://hl7.org/fhir/us/qicore/StructureDefinition/qicore-observation"]},"status":"final","category":[{"coding":[{"system":"http://terminology.hl7.org/CodeSystem/observation-category","code":"survey"}]}],"code":{"coding":[{"system":"http://loinc.org","code":"72094-6","display":"Sport-recreation score [HOOS]"}]},"subject":{"reference":"Patient/49640f81-b5ff-408a-82eb-436cf41a9d1d"},"effectivePeriod":{"start":"2023-11-02T00:00:00.000Z","end":"2023-11-02T01:00:00.000Z"},"valueInteger":60},"request":{"method":"PUT","url":"Observation/5dae10e5-5837-41a3-aad7-5acf0664776a"}},{"fullUrl":"https://madie.cms.gov/Observation/Observation-32.1-3","resource":{"resourceType":"Observation","id":"db023d85-9ac6-42eb-9374-fda361066d40","meta":{"profile":["http://hl7.org/fhir/us/qicore/StructureDefinition/qicore-observation"]},"status":"final","category":[{"coding":[{"system":"http://terminology.hl7.org/CodeSystem/observation-category","code":"survey"}]}],"code":{"coding":[{"system":"http://loinc.org","code":"72095-3","display":"Activities of daily living score [HOOS]"}]},"subject":{"reference":"Patient/49640f81-b5ff-408a-82eb-436cf41a9d1d"},"effectivePeriod":{"start":"2023-11-02T00:00:00.000Z","end":"2023-11-02T01:00:00.000Z"},"valueInteger":60},"request":{"method":"PUT","url":"Observation/db023d85-9ac6-42eb-9374-fda361066d40"}},{"fullUrl":"https://madie.cms.gov/Observation/Observation-32.1-4","resource":{"resourceType":"Observation","id":"c65d0c58-0d4e-4fc6-90bf-299cd6a39304","meta":{"profile":["http://hl7.org/fhir/us/qicore/StructureDefinition/qicore-observation"]},"status":"final","category":[{"coding":[{"system":"http://terminology.hl7.org/CodeSystem/observation-category","code":"survey"}]}],"code":{"coding":[{"system":"http://loinc.org","code":"72096-1","display":"Symptoms score [HOOS]"}]},"subject":{"reference":"Patient/49640f81-b5ff-408a-82eb-436cf41a9d1d"},"effectivePeriod":{"start":"2023-11-02T00:00:00.000Z","end":"2023-11-02T01:00:00.000Z"},"valueInteger":60},"request":{"method":"PUT","url":"Observation/c65d0c58-0d4e-4fc6-90bf-299cd6a39304"}},{"fullUrl":"https://madie.cms.gov/Observation/Observation-32.1-5","resource":{"resourceType":"Observation","id":"c3edc83d-1bd6-4d7c-8ec5-6ea8d90de3fd","meta":{"profile":["http://hl7.org/fhir/us/qicore/StructureDefinition/qicore-observation"]},"status":"final","category":[{"coding":[{"system":"http://terminology.hl7.org/CodeSystem/observation-category","code":"survey"}]}],"code":{"coding":[{"system":"http://loinc.org","code":"72097-9","display":"Pain score [HOOS]"}]},"subject":{"reference":"Patient/49640f81-b5ff-408a-82eb-436cf41a9d1d"},"effectivePeriod":{"start":"2023-11-02T00:00:00.000Z","end":"2023-11-02T01:00:00.000Z"},"valueInteger":60},"request":{"method":"PUT","url":"Observation/c3edc83d-1bd6-4d7c-8ec5-6ea8d90de3fd"}},{"fullUrl":"https://madie.cms.gov/Observation/Observation-32.2-1","resource":{"resourceType":"Observation","id":"b2a9118f-a4ed-4ed7-a829-929edf2fcd09","meta":{"profile":["http://hl7.org/fhir/us/qicore/StructureDefinition/qicore-observation"]},"status":"final","category":[{"coding":[{"system":"http://terminology.hl7.org/CodeSystem/observation-category","code":"survey"}]}],"code":{"coding":[{"system":"http://loinc.org","code":"72093-8","display":"Quality of life score [HOOS]"}]},"subject":{"reference":"Patient/49640f81-b5ff-408a-82eb-436cf41a9d1d"},"effectivePeriod":{"start":"2023-11-02T00:00:00.000Z","end":"2023-11-02T01:00:00.000Z"},"valueInteger":60},"request":{"method":"PUT","url":"Observation/b2a9118f-a4ed-4ed7-a829-929edf2fcd09"}},{"fullUrl":"https://madie.cms.gov/Observation/Observation-32.2-2","resource":{"resourceType":"Observation","id":"fea8f24a-5667-4be3-a31e-67b094262ac4","meta":{"profile":["http://hl7.org/fhir/us/qicore/StructureDefinition/qicore-observation"]},"status":"final","category":[{"coding":[{"system":"http://terminology.hl7.org/CodeSystem/observation-category","code":"survey"}]}],"code":{"coding":[{"system":"http://loinc.org","code":"72094-6","display":"Sport-recreation score [HOOS]"}]},"subject":{"reference":"Patient/49640f81-b5ff-408a-82eb-436cf41a9d1d"},"effectivePeriod":{"start":"2023-11-02T00:00:00.000Z","end":"2023-11-02T01:00:00.000Z"},"valueInteger":60},"request":{"method":"PUT","url":"Observation/fea8f24a-5667-4be3-a31e-67b094262ac4"}},{"fullUrl":"https://madie.cms.gov/Observation/Observation-32.2-3","resource":{"resourceType":"Observation","id":"3a0b292c-c034-4bd6-b647-35b01475b5e4","meta":{"profile":["http://hl7.org/fhir/us/qicore/StructureDefinition/qicore-observation"]},"status":"final","category":[{"coding":[{"system":"http://terminology.hl7.org/CodeSystem/observation-category","code":"survey"}]}],"code":{"coding":[{"system":"http://loinc.org","code":"72095-3","display":"Activities of daily living score [HOOS]"}]},"subject":{"reference":"Patient/49640f81-b5ff-408a-82eb-436cf41a9d1d"},"effectivePeriod":{"start":"2023-11-02T00:00:00.000Z","end":"2023-11-02T01:00:00.000Z"},"valueInteger":60},"request":{"method":"PUT","url":"Observation/3a0b292c-c034-4bd6-b647-35b01475b5e4"}},{"fullUrl":"https://madie.cms.gov/Observation/Observation-32.2-4","resource":{"resourceType":"Observation","id":"d90ee215-646d-4295-bc24-63b5c9785dae","meta":{"profile":["http://hl7.org/fhir/us/qicore/StructureDefinition/qicore-observation"]},"status":"final","category":[{"coding":[{"system":"http://terminology.hl7.org/CodeSystem/observation-category","code":"survey"}]}],"code":{"coding":[{"system":"http://loinc.org","code":"72096-1","display":"Symptoms score [HOOS]"}]},"subject":{"reference":"Patient/49640f81-b5ff-408a-82eb-436cf41a9d1d"},"effectivePeriod":{"start":"2023-11-02T00:00:00.000Z","end":"2023-11-02T01:00:00.000Z"},"valueInteger":60},"request":{"method":"PUT","url":"Observation/d90ee215-646d-4295-bc24-63b5c9785dae"}},{"fullUrl":"https://madie.cms.gov/Observation/Observation-32.2-5","resource":{"resourceType":"Observation","id":"194f29be-5582-43a7-99fe-a3fb4d3dd5fc","meta":{"profile":["http://hl7.org/fhir/us/qicore/StructureDefinition/qicore-observation"]},"status":"final","category":[{"coding":[{"system":"http://terminology.hl7.org/CodeSystem/observation-category","code":"survey"}]}],"code":{"coding":[{"system":"http://loinc.org","code":"72097-9","display":"Pain score [HOOS]"}]},"subject":{"reference":"Patient/49640f81-b5ff-408a-82eb-436cf41a9d1d"},"effectivePeriod":{"start":"2023-11-02T00:00:00.000Z","end":"2023-11-02T01:00:00.000Z"},"valueInteger":60},"request":{"method":"PUT","url":"Observation/194f29be-5582-43a7-99fe-a3fb4d3dd5fc"}},{"fullUrl":"https://madie.cms.gov/MeasureReport/6b277e16-c6af-4236-b303-abafc187f6c5","resource":{"resourceType":"MeasureReport","id":"6b277e16-c6af-4236-b303-abafc187f6c5","meta":{"profile":["http://hl7.org/fhir/us/cqfmeasures/StructureDefinition/test-case-cqfm"]},"contained":[{"resourceType":"Parameters","id":"b052f2db-9ff7-4883-a51c-4c8756161dcd-parameters","parameter":[{"name":"subject","valueString":"49640f81-b5ff-408a-82eb-436cf41a9d1d"}]}],"extension":[{"url":"http://hl7.org/fhir/us/cqfmeasures/StructureDefinition/cqfm-inputParameters","valueReference":{"reference":"#b052f2db-9ff7-4883-a51c-4c8756161dcd-parameters"}},{"url":"http://hl7.org/fhir/us/cqfmeasures/StructureDefinition/cqfm-testCaseDescription","valueMarkdown":"Patient w/ a THA Procedure 11/1, Initial Hip Assessment HOOS day after THA Procedure(11/2), and FollowUp Hip Assessment HOOS 300 days after THA Procedure (8/27)"}],"modifierExtension":[{"url":"http://hl7.org/fhir/us/cqfmeasures/StructureDefinition/cqfm-isTestCase","valueBoolean":true}],"status":"complete","type":"individual","measure":"https://madie.cms.gov/Measure/FunctionalStatusAssessmentforTotalHipReplacementFHIR","period":{"start":"2025-01-01","end":"2025-12-31"},"group":[{"population":[{"code":{"coding":[{"system":"http://terminology.hl7.org/CodeSystem/measure-population","code":"initial-population","display":"Initial Population"}]},"count":1},{"code":{"coding":[{"system":"http://terminology.hl7.org/CodeSystem/measure-population","code":"denominator","display":"Denominator"}]},"count":1},{"code":{"coding":[{"system":"http://terminology.hl7.org/CodeSystem/measure-population","code":"denominator-exclusion","display":"Denominator Exclusion"}]},"count":0},{"code":{"coding":[{"system":"http://terminology.hl7.org/CodeSystem/measure-population","code":"numerator","display":"Numerator"}]},"count":0}]}]},"request":{"method":"PUT","url":"MeasureReport/6b277e16-c6af-4236-b303-abafc187f6c5"}}]}