{"resourceType":"Bundle","id":"tests-50c6997f-0aab-4baa-af63-a2d05a2ad3ac-bundle","type":"transaction","entry":[{"fullUrl":"https://madie.cms.gov/Patient/50c6997f-0aab-4baa-af63-a2d05a2ad3ac","resource":{"resourceType":"Patient","id":"50c6997f-0aab-4baa-af63-a2d05a2ad3ac","meta":{"profile":["http://hl7.org/fhir/us/qicore/StructureDefinition/qicore-patient"]},"extension":[{"url":"http://hl7.org/fhir/us/core/StructureDefinition/us-core-race","extension":[{"url":"ombCategory","valueCoding":{"system":"urn:oid:2.16.840.1.113883.6.238","code":"2028-9","display":"Asian"}},{"url":"text","valueString":"Asian"}]},{"url":"http://hl7.org/fhir/us/core/StructureDefinition/us-core-ethnicity","extension":[{"url":"ombCategory","valueCoding":{"system":"urn:oid:2.16.840.1.113883.6.238","code":"2135-2","display":"Hispanic or Latino"}},{"url":"text","valueString":"Hispanic or Latino"}]}],"identifier":[{"system":"http://hospital.smarthealthit.org","value":"999999995"}],"name":[{"family":"Bertha","given":["Betty"]}],"gender":"female","birthDate":"2006-01-01"},"request":{"method":"PUT","url":"Patient/50c6997f-0aab-4baa-af63-a2d05a2ad3ac"}},{"fullUrl":"https://madie.cms.gov/Procedure/Procedure-33","resource":{"resourceType":"Procedure","id":"68b5f86c-c453-46b5-8454-b819202fade8","meta":{"profile":["http://hl7.org/fhir/us/qicore/StructureDefinition/qicore-procedure"]},"extension":[{"url":"http://hl7.org/fhir/us/qicore/StructureDefinition/qicore-recorded","valueDateTime":"2023-11-01T00:00:00.000Z"}],"status":"completed","code":{"coding":[{"system":"http://www.cms.gov/Medicare/Coding/ICD10","code":"0SR9019","display":"Replacement of Right Hip Joint with Metal Synthetic Substitute, Cemented, Open Approach"}]},"subject":{"reference":"Patient/50c6997f-0aab-4baa-af63-a2d05a2ad3ac"},"performedPeriod":{"start":"2023-11-01T00:00:00.000Z","end":"2023-11-01T01:00:00.000Z"}},"request":{"method":"PUT","url":"Procedure/68b5f86c-c453-46b5-8454-b819202fade8"}},{"fullUrl":"https://madie.cms.gov/Encounter/Encounter-33","resource":{"resourceType":"Encounter","id":"35a99fde-55a9-4bc4-a3b9-e8ac823df516","meta":{"profile":["http://hl7.org/fhir/us/qicore/StructureDefinition/qicore-encounter"]},"status":"finished","class":{"system":"http://terminology.hl7.org/CodeSystem/v3-ActCode","code":"AMB","display":"ambulatory"},"type":[{"coding":[{"system":"http://snomed.info/sct","code":"281036007","display":"Follow-up consultation (procedure)"}]}],"subject":{"reference":"Patient/50c6997f-0aab-4baa-af63-a2d05a2ad3ac"},"period":{"start":"2024-11-01T00:00:00.000Z","end":"2024-11-01T01:15:00.000Z"}},"request":{"method":"PUT","url":"Encounter/35a99fde-55a9-4bc4-a3b9-e8ac823df516"}},{"fullUrl":"https://madie.cms.gov/Observation/Observation-33.1-1","resource":{"resourceType":"Observation","id":"2cac0739-283c-4399-a31e-f0b351e93c70","meta":{"profile":["http://hl7.org/fhir/us/qicore/StructureDefinition/qicore-observation"]},"status":"final","category":[{"coding":[{"system":"http://terminology.hl7.org/CodeSystem/observation-category","code":"survey"}]}],"code":{"coding":[{"system":"http://loinc.org","code":"72093-8","display":"Quality of life score [HOOS]"}]},"subject":{"reference":"Patient/50c6997f-0aab-4baa-af63-a2d05a2ad3ac"},"effectivePeriod":{"start":"2023-08-03T00:00:00.000Z","end":"2023-08-03T01:00:00.000Z"},"valueInteger":60},"request":{"method":"PUT","url":"Observation/2cac0739-283c-4399-a31e-f0b351e93c70"}},{"fullUrl":"https://madie.cms.gov/Observation/Observation-33.1-2","resource":{"resourceType":"Observation","id":"9794a0ec-df27-4e5b-8a53-b003dd59f3ea","meta":{"profile":["http://hl7.org/fhir/us/qicore/StructureDefinition/qicore-observation"]},"status":"final","category":[{"coding":[{"system":"http://terminology.hl7.org/CodeSystem/observation-category","code":"survey"}]}],"code":{"coding":[{"system":"http://loinc.org","code":"72094-6","display":"Sport-recreation score [HOOS]"}]},"subject":{"reference":"Patient/50c6997f-0aab-4baa-af63-a2d05a2ad3ac"},"effectivePeriod":{"start":"2023-08-03T00:00:00.000Z","end":"2023-08-03T01:00:00.000Z"},"valueInteger":60},"request":{"method":"PUT","url":"Observation/9794a0ec-df27-4e5b-8a53-b003dd59f3ea"}},{"fullUrl":"https://madie.cms.gov/Observation/Observation-33.1-3","resource":{"resourceType":"Observation","id":"ad73a05e-a642-4ccb-8698-401e83db22f6","meta":{"profile":["http://hl7.org/fhir/us/qicore/StructureDefinition/qicore-observation"]},"status":"final","category":[{"coding":[{"system":"http://terminology.hl7.org/CodeSystem/observation-category","code":"survey"}]}],"code":{"coding":[{"system":"http://loinc.org","code":"72095-3","display":"Activities of daily living score [HOOS]"}]},"subject":{"reference":"Patient/50c6997f-0aab-4baa-af63-a2d05a2ad3ac"},"effectivePeriod":{"start":"2023-08-03T00:00:00.000Z","end":"2023-08-03T01:00:00.000Z"},"valueInteger":60},"request":{"method":"PUT","url":"Observation/ad73a05e-a642-4ccb-8698-401e83db22f6"}},{"fullUrl":"https://madie.cms.gov/Observation/Observation-33.1-4","resource":{"resourceType":"Observation","id":"316d6e61-3ea3-4a24-af7c-78f998d2e15e","meta":{"profile":["http://hl7.org/fhir/us/qicore/StructureDefinition/qicore-observation"]},"status":"final","category":[{"coding":[{"system":"http://terminology.hl7.org/CodeSystem/observation-category","code":"survey"}]}],"code":{"coding":[{"system":"http://loinc.org","code":"72096-1","display":"Symptoms score [HOOS]"}]},"subject":{"reference":"Patient/50c6997f-0aab-4baa-af63-a2d05a2ad3ac"},"effectivePeriod":{"start":"2023-08-03T00:00:00.000Z","end":"2023-08-03T01:00:00.000Z"},"valueInteger":60},"request":{"method":"PUT","url":"Observation/316d6e61-3ea3-4a24-af7c-78f998d2e15e"}},{"fullUrl":"https://madie.cms.gov/Observation/Observation-33.1-5","resource":{"resourceType":"Observation","id":"26894347-cd29-4b3e-b863-0e4966f87e73","meta":{"profile":["http://hl7.org/fhir/us/qicore/StructureDefinition/qicore-observation"]},"status":"final","category":[{"coding":[{"system":"http://terminology.hl7.org/CodeSystem/observation-category","code":"survey"}]}],"code":{"coding":[{"system":"http://loinc.org","code":"72097-9","display":"Pain score [HOOS]"}]},"subject":{"reference":"Patient/50c6997f-0aab-4baa-af63-a2d05a2ad3ac"},"effectivePeriod":{"start":"2023-08-03T00:00:00.000Z","end":"2023-08-03T01:00:00.000Z"},"valueInteger":60},"request":{"method":"PUT","url":"Observation/26894347-cd29-4b3e-b863-0e4966f87e73"}},{"fullUrl":"https://madie.cms.gov/Observation/Observation-33.2-1","resource":{"resourceType":"Observation","id":"9a27be3a-46d8-46e5-909e-112c3d2d436f","meta":{"profile":["http://hl7.org/fhir/us/qicore/StructureDefinition/qicore-observation"]},"status":"final","category":[{"coding":[{"system":"http://terminology.hl7.org/CodeSystem/observation-category","code":"survey"}]}],"code":{"coding":[{"system":"http://loinc.org","code":"72093-8","display":"Quality of life score [HOOS]"}]},"subject":{"reference":"Patient/50c6997f-0aab-4baa-af63-a2d05a2ad3ac"},"effectivePeriod":{"start":"2024-12-30T00:00:00.000Z","end":"2024-12-30T01:00:00.000Z"},"valueInteger":60},"request":{"method":"PUT","url":"Observation/9a27be3a-46d8-46e5-909e-112c3d2d436f"}},{"fullUrl":"https://madie.cms.gov/Observation/Observation-33.2-2","resource":{"resourceType":"Observation","id":"bbbbba19-5a9b-4637-8844-43dab56a116f","meta":{"profile":["http://hl7.org/fhir/us/qicore/StructureDefinition/qicore-observation"]},"status":"final","category":[{"coding":[{"system":"http://terminology.hl7.org/CodeSystem/observation-category","code":"survey"}]}],"code":{"coding":[{"system":"http://loinc.org","code":"72094-6","display":"Sport-recreation score [HOOS]"}]},"subject":{"reference":"Patient/50c6997f-0aab-4baa-af63-a2d05a2ad3ac"},"effectivePeriod":{"start":"2024-12-30T00:00:00.000Z","end":"2024-12-30T01:00:00.000Z"},"valueInteger":60},"request":{"method":"PUT","url":"Observation/bbbbba19-5a9b-4637-8844-43dab56a116f"}},{"fullUrl":"https://madie.cms.gov/Observation/Observation-33.2-3","resource":{"resourceType":"Observation","id":"b8706336-b31f-4f3e-a2b1-1a2d1a690ae5","meta":{"profile":["http://hl7.org/fhir/us/qicore/StructureDefinition/qicore-observation"]},"status":"final","category":[{"coding":[{"system":"http://terminology.hl7.org/CodeSystem/observation-category","code":"survey"}]}],"code":{"coding":[{"system":"http://loinc.org","code":"72095-3","display":"Activities of daily living score [HOOS]"}]},"subject":{"reference":"Patient/50c6997f-0aab-4baa-af63-a2d05a2ad3ac"},"effectivePeriod":{"start":"2024-12-30T00:00:00.000Z","end":"2024-12-30T01:00:00.000Z"},"valueInteger":60},"request":{"method":"PUT","url":"Observation/b8706336-b31f-4f3e-a2b1-1a2d1a690ae5"}},{"fullUrl":"https://madie.cms.gov/Observation/Observation-33.2-4","resource":{"resourceType":"Observation","id":"7c986450-c56e-4595-a66d-f611a8d89e10","meta":{"profile":["http://hl7.org/fhir/us/qicore/StructureDefinition/qicore-observation"]},"status":"final","category":[{"coding":[{"system":"http://terminology.hl7.org/CodeSystem/observation-category","code":"survey"}]}],"code":{"coding":[{"system":"http://loinc.org","code":"72096-1","display":"Symptoms score [HOOS]"}]},"subject":{"reference":"Patient/50c6997f-0aab-4baa-af63-a2d05a2ad3ac"},"effectivePeriod":{"start":"2024-12-30T00:00:00.000Z","end":"2024-12-30T01:00:00.000Z"},"valueInteger":60},"request":{"method":"PUT","url":"Observation/7c986450-c56e-4595-a66d-f611a8d89e10"}},{"fullUrl":"https://madie.cms.gov/Observation/Observation-33.2-5","resource":{"resourceType":"Observation","id":"3e103328-d007-4b18-a868-88e4dc69e734","meta":{"profile":["http://hl7.org/fhir/us/qicore/StructureDefinition/qicore-observation"]},"status":"final","category":[{"coding":[{"system":"http://terminology.hl7.org/CodeSystem/observation-category","code":"survey"}]}],"code":{"coding":[{"system":"http://loinc.org","code":"72097-9","display":"Pain score [HOOS]"}]},"subject":{"reference":"Patient/50c6997f-0aab-4baa-af63-a2d05a2ad3ac"},"effectivePeriod":{"start":"2024-12-30T00:00:00.000Z","end":"2024-12-30T01:00:00.000Z"},"valueInteger":60},"request":{"method":"PUT","url":"Observation/3e103328-d007-4b18-a868-88e4dc69e734"}},{"fullUrl":"https://madie.cms.gov/MeasureReport/12c3cceb-8269-496a-8b47-19c7eca0a1c6","resource":{"resourceType":"MeasureReport","id":"12c3cceb-8269-496a-8b47-19c7eca0a1c6","meta":{"profile":["http://hl7.org/fhir/us/cqfmeasures/StructureDefinition/test-case-cqfm"]},"contained":[{"resourceType":"Parameters","id":"83ccdcc8-1283-4e94-93bd-2d6820d5afaa-parameters","parameter":[{"name":"subject","valueString":"50c6997f-0aab-4baa-af63-a2d05a2ad3ac"}]}],"extension":[{"url":"http://hl7.org/fhir/us/cqfmeasures/StructureDefinition/cqfm-inputParameters","valueReference":{"reference":"#83ccdcc8-1283-4e94-93bd-2d6820d5afaa-parameters"}},{"url":"http://hl7.org/fhir/us/cqfmeasures/StructureDefinition/cqfm-testCaseDescription","valueMarkdown":"Patient w/ a THA Procedure 11/1, Initial Hip Assessment 90 days before THA Procedure(8/3), and FollowUp Hip Assessment HOOS 425 days after THA Procedure (12/30)"}],"modifierExtension":[{"url":"http://hl7.org/fhir/us/cqfmeasures/StructureDefinition/cqfm-isTestCase","valueBoolean":true}],"status":"complete","type":"individual","measure":"https://madie.cms.gov/Measure/FunctionalStatusAssessmentforTotalHipReplacementFHIR","period":{"start":"2025-01-01","end":"2025-12-31"},"group":[{"population":[{"code":{"coding":[{"system":"http://terminology.hl7.org/CodeSystem/measure-population","code":"initial-population","display":"Initial Population"}]},"count":1},{"code":{"coding":[{"system":"http://terminology.hl7.org/CodeSystem/measure-population","code":"denominator","display":"Denominator"}]},"count":1},{"code":{"coding":[{"system":"http://terminology.hl7.org/CodeSystem/measure-population","code":"denominator-exclusion","display":"Denominator Exclusion"}]},"count":0},{"code":{"coding":[{"system":"http://terminology.hl7.org/CodeSystem/measure-population","code":"numerator","display":"Numerator"}]},"count":1}]}]},"request":{"method":"PUT","url":"MeasureReport/12c3cceb-8269-496a-8b47-19c7eca0a1c6"}}]}