{"resourceType":"Bundle","id":"tests-43cf7738-291f-4ca4-92cc-1d148a99c5c8-bundle","type":"transaction","entry":[{"fullUrl":"https://madie.cms.gov/Patient/43cf7738-291f-4ca4-92cc-1d148a99c5c8","resource":{"resourceType":"Patient","id":"43cf7738-291f-4ca4-92cc-1d148a99c5c8","meta":{"profile":["http://hl7.org/fhir/us/qicore/StructureDefinition/qicore-patient"]},"extension":[{"url":"http://hl7.org/fhir/us/core/StructureDefinition/us-core-race","extension":[{"url":"ombCategory","valueCoding":{"system":"urn:oid:2.16.840.1.113883.6.238","code":"2028-9","display":"Asian"}},{"url":"text","valueString":"Asian"}]},{"url":"http://hl7.org/fhir/us/core/StructureDefinition/us-core-ethnicity","extension":[{"url":"ombCategory","valueCoding":{"system":"urn:oid:2.16.840.1.113883.6.238","code":"2135-2","display":"Hispanic or Latino"}},{"url":"text","valueString":"Hispanic or Latino"}]}],"identifier":[{"system":"http://hospital.smarthealthit.org","value":"999999995"}],"name":[{"family":"Bertha","given":["Betty"]}],"gender":"female","birthDate":"2006-01-01"},"request":{"method":"PUT","url":"Patient/43cf7738-291f-4ca4-92cc-1d148a99c5c8"}},{"fullUrl":"https://madie.cms.gov/Procedure/Procedure-40","resource":{"resourceType":"Procedure","id":"d5cc5223-d67c-4b06-829d-f0cdcff5d4e9","meta":{"profile":["http://hl7.org/fhir/us/qicore/StructureDefinition/qicore-procedure"]},"extension":[{"url":"http://hl7.org/fhir/us/qicore/StructureDefinition/qicore-recorded","valueDateTime":"2023-11-01T00:00:00.000Z"}],"status":"completed","code":{"coding":[{"system":"http://www.cms.gov/Medicare/Coding/ICD10","code":"0SR9019","display":"Replacement of Right Hip Joint with Metal Synthetic Substitute, Cemented, Open Approach"}]},"subject":{"reference":"Patient/43cf7738-291f-4ca4-92cc-1d148a99c5c8"},"performedPeriod":{"start":"2023-11-01T00:00:00.000Z","end":"2023-11-01T01:00:00.000Z"}},"request":{"method":"PUT","url":"Procedure/d5cc5223-d67c-4b06-829d-f0cdcff5d4e9"}},{"fullUrl":"https://madie.cms.gov/Encounter/Encounter-40","resource":{"resourceType":"Encounter","id":"49c8f259-3f5c-44aa-8e7e-9b811533b60e","meta":{"profile":["http://hl7.org/fhir/us/qicore/StructureDefinition/qicore-encounter"]},"status":"finished","class":{"system":"http://terminology.hl7.org/CodeSystem/v3-ActCode","code":"AMB","display":"ambulatory"},"type":[{"coding":[{"system":"http://snomed.info/sct","code":"281036007","display":"Follow-up consultation (procedure)"}]}],"subject":{"reference":"Patient/43cf7738-291f-4ca4-92cc-1d148a99c5c8"},"period":{"start":"2024-11-01T00:00:00.000Z","end":"2024-11-01T01:15:00.000Z"}},"request":{"method":"PUT","url":"Encounter/49c8f259-3f5c-44aa-8e7e-9b811533b60e"}},{"fullUrl":"https://madie.cms.gov/Observation/Observation-40.1-1","resource":{"resourceType":"Observation","id":"eb1065c7-1607-4ffb-bc90-0e82d65882ec","meta":{"profile":["http://hl7.org/fhir/us/qicore/StructureDefinition/qicore-observation"]},"status":"final","category":[{"coding":[{"system":"http://terminology.hl7.org/CodeSystem/observation-category","code":"survey"}]}],"code":{"coding":[{"system":"http://loinc.org","code":"71969-0","display":"PROMIS-10 Global Mental Health (GMH) score T-score"}]},"subject":{"reference":"Patient/43cf7738-291f-4ca4-92cc-1d148a99c5c8"},"effectivePeriod":{"start":"2023-08-03T00:00:00.000Z","end":"2023-08-03T01:00:00.000Z"},"valueInteger":60},"request":{"method":"PUT","url":"Observation/eb1065c7-1607-4ffb-bc90-0e82d65882ec"}},{"fullUrl":"https://madie.cms.gov/Observation/Observation-40.1-2","resource":{"resourceType":"Observation","id":"fe451a9e-6816-42a6-a249-0ee86b67db1e","meta":{"profile":["http://hl7.org/fhir/us/qicore/StructureDefinition/qicore-observation"]},"status":"final","category":[{"coding":[{"system":"http://terminology.hl7.org/CodeSystem/observation-category","code":"survey"}]}],"code":{"coding":[{"system":"http://loinc.org","code":"71971-6","display":"PROMIS-10 Global Physical Health (GPH) score T-score"}]},"subject":{"reference":"Patient/43cf7738-291f-4ca4-92cc-1d148a99c5c8"},"effectivePeriod":{"start":"2023-08-03T00:00:00.000Z","end":"2023-08-03T01:00:00.000Z"},"valueInteger":60},"request":{"method":"PUT","url":"Observation/fe451a9e-6816-42a6-a249-0ee86b67db1e"}},{"fullUrl":"https://madie.cms.gov/Observation/Observation-40.2-1","resource":{"resourceType":"Observation","id":"198b04ef-8ffe-4d33-8c46-959eafdba29b","meta":{"profile":["http://hl7.org/fhir/us/qicore/StructureDefinition/qicore-observation"]},"status":"final","category":[{"coding":[{"system":"http://terminology.hl7.org/CodeSystem/observation-category","code":"survey"}]}],"code":{"coding":[{"system":"http://loinc.org","code":"71969-0","display":"PROMIS-10 Global Mental Health (GMH) score T-score"}]},"subject":{"reference":"Patient/43cf7738-291f-4ca4-92cc-1d148a99c5c8"},"effectivePeriod":{"start":"2024-12-30T00:00:00.000Z","end":"2024-12-30T01:00:00.000Z"},"valueInteger":60},"request":{"method":"PUT","url":"Observation/198b04ef-8ffe-4d33-8c46-959eafdba29b"}},{"fullUrl":"https://madie.cms.gov/Observation/Observation-40.2-2","resource":{"resourceType":"Observation","id":"d8c9367d-cdb1-4f5d-847f-334a59e42cbf","meta":{"profile":["http://hl7.org/fhir/us/qicore/StructureDefinition/qicore-observation"]},"status":"final","category":[{"coding":[{"system":"http://terminology.hl7.org/CodeSystem/observation-category","code":"survey"}]}],"code":{"coding":[{"system":"http://loinc.org","code":"71971-6","display":"PROMIS-10 Global Physical Health (GPH) score T-score"}]},"subject":{"reference":"Patient/43cf7738-291f-4ca4-92cc-1d148a99c5c8"},"effectivePeriod":{"start":"2024-12-30T00:00:00.000Z","end":"2024-12-30T01:00:00.000Z"},"valueInteger":60},"request":{"method":"PUT","url":"Observation/d8c9367d-cdb1-4f5d-847f-334a59e42cbf"}},{"fullUrl":"https://madie.cms.gov/MeasureReport/00a53b02-7c68-4828-89de-952be1048ba7","resource":{"resourceType":"MeasureReport","id":"00a53b02-7c68-4828-89de-952be1048ba7","meta":{"profile":["http://hl7.org/fhir/us/cqfmeasures/StructureDefinition/test-case-cqfm"]},"contained":[{"resourceType":"Parameters","id":"9f004362-02ad-4d6f-b04a-800d9177930c-parameters","parameter":[{"name":"subject","valueString":"43cf7738-291f-4ca4-92cc-1d148a99c5c8"}]}],"extension":[{"url":"http://hl7.org/fhir/us/cqfmeasures/StructureDefinition/cqfm-inputParameters","valueReference":{"reference":"#9f004362-02ad-4d6f-b04a-800d9177930c-parameters"}},{"url":"http://hl7.org/fhir/us/cqfmeasures/StructureDefinition/cqfm-testCaseDescription","valueMarkdown":"Patient w/ a THA Procedure 11/1, Initial Hip Assessment PROMIS10 90 days before THA Procedure(8/3), and FollowUp Hip Assessment PROMIS10 425 days after THA Procedure (12/30)"}],"modifierExtension":[{"url":"http://hl7.org/fhir/us/cqfmeasures/StructureDefinition/cqfm-isTestCase","valueBoolean":true}],"status":"complete","type":"individual","measure":"https://madie.cms.gov/Measure/FunctionalStatusAssessmentforTotalHipReplacementFHIR","period":{"start":"2025-01-01","end":"2025-12-31"},"group":[{"population":[{"code":{"coding":[{"system":"http://terminology.hl7.org/CodeSystem/measure-population","code":"initial-population","display":"Initial Population"}]},"count":1},{"code":{"coding":[{"system":"http://terminology.hl7.org/CodeSystem/measure-population","code":"denominator","display":"Denominator"}]},"count":1},{"code":{"coding":[{"system":"http://terminology.hl7.org/CodeSystem/measure-population","code":"denominator-exclusion","display":"Denominator Exclusion"}]},"count":0},{"code":{"coding":[{"system":"http://terminology.hl7.org/CodeSystem/measure-population","code":"numerator","display":"Numerator"}]},"count":1}]}]},"request":{"method":"PUT","url":"MeasureReport/00a53b02-7c68-4828-89de-952be1048ba7"}}]}