{"resourceType":"Bundle","id":"tests-d79d1c9d-5a9c-4f54-8c7c-e61801697c55-bundle","type":"transaction","entry":[{"fullUrl":"https://madie.cms.gov/Patient/d79d1c9d-5a9c-4f54-8c7c-e61801697c55","resource":{"resourceType":"Patient","id":"d79d1c9d-5a9c-4f54-8c7c-e61801697c55","meta":{"profile":["http://hl7.org/fhir/us/qicore/StructureDefinition/qicore-patient"]},"extension":[{"url":"http://hl7.org/fhir/us/core/StructureDefinition/us-core-race","extension":[{"url":"ombCategory","valueCoding":{"system":"urn:oid:2.16.840.1.113883.6.238","code":"2028-9","display":"Asian"}},{"url":"text","valueString":"Asian"}]},{"url":"http://hl7.org/fhir/us/core/StructureDefinition/us-core-ethnicity","extension":[{"url":"ombCategory","valueCoding":{"system":"urn:oid:2.16.840.1.113883.6.238","code":"2135-2","display":"Hispanic or Latino"}},{"url":"text","valueString":"Hispanic or Latino"}]}],"identifier":[{"system":"http://hospital.smarthealthit.org","value":"999999995"}],"name":[{"family":"Bertha","given":["Betty"]}],"gender":"female","birthDate":"2006-01-01"},"request":{"method":"PUT","url":"Patient/d79d1c9d-5a9c-4f54-8c7c-e61801697c55"}},{"fullUrl":"https://madie.cms.gov/Procedure/Procedure-36","resource":{"resourceType":"Procedure","id":"c3c728f8-4a11-4c8e-bfd3-8876614f82af","meta":{"profile":["http://hl7.org/fhir/us/qicore/StructureDefinition/qicore-procedure"]},"extension":[{"url":"http://hl7.org/fhir/us/qicore/StructureDefinition/qicore-recorded","valueDateTime":"2023-11-01T00:00:00.000Z"}],"status":"completed","code":{"coding":[{"system":"http://www.cms.gov/Medicare/Coding/ICD10","code":"0SR9019","display":"Replacement of Right Hip Joint with Metal Synthetic Substitute, Cemented, Open Approach"}]},"subject":{"reference":"Patient/d79d1c9d-5a9c-4f54-8c7c-e61801697c55"},"performedPeriod":{"start":"2023-11-01T00:00:00.000Z","end":"2023-11-01T01:00:00.000Z"}},"request":{"method":"PUT","url":"Procedure/c3c728f8-4a11-4c8e-bfd3-8876614f82af"}},{"fullUrl":"https://madie.cms.gov/Encounter/Encounter-36","resource":{"resourceType":"Encounter","id":"a01c6719-e2a7-442b-801b-6d923e2b316d","meta":{"profile":["http://hl7.org/fhir/us/qicore/StructureDefinition/qicore-encounter"]},"status":"finished","class":{"system":"http://terminology.hl7.org/CodeSystem/v3-ActCode","code":"AMB","display":"ambulatory"},"type":[{"coding":[{"system":"http://snomed.info/sct","code":"281036007","display":"Follow-up consultation (procedure)"}]}],"subject":{"reference":"Patient/d79d1c9d-5a9c-4f54-8c7c-e61801697c55"},"period":{"start":"2024-11-01T00:00:00.000Z","end":"2024-11-01T01:15:00.000Z"}},"request":{"method":"PUT","url":"Encounter/a01c6719-e2a7-442b-801b-6d923e2b316d"}},{"fullUrl":"https://madie.cms.gov/Observation/Observation-36.1-1","resource":{"resourceType":"Observation","id":"af835644-1a01-4a3b-a458-ea7577a942e6","meta":{"profile":["http://hl7.org/fhir/us/qicore/StructureDefinition/qicore-observation"]},"status":"final","category":[{"coding":[{"system":"http://terminology.hl7.org/CodeSystem/observation-category","code":"survey"}]}],"code":{"coding":[{"system":"http://loinc.org","code":"72093-8","display":"Quality of life score [HOOS]"}]},"subject":{"reference":"Patient/d79d1c9d-5a9c-4f54-8c7c-e61801697c55"},"effectivePeriod":{"start":"2023-08-02T00:00:00.000Z","end":"2023-08-02T01:00:00.000Z"},"valueInteger":60},"request":{"method":"PUT","url":"Observation/af835644-1a01-4a3b-a458-ea7577a942e6"}},{"fullUrl":"https://madie.cms.gov/Observation/Observation-36.1-2","resource":{"resourceType":"Observation","id":"381cf65d-c4ca-487f-885a-517cdc990719","meta":{"profile":["http://hl7.org/fhir/us/qicore/StructureDefinition/qicore-observation"]},"status":"final","category":[{"coding":[{"system":"http://terminology.hl7.org/CodeSystem/observation-category","code":"survey"}]}],"code":{"coding":[{"system":"http://loinc.org","code":"72094-6","display":"Sport-recreation score [HOOS]"}]},"subject":{"reference":"Patient/d79d1c9d-5a9c-4f54-8c7c-e61801697c55"},"effectivePeriod":{"start":"2023-08-02T00:00:00.000Z","end":"2023-08-02T01:00:00.000Z"},"valueInteger":60},"request":{"method":"PUT","url":"Observation/381cf65d-c4ca-487f-885a-517cdc990719"}},{"fullUrl":"https://madie.cms.gov/Observation/Observation-36.1-3","resource":{"resourceType":"Observation","id":"233234d6-a415-41e4-9a24-79e2cfb7db43","meta":{"profile":["http://hl7.org/fhir/us/qicore/StructureDefinition/qicore-observation"]},"status":"final","category":[{"coding":[{"system":"http://terminology.hl7.org/CodeSystem/observation-category","code":"survey"}]}],"code":{"coding":[{"system":"http://loinc.org","code":"72095-3","display":"Activities of daily living score [HOOS]"}]},"subject":{"reference":"Patient/d79d1c9d-5a9c-4f54-8c7c-e61801697c55"},"effectivePeriod":{"start":"2023-08-02T00:00:00.000Z","end":"2023-08-02T01:00:00.000Z"},"valueInteger":60},"request":{"method":"PUT","url":"Observation/233234d6-a415-41e4-9a24-79e2cfb7db43"}},{"fullUrl":"https://madie.cms.gov/Observation/Observation-36.1-4","resource":{"resourceType":"Observation","id":"86a53d93-deed-4381-b22c-6f02b35c6bee","meta":{"profile":["http://hl7.org/fhir/us/qicore/StructureDefinition/qicore-observation"]},"status":"final","category":[{"coding":[{"system":"http://terminology.hl7.org/CodeSystem/observation-category","code":"survey"}]}],"code":{"coding":[{"system":"http://loinc.org","code":"72096-1","display":"Symptoms score [HOOS]"}]},"subject":{"reference":"Patient/d79d1c9d-5a9c-4f54-8c7c-e61801697c55"},"effectivePeriod":{"start":"2023-08-02T00:00:00.000Z","end":"2023-08-02T01:00:00.000Z"},"valueInteger":60},"request":{"method":"PUT","url":"Observation/86a53d93-deed-4381-b22c-6f02b35c6bee"}},{"fullUrl":"https://madie.cms.gov/Observation/Observation-36.1-5","resource":{"resourceType":"Observation","id":"74a03deb-43df-445a-8c51-357701929dbe","meta":{"profile":["http://hl7.org/fhir/us/qicore/StructureDefinition/qicore-observation"]},"status":"final","category":[{"coding":[{"system":"http://terminology.hl7.org/CodeSystem/observation-category","code":"survey"}]}],"code":{"coding":[{"system":"http://loinc.org","code":"72097-9","display":"Pain score [HOOS]"}]},"subject":{"reference":"Patient/d79d1c9d-5a9c-4f54-8c7c-e61801697c55"},"effectivePeriod":{"start":"2023-08-02T00:00:00.000Z","end":"2023-08-02T01:00:00.000Z"},"valueInteger":60},"request":{"method":"PUT","url":"Observation/74a03deb-43df-445a-8c51-357701929dbe"}},{"fullUrl":"https://madie.cms.gov/Observation/Observation-36.2-1","resource":{"resourceType":"Observation","id":"aacee917-57e9-4a52-a409-f98913c0caf7","meta":{"profile":["http://hl7.org/fhir/us/qicore/StructureDefinition/qicore-observation"]},"status":"final","category":[{"coding":[{"system":"http://terminology.hl7.org/CodeSystem/observation-category","code":"survey"}]}],"code":{"coding":[{"system":"http://loinc.org","code":"72093-8","display":"Quality of life score [HOOS]"}]},"subject":{"reference":"Patient/d79d1c9d-5a9c-4f54-8c7c-e61801697c55"},"effectivePeriod":{"start":"2024-12-31T00:00:00.000Z","end":"2024-12-31T01:00:00.000Z"},"valueInteger":60},"request":{"method":"PUT","url":"Observation/aacee917-57e9-4a52-a409-f98913c0caf7"}},{"fullUrl":"https://madie.cms.gov/Observation/Observation-36.2-2","resource":{"resourceType":"Observation","id":"55d6adb8-cc06-4a0d-8cbc-5838e8badc6b","meta":{"profile":["http://hl7.org/fhir/us/qicore/StructureDefinition/qicore-observation"]},"status":"final","category":[{"coding":[{"system":"http://terminology.hl7.org/CodeSystem/observation-category","code":"survey"}]}],"code":{"coding":[{"system":"http://loinc.org","code":"72094-6","display":"Sport-recreation score [HOOS]"}]},"subject":{"reference":"Patient/d79d1c9d-5a9c-4f54-8c7c-e61801697c55"},"effectivePeriod":{"start":"2024-12-31T00:00:00.000Z","end":"2024-12-31T01:00:00.000Z"},"valueInteger":60},"request":{"method":"PUT","url":"Observation/55d6adb8-cc06-4a0d-8cbc-5838e8badc6b"}},{"fullUrl":"https://madie.cms.gov/Observation/Observation-36.2-3","resource":{"resourceType":"Observation","id":"04452159-d584-4963-997a-cae0bbd254a2","meta":{"profile":["http://hl7.org/fhir/us/qicore/StructureDefinition/qicore-observation"]},"status":"final","category":[{"coding":[{"system":"http://terminology.hl7.org/CodeSystem/observation-category","code":"survey"}]}],"code":{"coding":[{"system":"http://loinc.org","code":"72095-3","display":"Activities of daily living score [HOOS]"}]},"subject":{"reference":"Patient/d79d1c9d-5a9c-4f54-8c7c-e61801697c55"},"effectivePeriod":{"start":"2024-12-31T00:00:00.000Z","end":"2024-12-31T01:00:00.000Z"},"valueInteger":60},"request":{"method":"PUT","url":"Observation/04452159-d584-4963-997a-cae0bbd254a2"}},{"fullUrl":"https://madie.cms.gov/Observation/Observation-36.2-4","resource":{"resourceType":"Observation","id":"36da0506-b482-443c-9b91-57dc9a7f27a2","meta":{"profile":["http://hl7.org/fhir/us/qicore/StructureDefinition/qicore-observation"]},"status":"final","category":[{"coding":[{"system":"http://terminology.hl7.org/CodeSystem/observation-category","code":"survey"}]}],"code":{"coding":[{"system":"http://loinc.org","code":"72096-1","display":"Symptoms score [HOOS]"}]},"subject":{"reference":"Patient/d79d1c9d-5a9c-4f54-8c7c-e61801697c55"},"effectivePeriod":{"start":"2024-12-31T00:00:00.000Z","end":"2024-12-31T01:00:00.000Z"},"valueInteger":60},"request":{"method":"PUT","url":"Observation/36da0506-b482-443c-9b91-57dc9a7f27a2"}},{"fullUrl":"https://madie.cms.gov/Observation/Observation-36.2-5","resource":{"resourceType":"Observation","id":"6790e7a2-6c4f-480c-9546-4497587c2201","meta":{"profile":["http://hl7.org/fhir/us/qicore/StructureDefinition/qicore-observation"]},"status":"final","category":[{"coding":[{"system":"http://terminology.hl7.org/CodeSystem/observation-category","code":"survey"}]}],"code":{"coding":[{"system":"http://loinc.org","code":"72097-9","display":"Pain score [HOOS]"}]},"subject":{"reference":"Patient/d79d1c9d-5a9c-4f54-8c7c-e61801697c55"},"effectivePeriod":{"start":"2024-12-31T00:00:00.000Z","end":"2024-12-31T01:00:00.000Z"},"valueInteger":60},"request":{"method":"PUT","url":"Observation/6790e7a2-6c4f-480c-9546-4497587c2201"}},{"fullUrl":"https://madie.cms.gov/MeasureReport/537ff646-cde4-4951-8d97-a7f2f551d27a","resource":{"resourceType":"MeasureReport","id":"537ff646-cde4-4951-8d97-a7f2f551d27a","meta":{"profile":["http://hl7.org/fhir/us/cqfmeasures/StructureDefinition/test-case-cqfm"]},"contained":[{"resourceType":"Parameters","id":"5ee9fb9a-bf44-40b8-a4e2-f0202adacc84-parameters","parameter":[{"name":"subject","valueString":"d79d1c9d-5a9c-4f54-8c7c-e61801697c55"}]}],"extension":[{"url":"http://hl7.org/fhir/us/cqfmeasures/StructureDefinition/cqfm-inputParameters","valueReference":{"reference":"#5ee9fb9a-bf44-40b8-a4e2-f0202adacc84-parameters"}},{"url":"http://hl7.org/fhir/us/cqfmeasures/StructureDefinition/cqfm-testCaseDescription","valueMarkdown":"Patient w/ a THA Procedure 11/1, Initial Hip Assessment 91 days before THA Procedure(8/2), and FollowUp Hip Assessment HOOS 425 days after THA Procedure (12/30)"}],"modifierExtension":[{"url":"http://hl7.org/fhir/us/cqfmeasures/StructureDefinition/cqfm-isTestCase","valueBoolean":true}],"status":"complete","type":"individual","measure":"https://madie.cms.gov/Measure/FunctionalStatusAssessmentforTotalHipReplacementFHIR","period":{"start":"2025-01-01","end":"2025-12-31"},"group":[{"population":[{"code":{"coding":[{"system":"http://terminology.hl7.org/CodeSystem/measure-population","code":"initial-population","display":"Initial Population"}]},"count":1},{"code":{"coding":[{"system":"http://terminology.hl7.org/CodeSystem/measure-population","code":"denominator","display":"Denominator"}]},"count":1},{"code":{"coding":[{"system":"http://terminology.hl7.org/CodeSystem/measure-population","code":"denominator-exclusion","display":"Denominator Exclusion"}]},"count":0},{"code":{"coding":[{"system":"http://terminology.hl7.org/CodeSystem/measure-population","code":"numerator","display":"Numerator"}]},"count":0}]}]},"request":{"method":"PUT","url":"MeasureReport/537ff646-cde4-4951-8d97-a7f2f551d27a"}}]}