{"resourceType":"Bundle","id":"tests-7f657b60-128b-4453-b085-73e8b21a48cc-bundle","type":"transaction","entry":[{"fullUrl":"https://madie.cms.gov/Patient/7f657b60-128b-4453-b085-73e8b21a48cc","resource":{"resourceType":"Patient","id":"7f657b60-128b-4453-b085-73e8b21a48cc","meta":{"profile":["http://hl7.org/fhir/us/qicore/StructureDefinition/qicore-patient"]},"extension":[{"url":"http://hl7.org/fhir/us/core/StructureDefinition/us-core-race","extension":[{"url":"ombCategory","valueCoding":{"system":"urn:oid:2.16.840.1.113883.6.238","code":"2028-9","display":"Asian"}},{"url":"text","valueString":"Asian"}]},{"url":"http://hl7.org/fhir/us/core/StructureDefinition/us-core-ethnicity","extension":[{"url":"ombCategory","valueCoding":{"system":"urn:oid:2.16.840.1.113883.6.238","code":"2135-2","display":"Hispanic or Latino"}},{"url":"text","valueString":"Hispanic or Latino"}]}],"identifier":[{"system":"http://hospital.smarthealthit.org","value":"999999995"}],"name":[{"family":"Bertha","given":["Betty"]}],"gender":"female","birthDate":"2006-01-01"},"request":{"method":"PUT","url":"Patient/7f657b60-128b-4453-b085-73e8b21a48cc"}},{"fullUrl":"https://madie.cms.gov/Procedure/Procedure-34","resource":{"resourceType":"Procedure","id":"86daee7e-71a2-46b9-92a5-60da8312b8bc","meta":{"profile":["http://hl7.org/fhir/us/qicore/StructureDefinition/qicore-procedure"]},"extension":[{"url":"http://hl7.org/fhir/us/qicore/StructureDefinition/qicore-recorded","valueDateTime":"2023-11-01T00:00:00.000Z"}],"status":"completed","code":{"coding":[{"system":"http://www.cms.gov/Medicare/Coding/ICD10","code":"0SR9019","display":"Replacement of Right Hip Joint with Metal Synthetic Substitute, Cemented, Open Approach"}]},"subject":{"reference":"Patient/7f657b60-128b-4453-b085-73e8b21a48cc"},"performedPeriod":{"start":"2023-11-01T00:00:00.000Z","end":"2023-11-01T01:00:00.000Z"}},"request":{"method":"PUT","url":"Procedure/86daee7e-71a2-46b9-92a5-60da8312b8bc"}},{"fullUrl":"https://madie.cms.gov/Encounter/Encounter-34","resource":{"resourceType":"Encounter","id":"507b7414-1362-4f47-91c3-fa06119f37fd","meta":{"profile":["http://hl7.org/fhir/us/qicore/StructureDefinition/qicore-encounter"]},"status":"finished","class":{"system":"http://terminology.hl7.org/CodeSystem/v3-ActCode","code":"AMB","display":"ambulatory"},"type":[{"coding":[{"system":"http://snomed.info/sct","code":"281036007","display":"Follow-up consultation (procedure)"}]}],"subject":{"reference":"Patient/7f657b60-128b-4453-b085-73e8b21a48cc"},"period":{"start":"2024-11-01T00:00:00.000Z","end":"2024-11-01T01:15:00.000Z"}},"request":{"method":"PUT","url":"Encounter/507b7414-1362-4f47-91c3-fa06119f37fd"}},{"fullUrl":"https://madie.cms.gov/Observation/Observation-34.1-1","resource":{"resourceType":"Observation","id":"28b3b634-1a72-41b0-9ec1-54fd63ffc4bb","meta":{"profile":["http://hl7.org/fhir/us/qicore/StructureDefinition/qicore-observation"]},"status":"final","category":[{"coding":[{"system":"http://terminology.hl7.org/CodeSystem/observation-category","code":"survey"}]}],"code":{"coding":[{"system":"http://loinc.org","code":"72093-8","display":"Quality of life score [HOOS]"}]},"subject":{"reference":"Patient/7f657b60-128b-4453-b085-73e8b21a48cc"},"effectivePeriod":{"start":"2023-08-02T00:00:00.000Z","end":"2023-08-02T01:00:00.000Z"},"valueInteger":60},"request":{"method":"PUT","url":"Observation/28b3b634-1a72-41b0-9ec1-54fd63ffc4bb"}},{"fullUrl":"https://madie.cms.gov/Observation/Observation-34.1-2","resource":{"resourceType":"Observation","id":"62ee4d5a-a17f-41cd-879d-28cc861a12fc","meta":{"profile":["http://hl7.org/fhir/us/qicore/StructureDefinition/qicore-observation"]},"status":"final","category":[{"coding":[{"system":"http://terminology.hl7.org/CodeSystem/observation-category","code":"survey"}]}],"code":{"coding":[{"system":"http://loinc.org","code":"72094-6","display":"Sport-recreation score [HOOS]"}]},"subject":{"reference":"Patient/7f657b60-128b-4453-b085-73e8b21a48cc"},"effectivePeriod":{"start":"2023-08-02T00:00:00.000Z","end":"2023-08-02T01:00:00.000Z"},"valueInteger":60},"request":{"method":"PUT","url":"Observation/62ee4d5a-a17f-41cd-879d-28cc861a12fc"}},{"fullUrl":"https://madie.cms.gov/Observation/Observation-34.1-3","resource":{"resourceType":"Observation","id":"2c325d57-b5ee-4a7c-a242-b924869b8690","meta":{"profile":["http://hl7.org/fhir/us/qicore/StructureDefinition/qicore-observation"]},"status":"final","category":[{"coding":[{"system":"http://terminology.hl7.org/CodeSystem/observation-category","code":"survey"}]}],"code":{"coding":[{"system":"http://loinc.org","code":"72095-3","display":"Activities of daily living score [HOOS]"}]},"subject":{"reference":"Patient/7f657b60-128b-4453-b085-73e8b21a48cc"},"effectivePeriod":{"start":"2023-08-02T00:00:00.000Z","end":"2023-08-02T01:00:00.000Z"},"valueInteger":60},"request":{"method":"PUT","url":"Observation/2c325d57-b5ee-4a7c-a242-b924869b8690"}},{"fullUrl":"https://madie.cms.gov/Observation/Observation-34.1-4","resource":{"resourceType":"Observation","id":"15c69080-5d2c-4c63-bccf-2b462c6e7c6b","meta":{"profile":["http://hl7.org/fhir/us/qicore/StructureDefinition/qicore-observation"]},"status":"final","category":[{"coding":[{"system":"http://terminology.hl7.org/CodeSystem/observation-category","code":"survey"}]}],"code":{"coding":[{"system":"http://loinc.org","code":"72096-1","display":"Symptoms score [HOOS]"}]},"subject":{"reference":"Patient/7f657b60-128b-4453-b085-73e8b21a48cc"},"effectivePeriod":{"start":"2023-08-02T00:00:00.000Z","end":"2023-08-02T01:00:00.000Z"},"valueInteger":60},"request":{"method":"PUT","url":"Observation/15c69080-5d2c-4c63-bccf-2b462c6e7c6b"}},{"fullUrl":"https://madie.cms.gov/Observation/Observation-34.1-5","resource":{"resourceType":"Observation","id":"a8abac8e-8bcf-405d-afee-350fc4e07791","meta":{"profile":["http://hl7.org/fhir/us/qicore/StructureDefinition/qicore-observation"]},"status":"final","category":[{"coding":[{"system":"http://terminology.hl7.org/CodeSystem/observation-category","code":"survey"}]}],"code":{"coding":[{"system":"http://loinc.org","code":"72097-9","display":"Pain score [HOOS]"}]},"subject":{"reference":"Patient/7f657b60-128b-4453-b085-73e8b21a48cc"},"effectivePeriod":{"start":"2023-08-02T00:00:00.000Z","end":"2023-08-02T01:00:00.000Z"},"valueInteger":60},"request":{"method":"PUT","url":"Observation/a8abac8e-8bcf-405d-afee-350fc4e07791"}},{"fullUrl":"https://madie.cms.gov/Observation/Observation-34.2-1","resource":{"resourceType":"Observation","id":"04a72e27-c568-4666-91a6-0986ab8587e9","meta":{"profile":["http://hl7.org/fhir/us/qicore/StructureDefinition/qicore-observation"]},"status":"final","category":[{"coding":[{"system":"http://terminology.hl7.org/CodeSystem/observation-category","code":"survey"}]}],"code":{"coding":[{"system":"http://loinc.org","code":"72093-8","display":"Quality of life score [HOOS]"}]},"subject":{"reference":"Patient/7f657b60-128b-4453-b085-73e8b21a48cc"},"effectivePeriod":{"start":"2024-12-30T00:00:00.000Z","end":"2024-12-30T01:00:00.000Z"},"valueInteger":60},"request":{"method":"PUT","url":"Observation/04a72e27-c568-4666-91a6-0986ab8587e9"}},{"fullUrl":"https://madie.cms.gov/Observation/Observation-34.2-2","resource":{"resourceType":"Observation","id":"60860583-64db-478c-8cef-b16fedfd2dac","meta":{"profile":["http://hl7.org/fhir/us/qicore/StructureDefinition/qicore-observation"]},"status":"final","category":[{"coding":[{"system":"http://terminology.hl7.org/CodeSystem/observation-category","code":"survey"}]}],"code":{"coding":[{"system":"http://loinc.org","code":"72094-6","display":"Sport-recreation score [HOOS]"}]},"subject":{"reference":"Patient/7f657b60-128b-4453-b085-73e8b21a48cc"},"effectivePeriod":{"start":"2024-12-30T00:00:00.000Z","end":"2024-12-30T01:00:00.000Z"},"valueInteger":60},"request":{"method":"PUT","url":"Observation/60860583-64db-478c-8cef-b16fedfd2dac"}},{"fullUrl":"https://madie.cms.gov/Observation/Observation-34.2-3","resource":{"resourceType":"Observation","id":"a50e017f-fdc3-4315-b0d8-6723ecdbb89a","meta":{"profile":["http://hl7.org/fhir/us/qicore/StructureDefinition/qicore-observation"]},"status":"final","category":[{"coding":[{"system":"http://terminology.hl7.org/CodeSystem/observation-category","code":"survey"}]}],"code":{"coding":[{"system":"http://loinc.org","code":"72095-3","display":"Activities of daily living score [HOOS]"}]},"subject":{"reference":"Patient/7f657b60-128b-4453-b085-73e8b21a48cc"},"effectivePeriod":{"start":"2024-12-30T00:00:00.000Z","end":"2024-12-30T01:00:00.000Z"},"valueInteger":60},"request":{"method":"PUT","url":"Observation/a50e017f-fdc3-4315-b0d8-6723ecdbb89a"}},{"fullUrl":"https://madie.cms.gov/Observation/Observation-34.2-4","resource":{"resourceType":"Observation","id":"989959af-1b5a-4b96-a12d-55b9252f7d48","meta":{"profile":["http://hl7.org/fhir/us/qicore/StructureDefinition/qicore-observation"]},"status":"final","category":[{"coding":[{"system":"http://terminology.hl7.org/CodeSystem/observation-category","code":"survey"}]}],"code":{"coding":[{"system":"http://loinc.org","code":"72096-1","display":"Symptoms score [HOOS]"}]},"subject":{"reference":"Patient/7f657b60-128b-4453-b085-73e8b21a48cc"},"effectivePeriod":{"start":"2024-12-30T00:00:00.000Z","end":"2024-12-30T01:00:00.000Z"},"valueInteger":60},"request":{"method":"PUT","url":"Observation/989959af-1b5a-4b96-a12d-55b9252f7d48"}},{"fullUrl":"https://madie.cms.gov/Observation/Observation-34.2-5","resource":{"resourceType":"Observation","id":"c0d4dbb1-f9a3-46fe-bef3-04a182ce9fb9","meta":{"profile":["http://hl7.org/fhir/us/qicore/StructureDefinition/qicore-observation"]},"status":"final","category":[{"coding":[{"system":"http://terminology.hl7.org/CodeSystem/observation-category","code":"survey"}]}],"code":{"coding":[{"system":"http://loinc.org","code":"72097-9","display":"Pain score [HOOS]"}]},"subject":{"reference":"Patient/7f657b60-128b-4453-b085-73e8b21a48cc"},"effectivePeriod":{"start":"2024-12-30T00:00:00.000Z","end":"2024-12-30T01:00:00.000Z"},"valueInteger":60},"request":{"method":"PUT","url":"Observation/c0d4dbb1-f9a3-46fe-bef3-04a182ce9fb9"}},{"fullUrl":"https://madie.cms.gov/MeasureReport/0b9913ba-8752-41ab-8b1e-6675a3844926","resource":{"resourceType":"MeasureReport","id":"0b9913ba-8752-41ab-8b1e-6675a3844926","meta":{"profile":["http://hl7.org/fhir/us/cqfmeasures/StructureDefinition/test-case-cqfm"]},"contained":[{"resourceType":"Parameters","id":"1a0a3836-fc61-4a6b-b9a0-2484babc9869-parameters","parameter":[{"name":"subject","valueString":"7f657b60-128b-4453-b085-73e8b21a48cc"}]}],"extension":[{"url":"http://hl7.org/fhir/us/cqfmeasures/StructureDefinition/cqfm-inputParameters","valueReference":{"reference":"#1a0a3836-fc61-4a6b-b9a0-2484babc9869-parameters"}},{"url":"http://hl7.org/fhir/us/cqfmeasures/StructureDefinition/cqfm-testCaseDescription","valueMarkdown":"Patient w/ a THA Procedure 11/1, Initial Hip Assessment 91 days before THA Procedure(8/2), and FollowUp Hip Assessment HOOS 425 days after THA Procedure (12/30)\""}],"modifierExtension":[{"url":"http://hl7.org/fhir/us/cqfmeasures/StructureDefinition/cqfm-isTestCase","valueBoolean":true}],"status":"complete","type":"individual","measure":"https://madie.cms.gov/Measure/FunctionalStatusAssessmentforTotalHipReplacementFHIR","period":{"start":"2025-01-01","end":"2025-12-31"},"group":[{"population":[{"code":{"coding":[{"system":"http://terminology.hl7.org/CodeSystem/measure-population","code":"initial-population","display":"Initial Population"}]},"count":1},{"code":{"coding":[{"system":"http://terminology.hl7.org/CodeSystem/measure-population","code":"denominator","display":"Denominator"}]},"count":1},{"code":{"coding":[{"system":"http://terminology.hl7.org/CodeSystem/measure-population","code":"denominator-exclusion","display":"Denominator Exclusion"}]},"count":0},{"code":{"coding":[{"system":"http://terminology.hl7.org/CodeSystem/measure-population","code":"numerator","display":"Numerator"}]},"count":0}]}]},"request":{"method":"PUT","url":"MeasureReport/0b9913ba-8752-41ab-8b1e-6675a3844926"}}]}