{"resourceType":"Bundle","id":"tests-43cf7738-291f-4ca4-92cc-1d148a99c5c8-bundle","type":"transaction","entry":[{"fullUrl":"https://madie.cms.gov/Patient/43cf7738-291f-4ca4-92cc-1d148a99c5c8","resource":{"resourceType":"Patient","id":"43cf7738-291f-4ca4-92cc-1d148a99c5c8","meta":{"profile":["http://hl7.org/fhir/us/qicore/StructureDefinition/qicore-patient"]},"extension":[{"url":"http://hl7.org/fhir/us/core/StructureDefinition/us-core-race","extension":[{"url":"ombCategory","valueCoding":{"system":"urn:oid:2.16.840.1.113883.6.238","code":"2028-9","display":"Asian"}},{"url":"text","valueString":"Asian"}]},{"url":"http://hl7.org/fhir/us/core/StructureDefinition/us-core-ethnicity","extension":[{"url":"ombCategory","valueCoding":{"system":"urn:oid:2.16.840.1.113883.6.238","code":"2135-2","display":"Hispanic or Latino"}},{"url":"text","valueString":"Hispanic or Latino"}]}],"identifier":[{"system":"http://hospital.smarthealthit.org","value":"999999995"}],"name":[{"family":"Bertha","given":["Betty"]}],"gender":"female","birthDate":"2006-01-01"},"request":{"method":"PUT","url":"Patient/43cf7738-291f-4ca4-92cc-1d148a99c5c8"}},{"fullUrl":"https://madie.cms.gov/Procedure/Procedure-40","resource":{"resourceType":"Procedure","id":"1cd4d2f8-af55-4643-aba7-965422d3616a","meta":{"profile":["http://hl7.org/fhir/us/qicore/StructureDefinition/qicore-procedure"]},"extension":[{"url":"http://hl7.org/fhir/us/qicore/StructureDefinition/qicore-recorded","valueDateTime":"2023-11-01T00:00:00.000Z"}],"status":"completed","code":{"coding":[{"system":"http://www.cms.gov/Medicare/Coding/ICD10","code":"0SR9019","display":"Replacement of Right Hip Joint with Metal Synthetic Substitute, Cemented, Open Approach"}]},"subject":{"reference":"Patient/43cf7738-291f-4ca4-92cc-1d148a99c5c8"},"performedPeriod":{"start":"2023-11-01T00:00:00.000Z","end":"2023-11-01T01:00:00.000Z"}},"request":{"method":"PUT","url":"Procedure/1cd4d2f8-af55-4643-aba7-965422d3616a"}},{"fullUrl":"https://madie.cms.gov/Encounter/Encounter-40","resource":{"resourceType":"Encounter","id":"63310eb5-e81b-48c5-ba37-d4c51ad58f3c","meta":{"profile":["http://hl7.org/fhir/us/qicore/StructureDefinition/qicore-encounter"]},"status":"finished","class":{"system":"http://terminology.hl7.org/CodeSystem/v3-ActCode","code":"AMB","display":"ambulatory"},"type":[{"coding":[{"system":"http://snomed.info/sct","code":"281036007","display":"Follow-up consultation (procedure)"}]}],"subject":{"reference":"Patient/43cf7738-291f-4ca4-92cc-1d148a99c5c8"},"period":{"start":"2024-11-01T00:00:00.000Z","end":"2024-11-01T01:15:00.000Z"}},"request":{"method":"PUT","url":"Encounter/63310eb5-e81b-48c5-ba37-d4c51ad58f3c"}},{"fullUrl":"https://madie.cms.gov/Observation/Observation-40.1-1","resource":{"resourceType":"Observation","id":"753f75a9-a53a-4fac-862b-6f4826a34786","meta":{"profile":["http://hl7.org/fhir/us/qicore/StructureDefinition/qicore-observation"]},"status":"final","category":[{"coding":[{"system":"http://terminology.hl7.org/CodeSystem/observation-category","code":"survey"}]}],"code":{"coding":[{"system":"http://loinc.org","code":"71969-0","display":"PROMIS-10 Global Mental Health (GMH) score T-score"}]},"subject":{"reference":"Patient/43cf7738-291f-4ca4-92cc-1d148a99c5c8"},"effectivePeriod":{"start":"2023-08-03T00:00:00.000Z","end":"2023-08-03T01:00:00.000Z"},"valueInteger":60},"request":{"method":"PUT","url":"Observation/753f75a9-a53a-4fac-862b-6f4826a34786"}},{"fullUrl":"https://madie.cms.gov/Observation/Observation-40.1-2","resource":{"resourceType":"Observation","id":"298298f5-2fb3-4b8f-90c0-5a6d6c706862","meta":{"profile":["http://hl7.org/fhir/us/qicore/StructureDefinition/qicore-observation"]},"status":"final","category":[{"coding":[{"system":"http://terminology.hl7.org/CodeSystem/observation-category","code":"survey"}]}],"code":{"coding":[{"system":"http://loinc.org","code":"71971-6","display":"PROMIS-10 Global Physical Health (GPH) score T-score"}]},"subject":{"reference":"Patient/43cf7738-291f-4ca4-92cc-1d148a99c5c8"},"effectivePeriod":{"start":"2023-08-03T00:00:00.000Z","end":"2023-08-03T01:00:00.000Z"},"valueInteger":60},"request":{"method":"PUT","url":"Observation/298298f5-2fb3-4b8f-90c0-5a6d6c706862"}},{"fullUrl":"https://madie.cms.gov/Observation/Observation-40.2-1","resource":{"resourceType":"Observation","id":"bd9edd63-d0fe-479f-ad4e-349c092ee604","meta":{"profile":["http://hl7.org/fhir/us/qicore/StructureDefinition/qicore-observation"]},"status":"final","category":[{"coding":[{"system":"http://terminology.hl7.org/CodeSystem/observation-category","code":"survey"}]}],"code":{"coding":[{"system":"http://loinc.org","code":"71969-0","display":"PROMIS-10 Global Mental Health (GMH) score T-score"}]},"subject":{"reference":"Patient/43cf7738-291f-4ca4-92cc-1d148a99c5c8"},"effectivePeriod":{"start":"2024-12-30T00:00:00.000Z","end":"2024-12-30T01:00:00.000Z"},"valueInteger":60},"request":{"method":"PUT","url":"Observation/bd9edd63-d0fe-479f-ad4e-349c092ee604"}},{"fullUrl":"https://madie.cms.gov/Observation/Observation-40.2-2","resource":{"resourceType":"Observation","id":"1f1c77ed-dc6d-40c2-b779-d940c863f6ec","meta":{"profile":["http://hl7.org/fhir/us/qicore/StructureDefinition/qicore-observation"]},"status":"final","category":[{"coding":[{"system":"http://terminology.hl7.org/CodeSystem/observation-category","code":"survey"}]}],"code":{"coding":[{"system":"http://loinc.org","code":"71971-6","display":"PROMIS-10 Global Physical Health (GPH) score T-score"}]},"subject":{"reference":"Patient/43cf7738-291f-4ca4-92cc-1d148a99c5c8"},"effectivePeriod":{"start":"2024-12-30T00:00:00.000Z","end":"2024-12-30T01:00:00.000Z"},"valueInteger":60},"request":{"method":"PUT","url":"Observation/1f1c77ed-dc6d-40c2-b779-d940c863f6ec"}},{"fullUrl":"https://madie.cms.gov/MeasureReport/00a53b02-7c68-4828-89de-952be1048ba7","resource":{"resourceType":"MeasureReport","id":"00a53b02-7c68-4828-89de-952be1048ba7","meta":{"profile":["http://hl7.org/fhir/us/cqfmeasures/StructureDefinition/test-case-cqfm"]},"contained":[{"resourceType":"Parameters","id":"9f004362-02ad-4d6f-b04a-800d9177930c-parameters","parameter":[{"name":"subject","valueString":"43cf7738-291f-4ca4-92cc-1d148a99c5c8"}]}],"extension":[{"url":"http://hl7.org/fhir/us/cqfmeasures/StructureDefinition/cqfm-inputParameters","valueReference":{"reference":"#9f004362-02ad-4d6f-b04a-800d9177930c-parameters"}},{"url":"http://hl7.org/fhir/us/cqfmeasures/StructureDefinition/cqfm-testCaseDescription","valueMarkdown":"Patient w/ a THA Procedure 11/1, Initial Hip Assessment PROMIS10 90 days before THA Procedure(8/3), and FollowUp Hip Assessment PROMIS10 425 days after THA Procedure (12/30)"}],"modifierExtension":[{"url":"http://hl7.org/fhir/us/cqfmeasures/StructureDefinition/cqfm-isTestCase","valueBoolean":true}],"status":"complete","type":"individual","measure":"https://madie.cms.gov/Measure/FunctionalStatusAssessmentforTotalHipReplacementFHIR","period":{"start":"2025-01-01","end":"2025-12-31"},"group":[{"population":[{"code":{"coding":[{"system":"http://terminology.hl7.org/CodeSystem/measure-population","code":"initial-population","display":"Initial Population"}]},"count":1},{"code":{"coding":[{"system":"http://terminology.hl7.org/CodeSystem/measure-population","code":"denominator","display":"Denominator"}]},"count":1},{"code":{"coding":[{"system":"http://terminology.hl7.org/CodeSystem/measure-population","code":"denominator-exclusion","display":"Denominator Exclusion"}]},"count":0},{"code":{"coding":[{"system":"http://terminology.hl7.org/CodeSystem/measure-population","code":"numerator","display":"Numerator"}]},"count":1}]}]},"request":{"method":"PUT","url":"MeasureReport/00a53b02-7c68-4828-89de-952be1048ba7"}}]}