{"resourceType":"Bundle","id":"tests-ba296236-cee8-4ec1-aa6b-341477c99af2-bundle","type":"transaction","entry":[{"fullUrl":"https://madie.cms.gov/Patient/ba296236-cee8-4ec1-aa6b-341477c99af2","resource":{"resourceType":"Patient","id":"ba296236-cee8-4ec1-aa6b-341477c99af2","meta":{"profile":["http://hl7.org/fhir/us/qicore/StructureDefinition/qicore-patient"]},"extension":[{"url":"http://hl7.org/fhir/us/core/StructureDefinition/us-core-race","extension":[{"url":"ombCategory","valueCoding":{"system":"urn:oid:2.16.840.1.113883.6.238","code":"2028-9","display":"Asian"}},{"url":"text","valueString":"Asian"}]},{"url":"http://hl7.org/fhir/us/core/StructureDefinition/us-core-ethnicity","extension":[{"url":"ombCategory","valueCoding":{"system":"urn:oid:2.16.840.1.113883.6.238","code":"2135-2","display":"Hispanic or Latino"}},{"url":"text","valueString":"Hispanic or Latino"}]}],"identifier":[{"system":"http://hospital.smarthealthit.org","value":"999999995"}],"name":[{"family":"Bertha","given":["Betty"]}],"gender":"female","birthDate":"2006-01-01"},"request":{"method":"PUT","url":"Patient/ba296236-cee8-4ec1-aa6b-341477c99af2"}},{"fullUrl":"https://madie.cms.gov/Procedure/Procedure-35","resource":{"resourceType":"Procedure","id":"d6190cf4-0b4c-4480-81ff-d405c5efd049","meta":{"profile":["http://hl7.org/fhir/us/qicore/StructureDefinition/qicore-procedure"]},"extension":[{"url":"http://hl7.org/fhir/us/qicore/StructureDefinition/qicore-recorded","valueDateTime":"2023-11-01T00:00:00.000Z"}],"status":"completed","code":{"coding":[{"system":"http://www.cms.gov/Medicare/Coding/ICD10","code":"0SR9019","display":"Replacement of Right Hip Joint with Metal Synthetic Substitute, Cemented, Open Approach"}]},"subject":{"reference":"Patient/ba296236-cee8-4ec1-aa6b-341477c99af2"},"performedPeriod":{"start":"2023-11-01T00:00:00.000Z","end":"2023-11-01T01:00:00.000Z"}},"request":{"method":"PUT","url":"Procedure/d6190cf4-0b4c-4480-81ff-d405c5efd049"}},{"fullUrl":"https://madie.cms.gov/Encounter/Encounter-35","resource":{"resourceType":"Encounter","id":"2460f300-48b2-4c9f-9a70-839bce6aefe0","meta":{"profile":["http://hl7.org/fhir/us/qicore/StructureDefinition/qicore-encounter"]},"status":"finished","class":{"system":"http://terminology.hl7.org/CodeSystem/v3-ActCode","code":"AMB","display":"ambulatory"},"type":[{"coding":[{"system":"http://snomed.info/sct","code":"281036007","display":"Follow-up consultation (procedure)"}]}],"subject":{"reference":"Patient/ba296236-cee8-4ec1-aa6b-341477c99af2"},"period":{"start":"2024-11-01T00:00:00.000Z","end":"2024-11-01T01:15:00.000Z"}},"request":{"method":"PUT","url":"Encounter/2460f300-48b2-4c9f-9a70-839bce6aefe0"}},{"fullUrl":"https://madie.cms.gov/Observation/Observation-35.1-1","resource":{"resourceType":"Observation","id":"fc1544c0-71db-4ff2-b214-3c44b709490b","meta":{"profile":["http://hl7.org/fhir/us/qicore/StructureDefinition/qicore-observation"]},"status":"final","category":[{"coding":[{"system":"http://terminology.hl7.org/CodeSystem/observation-category","code":"survey"}]}],"code":{"coding":[{"system":"http://loinc.org","code":"72093-8","display":"Quality of life score [HOOS]"}]},"subject":{"reference":"Patient/ba296236-cee8-4ec1-aa6b-341477c99af2"},"effectivePeriod":{"start":"2023-11-01T00:00:00.000Z","end":"2023-11-01T01:00:00.000Z"},"valueInteger":60},"request":{"method":"PUT","url":"Observation/fc1544c0-71db-4ff2-b214-3c44b709490b"}},{"fullUrl":"https://madie.cms.gov/Observation/Observation-35.1-2","resource":{"resourceType":"Observation","id":"2022b967-268b-469f-959c-aac44c42199a","meta":{"profile":["http://hl7.org/fhir/us/qicore/StructureDefinition/qicore-observation"]},"status":"final","category":[{"coding":[{"system":"http://terminology.hl7.org/CodeSystem/observation-category","code":"survey"}]}],"code":{"coding":[{"system":"http://loinc.org","code":"72094-6","display":"Sport-recreation score [HOOS]"}]},"subject":{"reference":"Patient/ba296236-cee8-4ec1-aa6b-341477c99af2"},"effectivePeriod":{"start":"2023-11-01T00:00:00.000Z","end":"2023-11-01T01:00:00.000Z"},"valueInteger":60},"request":{"method":"PUT","url":"Observation/2022b967-268b-469f-959c-aac44c42199a"}},{"fullUrl":"https://madie.cms.gov/Observation/Observation-35.1-3","resource":{"resourceType":"Observation","id":"a4f46a85-7c69-4517-9acb-5959d97bd12a","meta":{"profile":["http://hl7.org/fhir/us/qicore/StructureDefinition/qicore-observation"]},"status":"final","category":[{"coding":[{"system":"http://terminology.hl7.org/CodeSystem/observation-category","code":"survey"}]}],"code":{"coding":[{"system":"http://loinc.org","code":"72095-3","display":"Activities of daily living score [HOOS]"}]},"subject":{"reference":"Patient/ba296236-cee8-4ec1-aa6b-341477c99af2"},"effectivePeriod":{"start":"2023-11-01T00:00:00.000Z","end":"2023-11-01T01:00:00.000Z"},"valueInteger":60},"request":{"method":"PUT","url":"Observation/a4f46a85-7c69-4517-9acb-5959d97bd12a"}},{"fullUrl":"https://madie.cms.gov/Observation/Observation-35.1-4","resource":{"resourceType":"Observation","id":"476d605a-15f6-4b6a-b7fd-948725b76331","meta":{"profile":["http://hl7.org/fhir/us/qicore/StructureDefinition/qicore-observation"]},"status":"final","category":[{"coding":[{"system":"http://terminology.hl7.org/CodeSystem/observation-category","code":"survey"}]}],"code":{"coding":[{"system":"http://loinc.org","code":"72096-1","display":"Symptoms score [HOOS]"}]},"subject":{"reference":"Patient/ba296236-cee8-4ec1-aa6b-341477c99af2"},"effectivePeriod":{"start":"2023-11-01T00:00:00.000Z","end":"2023-11-01T01:00:00.000Z"},"valueInteger":60},"request":{"method":"PUT","url":"Observation/476d605a-15f6-4b6a-b7fd-948725b76331"}},{"fullUrl":"https://madie.cms.gov/Observation/Observation-35.1-5","resource":{"resourceType":"Observation","id":"2bd54ce9-762b-4903-8067-25fa266cffab","meta":{"profile":["http://hl7.org/fhir/us/qicore/StructureDefinition/qicore-observation"]},"status":"final","category":[{"coding":[{"system":"http://terminology.hl7.org/CodeSystem/observation-category","code":"survey"}]}],"code":{"coding":[{"system":"http://loinc.org","code":"72097-9","display":"Pain score [HOOS]"}]},"subject":{"reference":"Patient/ba296236-cee8-4ec1-aa6b-341477c99af2"},"effectivePeriod":{"start":"2023-11-01T00:00:00.000Z","end":"2023-11-01T01:00:00.000Z"},"valueInteger":60},"request":{"method":"PUT","url":"Observation/2bd54ce9-762b-4903-8067-25fa266cffab"}},{"fullUrl":"https://madie.cms.gov/Observation/Observation-35.2-1","resource":{"resourceType":"Observation","id":"0a5d70f5-0b37-48ac-adc3-caca9126d37f","meta":{"profile":["http://hl7.org/fhir/us/qicore/StructureDefinition/qicore-observation"]},"status":"final","category":[{"coding":[{"system":"http://terminology.hl7.org/CodeSystem/observation-category","code":"survey"}]}],"code":{"coding":[{"system":"http://loinc.org","code":"72093-8","display":"Quality of life score [HOOS]"}]},"subject":{"reference":"Patient/ba296236-cee8-4ec1-aa6b-341477c99af2"},"effectivePeriod":{"start":"2024-08-26T00:00:00.000Z","end":"2024-08-26T01:00:00.000Z"},"valueInteger":60},"request":{"method":"PUT","url":"Observation/0a5d70f5-0b37-48ac-adc3-caca9126d37f"}},{"fullUrl":"https://madie.cms.gov/Observation/Observation-35.2-2","resource":{"resourceType":"Observation","id":"aaf4246c-7b41-45f0-a538-cba5fecd9d5e","meta":{"profile":["http://hl7.org/fhir/us/qicore/StructureDefinition/qicore-observation"]},"status":"final","category":[{"coding":[{"system":"http://terminology.hl7.org/CodeSystem/observation-category","code":"survey"}]}],"code":{"coding":[{"system":"http://loinc.org","code":"72094-6","display":"Sport-recreation score [HOOS]"}]},"subject":{"reference":"Patient/ba296236-cee8-4ec1-aa6b-341477c99af2"},"effectivePeriod":{"start":"2024-08-26T00:00:00.000Z","end":"2024-08-26T01:00:00.000Z"},"valueInteger":60},"request":{"method":"PUT","url":"Observation/aaf4246c-7b41-45f0-a538-cba5fecd9d5e"}},{"fullUrl":"https://madie.cms.gov/Observation/Observation-35.2-3","resource":{"resourceType":"Observation","id":"c1365204-60e1-41a4-aaf2-479fbb029ae0","meta":{"profile":["http://hl7.org/fhir/us/qicore/StructureDefinition/qicore-observation"]},"status":"final","category":[{"coding":[{"system":"http://terminology.hl7.org/CodeSystem/observation-category","code":"survey"}]}],"code":{"coding":[{"system":"http://loinc.org","code":"72095-3","display":"Activities of daily living score [HOOS]"}]},"subject":{"reference":"Patient/ba296236-cee8-4ec1-aa6b-341477c99af2"},"effectivePeriod":{"start":"2024-08-26T00:00:00.000Z","end":"2024-08-26T01:00:00.000Z"},"valueInteger":60},"request":{"method":"PUT","url":"Observation/c1365204-60e1-41a4-aaf2-479fbb029ae0"}},{"fullUrl":"https://madie.cms.gov/Observation/Observation-35.2-4","resource":{"resourceType":"Observation","id":"bc2f7a33-fd57-4a36-a2e7-d543da659ebf","meta":{"profile":["http://hl7.org/fhir/us/qicore/StructureDefinition/qicore-observation"]},"status":"final","category":[{"coding":[{"system":"http://terminology.hl7.org/CodeSystem/observation-category","code":"survey"}]}],"code":{"coding":[{"system":"http://loinc.org","code":"72096-1","display":"Symptoms score [HOOS]"}]},"subject":{"reference":"Patient/ba296236-cee8-4ec1-aa6b-341477c99af2"},"effectivePeriod":{"start":"2024-08-26T00:00:00.000Z","end":"2024-08-26T01:00:00.000Z"},"valueInteger":60},"request":{"method":"PUT","url":"Observation/bc2f7a33-fd57-4a36-a2e7-d543da659ebf"}},{"fullUrl":"https://madie.cms.gov/Observation/Observation-35.2-5","resource":{"resourceType":"Observation","id":"acc215fb-4dfe-49ad-ab6b-9950d2dc0dae","meta":{"profile":["http://hl7.org/fhir/us/qicore/StructureDefinition/qicore-observation"]},"status":"final","category":[{"coding":[{"system":"http://terminology.hl7.org/CodeSystem/observation-category","code":"survey"}]}],"code":{"coding":[{"system":"http://loinc.org","code":"72097-9","display":"Pain score [HOOS]"}]},"subject":{"reference":"Patient/ba296236-cee8-4ec1-aa6b-341477c99af2"},"effectivePeriod":{"start":"2024-08-26T00:00:00.000Z","end":"2024-08-26T01:00:00.000Z"},"valueInteger":60},"request":{"method":"PUT","url":"Observation/acc215fb-4dfe-49ad-ab6b-9950d2dc0dae"}},{"fullUrl":"https://madie.cms.gov/MeasureReport/2357baea-8370-4dd0-a9d2-222ecabe49ee","resource":{"resourceType":"MeasureReport","id":"2357baea-8370-4dd0-a9d2-222ecabe49ee","meta":{"profile":["http://hl7.org/fhir/us/cqfmeasures/StructureDefinition/test-case-cqfm"]},"contained":[{"resourceType":"Parameters","id":"62ea43ee-5970-4b2e-a706-acc87e38d382-parameters","parameter":[{"name":"subject","valueString":"ba296236-cee8-4ec1-aa6b-341477c99af2"}]}],"extension":[{"url":"http://hl7.org/fhir/us/cqfmeasures/StructureDefinition/cqfm-inputParameters","valueReference":{"reference":"#62ea43ee-5970-4b2e-a706-acc87e38d382-parameters"}},{"url":"http://hl7.org/fhir/us/cqfmeasures/StructureDefinition/cqfm-testCaseDescription","valueMarkdown":"Patient w/ a THA Procedure 11/1, Initial Hip Assessment HOOS Same day as THA Procedure(11/1), and FollowUp Hip Assessment HOOS 299 days after THA Procedure (8/26)"}],"modifierExtension":[{"url":"http://hl7.org/fhir/us/cqfmeasures/StructureDefinition/cqfm-isTestCase","valueBoolean":true}],"status":"complete","type":"individual","measure":"https://madie.cms.gov/Measure/FunctionalStatusAssessmentforTotalHipReplacementFHIR","period":{"start":"2025-01-01","end":"2025-12-31"},"group":[{"population":[{"code":{"coding":[{"system":"http://terminology.hl7.org/CodeSystem/measure-population","code":"initial-population","display":"Initial Population"}]},"count":1},{"code":{"coding":[{"system":"http://terminology.hl7.org/CodeSystem/measure-population","code":"denominator","display":"Denominator"}]},"count":1},{"code":{"coding":[{"system":"http://terminology.hl7.org/CodeSystem/measure-population","code":"denominator-exclusion","display":"Denominator Exclusion"}]},"count":0},{"code":{"coding":[{"system":"http://terminology.hl7.org/CodeSystem/measure-population","code":"numerator","display":"Numerator"}]},"count":0}]}]},"request":{"method":"PUT","url":"MeasureReport/2357baea-8370-4dd0-a9d2-222ecabe49ee"}}]}