{"resourceType":"Bundle","id":"tests-7f657b60-128b-4453-b085-73e8b21a48cc-bundle","type":"transaction","entry":[{"fullUrl":"https://madie.cms.gov/Patient/7f657b60-128b-4453-b085-73e8b21a48cc","resource":{"resourceType":"Patient","id":"7f657b60-128b-4453-b085-73e8b21a48cc","meta":{"profile":["http://hl7.org/fhir/us/qicore/StructureDefinition/qicore-patient"]},"extension":[{"url":"http://hl7.org/fhir/us/core/StructureDefinition/us-core-race","extension":[{"url":"ombCategory","valueCoding":{"system":"urn:oid:2.16.840.1.113883.6.238","code":"2028-9","display":"Asian"}},{"url":"text","valueString":"Asian"}]},{"url":"http://hl7.org/fhir/us/core/StructureDefinition/us-core-ethnicity","extension":[{"url":"ombCategory","valueCoding":{"system":"urn:oid:2.16.840.1.113883.6.238","code":"2135-2","display":"Hispanic or Latino"}},{"url":"text","valueString":"Hispanic or Latino"}]}],"identifier":[{"system":"http://hospital.smarthealthit.org","value":"999999995"}],"name":[{"family":"Bertha","given":["Betty"]}],"gender":"female","birthDate":"2006-01-01"},"request":{"method":"PUT","url":"Patient/7f657b60-128b-4453-b085-73e8b21a48cc"}},{"fullUrl":"https://madie.cms.gov/Procedure/Procedure-34","resource":{"resourceType":"Procedure","id":"c545113d-217b-49ce-a16b-b7c50eba887c","meta":{"profile":["http://hl7.org/fhir/us/qicore/StructureDefinition/qicore-procedure"]},"extension":[{"url":"http://hl7.org/fhir/us/qicore/StructureDefinition/qicore-recorded","valueDateTime":"2023-11-01T00:00:00.000Z"}],"status":"completed","code":{"coding":[{"system":"http://www.cms.gov/Medicare/Coding/ICD10","code":"0SR9019","display":"Replacement of Right Hip Joint with Metal Synthetic Substitute, Cemented, Open Approach"}]},"subject":{"reference":"Patient/7f657b60-128b-4453-b085-73e8b21a48cc"},"performedPeriod":{"start":"2023-11-01T00:00:00.000Z","end":"2023-11-01T01:00:00.000Z"}},"request":{"method":"PUT","url":"Procedure/c545113d-217b-49ce-a16b-b7c50eba887c"}},{"fullUrl":"https://madie.cms.gov/Encounter/Encounter-34","resource":{"resourceType":"Encounter","id":"2a454d2d-e891-4a86-b67d-b9fb3f656024","meta":{"profile":["http://hl7.org/fhir/us/qicore/StructureDefinition/qicore-encounter"]},"status":"finished","class":{"system":"http://terminology.hl7.org/CodeSystem/v3-ActCode","code":"AMB","display":"ambulatory"},"type":[{"coding":[{"system":"http://snomed.info/sct","code":"281036007","display":"Follow-up consultation (procedure)"}]}],"subject":{"reference":"Patient/7f657b60-128b-4453-b085-73e8b21a48cc"},"period":{"start":"2024-11-01T00:00:00.000Z","end":"2024-11-01T01:15:00.000Z"}},"request":{"method":"PUT","url":"Encounter/2a454d2d-e891-4a86-b67d-b9fb3f656024"}},{"fullUrl":"https://madie.cms.gov/Observation/Observation-34.1-1","resource":{"resourceType":"Observation","id":"936fc907-bc90-4131-8b58-310ede9a3ca8","meta":{"profile":["http://hl7.org/fhir/us/qicore/StructureDefinition/qicore-observation"]},"status":"final","category":[{"coding":[{"system":"http://terminology.hl7.org/CodeSystem/observation-category","code":"survey"}]}],"code":{"coding":[{"system":"http://loinc.org","code":"72093-8","display":"Quality of life score [HOOS]"}]},"subject":{"reference":"Patient/7f657b60-128b-4453-b085-73e8b21a48cc"},"effectivePeriod":{"start":"2023-08-02T00:00:00.000Z","end":"2023-08-02T01:00:00.000Z"},"valueInteger":60},"request":{"method":"PUT","url":"Observation/936fc907-bc90-4131-8b58-310ede9a3ca8"}},{"fullUrl":"https://madie.cms.gov/Observation/Observation-34.1-2","resource":{"resourceType":"Observation","id":"e35661cc-2f98-418b-8c37-f81ce91e6434","meta":{"profile":["http://hl7.org/fhir/us/qicore/StructureDefinition/qicore-observation"]},"status":"final","category":[{"coding":[{"system":"http://terminology.hl7.org/CodeSystem/observation-category","code":"survey"}]}],"code":{"coding":[{"system":"http://loinc.org","code":"72094-6","display":"Sport-recreation score [HOOS]"}]},"subject":{"reference":"Patient/7f657b60-128b-4453-b085-73e8b21a48cc"},"effectivePeriod":{"start":"2023-08-02T00:00:00.000Z","end":"2023-08-02T01:00:00.000Z"},"valueInteger":60},"request":{"method":"PUT","url":"Observation/e35661cc-2f98-418b-8c37-f81ce91e6434"}},{"fullUrl":"https://madie.cms.gov/Observation/Observation-34.1-3","resource":{"resourceType":"Observation","id":"8044775c-1f52-47fa-8689-5a9e07c0fd9f","meta":{"profile":["http://hl7.org/fhir/us/qicore/StructureDefinition/qicore-observation"]},"status":"final","category":[{"coding":[{"system":"http://terminology.hl7.org/CodeSystem/observation-category","code":"survey"}]}],"code":{"coding":[{"system":"http://loinc.org","code":"72095-3","display":"Activities of daily living score [HOOS]"}]},"subject":{"reference":"Patient/7f657b60-128b-4453-b085-73e8b21a48cc"},"effectivePeriod":{"start":"2023-08-02T00:00:00.000Z","end":"2023-08-02T01:00:00.000Z"},"valueInteger":60},"request":{"method":"PUT","url":"Observation/8044775c-1f52-47fa-8689-5a9e07c0fd9f"}},{"fullUrl":"https://madie.cms.gov/Observation/Observation-34.1-4","resource":{"resourceType":"Observation","id":"d733e04a-6e40-4dc8-bfe3-5fe9336d83c7","meta":{"profile":["http://hl7.org/fhir/us/qicore/StructureDefinition/qicore-observation"]},"status":"final","category":[{"coding":[{"system":"http://terminology.hl7.org/CodeSystem/observation-category","code":"survey"}]}],"code":{"coding":[{"system":"http://loinc.org","code":"72096-1","display":"Symptoms score [HOOS]"}]},"subject":{"reference":"Patient/7f657b60-128b-4453-b085-73e8b21a48cc"},"effectivePeriod":{"start":"2023-08-02T00:00:00.000Z","end":"2023-08-02T01:00:00.000Z"},"valueInteger":60},"request":{"method":"PUT","url":"Observation/d733e04a-6e40-4dc8-bfe3-5fe9336d83c7"}},{"fullUrl":"https://madie.cms.gov/Observation/Observation-34.1-5","resource":{"resourceType":"Observation","id":"c384394b-bd5d-4f8e-b0a8-ba50e5720b63","meta":{"profile":["http://hl7.org/fhir/us/qicore/StructureDefinition/qicore-observation"]},"status":"final","category":[{"coding":[{"system":"http://terminology.hl7.org/CodeSystem/observation-category","code":"survey"}]}],"code":{"coding":[{"system":"http://loinc.org","code":"72097-9","display":"Pain score [HOOS]"}]},"subject":{"reference":"Patient/7f657b60-128b-4453-b085-73e8b21a48cc"},"effectivePeriod":{"start":"2023-08-02T00:00:00.000Z","end":"2023-08-02T01:00:00.000Z"},"valueInteger":60},"request":{"method":"PUT","url":"Observation/c384394b-bd5d-4f8e-b0a8-ba50e5720b63"}},{"fullUrl":"https://madie.cms.gov/Observation/Observation-34.2-1","resource":{"resourceType":"Observation","id":"82594c71-cdb7-44d2-ac34-d1f75c4aaf32","meta":{"profile":["http://hl7.org/fhir/us/qicore/StructureDefinition/qicore-observation"]},"status":"final","category":[{"coding":[{"system":"http://terminology.hl7.org/CodeSystem/observation-category","code":"survey"}]}],"code":{"coding":[{"system":"http://loinc.org","code":"72093-8","display":"Quality of life score [HOOS]"}]},"subject":{"reference":"Patient/7f657b60-128b-4453-b085-73e8b21a48cc"},"effectivePeriod":{"start":"2024-12-30T00:00:00.000Z","end":"2024-12-30T01:00:00.000Z"},"valueInteger":60},"request":{"method":"PUT","url":"Observation/82594c71-cdb7-44d2-ac34-d1f75c4aaf32"}},{"fullUrl":"https://madie.cms.gov/Observation/Observation-34.2-2","resource":{"resourceType":"Observation","id":"3ae2c6ae-60bc-4b70-9824-4103936d2579","meta":{"profile":["http://hl7.org/fhir/us/qicore/StructureDefinition/qicore-observation"]},"status":"final","category":[{"coding":[{"system":"http://terminology.hl7.org/CodeSystem/observation-category","code":"survey"}]}],"code":{"coding":[{"system":"http://loinc.org","code":"72094-6","display":"Sport-recreation score [HOOS]"}]},"subject":{"reference":"Patient/7f657b60-128b-4453-b085-73e8b21a48cc"},"effectivePeriod":{"start":"2024-12-30T00:00:00.000Z","end":"2024-12-30T01:00:00.000Z"},"valueInteger":60},"request":{"method":"PUT","url":"Observation/3ae2c6ae-60bc-4b70-9824-4103936d2579"}},{"fullUrl":"https://madie.cms.gov/Observation/Observation-34.2-3","resource":{"resourceType":"Observation","id":"59d304be-64d4-4b71-b0d7-871b3db1925c","meta":{"profile":["http://hl7.org/fhir/us/qicore/StructureDefinition/qicore-observation"]},"status":"final","category":[{"coding":[{"system":"http://terminology.hl7.org/CodeSystem/observation-category","code":"survey"}]}],"code":{"coding":[{"system":"http://loinc.org","code":"72095-3","display":"Activities of daily living score [HOOS]"}]},"subject":{"reference":"Patient/7f657b60-128b-4453-b085-73e8b21a48cc"},"effectivePeriod":{"start":"2024-12-30T00:00:00.000Z","end":"2024-12-30T01:00:00.000Z"},"valueInteger":60},"request":{"method":"PUT","url":"Observation/59d304be-64d4-4b71-b0d7-871b3db1925c"}},{"fullUrl":"https://madie.cms.gov/Observation/Observation-34.2-4","resource":{"resourceType":"Observation","id":"1f373c11-64e8-4b35-a054-1e335a93772f","meta":{"profile":["http://hl7.org/fhir/us/qicore/StructureDefinition/qicore-observation"]},"status":"final","category":[{"coding":[{"system":"http://terminology.hl7.org/CodeSystem/observation-category","code":"survey"}]}],"code":{"coding":[{"system":"http://loinc.org","code":"72096-1","display":"Symptoms score [HOOS]"}]},"subject":{"reference":"Patient/7f657b60-128b-4453-b085-73e8b21a48cc"},"effectivePeriod":{"start":"2024-12-30T00:00:00.000Z","end":"2024-12-30T01:00:00.000Z"},"valueInteger":60},"request":{"method":"PUT","url":"Observation/1f373c11-64e8-4b35-a054-1e335a93772f"}},{"fullUrl":"https://madie.cms.gov/Observation/Observation-34.2-5","resource":{"resourceType":"Observation","id":"3d667d08-e683-4217-8196-40f06ec3c8b3","meta":{"profile":["http://hl7.org/fhir/us/qicore/StructureDefinition/qicore-observation"]},"status":"final","category":[{"coding":[{"system":"http://terminology.hl7.org/CodeSystem/observation-category","code":"survey"}]}],"code":{"coding":[{"system":"http://loinc.org","code":"72097-9","display":"Pain score [HOOS]"}]},"subject":{"reference":"Patient/7f657b60-128b-4453-b085-73e8b21a48cc"},"effectivePeriod":{"start":"2024-12-30T00:00:00.000Z","end":"2024-12-30T01:00:00.000Z"},"valueInteger":60},"request":{"method":"PUT","url":"Observation/3d667d08-e683-4217-8196-40f06ec3c8b3"}},{"fullUrl":"https://madie.cms.gov/MeasureReport/0b9913ba-8752-41ab-8b1e-6675a3844926","resource":{"resourceType":"MeasureReport","id":"0b9913ba-8752-41ab-8b1e-6675a3844926","meta":{"profile":["http://hl7.org/fhir/us/cqfmeasures/StructureDefinition/test-case-cqfm"]},"contained":[{"resourceType":"Parameters","id":"1a0a3836-fc61-4a6b-b9a0-2484babc9869-parameters","parameter":[{"name":"subject","valueString":"7f657b60-128b-4453-b085-73e8b21a48cc"}]}],"extension":[{"url":"http://hl7.org/fhir/us/cqfmeasures/StructureDefinition/cqfm-inputParameters","valueReference":{"reference":"#1a0a3836-fc61-4a6b-b9a0-2484babc9869-parameters"}},{"url":"http://hl7.org/fhir/us/cqfmeasures/StructureDefinition/cqfm-testCaseDescription","valueMarkdown":"Patient w/ a THA Procedure 11/1, Initial Hip Assessment 91 days before THA Procedure(8/2), and FollowUp Hip Assessment HOOS 425 days after THA Procedure (12/30)\""}],"modifierExtension":[{"url":"http://hl7.org/fhir/us/cqfmeasures/StructureDefinition/cqfm-isTestCase","valueBoolean":true}],"status":"complete","type":"individual","measure":"https://madie.cms.gov/Measure/FunctionalStatusAssessmentforTotalHipReplacementFHIR","period":{"start":"2025-01-01","end":"2025-12-31"},"group":[{"population":[{"code":{"coding":[{"system":"http://terminology.hl7.org/CodeSystem/measure-population","code":"initial-population","display":"Initial Population"}]},"count":1},{"code":{"coding":[{"system":"http://terminology.hl7.org/CodeSystem/measure-population","code":"denominator","display":"Denominator"}]},"count":1},{"code":{"coding":[{"system":"http://terminology.hl7.org/CodeSystem/measure-population","code":"denominator-exclusion","display":"Denominator Exclusion"}]},"count":0},{"code":{"coding":[{"system":"http://terminology.hl7.org/CodeSystem/measure-population","code":"numerator","display":"Numerator"}]},"count":0}]}]},"request":{"method":"PUT","url":"MeasureReport/0b9913ba-8752-41ab-8b1e-6675a3844926"}}]}