{"resourceType":"Bundle","id":"tests-d79d1c9d-5a9c-4f54-8c7c-e61801697c55-bundle","type":"transaction","entry":[{"fullUrl":"https://madie.cms.gov/Patient/d79d1c9d-5a9c-4f54-8c7c-e61801697c55","resource":{"resourceType":"Patient","id":"d79d1c9d-5a9c-4f54-8c7c-e61801697c55","meta":{"profile":["http://hl7.org/fhir/us/qicore/StructureDefinition/qicore-patient"]},"extension":[{"url":"http://hl7.org/fhir/us/core/StructureDefinition/us-core-race","extension":[{"url":"ombCategory","valueCoding":{"system":"urn:oid:2.16.840.1.113883.6.238","code":"2028-9","display":"Asian"}},{"url":"text","valueString":"Asian"}]},{"url":"http://hl7.org/fhir/us/core/StructureDefinition/us-core-ethnicity","extension":[{"url":"ombCategory","valueCoding":{"system":"urn:oid:2.16.840.1.113883.6.238","code":"2135-2","display":"Hispanic or Latino"}},{"url":"text","valueString":"Hispanic or Latino"}]}],"identifier":[{"system":"http://hospital.smarthealthit.org","value":"999999995"}],"name":[{"family":"Bertha","given":["Betty"]}],"gender":"female","birthDate":"2006-01-01"},"request":{"method":"PUT","url":"Patient/d79d1c9d-5a9c-4f54-8c7c-e61801697c55"}},{"fullUrl":"https://madie.cms.gov/Procedure/Procedure-36","resource":{"resourceType":"Procedure","id":"353fc804-aa17-45d4-9b19-087ba51482f0","meta":{"profile":["http://hl7.org/fhir/us/qicore/StructureDefinition/qicore-procedure"]},"extension":[{"url":"http://hl7.org/fhir/us/qicore/StructureDefinition/qicore-recorded","valueDateTime":"2023-11-01T00:00:00.000Z"}],"status":"completed","code":{"coding":[{"system":"http://www.cms.gov/Medicare/Coding/ICD10","code":"0SR9019","display":"Replacement of Right Hip Joint with Metal Synthetic Substitute, Cemented, Open Approach"}]},"subject":{"reference":"Patient/d79d1c9d-5a9c-4f54-8c7c-e61801697c55"},"performedPeriod":{"start":"2023-11-01T00:00:00.000Z","end":"2023-11-01T01:00:00.000Z"}},"request":{"method":"PUT","url":"Procedure/353fc804-aa17-45d4-9b19-087ba51482f0"}},{"fullUrl":"https://madie.cms.gov/Encounter/Encounter-36","resource":{"resourceType":"Encounter","id":"6ca77e3f-0edc-4c67-a484-c1ecbac0bc3f","meta":{"profile":["http://hl7.org/fhir/us/qicore/StructureDefinition/qicore-encounter"]},"status":"finished","class":{"system":"http://terminology.hl7.org/CodeSystem/v3-ActCode","code":"AMB","display":"ambulatory"},"type":[{"coding":[{"system":"http://snomed.info/sct","code":"281036007","display":"Follow-up consultation (procedure)"}]}],"subject":{"reference":"Patient/d79d1c9d-5a9c-4f54-8c7c-e61801697c55"},"period":{"start":"2024-11-01T00:00:00.000Z","end":"2024-11-01T01:15:00.000Z"}},"request":{"method":"PUT","url":"Encounter/6ca77e3f-0edc-4c67-a484-c1ecbac0bc3f"}},{"fullUrl":"https://madie.cms.gov/Observation/Observation-36.1-1","resource":{"resourceType":"Observation","id":"0f95ad21-1443-4863-a434-6d1d7a721c12","meta":{"profile":["http://hl7.org/fhir/us/qicore/StructureDefinition/qicore-observation"]},"status":"final","category":[{"coding":[{"system":"http://terminology.hl7.org/CodeSystem/observation-category","code":"survey"}]}],"code":{"coding":[{"system":"http://loinc.org","code":"72093-8","display":"Quality of life score [HOOS]"}]},"subject":{"reference":"Patient/d79d1c9d-5a9c-4f54-8c7c-e61801697c55"},"effectivePeriod":{"start":"2023-08-02T00:00:00.000Z","end":"2023-08-02T01:00:00.000Z"},"valueInteger":60},"request":{"method":"PUT","url":"Observation/0f95ad21-1443-4863-a434-6d1d7a721c12"}},{"fullUrl":"https://madie.cms.gov/Observation/Observation-36.1-2","resource":{"resourceType":"Observation","id":"5927825e-3fb5-4da3-ac00-e798266b5ef0","meta":{"profile":["http://hl7.org/fhir/us/qicore/StructureDefinition/qicore-observation"]},"status":"final","category":[{"coding":[{"system":"http://terminology.hl7.org/CodeSystem/observation-category","code":"survey"}]}],"code":{"coding":[{"system":"http://loinc.org","code":"72094-6","display":"Sport-recreation score [HOOS]"}]},"subject":{"reference":"Patient/d79d1c9d-5a9c-4f54-8c7c-e61801697c55"},"effectivePeriod":{"start":"2023-08-02T00:00:00.000Z","end":"2023-08-02T01:00:00.000Z"},"valueInteger":60},"request":{"method":"PUT","url":"Observation/5927825e-3fb5-4da3-ac00-e798266b5ef0"}},{"fullUrl":"https://madie.cms.gov/Observation/Observation-36.1-3","resource":{"resourceType":"Observation","id":"5a788682-3501-4cd6-ace4-3938d47f3ba8","meta":{"profile":["http://hl7.org/fhir/us/qicore/StructureDefinition/qicore-observation"]},"status":"final","category":[{"coding":[{"system":"http://terminology.hl7.org/CodeSystem/observation-category","code":"survey"}]}],"code":{"coding":[{"system":"http://loinc.org","code":"72095-3","display":"Activities of daily living score [HOOS]"}]},"subject":{"reference":"Patient/d79d1c9d-5a9c-4f54-8c7c-e61801697c55"},"effectivePeriod":{"start":"2023-08-02T00:00:00.000Z","end":"2023-08-02T01:00:00.000Z"},"valueInteger":60},"request":{"method":"PUT","url":"Observation/5a788682-3501-4cd6-ace4-3938d47f3ba8"}},{"fullUrl":"https://madie.cms.gov/Observation/Observation-36.1-4","resource":{"resourceType":"Observation","id":"6146da20-ca9d-4f6b-8846-f05e23219330","meta":{"profile":["http://hl7.org/fhir/us/qicore/StructureDefinition/qicore-observation"]},"status":"final","category":[{"coding":[{"system":"http://terminology.hl7.org/CodeSystem/observation-category","code":"survey"}]}],"code":{"coding":[{"system":"http://loinc.org","code":"72096-1","display":"Symptoms score [HOOS]"}]},"subject":{"reference":"Patient/d79d1c9d-5a9c-4f54-8c7c-e61801697c55"},"effectivePeriod":{"start":"2023-08-02T00:00:00.000Z","end":"2023-08-02T01:00:00.000Z"},"valueInteger":60},"request":{"method":"PUT","url":"Observation/6146da20-ca9d-4f6b-8846-f05e23219330"}},{"fullUrl":"https://madie.cms.gov/Observation/Observation-36.1-5","resource":{"resourceType":"Observation","id":"5b535a59-ece7-4e53-a9bf-50e89a453462","meta":{"profile":["http://hl7.org/fhir/us/qicore/StructureDefinition/qicore-observation"]},"status":"final","category":[{"coding":[{"system":"http://terminology.hl7.org/CodeSystem/observation-category","code":"survey"}]}],"code":{"coding":[{"system":"http://loinc.org","code":"72097-9","display":"Pain score [HOOS]"}]},"subject":{"reference":"Patient/d79d1c9d-5a9c-4f54-8c7c-e61801697c55"},"effectivePeriod":{"start":"2023-08-02T00:00:00.000Z","end":"2023-08-02T01:00:00.000Z"},"valueInteger":60},"request":{"method":"PUT","url":"Observation/5b535a59-ece7-4e53-a9bf-50e89a453462"}},{"fullUrl":"https://madie.cms.gov/Observation/Observation-36.2-1","resource":{"resourceType":"Observation","id":"8622c65e-3ffd-4ac2-839a-f82d6466798c","meta":{"profile":["http://hl7.org/fhir/us/qicore/StructureDefinition/qicore-observation"]},"status":"final","category":[{"coding":[{"system":"http://terminology.hl7.org/CodeSystem/observation-category","code":"survey"}]}],"code":{"coding":[{"system":"http://loinc.org","code":"72093-8","display":"Quality of life score [HOOS]"}]},"subject":{"reference":"Patient/d79d1c9d-5a9c-4f54-8c7c-e61801697c55"},"effectivePeriod":{"start":"2024-12-31T00:00:00.000Z","end":"2024-12-31T01:00:00.000Z"},"valueInteger":60},"request":{"method":"PUT","url":"Observation/8622c65e-3ffd-4ac2-839a-f82d6466798c"}},{"fullUrl":"https://madie.cms.gov/Observation/Observation-36.2-2","resource":{"resourceType":"Observation","id":"4475898a-5bf4-4f4d-b0a6-ed59bf7c7393","meta":{"profile":["http://hl7.org/fhir/us/qicore/StructureDefinition/qicore-observation"]},"status":"final","category":[{"coding":[{"system":"http://terminology.hl7.org/CodeSystem/observation-category","code":"survey"}]}],"code":{"coding":[{"system":"http://loinc.org","code":"72094-6","display":"Sport-recreation score [HOOS]"}]},"subject":{"reference":"Patient/d79d1c9d-5a9c-4f54-8c7c-e61801697c55"},"effectivePeriod":{"start":"2024-12-31T00:00:00.000Z","end":"2024-12-31T01:00:00.000Z"},"valueInteger":60},"request":{"method":"PUT","url":"Observation/4475898a-5bf4-4f4d-b0a6-ed59bf7c7393"}},{"fullUrl":"https://madie.cms.gov/Observation/Observation-36.2-3","resource":{"resourceType":"Observation","id":"2692b6cb-40bf-4688-b145-a3d792d16268","meta":{"profile":["http://hl7.org/fhir/us/qicore/StructureDefinition/qicore-observation"]},"status":"final","category":[{"coding":[{"system":"http://terminology.hl7.org/CodeSystem/observation-category","code":"survey"}]}],"code":{"coding":[{"system":"http://loinc.org","code":"72095-3","display":"Activities of daily living score [HOOS]"}]},"subject":{"reference":"Patient/d79d1c9d-5a9c-4f54-8c7c-e61801697c55"},"effectivePeriod":{"start":"2024-12-31T00:00:00.000Z","end":"2024-12-31T01:00:00.000Z"},"valueInteger":60},"request":{"method":"PUT","url":"Observation/2692b6cb-40bf-4688-b145-a3d792d16268"}},{"fullUrl":"https://madie.cms.gov/Observation/Observation-36.2-4","resource":{"resourceType":"Observation","id":"19ed07ec-853b-4eb6-9546-62e0e7fc3be1","meta":{"profile":["http://hl7.org/fhir/us/qicore/StructureDefinition/qicore-observation"]},"status":"final","category":[{"coding":[{"system":"http://terminology.hl7.org/CodeSystem/observation-category","code":"survey"}]}],"code":{"coding":[{"system":"http://loinc.org","code":"72096-1","display":"Symptoms score [HOOS]"}]},"subject":{"reference":"Patient/d79d1c9d-5a9c-4f54-8c7c-e61801697c55"},"effectivePeriod":{"start":"2024-12-31T00:00:00.000Z","end":"2024-12-31T01:00:00.000Z"},"valueInteger":60},"request":{"method":"PUT","url":"Observation/19ed07ec-853b-4eb6-9546-62e0e7fc3be1"}},{"fullUrl":"https://madie.cms.gov/Observation/Observation-36.2-5","resource":{"resourceType":"Observation","id":"6a79c6ae-1061-48ff-926c-3d1cb6ef1e41","meta":{"profile":["http://hl7.org/fhir/us/qicore/StructureDefinition/qicore-observation"]},"status":"final","category":[{"coding":[{"system":"http://terminology.hl7.org/CodeSystem/observation-category","code":"survey"}]}],"code":{"coding":[{"system":"http://loinc.org","code":"72097-9","display":"Pain score [HOOS]"}]},"subject":{"reference":"Patient/d79d1c9d-5a9c-4f54-8c7c-e61801697c55"},"effectivePeriod":{"start":"2024-12-31T00:00:00.000Z","end":"2024-12-31T01:00:00.000Z"},"valueInteger":60},"request":{"method":"PUT","url":"Observation/6a79c6ae-1061-48ff-926c-3d1cb6ef1e41"}},{"fullUrl":"https://madie.cms.gov/MeasureReport/537ff646-cde4-4951-8d97-a7f2f551d27a","resource":{"resourceType":"MeasureReport","id":"537ff646-cde4-4951-8d97-a7f2f551d27a","meta":{"profile":["http://hl7.org/fhir/us/cqfmeasures/StructureDefinition/test-case-cqfm"]},"contained":[{"resourceType":"Parameters","id":"5ee9fb9a-bf44-40b8-a4e2-f0202adacc84-parameters","parameter":[{"name":"subject","valueString":"d79d1c9d-5a9c-4f54-8c7c-e61801697c55"}]}],"extension":[{"url":"http://hl7.org/fhir/us/cqfmeasures/StructureDefinition/cqfm-inputParameters","valueReference":{"reference":"#5ee9fb9a-bf44-40b8-a4e2-f0202adacc84-parameters"}},{"url":"http://hl7.org/fhir/us/cqfmeasures/StructureDefinition/cqfm-testCaseDescription","valueMarkdown":"Patient w/ a THA Procedure 11/1, Initial Hip Assessment 91 days before THA Procedure(8/2), and FollowUp Hip Assessment HOOS 425 days after THA Procedure (12/30)"}],"modifierExtension":[{"url":"http://hl7.org/fhir/us/cqfmeasures/StructureDefinition/cqfm-isTestCase","valueBoolean":true}],"status":"complete","type":"individual","measure":"https://madie.cms.gov/Measure/FunctionalStatusAssessmentforTotalHipReplacementFHIR","period":{"start":"2025-01-01","end":"2025-12-31"},"group":[{"population":[{"code":{"coding":[{"system":"http://terminology.hl7.org/CodeSystem/measure-population","code":"initial-population","display":"Initial Population"}]},"count":1},{"code":{"coding":[{"system":"http://terminology.hl7.org/CodeSystem/measure-population","code":"denominator","display":"Denominator"}]},"count":1},{"code":{"coding":[{"system":"http://terminology.hl7.org/CodeSystem/measure-population","code":"denominator-exclusion","display":"Denominator Exclusion"}]},"count":0},{"code":{"coding":[{"system":"http://terminology.hl7.org/CodeSystem/measure-population","code":"numerator","display":"Numerator"}]},"count":0}]}]},"request":{"method":"PUT","url":"MeasureReport/537ff646-cde4-4951-8d97-a7f2f551d27a"}}]}