{"resourceType":"Bundle","id":"tests-50c6997f-0aab-4baa-af63-a2d05a2ad3ac-bundle","type":"transaction","entry":[{"fullUrl":"https://madie.cms.gov/Patient/50c6997f-0aab-4baa-af63-a2d05a2ad3ac","resource":{"resourceType":"Patient","id":"50c6997f-0aab-4baa-af63-a2d05a2ad3ac","meta":{"profile":["http://hl7.org/fhir/us/qicore/StructureDefinition/qicore-patient"]},"extension":[{"url":"http://hl7.org/fhir/us/core/StructureDefinition/us-core-race","extension":[{"url":"ombCategory","valueCoding":{"system":"urn:oid:2.16.840.1.113883.6.238","code":"2028-9","display":"Asian"}},{"url":"text","valueString":"Asian"}]},{"url":"http://hl7.org/fhir/us/core/StructureDefinition/us-core-ethnicity","extension":[{"url":"ombCategory","valueCoding":{"system":"urn:oid:2.16.840.1.113883.6.238","code":"2135-2","display":"Hispanic or Latino"}},{"url":"text","valueString":"Hispanic or Latino"}]}],"identifier":[{"system":"http://hospital.smarthealthit.org","value":"999999995"}],"name":[{"family":"Bertha","given":["Betty"]}],"gender":"female","birthDate":"2006-01-01"},"request":{"method":"PUT","url":"Patient/50c6997f-0aab-4baa-af63-a2d05a2ad3ac"}},{"fullUrl":"https://madie.cms.gov/Procedure/Procedure-33","resource":{"resourceType":"Procedure","id":"943fb0cd-ffb7-4781-99bb-2447908a8e31","meta":{"profile":["http://hl7.org/fhir/us/qicore/StructureDefinition/qicore-procedure"]},"extension":[{"url":"http://hl7.org/fhir/us/qicore/StructureDefinition/qicore-recorded","valueDateTime":"2023-11-01T00:00:00.000Z"}],"status":"completed","code":{"coding":[{"system":"http://www.cms.gov/Medicare/Coding/ICD10","code":"0SR9019","display":"Replacement of Right Hip Joint with Metal Synthetic Substitute, Cemented, Open Approach"}]},"subject":{"reference":"Patient/50c6997f-0aab-4baa-af63-a2d05a2ad3ac"},"performedPeriod":{"start":"2023-11-01T00:00:00.000Z","end":"2023-11-01T01:00:00.000Z"}},"request":{"method":"PUT","url":"Procedure/943fb0cd-ffb7-4781-99bb-2447908a8e31"}},{"fullUrl":"https://madie.cms.gov/Encounter/Encounter-33","resource":{"resourceType":"Encounter","id":"d08fd1dc-93c9-4063-b964-f9a8c8ec9c4b","meta":{"profile":["http://hl7.org/fhir/us/qicore/StructureDefinition/qicore-encounter"]},"status":"finished","class":{"system":"http://terminology.hl7.org/CodeSystem/v3-ActCode","code":"AMB","display":"ambulatory"},"type":[{"coding":[{"system":"http://snomed.info/sct","code":"281036007","display":"Follow-up consultation (procedure)"}]}],"subject":{"reference":"Patient/50c6997f-0aab-4baa-af63-a2d05a2ad3ac"},"period":{"start":"2024-11-01T00:00:00.000Z","end":"2024-11-01T01:15:00.000Z"}},"request":{"method":"PUT","url":"Encounter/d08fd1dc-93c9-4063-b964-f9a8c8ec9c4b"}},{"fullUrl":"https://madie.cms.gov/Observation/Observation-33.1-1","resource":{"resourceType":"Observation","id":"3b507df6-f90d-4a87-b4c2-ee395df7cb5f","meta":{"profile":["http://hl7.org/fhir/us/qicore/StructureDefinition/qicore-observation"]},"status":"final","category":[{"coding":[{"system":"http://terminology.hl7.org/CodeSystem/observation-category","code":"survey"}]}],"code":{"coding":[{"system":"http://loinc.org","code":"72093-8","display":"Quality of life score [HOOS]"}]},"subject":{"reference":"Patient/50c6997f-0aab-4baa-af63-a2d05a2ad3ac"},"effectivePeriod":{"start":"2023-08-03T00:00:00.000Z","end":"2023-08-03T01:00:00.000Z"},"valueInteger":60},"request":{"method":"PUT","url":"Observation/3b507df6-f90d-4a87-b4c2-ee395df7cb5f"}},{"fullUrl":"https://madie.cms.gov/Observation/Observation-33.1-2","resource":{"resourceType":"Observation","id":"e98ad297-1e28-45e5-b2f0-4f8bb71e7d58","meta":{"profile":["http://hl7.org/fhir/us/qicore/StructureDefinition/qicore-observation"]},"status":"final","category":[{"coding":[{"system":"http://terminology.hl7.org/CodeSystem/observation-category","code":"survey"}]}],"code":{"coding":[{"system":"http://loinc.org","code":"72094-6","display":"Sport-recreation score [HOOS]"}]},"subject":{"reference":"Patient/50c6997f-0aab-4baa-af63-a2d05a2ad3ac"},"effectivePeriod":{"start":"2023-08-03T00:00:00.000Z","end":"2023-08-03T01:00:00.000Z"},"valueInteger":60},"request":{"method":"PUT","url":"Observation/e98ad297-1e28-45e5-b2f0-4f8bb71e7d58"}},{"fullUrl":"https://madie.cms.gov/Observation/Observation-33.1-3","resource":{"resourceType":"Observation","id":"ae4ba56f-2bb5-4ba8-8ee8-b4d0376ea03c","meta":{"profile":["http://hl7.org/fhir/us/qicore/StructureDefinition/qicore-observation"]},"status":"final","category":[{"coding":[{"system":"http://terminology.hl7.org/CodeSystem/observation-category","code":"survey"}]}],"code":{"coding":[{"system":"http://loinc.org","code":"72095-3","display":"Activities of daily living score [HOOS]"}]},"subject":{"reference":"Patient/50c6997f-0aab-4baa-af63-a2d05a2ad3ac"},"effectivePeriod":{"start":"2023-08-03T00:00:00.000Z","end":"2023-08-03T01:00:00.000Z"},"valueInteger":60},"request":{"method":"PUT","url":"Observation/ae4ba56f-2bb5-4ba8-8ee8-b4d0376ea03c"}},{"fullUrl":"https://madie.cms.gov/Observation/Observation-33.1-4","resource":{"resourceType":"Observation","id":"1c11e92e-0246-43f0-baeb-b7d156f6a3e5","meta":{"profile":["http://hl7.org/fhir/us/qicore/StructureDefinition/qicore-observation"]},"status":"final","category":[{"coding":[{"system":"http://terminology.hl7.org/CodeSystem/observation-category","code":"survey"}]}],"code":{"coding":[{"system":"http://loinc.org","code":"72096-1","display":"Symptoms score [HOOS]"}]},"subject":{"reference":"Patient/50c6997f-0aab-4baa-af63-a2d05a2ad3ac"},"effectivePeriod":{"start":"2023-08-03T00:00:00.000Z","end":"2023-08-03T01:00:00.000Z"},"valueInteger":60},"request":{"method":"PUT","url":"Observation/1c11e92e-0246-43f0-baeb-b7d156f6a3e5"}},{"fullUrl":"https://madie.cms.gov/Observation/Observation-33.1-5","resource":{"resourceType":"Observation","id":"b632f982-b231-4bbc-a8cc-00d63e725678","meta":{"profile":["http://hl7.org/fhir/us/qicore/StructureDefinition/qicore-observation"]},"status":"final","category":[{"coding":[{"system":"http://terminology.hl7.org/CodeSystem/observation-category","code":"survey"}]}],"code":{"coding":[{"system":"http://loinc.org","code":"72097-9","display":"Pain score [HOOS]"}]},"subject":{"reference":"Patient/50c6997f-0aab-4baa-af63-a2d05a2ad3ac"},"effectivePeriod":{"start":"2023-08-03T00:00:00.000Z","end":"2023-08-03T01:00:00.000Z"},"valueInteger":60},"request":{"method":"PUT","url":"Observation/b632f982-b231-4bbc-a8cc-00d63e725678"}},{"fullUrl":"https://madie.cms.gov/Observation/Observation-33.2-1","resource":{"resourceType":"Observation","id":"ffb34b0e-909c-4514-92a0-1e8fe9c09753","meta":{"profile":["http://hl7.org/fhir/us/qicore/StructureDefinition/qicore-observation"]},"status":"final","category":[{"coding":[{"system":"http://terminology.hl7.org/CodeSystem/observation-category","code":"survey"}]}],"code":{"coding":[{"system":"http://loinc.org","code":"72093-8","display":"Quality of life score [HOOS]"}]},"subject":{"reference":"Patient/50c6997f-0aab-4baa-af63-a2d05a2ad3ac"},"effectivePeriod":{"start":"2024-12-30T00:00:00.000Z","end":"2024-12-30T01:00:00.000Z"},"valueInteger":60},"request":{"method":"PUT","url":"Observation/ffb34b0e-909c-4514-92a0-1e8fe9c09753"}},{"fullUrl":"https://madie.cms.gov/Observation/Observation-33.2-2","resource":{"resourceType":"Observation","id":"aee3ae47-7501-4f93-8a99-245ac2339802","meta":{"profile":["http://hl7.org/fhir/us/qicore/StructureDefinition/qicore-observation"]},"status":"final","category":[{"coding":[{"system":"http://terminology.hl7.org/CodeSystem/observation-category","code":"survey"}]}],"code":{"coding":[{"system":"http://loinc.org","code":"72094-6","display":"Sport-recreation score [HOOS]"}]},"subject":{"reference":"Patient/50c6997f-0aab-4baa-af63-a2d05a2ad3ac"},"effectivePeriod":{"start":"2024-12-30T00:00:00.000Z","end":"2024-12-30T01:00:00.000Z"},"valueInteger":60},"request":{"method":"PUT","url":"Observation/aee3ae47-7501-4f93-8a99-245ac2339802"}},{"fullUrl":"https://madie.cms.gov/Observation/Observation-33.2-3","resource":{"resourceType":"Observation","id":"26c2cf74-a445-4b04-8692-65fed14b13c7","meta":{"profile":["http://hl7.org/fhir/us/qicore/StructureDefinition/qicore-observation"]},"status":"final","category":[{"coding":[{"system":"http://terminology.hl7.org/CodeSystem/observation-category","code":"survey"}]}],"code":{"coding":[{"system":"http://loinc.org","code":"72095-3","display":"Activities of daily living score [HOOS]"}]},"subject":{"reference":"Patient/50c6997f-0aab-4baa-af63-a2d05a2ad3ac"},"effectivePeriod":{"start":"2024-12-30T00:00:00.000Z","end":"2024-12-30T01:00:00.000Z"},"valueInteger":60},"request":{"method":"PUT","url":"Observation/26c2cf74-a445-4b04-8692-65fed14b13c7"}},{"fullUrl":"https://madie.cms.gov/Observation/Observation-33.2-4","resource":{"resourceType":"Observation","id":"97ed61ac-e7cf-4745-b0c6-b11e637224ec","meta":{"profile":["http://hl7.org/fhir/us/qicore/StructureDefinition/qicore-observation"]},"status":"final","category":[{"coding":[{"system":"http://terminology.hl7.org/CodeSystem/observation-category","code":"survey"}]}],"code":{"coding":[{"system":"http://loinc.org","code":"72096-1","display":"Symptoms score [HOOS]"}]},"subject":{"reference":"Patient/50c6997f-0aab-4baa-af63-a2d05a2ad3ac"},"effectivePeriod":{"start":"2024-12-30T00:00:00.000Z","end":"2024-12-30T01:00:00.000Z"},"valueInteger":60},"request":{"method":"PUT","url":"Observation/97ed61ac-e7cf-4745-b0c6-b11e637224ec"}},{"fullUrl":"https://madie.cms.gov/Observation/Observation-33.2-5","resource":{"resourceType":"Observation","id":"83d5fb92-8bc9-4ff8-b5d9-f05f904dc71d","meta":{"profile":["http://hl7.org/fhir/us/qicore/StructureDefinition/qicore-observation"]},"status":"final","category":[{"coding":[{"system":"http://terminology.hl7.org/CodeSystem/observation-category","code":"survey"}]}],"code":{"coding":[{"system":"http://loinc.org","code":"72097-9","display":"Pain score [HOOS]"}]},"subject":{"reference":"Patient/50c6997f-0aab-4baa-af63-a2d05a2ad3ac"},"effectivePeriod":{"start":"2024-12-30T00:00:00.000Z","end":"2024-12-30T01:00:00.000Z"},"valueInteger":60},"request":{"method":"PUT","url":"Observation/83d5fb92-8bc9-4ff8-b5d9-f05f904dc71d"}},{"fullUrl":"https://madie.cms.gov/MeasureReport/12c3cceb-8269-496a-8b47-19c7eca0a1c6","resource":{"resourceType":"MeasureReport","id":"12c3cceb-8269-496a-8b47-19c7eca0a1c6","meta":{"profile":["http://hl7.org/fhir/us/cqfmeasures/StructureDefinition/test-case-cqfm"]},"contained":[{"resourceType":"Parameters","id":"83ccdcc8-1283-4e94-93bd-2d6820d5afaa-parameters","parameter":[{"name":"subject","valueString":"50c6997f-0aab-4baa-af63-a2d05a2ad3ac"}]}],"extension":[{"url":"http://hl7.org/fhir/us/cqfmeasures/StructureDefinition/cqfm-inputParameters","valueReference":{"reference":"#83ccdcc8-1283-4e94-93bd-2d6820d5afaa-parameters"}},{"url":"http://hl7.org/fhir/us/cqfmeasures/StructureDefinition/cqfm-testCaseDescription","valueMarkdown":"Patient w/ a THA Procedure 11/1, Initial Hip Assessment 90 days before THA Procedure(8/3), and FollowUp Hip Assessment HOOS 425 days after THA Procedure (12/30)"}],"modifierExtension":[{"url":"http://hl7.org/fhir/us/cqfmeasures/StructureDefinition/cqfm-isTestCase","valueBoolean":true}],"status":"complete","type":"individual","measure":"https://madie.cms.gov/Measure/FunctionalStatusAssessmentforTotalHipReplacementFHIR","period":{"start":"2025-01-01","end":"2025-12-31"},"group":[{"population":[{"code":{"coding":[{"system":"http://terminology.hl7.org/CodeSystem/measure-population","code":"initial-population","display":"Initial Population"}]},"count":1},{"code":{"coding":[{"system":"http://terminology.hl7.org/CodeSystem/measure-population","code":"denominator","display":"Denominator"}]},"count":1},{"code":{"coding":[{"system":"http://terminology.hl7.org/CodeSystem/measure-population","code":"denominator-exclusion","display":"Denominator Exclusion"}]},"count":0},{"code":{"coding":[{"system":"http://terminology.hl7.org/CodeSystem/measure-population","code":"numerator","display":"Numerator"}]},"count":1}]}]},"request":{"method":"PUT","url":"MeasureReport/12c3cceb-8269-496a-8b47-19c7eca0a1c6"}}]}