{"resourceType":"Bundle","id":"tests-61c1bb3b-91bf-41aa-b0a5-3ece5fd99d01-bundle","type":"transaction","entry":[{"fullUrl":"https://madie.cms.gov/Patient/61c1bb3b-91bf-41aa-b0a5-3ece5fd99d01","resource":{"resourceType":"Patient","id":"61c1bb3b-91bf-41aa-b0a5-3ece5fd99d01","meta":{"profile":["http://hl7.org/fhir/us/qicore/StructureDefinition/qicore-patient"]},"extension":[{"url":"http://hl7.org/fhir/us/core/StructureDefinition/us-core-race","extension":[{"url":"ombCategory","valueCoding":{"system":"urn:oid:2.16.840.1.113883.6.238","code":"2028-9","display":"Asian"}},{"url":"text","valueString":"Asian"}]},{"url":"http://hl7.org/fhir/us/core/StructureDefinition/us-core-ethnicity","extension":[{"url":"ombCategory","valueCoding":{"system":"urn:oid:2.16.840.1.113883.6.238","code":"2135-2","display":"Hispanic or Latino"}},{"url":"text","valueString":"Hispanic or Latino"}]}],"identifier":[{"system":"http://hospital.smarthealthit.org","value":"999999995"}],"name":[{"family":"Bertha","given":["Betty"]}],"gender":"female","birthDate":"2006-01-01"},"request":{"method":"PUT","url":"Patient/61c1bb3b-91bf-41aa-b0a5-3ece5fd99d01"}},{"fullUrl":"https://madie.cms.gov/Procedure/Procedure-41","resource":{"resourceType":"Procedure","id":"62353670-8b83-4613-a0b7-abecbae5a804","meta":{"profile":["http://hl7.org/fhir/us/qicore/StructureDefinition/qicore-procedure"]},"extension":[{"url":"http://hl7.org/fhir/us/qicore/StructureDefinition/qicore-recorded","valueDateTime":"2023-11-01T00:00:00.000Z"}],"status":"completed","code":{"coding":[{"system":"http://www.cms.gov/Medicare/Coding/ICD10","code":"0SR9019","display":"Replacement of Right Hip Joint with Metal Synthetic Substitute, Cemented, Open Approach"}]},"subject":{"reference":"Patient/61c1bb3b-91bf-41aa-b0a5-3ece5fd99d01"},"performedPeriod":{"start":"2023-11-01T00:00:00.000Z","end":"2023-11-01T01:00:00.000Z"}},"request":{"method":"PUT","url":"Procedure/62353670-8b83-4613-a0b7-abecbae5a804"}},{"fullUrl":"https://madie.cms.gov/Encounter/Encounter-41","resource":{"resourceType":"Encounter","id":"0ed79105-90b1-4aae-bf3d-9c200fd01f00","meta":{"profile":["http://hl7.org/fhir/us/qicore/StructureDefinition/qicore-encounter"]},"status":"finished","class":{"system":"http://terminology.hl7.org/CodeSystem/v3-ActCode","code":"AMB","display":"ambulatory"},"type":[{"coding":[{"system":"http://snomed.info/sct","code":"281036007","display":"Follow-up consultation (procedure)"}]}],"subject":{"reference":"Patient/61c1bb3b-91bf-41aa-b0a5-3ece5fd99d01"},"period":{"start":"2024-11-01T00:00:00.000Z","end":"2024-11-01T01:15:00.000Z"}},"request":{"method":"PUT","url":"Encounter/0ed79105-90b1-4aae-bf3d-9c200fd01f00"}},{"fullUrl":"https://madie.cms.gov/Observation/Observation-41.1-1","resource":{"resourceType":"Observation","id":"91483a76-0b2f-4123-b132-2c91dfec2cf7","meta":{"profile":["http://hl7.org/fhir/us/qicore/StructureDefinition/qicore-observation"]},"status":"final","category":[{"coding":[{"system":"http://terminology.hl7.org/CodeSystem/observation-category","code":"survey"}]}],"code":{"coding":[{"system":"http://loinc.org","code":"72026-8","display":"VR-12 Mental component summary (MCS) score - oblique method T-score"}]},"subject":{"reference":"Patient/61c1bb3b-91bf-41aa-b0a5-3ece5fd99d01"},"effectivePeriod":{"start":"2023-11-01T00:00:00.000Z","end":"2023-11-01T01:00:00.000Z"},"valueInteger":60},"request":{"method":"PUT","url":"Observation/91483a76-0b2f-4123-b132-2c91dfec2cf7"}},{"fullUrl":"https://madie.cms.gov/Observation/Observation-41.1-2","resource":{"resourceType":"Observation","id":"61a09ed7-c4f9-4f84-a91c-d1e0bdf3d902","meta":{"profile":["http://hl7.org/fhir/us/qicore/StructureDefinition/qicore-observation"]},"status":"final","category":[{"coding":[{"system":"http://terminology.hl7.org/CodeSystem/observation-category","code":"survey"}]}],"code":{"coding":[{"system":"http://loinc.org","code":"72025-0","display":"VR-12 Physical component summary (PCS) score - oblique method T-score"}]},"subject":{"reference":"Patient/61c1bb3b-91bf-41aa-b0a5-3ece5fd99d01"},"effectivePeriod":{"start":"2023-11-01T00:00:00.000Z","end":"2023-11-01T01:00:00.000Z"},"valueInteger":60},"request":{"method":"PUT","url":"Observation/61a09ed7-c4f9-4f84-a91c-d1e0bdf3d902"}},{"fullUrl":"https://madie.cms.gov/Observation/Observation-41.2-1","resource":{"resourceType":"Observation","id":"493c31ce-04fa-4e13-a918-80d264b1cb9c","meta":{"profile":["http://hl7.org/fhir/us/qicore/StructureDefinition/qicore-observation"]},"status":"final","category":[{"coding":[{"system":"http://terminology.hl7.org/CodeSystem/observation-category","code":"survey"}]}],"code":{"coding":[{"system":"http://loinc.org","code":"72026-8","display":"VR-12 Mental component summary (MCS) score - oblique method T-score"}]},"subject":{"reference":"Patient/61c1bb3b-91bf-41aa-b0a5-3ece5fd99d01"},"effectivePeriod":{"start":"2024-08-27T00:00:00.000Z","end":"2024-08-27T01:00:00.000Z"},"valueInteger":60},"request":{"method":"PUT","url":"Observation/493c31ce-04fa-4e13-a918-80d264b1cb9c"}},{"fullUrl":"https://madie.cms.gov/Observation/Observation-41.2-2","resource":{"resourceType":"Observation","id":"a5da4bda-154f-485c-8ed6-5a06cda5206f","meta":{"profile":["http://hl7.org/fhir/us/qicore/StructureDefinition/qicore-observation"]},"status":"final","category":[{"coding":[{"system":"http://terminology.hl7.org/CodeSystem/observation-category","code":"survey"}]}],"code":{"coding":[{"system":"http://loinc.org","code":"72025-0","display":"VR-12 Physical component summary (PCS) score - oblique method T-score"}]},"subject":{"reference":"Patient/61c1bb3b-91bf-41aa-b0a5-3ece5fd99d01"},"effectivePeriod":{"start":"2024-08-27T00:00:00.000Z","end":"2024-08-27T01:00:00.000Z"},"valueInteger":60},"request":{"method":"PUT","url":"Observation/a5da4bda-154f-485c-8ed6-5a06cda5206f"}},{"fullUrl":"https://madie.cms.gov/MeasureReport/71eda499-fb74-4ce1-b777-78e029c65de1","resource":{"resourceType":"MeasureReport","id":"71eda499-fb74-4ce1-b777-78e029c65de1","meta":{"profile":["http://hl7.org/fhir/us/cqfmeasures/StructureDefinition/test-case-cqfm"]},"contained":[{"resourceType":"Parameters","id":"9c0efa12-f3a6-4a3a-9d0a-e8d9afa1bdc9-parameters","parameter":[{"name":"subject","valueString":"61c1bb3b-91bf-41aa-b0a5-3ece5fd99d01"}]}],"extension":[{"url":"http://hl7.org/fhir/us/cqfmeasures/StructureDefinition/cqfm-inputParameters","valueReference":{"reference":"#9c0efa12-f3a6-4a3a-9d0a-e8d9afa1bdc9-parameters"}},{"url":"http://hl7.org/fhir/us/cqfmeasures/StructureDefinition/cqfm-testCaseDescription","valueMarkdown":"Patient w/ a THA Procedure 11/1, Initial Hip Assessment Oblique Same day as THA Procedure(11/1), and FollowUp Hip Assessment Oblique 300 days after THA Procedure (8/27)"}],"modifierExtension":[{"url":"http://hl7.org/fhir/us/cqfmeasures/StructureDefinition/cqfm-isTestCase","valueBoolean":true}],"status":"complete","type":"individual","measure":"https://madie.cms.gov/Measure/FunctionalStatusAssessmentforTotalHipReplacementFHIR","period":{"start":"2025-01-01","end":"2025-12-31"},"group":[{"population":[{"code":{"coding":[{"system":"http://terminology.hl7.org/CodeSystem/measure-population","code":"initial-population","display":"Initial Population"}]},"count":1},{"code":{"coding":[{"system":"http://terminology.hl7.org/CodeSystem/measure-population","code":"denominator","display":"Denominator"}]},"count":1},{"code":{"coding":[{"system":"http://terminology.hl7.org/CodeSystem/measure-population","code":"denominator-exclusion","display":"Denominator Exclusion"}]},"count":0},{"code":{"coding":[{"system":"http://terminology.hl7.org/CodeSystem/measure-population","code":"numerator","display":"Numerator"}]},"count":1}]}]},"request":{"method":"PUT","url":"MeasureReport/71eda499-fb74-4ce1-b777-78e029c65de1"}}]}