{"resourceType":"Bundle","id":"tests-df8f004b-80cc-408a-b93a-09714897cefe-bundle","type":"transaction","entry":[{"fullUrl":"https://madie.cms.gov/Patient/df8f004b-80cc-408a-b93a-09714897cefe","resource":{"resourceType":"Patient","id":"df8f004b-80cc-408a-b93a-09714897cefe","meta":{"profile":["http://hl7.org/fhir/us/qicore/StructureDefinition/qicore-patient"]},"extension":[{"url":"http://hl7.org/fhir/us/core/StructureDefinition/us-core-race","extension":[{"url":"ombCategory","valueCoding":{"system":"urn:oid:2.16.840.1.113883.6.238","code":"2028-9","display":"Asian"}},{"url":"text","valueString":"Asian"}]},{"url":"http://hl7.org/fhir/us/core/StructureDefinition/us-core-ethnicity","extension":[{"url":"ombCategory","valueCoding":{"system":"urn:oid:2.16.840.1.113883.6.238","code":"2135-2","display":"Hispanic or Latino"}},{"url":"text","valueString":"Hispanic or Latino"}]}],"identifier":[{"system":"http://hospital.smarthealthit.org","value":"999999995"}],"name":[{"family":"Bertha","given":["Betty"]}],"gender":"female","birthDate":"1975-01-01"},"request":{"method":"PUT","url":"Patient/df8f004b-80cc-408a-b93a-09714897cefe"}},{"fullUrl":"https://madie.cms.gov/Encounter/Encounter-12","resource":{"resourceType":"Encounter","id":"4c0dff7b-48a6-4438-9db6-30aa159a3c6b","meta":{"profile":["http://hl7.org/fhir/us/qicore/StructureDefinition/qicore-encounter"]},"status":"finished","class":{"system":"http://terminology.hl7.org/CodeSystem/v3-ActCode","code":"AMB","display":"ambulatory"},"type":[{"coding":[{"system":"http://snomed.info/sct","code":"185317003","display":"Telephone encounter (procedure)"}]}],"subject":{"reference":"Patient/df8f004b-80cc-408a-b93a-09714897cefe"},"period":{"start":"2025-01-01T01:00:00.000Z","end":"2025-01-01T01:15:00.000Z"}},"request":{"method":"PUT","url":"Encounter/4c0dff7b-48a6-4438-9db6-30aa159a3c6b"}},{"fullUrl":"https://madie.cms.gov/Procedure/Procedure-12","resource":{"resourceType":"Procedure","id":"69df3879-7ed5-48b8-a48e-8317284856c0","meta":{"profile":["http://hl7.org/fhir/us/qicore/StructureDefinition/qicore-procedure"]},"extension":[{"url":"http://hl7.org/fhir/us/qicore/StructureDefinition/qicore-recorded","valueDateTime":"2025-01-02T00:00:00.000Z"}],"status":"completed","code":{"coding":[{"system":"http://snomed.info/sct","code":"112860004","display":"Hemigastrectomy by abdominal approach (procedure)"}]},"subject":{"reference":"Patient/df8f004b-80cc-408a-b93a-09714897cefe"},"performedPeriod":{"start":"2025-01-01T00:00:00.000Z","end":"2025-01-01T01:00:00.000Z"}},"request":{"method":"PUT","url":"Procedure/69df3879-7ed5-48b8-a48e-8317284856c0"}},{"fullUrl":"https://madie.cms.gov/MedicationRequest/MedicationRequest-12","resource":{"resourceType":"MedicationRequest","id":"bed08ea4-a05c-412a-af2d-f16a67b5fd46","meta":{"profile":["http://hl7.org/fhir/us/qicore/StructureDefinition/qicore-medicationrequest"]},"status":"active","intent":"plan","category":[{"coding":[{"system":"http://terminology.hl7.org/CodeSystem/medicationrequest-category","code":"discharge","display":"Discharge"}]}],"medicationCodeableConcept":{"coding":[{"system":"http://www.nlm.nih.gov/research/umls/rxnorm","code":"199224","display":"anastrozole 1 MG Oral Tablet","userSelected":true}]},"subject":{"reference":"Patient/df8f004b-80cc-408a-b93a-09714897cefe"},"authoredOn":"2025-01-01T00:00:00.000Z","requester":{"reference":"Practitioner/example"}},"request":{"method":"PUT","url":"MedicationRequest/bed08ea4-a05c-412a-af2d-f16a67b5fd46"}},{"fullUrl":"https://madie.cms.gov/Observation/Observation-12","resource":{"resourceType":"Observation","id":"352ec850-8747-4f62-82d7-bcab8732f8b1","meta":{"profile":["http://hl7.org/fhir/us/qicore/StructureDefinition/qicore-observation"]},"status":"final","category":[{"coding":[{"system":"http://terminology.hl7.org/CodeSystem/observation-category","code":"survey","display":"Survey"}],"text":"Survey"}],"code":{"coding":[{"system":"http://snomed.info/sct","code":"391096007","display":"Family history: Maternal hip fracture (situation)"}]},"subject":{"reference":"Patient/df8f004b-80cc-408a-b93a-09714897cefe"},"effectiveDateTime":"2025-01-01T00:00:00.000Z"},"request":{"method":"PUT","url":"Observation/352ec850-8747-4f62-82d7-bcab8732f8b1"}},{"fullUrl":"https://madie.cms.gov/MeasureReport/a8af2748-cc5e-452c-a056-b05cbe5f33c1","resource":{"resourceType":"MeasureReport","id":"a8af2748-cc5e-452c-a056-b05cbe5f33c1","meta":{"profile":["http://hl7.org/fhir/us/cqfmeasures/StructureDefinition/test-case-cqfm"]},"contained":[{"resourceType":"Parameters","id":"bc4572ee-e68e-4252-86c7-2c6a5a20f7b0-parameters","parameter":[{"name":"subject","valueString":"df8f004b-80cc-408a-b93a-09714897cefe"}]}],"extension":[{"url":"http://hl7.org/fhir/us/cqfmeasures/StructureDefinition/cqfm-inputParameters","valueReference":{"reference":"#bc4572ee-e68e-4252-86c7-2c6a5a20f7b0-parameters"}},{"url":"http://hl7.org/fhir/us/cqfmeasures/StructureDefinition/cqfm-testCaseDescription","valueMarkdown":"Patient has active medications during the MP."}],"modifierExtension":[{"url":"http://hl7.org/fhir/us/cqfmeasures/StructureDefinition/cqfm-isTestCase","valueBoolean":true}],"status":"complete","type":"individual","measure":"https://madie.cms.gov/Measure/AppropriateDXAScansForWomenUnder65FHIR","period":{"start":"2025-01-01","end":"2025-12-31"},"group":[{"population":[{"code":{"coding":[{"system":"http://terminology.hl7.org/CodeSystem/measure-population","code":"initial-population","display":"Initial Population"}]},"count":1},{"code":{"coding":[{"system":"http://terminology.hl7.org/CodeSystem/measure-population","code":"denominator","display":"Denominator"}]},"count":1},{"code":{"coding":[{"system":"http://terminology.hl7.org/CodeSystem/measure-population","code":"denominator-exclusion","display":"Denominator Exclusion"}]},"count":0},{"code":{"coding":[{"system":"http://terminology.hl7.org/CodeSystem/measure-population","code":"numerator","display":"Numerator"}]},"count":0},{"code":{"coding":[{"system":"http://terminology.hl7.org/CodeSystem/measure-population","code":"numerator-exclusion","display":"Numerator Exclusion"}]},"count":0}]}]},"request":{"method":"PUT","url":"MeasureReport/a8af2748-cc5e-452c-a056-b05cbe5f33c1"}}]}