{
  "resourceType": "Bundle",
  "id": "f1f044ef3e654daa9106",
  "type": "transaction",
  "entry": [ {
    "fullUrl": "https://madie.cms.gov/Patient/c85da3dc-b545-42f2-a5d5-d9c7ae88d944",
    "resource": {
      "resourceType": "Patient",
      "id": "c85da3dc-b545-42f2-a5d5-d9c7ae88d944",
      "meta": {
        "profile": [ "http://hl7.org/fhir/us/qicore/StructureDefinition/qicore-patient" ]
      },
      "extension": [ {
        "url": "http://hl7.org/fhir/us/core/StructureDefinition/us-core-race",
        "extension": [ {
          "url": "ombCategory",
          "valueCoding": {
            "system": "urn:oid:2.16.840.1.113883.6.238",
            "code": "1002-5",
            "display": "American Indian or Alaska Native",
            "userSelected": true
          }
        }, {
          "url": "text",
          "valueString": "American Indian or Alaska Native"
        } ]
      }, {
        "url": "http://hl7.org/fhir/us/core/StructureDefinition/us-core-ethnicity",
        "extension": [ {
          "url": "ombCategory",
          "valueCoding": {
            "system": "urn:oid:2.16.840.1.113883.6.238",
            "code": "2135-2",
            "display": "Hispanic or Latino",
            "userSelected": true
          }
        }, {
          "url": "text",
          "valueString": "Hispanic or Latino"
        } ]
      } ],
      "identifier": [ {
        "type": {
          "coding": [ {
            "system": "http://terminology.hl7.org/CodeSystem/v2-0203",
            "code": "MR"
          } ]
        },
        "system": "https://bonnie-fhir.healthit.gov/",
        "value": "a14b8f14-5126-447e-b5fe-4637417e3b47"
      } ],
      "name": [ {
        "family": "DENEXCL1PASS",
        "given": [ "AneurysmOfHeartWithin24HoursBeforeED" ]
      } ],
      "gender": "female",
      "birthDate": "1990-03-14"
    },
    "request": {
      "method": "PUT",
      "url": "Patient/c85da3dc-b545-42f2-a5d5-d9c7ae88d944"
    }
  }, {
    "fullUrl": "https://madie.cms.gov/Encounter/95edf976-d4aa-4258-a3ec-0545b9df779c",
    "resource": {
      "resourceType": "Encounter",
      "id": "95edf976-d4aa-4258-a3ec-0545b9df779c",
      "meta": {
        "profile": [ "http://hl7.org/fhir/us/qicore/StructureDefinition/qicore-encounter" ]
      },
      "status": "finished",
      "class": {
        "system": "http://terminology.hl7.org/CodeSystem/v3-ActCode",
        "code": "EMER",
        "display": "emergency",
        "userSelected": true
      },
      "type": [ {
        "coding": [ {
          "system": "http://snomed.info/sct",
          "version": "2020-09",
          "code": "4525004",
          "display": "Emergency department patient visit",
          "userSelected": true
        } ]
      } ],
      "subject": {
        "reference": "Patient/c85da3dc-b545-42f2-a5d5-d9c7ae88d944"
      },
      "period": {
        "start": "2026-10-09T05:00:00.000+00:00",
        "end": "2026-10-13T17:00:00.000+00:00"
      },
      "reasonCode": [ {
        "coding": [ {
          "system": "http://hl7.org/fhir/sid/icd-10-cm",
          "code": "I21.21",
          "display": "ST elevation (STEMI) myocardial infarction involving left circumflex coronary artery",
          "userSelected": true
        } ]
      } ]
    },
    "request": {
      "method": "PUT",
      "url": "Encounter/95edf976-d4aa-4258-a3ec-0545b9df779c"
    }
  }, {
    "fullUrl": "https://madie.cms.gov/Condition/029d1f1f-e954-4b90-8f5d-2543cbda1458",
    "resource": {
      "resourceType": "Condition",
      "id": "029d1f1f-e954-4b90-8f5d-2543cbda1458",
      "meta": {
        "profile": [ "http://hl7.org/fhir/us/qicore/StructureDefinition/qicore-condition" ]
      },
      "clinicalStatus": {
        "coding": [ {
          "system": "http://terminology.hl7.org/CodeSystem/condition-clinical",
          "code": "active",
          "display": "Active",
          "userSelected": true
        } ]
      },
      "category": [ {
        "coding": [ {
          "system": "http://terminology.hl7.org/CodeSystem/condition-category",
          "code": "problem-list-item",
          "display": "Problem List Item",
          "userSelected": true
        } ]
      } ],
      "code": {
        "coding": [ {
          "system": "http://hl7.org/fhir/sid/icd-10-cm",
          "code": "I25.3",
          "display": "Aneurysm of heart",
          "userSelected": true
        } ]
      },
      "subject": {
        "reference": "Patient/c85da3dc-b545-42f2-a5d5-d9c7ae88d944"
      },
      "onsetDateTime": "2026-10-08T05:00:00.000+00:00"
    },
    "request": {
      "method": "PUT",
      "url": "Condition/029d1f1f-e954-4b90-8f5d-2543cbda1458"
    }
  }, {
    "fullUrl": "https://madie.cms.gov/MeasureReport/c2590af6-0981-40fa-a22d-60d6895c9cc6",
    "resource": {
      "resourceType": "MeasureReport",
      "id": "c2590af6-0981-40fa-a22d-60d6895c9cc6",
      "meta": {
        "profile": [ "http://hl7.org/fhir/us/cqfmeasures/StructureDefinition/test-case-cqfm" ]
      },
      "contained": [ {
        "resourceType": "Parameters",
        "id": "78664f5e-64f2-45de-9881-40aedff82acb-parameters",
        "parameter": [ {
          "name": "subject",
          "valueString": "c85da3dc-b545-42f2-a5d5-d9c7ae88d944"
        } ]
      } ],
      "extension": [ {
        "url": "http://hl7.org/fhir/us/cqfmeasures/StructureDefinition/cqfm-inputParameters",
        "valueReference": {
          "reference": "#78664f5e-64f2-45de-9881-40aedff82acb-parameters"
        }
      }, {
        "url": "http://hl7.org/fhir/us/cqfmeasures/StructureDefinition/cqfm-testCaseDescription",
        "valueMarkdown": "Patient has aneurysm of heart that started within 24 hours before start of ED encounter"
      } ],
      "modifierExtension": [ {
        "url": "http://hl7.org/fhir/us/cqfmeasures/StructureDefinition/cqfm-isTestCase",
        "valueBoolean": true
      } ],
      "status": "complete",
      "type": "individual",
      "measure": "https://madie.cms.gov/Measure/CMS996FHIRAptTxforSTEMI",
      "period": {
        "start": "2026-01-01",
        "end": "2026-12-31"
      },
      "group": [ {
        "population": [ {
          "code": {
            "coding": [ {
              "system": "http://terminology.hl7.org/CodeSystem/measure-population",
              "code": "initial-population",
              "display": "Initial Population"
            } ]
          },
          "count": 1
        }, {
          "code": {
            "coding": [ {
              "system": "http://terminology.hl7.org/CodeSystem/measure-population",
              "code": "denominator",
              "display": "Denominator"
            } ]
          },
          "count": 1
        }, {
          "code": {
            "coding": [ {
              "system": "http://terminology.hl7.org/CodeSystem/measure-population",
              "code": "denominator-exclusion",
              "display": "Denominator Exclusion"
            } ]
          },
          "count": 1
        }, {
          "code": {
            "coding": [ {
              "system": "http://terminology.hl7.org/CodeSystem/measure-population",
              "code": "numerator",
              "display": "Numerator"
            } ]
          },
          "count": 0
        }, {
          "code": {
            "coding": [ {
              "system": "http://terminology.hl7.org/CodeSystem/measure-population",
              "code": "denominator-exception",
              "display": "Denominator Exception"
            } ]
          },
          "count": 0
        } ]
      } ],
      "evaluatedResource": [ {
        "reference": "Patient/c85da3dc-b545-42f2-a5d5-d9c7ae88d944"
      }, {
        "reference": "Encounter/95edf976-d4aa-4258-a3ec-0545b9df779c"
      }, {
        "reference": "Condition/029d1f1f-e954-4b90-8f5d-2543cbda1458"
      } ]
    },
    "request": {
      "method": "PUT",
      "url": "MeasureReport/c2590af6-0981-40fa-a22d-60d6895c9cc6"
    }
  } ]
}