{
  "resourceType": "Bundle",
  "id": "63ec096bccb3770120fea0ad",
  "type": "transaction",
  "entry": [ {
    "fullUrl": "https://madie.cms.gov/Patient/66e9eb42-457d-4797-b8bb-17d2e7a02658",
    "resource": {
      "resourceType": "Patient",
      "id": "66e9eb42-457d-4797-b8bb-17d2e7a02658",
      "meta": {
        "profile": [ "http://hl7.org/fhir/us/qicore/StructureDefinition/qicore-patient" ]
      },
      "text": {
        "status": "generated",
        "div": "<div xmlns=\"http://www.w3.org/1999/xhtml\"><div class=\"hapiHeaderText\">NoResult <b>SODIUMFAIL </b></div><table class=\"hapiPropertyTable\"><tbody><tr><td>Identifier</td><td>eb360e3679224871964d5b3575a59ceb3c2f6260372fb1be3ea61ac84d2937cf</td></tr><tr><td>Date of birth</td><td><span>15 June 1956</span></td></tr></tbody></table></div>"
      },
      "extension": [ {
        "url": "http://hl7.org/fhir/us/core/StructureDefinition/us-core-race",
        "extension": [ {
          "url": "ombCategory",
          "valueCoding": {
            "system": "urn:oid:2.16.840.1.113883.6.238",
            "code": "1002-5",
            "display": "American Indian or Alaska Native",
            "userSelected": true
          }
        }, {
          "url": "text",
          "valueString": "American Indian or Alaska Native"
        } ]
      }, {
        "url": "http://hl7.org/fhir/us/core/StructureDefinition/us-core-ethnicity",
        "extension": [ {
          "url": "ombCategory",
          "valueCoding": {
            "system": "urn:oid:2.16.840.1.113883.6.238",
            "code": "2186-5",
            "display": "Not Hispanic or Latino",
            "userSelected": true
          }
        }, {
          "url": "text",
          "valueString": "Not Hispanic or Latino"
        } ]
      } ],
      "identifier": [ {
        "type": {
          "coding": [ {
            "system": "http://terminology.hl7.org/CodeSystem/v2-0203",
            "code": "MR"
          } ]
        },
        "system": "https://bonnie-fhir.healthit.gov/",
        "value": "63ec096bccb3770120fea0ad"
      } ],
      "active": true,
      "name": [ {
        "use": "usual",
        "family": "EachPerformedInSeparateEncounters",
        "given": [ "AllExamsPass" ]
      } ],
      "gender": "male",
      "birthDate": "1960-07-01"
    },
    "request": {
      "method": "PUT",
      "url": "Patient/66e9eb42-457d-4797-b8bb-17d2e7a02658"
    }
  }, {
    "fullUrl": "https://madie.cms.gov/Encounter/2c84270c-9690-4571-9682-c6e74eeee2c2",
    "resource": {
      "resourceType": "Encounter",
      "id": "2c84270c-9690-4571-9682-c6e74eeee2c2",
      "meta": {
        "profile": [ "http://hl7.org/fhir/us/qicore/StructureDefinition/qicore-encounter" ]
      },
      "status": "finished",
      "class": {
        "system": "http://terminology.hl7.org/CodeSystem/v3-ActCode",
        "code": "IMP",
        "display": "inpatient encounter",
        "userSelected": true
      },
      "type": [ {
        "coding": [ {
          "system": "http://snomed.info/sct",
          "code": "183452005"
        } ]
      } ],
      "subject": {
        "reference": "Patient/66e9eb42-457d-4797-b8bb-17d2e7a02658"
      },
      "period": {
        "start": "2026-07-01T12:01:00.000+00:00",
        "end": "2026-07-04T08:15:00.000+00:00"
      }
    },
    "request": {
      "method": "PUT",
      "url": "Encounter/2c84270c-9690-4571-9682-c6e74eeee2c2"
    }
  }, {
    "fullUrl": "https://madie.cms.gov/Encounter/2c84270c-9690-4571-9682-c6e74eeee2c21",
    "resource": {
      "resourceType": "Encounter",
      "id": "2c84270c-9690-4571-9682-c6e74eeee2c21",
      "meta": {
        "profile": [ "http://hl7.org/fhir/us/qicore/StructureDefinition/qicore-encounter" ]
      },
      "status": "finished",
      "class": {
        "system": "http://terminology.hl7.org/CodeSystem/v3-ActCode",
        "code": "IMP",
        "display": "inpatient encounter",
        "userSelected": true
      },
      "type": [ {
        "coding": [ {
          "system": "http://snomed.info/sct",
          "code": "183452005",
          "display": "Emergency hospital admission (procedure)"
        } ]
      } ],
      "subject": {
        "reference": "Patient/66e9eb42-457d-4797-b8bb-17d2e7a02658"
      },
      "period": {
        "start": "2026-12-31T12:01:00.000+00:00",
        "end": "2027-01-03T10:00:00.000+00:00"
      }
    },
    "request": {
      "method": "PUT",
      "url": "Encounter/2c84270c-9690-4571-9682-c6e74eeee2c21"
    }
  }, {
    "fullUrl": "https://madie.cms.gov/Observation/1238dee0-6e88-4c46-aaa7-cd63e28c1b35",
    "resource": {
      "resourceType": "Observation",
      "id": "1238dee0-6e88-4c46-aaa7-cd63e28c1b35",
      "meta": {
        "profile": [ "http://hl7.org/fhir/us/qicore/StructureDefinition/qicore-observation" ]
      },
      "status": "final",
      "category": [ {
        "coding": [ {
          "system": "http://terminology.hl7.org/CodeSystem/observation-category",
          "code": "vital-signs",
          "display": "Vital Signs",
          "userSelected": true
        } ]
      } ],
      "code": {
        "coding": [ {
          "system": "http://loinc.org",
          "code": "59408-5",
          "display": "Oxygen saturation in Arterial blood by Pulse oximetry"
        } ]
      },
      "subject": {
        "reference": "Patient/66e9eb42-457d-4797-b8bb-17d2e7a02658"
      },
      "effectiveDateTime": "2026-12-31T12:01:00.000+00:00",
      "valueQuantity": {
        "value": 98,
        "unit": "%",
        "system": "http://unitsofmeasure.org",
        "code": "%"
      }
    },
    "request": {
      "method": "PUT",
      "url": "Observation/1238dee0-6e88-4c46-aaa7-cd63e28c1b35"
    }
  }, {
    "fullUrl": "https://madie.cms.gov/Encounter/2c84270c-9690-4571-9682-c6e74eeee2c22",
    "resource": {
      "resourceType": "Encounter",
      "id": "2c84270c-9690-4571-9682-c6e74eeee2c22",
      "meta": {
        "profile": [ "http://hl7.org/fhir/us/qicore/StructureDefinition/qicore-encounter" ]
      },
      "status": "finished",
      "class": {
        "system": "http://terminology.hl7.org/CodeSystem/v3-ActCode",
        "code": "IMP",
        "display": "inpatient encounter",
        "userSelected": true
      },
      "type": [ {
        "coding": [ {
          "system": "http://snomed.info/sct",
          "code": "32485007",
          "display": "Hospital admission (procedure)"
        } ]
      } ],
      "subject": {
        "reference": "Patient/66e9eb42-457d-4797-b8bb-17d2e7a02658"
      },
      "period": {
        "start": "2027-01-04T08:00:00.000+00:00",
        "end": "2027-01-08T08:15:00.000+00:00"
      }
    },
    "request": {
      "method": "PUT",
      "url": "Encounter/2c84270c-9690-4571-9682-c6e74eeee2c22"
    }
  }, {
    "fullUrl": "https://madie.cms.gov/Encounter/2c84270c-9690-4571-9682-c6e74eeee2c23",
    "resource": {
      "resourceType": "Encounter",
      "id": "2c84270c-9690-4571-9682-c6e74eeee2c23",
      "meta": {
        "profile": [ "http://hl7.org/fhir/us/qicore/StructureDefinition/qicore-encounter" ]
      },
      "status": "finished",
      "class": {
        "system": "http://terminology.hl7.org/CodeSystem/v3-ActCode",
        "code": "EMER",
        "display": "emergency",
        "userSelected": true
      },
      "type": [ {
        "coding": [ {
          "system": "http://snomed.info/sct",
          "code": "4525004",
          "display": "Emergency department patient visit (procedure)"
        } ]
      } ],
      "subject": {
        "reference": "Patient/66e9eb42-457d-4797-b8bb-17d2e7a02658"
      },
      "period": {
        "start": "2027-06-27T04:00:00.000+00:00",
        "end": "2027-06-27T15:30:00.000+00:00"
      }
    },
    "request": {
      "method": "PUT",
      "url": "Encounter/2c84270c-9690-4571-9682-c6e74eeee2c23"
    }
  }, {
    "fullUrl": "https://madie.cms.gov/Encounter/2c84270c-9690-4571-9682-c6e74eeee2c24",
    "resource": {
      "resourceType": "Encounter",
      "id": "2c84270c-9690-4571-9682-c6e74eeee2c24",
      "meta": {
        "profile": [ "http://hl7.org/fhir/us/qicore/StructureDefinition/qicore-encounter" ]
      },
      "status": "finished",
      "class": {
        "system": "http://terminology.hl7.org/CodeSystem/v3-ActCode",
        "code": "IMP",
        "display": "inpatient encounter",
        "userSelected": true
      },
      "type": [ {
        "coding": [ {
          "system": "http://snomed.info/sct",
          "code": "183452005",
          "display": "Emergency hospital admission (procedure)"
        } ]
      } ],
      "subject": {
        "reference": "Patient/66e9eb42-457d-4797-b8bb-17d2e7a02658"
      },
      "period": {
        "start": "2027-06-27T15:30:00.000+00:00",
        "end": "2027-06-30T08:23:59.000+00:00"
      }
    },
    "request": {
      "method": "PUT",
      "url": "Encounter/2c84270c-9690-4571-9682-c6e74eeee2c24"
    }
  }, {
    "fullUrl": "https://madie.cms.gov/Observation/69ff2124-510a-4c45-a314-49a644fabe15",
    "resource": {
      "resourceType": "Observation",
      "id": "69ff2124-510a-4c45-a314-49a644fabe15",
      "meta": {
        "profile": [ "http://hl7.org/fhir/StructureDefinition/heartrate" ]
      },
      "status": "final",
      "category": [ {
        "coding": [ {
          "system": "http://terminology.hl7.org/CodeSystem/observation-category",
          "code": "vital-signs",
          "display": "Vital Signs",
          "userSelected": true
        } ]
      } ],
      "code": {
        "coding": [ {
          "system": "http://loinc.org",
          "code": "8867-4",
          "display": "Heart rate"
        } ]
      },
      "subject": {
        "reference": "Patient/66e9eb42-457d-4797-b8bb-17d2e7a02658"
      },
      "effectiveDateTime": "2027-01-04T08:00:00.000+00:00",
      "valueQuantity": {
        "value": 130,
        "unit": "/min",
        "system": "http://unitsofmeasure.org",
        "code": "/min"
      }
    },
    "request": {
      "method": "PUT",
      "url": "Observation/69ff2124-510a-4c45-a314-49a644fabe15"
    }
  }, {
    "fullUrl": "https://madie.cms.gov/Observation/7841a2cf-0a9b-44b0-9049-39ea5558eb57",
    "resource": {
      "resourceType": "Observation",
      "id": "7841a2cf-0a9b-44b0-9049-39ea5558eb57",
      "meta": {
        "profile": [ "http://hl7.org/fhir/StructureDefinition/bp" ]
      },
      "status": "final",
      "category": [ {
        "coding": [ {
          "system": "http://terminology.hl7.org/CodeSystem/observation-category",
          "code": "vital-signs",
          "display": "Vital Signs"
        } ],
        "text": "Vital Signs"
      } ],
      "code": {
        "coding": [ {
          "system": "http://loinc.org",
          "code": "85354-9",
          "display": "Blood pressure panel"
        } ]
      },
      "subject": {
        "reference": "Patient/66e9eb42-457d-4797-b8bb-17d2e7a02658"
      },
      "effectiveDateTime": "2026-06-30T13:00:00.000+00:00",
      "component": [ {
        "code": {
          "coding": [ {
            "system": "http://loinc.org",
            "code": "8480-6",
            "display": "Systolic blood pressure"
          } ]
        },
        "valueQuantity": {
          "value": 131,
          "unit": "mmHg",
          "system": "http://unitsofmeasure.org",
          "code": "mm[Hg]"
        }
      }, {
        "code": {
          "coding": [ {
            "system": "http://loinc.org",
            "code": "8462-4",
            "display": "Diastolic blood pressure"
          } ]
        },
        "valueQuantity": {
          "value": 80,
          "unit": "mmHg",
          "system": "http://unitsofmeasure.org",
          "code": "mm[Hg]"
        }
      } ]
    },
    "request": {
      "method": "PUT",
      "url": "Observation/7841a2cf-0a9b-44b0-9049-39ea5558eb57"
    }
  }, {
    "fullUrl": "https://madie.cms.gov/Observation/26f4ceed-bed8-4db4-a7e6-44bbd4317b40",
    "resource": {
      "resourceType": "Observation",
      "id": "26f4ceed-bed8-4db4-a7e6-44bbd4317b40",
      "meta": {
        "profile": [ "http://hl7.org/fhir/StructureDefinition/bodytemp" ]
      },
      "status": "amended",
      "category": [ {
        "coding": [ {
          "system": "http://terminology.hl7.org/CodeSystem/observation-category",
          "code": "vital-signs",
          "display": "Vital Signs",
          "userSelected": true
        } ]
      } ],
      "code": {
        "coding": [ {
          "system": "http://loinc.org",
          "code": "8310-5",
          "display": "Body temperature"
        } ]
      },
      "subject": {
        "reference": "Patient/66e9eb42-457d-4797-b8bb-17d2e7a02658"
      },
      "effectiveDateTime": "2027-06-27T15:30:00.000+00:00",
      "valueQuantity": {
        "value": 98.6,
        "unit": "[degF]",
        "system": "http://unitsofmeasure.org",
        "code": "[degF]"
      }
    },
    "request": {
      "method": "PUT",
      "url": "Observation/26f4ceed-bed8-4db4-a7e6-44bbd4317b40"
    }
  }, {
    "fullUrl": "https://madie.cms.gov/Coverage/2ae789ed-f048-438c-af6a-89ca859a18c9",
    "resource": {
      "resourceType": "Coverage",
      "id": "2ae789ed-f048-438c-af6a-89ca859a18c9",
      "meta": {
        "profile": [ "http://hl7.org/fhir/us/qicore/StructureDefinition/qicore-coverage" ]
      },
      "status": "active",
      "type": {
        "coding": [ {
          "system": "https://nahdo.org/sopt",
          "version": "1.0.1",
          "code": "1",
          "display": "Medicare payer",
          "userSelected": true
        } ]
      },
      "beneficiary": {
        "reference": "Patient/66e9eb42-457d-4797-b8bb-17d2e7a02658"
      },
      "payor": [ {
        "reference": "Organization/90f1ad1f-80f0-4874-b7c3-08cf25c95b93"
      } ]
    },
    "request": {
      "method": "PUT",
      "url": "Coverage/2ae789ed-f048-438c-af6a-89ca859a18c9"
    }
  }, {
    "fullUrl": "https://madie.cms.gov/Organization/90f1ad1f-80f0-4874-b7c3-08cf25c95b93",
    "resource": {
      "resourceType": "Organization",
      "id": "90f1ad1f-80f0-4874-b7c3-08cf25c95b93",
      "meta": {
        "profile": [ "http://hl7.org/fhir/us/qicore/StructureDefinition/qicore-organization" ]
      },
      "identifier": [ {
        "use": "temp",
        "system": "urn:oid:2.16.840.1.113883.4.4",
        "value": "21-3259825"
      } ],
      "active": true,
      "type": [ {
        "coding": [ {
          "system": "http://terminology.hl7.org/CodeSystem/organization-type",
          "code": "pay",
          "display": "Payer"
        } ]
      } ],
      "name": "Blue Cross Blue Shield of Texas",
      "telecom": [ {
        "system": "phone",
        "value": "(+1) 972-766-6900"
      } ],
      "address": [ {
        "use": "billing",
        "type": "postal",
        "line": [ "P.O. Box 660044" ],
        "city": "Dallas",
        "state": "TX",
        "postalCode": "75266-0044",
        "country": "USA"
      } ]
    },
    "request": {
      "method": "PUT",
      "url": "Organization/90f1ad1f-80f0-4874-b7c3-08cf25c95b93"
    }
  }, {
    "fullUrl": "https://madie.cms.gov/Practitioner/eb4c65a9-1fc6-4a49-b83d-73129dd8db7a",
    "resource": {
      "resourceType": "Practitioner",
      "id": "eb4c65a9-1fc6-4a49-b83d-73129dd8db7a",
      "meta": {
        "profile": [ "http://hl7.org/fhir/us/qicore/StructureDefinition/qicore-practitioner" ]
      },
      "identifier": [ {
        "system": "http://hl7.org/fhir/sid/us-npi",
        "value": "123456"
      } ],
      "name": [ {
        "family": "Evil",
        "prefix": [ "Dr" ]
      } ]
    },
    "request": {
      "method": "PUT",
      "url": "Practitioner/eb4c65a9-1fc6-4a49-b83d-73129dd8db7a"
    }
  }, {
    "fullUrl": "https://madie.cms.gov/MeasureReport/9b487adb-8c71-4e01-9fa7-72c46260a183",
    "resource": {
      "resourceType": "MeasureReport",
      "id": "9b487adb-8c71-4e01-9fa7-72c46260a183",
      "meta": {
        "profile": [ "http://hl7.org/fhir/us/cqfmeasures/StructureDefinition/test-case-cqfm" ]
      },
      "contained": [ {
        "resourceType": "Parameters",
        "id": "f7a5dcb5-f3c5-479c-aed4-9374f8ac1205-parameters",
        "parameter": [ {
          "name": "subject",
          "valueString": "66e9eb42-457d-4797-b8bb-17d2e7a02658"
        } ]
      } ],
      "extension": [ {
        "url": "http://hl7.org/fhir/us/cqfmeasures/StructureDefinition/cqfm-inputParameters",
        "valueReference": {
          "reference": "#f7a5dcb5-f3c5-479c-aed4-9374f8ac1205-parameters"
        }
      }, {
        "url": "http://hl7.org/fhir/us/cqfmeasures/StructureDefinition/cqfm-testCaseDescription",
        "valueMarkdown": "Enc. 1: starts 1st day of MP (7/1), has Medicare and is 65 today, SBP\nEnc. 2: starts last day of CY, O2 sats  98%\nEnc. 3: starts 4th day of following year, heart rate\nEnc. 4: Surgery then inpatient, ends last day of MP (6/30),  temperature  \n "
      } ],
      "modifierExtension": [ {
        "url": "http://hl7.org/fhir/us/cqfmeasures/StructureDefinition/cqfm-isTestCase",
        "valueBoolean": true
      } ],
      "status": "complete",
      "type": "individual",
      "measure": "https://madie.cms.gov/Measure/CMSFHIR844HybridHospitalWideMortality",
      "period": {
        "start": "2026-07-01",
        "end": "2027-06-30"
      },
      "group": [ {
        "population": [ {
          "code": {
            "coding": [ {
              "system": "http://terminology.hl7.org/CodeSystem/measure-population",
              "code": "initial-population",
              "display": "Initial Population"
            } ]
          },
          "count": 4
        } ]
      } ],
      "evaluatedResource": [ {
        "reference": "Patient/66e9eb42-457d-4797-b8bb-17d2e7a02658"
      }, {
        "reference": "Encounter/2c84270c-9690-4571-9682-c6e74eeee2c2"
      }, {
        "reference": "Encounter/2c84270c-9690-4571-9682-c6e74eeee2c21"
      }, {
        "reference": "Observation/1238dee0-6e88-4c46-aaa7-cd63e28c1b35"
      }, {
        "reference": "Encounter/2c84270c-9690-4571-9682-c6e74eeee2c22"
      }, {
        "reference": "Encounter/2c84270c-9690-4571-9682-c6e74eeee2c23"
      }, {
        "reference": "Encounter/2c84270c-9690-4571-9682-c6e74eeee2c24"
      }, {
        "reference": "Observation/69ff2124-510a-4c45-a314-49a644fabe15"
      }, {
        "reference": "Observation/7841a2cf-0a9b-44b0-9049-39ea5558eb57"
      }, {
        "reference": "Observation/26f4ceed-bed8-4db4-a7e6-44bbd4317b40"
      }, {
        "reference": "Coverage/2ae789ed-f048-438c-af6a-89ca859a18c9"
      }, {
        "reference": "Organization/90f1ad1f-80f0-4874-b7c3-08cf25c95b93"
      }, {
        "reference": "Practitioner/eb4c65a9-1fc6-4a49-b83d-73129dd8db7a"
      } ]
    },
    "request": {
      "method": "PUT",
      "url": "MeasureReport/9b487adb-8c71-4e01-9fa7-72c46260a183"
    }
  } ]
}