{"resourceType":"Bundle","id":"tests-d2b4a14a-a53d-44e8-aacf-baadd8865f63-bundle","type":"transaction","entry":[{"fullUrl":"https://madie.cms.gov/Patient/d2b4a14a-a53d-44e8-aacf-baadd8865f63","resource":{"resourceType":"Patient","id":"d2b4a14a-a53d-44e8-aacf-baadd8865f63","meta":{"profile":["http://hl7.org/fhir/us/qicore/StructureDefinition/qicore-patient"]},"extension":[{"url":"http://hl7.org/fhir/us/core/StructureDefinition/us-core-race","extension":[{"url":"ombCategory","valueCoding":{"system":"urn:oid:2.16.840.1.113883.6.238","code":"2054-5","display":"Black or African American"}},{"url":"text","valueString":"Black or African American"}]},{"url":"http://hl7.org/fhir/us/core/StructureDefinition/us-core-ethnicity","extension":[{"url":"ombCategory","valueCoding":{"system":"urn:oid:2.16.840.1.113883.6.238","code":"2186-5","display":"Non Hispanic or Latino"}},{"url":"text","valueString":"Non Hispanic or Latino"}]}],"identifier":[{"type":{"coding":[{"system":"http://terminology.hl7.org/CodeSystem/v2-0203","code":"MR"}]},"system":"https://GoodHealthcare.com/","value":"41654161684974312"}],"name":[{"family":"IPFail","given":["OV1MinAfterMPEnd"]}],"gender":"male","birthDate":"1960-05-01"},"request":{"method":"PUT","url":"Patient/d2b4a14a-a53d-44e8-aacf-baadd8865f63"}},{"fullUrl":"https://madie.cms.gov/Encounter/4654645","resource":{"resourceType":"Encounter","id":"8b8332b8-7aee-43ad-b410-45c5ba495411","meta":{"profile":["http://hl7.org/fhir/us/qicore/StructureDefinition/qicore-encounter"]},"status":"finished","class":{"system":"http://terminology.hl7.org/CodeSystem/v3-ActCode","code":"AMB","display":"ambulatory"},"type":[{"coding":[{"system":"http://snomed.info/sct","version":"http://snomed.info/sct/731000124108/version/20240301","code":"439740005","display":"Postoperative follow-up visit (procedure)"}]}],"subject":{"reference":"Patient/d2b4a14a-a53d-44e8-aacf-baadd8865f63"},"period":{"start":"2026-01-01T00:00:00.000+00:00","end":"2026-01-01T00:35:00.000+00:00"}},"request":{"method":"PUT","url":"Encounter/8b8332b8-7aee-43ad-b410-45c5ba495411"}},{"fullUrl":"https://madie.cms.gov/Condition/1321344","resource":{"resourceType":"Condition","id":"2b8b6b00-5956-42d5-aa44-e2ef1c2f6e21","meta":{"profile":["http://hl7.org/fhir/us/qicore/StructureDefinition/qicore-condition"]},"clinicalStatus":{"coding":[{"system":"http://terminology.hl7.org/CodeSystem/condition-clinical","code":"active","display":"active"}]},"verificationStatus":{"coding":[{"system":"http://terminology.hl7.org/CodeSystem/condition-ver-status","code":"confirmed","display":"Confirmed"}]},"category":[{"coding":[{"system":"http://terminology.hl7.org/CodeSystem/condition-category","code":"problem-list-item","display":"Problem List Item"}]}],"code":{"coding":[{"system":"http://hl7.org/fhir/sid/icd-10-cm","version":"2024","code":"N40.1","display":"Benign prostatic hyperplasia with lower urinary tract symptoms"}]},"subject":{"reference":"Patient/d2b4a14a-a53d-44e8-aacf-baadd8865f63"},"onsetPeriod":{"start":"2024-07-01T08:00:00.000+00:00"}},"request":{"method":"PUT","url":"Condition/2b8b6b00-5956-42d5-aa44-e2ef1c2f6e21"}},{"fullUrl":"https://madie.cms.gov/Observation/4645313","resource":{"resourceType":"Observation","id":"e1c68698-3402-4602-8e31-cc41cd4d7da5","meta":{"profile":["http://hl7.org/fhir/us/qicore/StructureDefinition/qicore-observation"]},"status":"final","category":[{"coding":[{"system":"http://terminology.hl7.org/CodeSystem/observation-category","code":"survey","display":"Survey"}]}],"code":{"coding":[{"system":"http://loinc.org","version":"2.76","code":"80976-4","display":"International Prostate Symptom Score [IPSS]"}]},"subject":{"reference":"Patient/d2b4a14a-a53d-44e8-aacf-baadd8865f63"},"effectiveDateTime":"2024-08-01T08:00:00.000+00:00","valueInteger":2},"request":{"method":"PUT","url":"Observation/e1c68698-3402-4602-8e31-cc41cd4d7da5"}},{"fullUrl":"https://madie.cms.gov/Observation/65464646","resource":{"resourceType":"Observation","id":"3e7fcb0c-896a-40bb-8504-2f239bb727e2","meta":{"profile":["http://hl7.org/fhir/us/qicore/StructureDefinition/qicore-observation"]},"status":"final","category":[{"coding":[{"system":"http://terminology.hl7.org/CodeSystem/observation-category","code":"survey","display":"Survey"}]}],"code":{"coding":[{"system":"http://loinc.org","version":"2.76","code":"80976-4","display":"International Prostate Symptom Score [IPSS]"}]},"subject":{"reference":"Patient/d2b4a14a-a53d-44e8-aacf-baadd8865f63"},"effectiveDateTime":"2025-07-01T08:00:00.000+00:00","valueInteger":1},"request":{"method":"PUT","url":"Observation/3e7fcb0c-896a-40bb-8504-2f239bb727e2"}},{"fullUrl":"https://madie.cms.gov/MeasureReport/f0f935e8-96ca-46b8-b771-0e91a808018d","resource":{"resourceType":"MeasureReport","id":"f0f935e8-96ca-46b8-b771-0e91a808018d","meta":{"profile":["http://hl7.org/fhir/us/cqfmeasures/StructureDefinition/test-case-cqfm"]},"contained":[{"resourceType":"Parameters","id":"5e0c292f-99ab-417f-9365-cf9f62375633-parameters","parameter":[{"name":"subject","valueString":"d2b4a14a-a53d-44e8-aacf-baadd8865f63"}]}],"extension":[{"url":"http://hl7.org/fhir/us/cqfmeasures/StructureDefinition/cqfm-inputParameters","valueReference":{"reference":"#5e0c292f-99ab-417f-9365-cf9f62375633-parameters"}},{"url":"http://hl7.org/fhir/us/cqfmeasures/StructureDefinition/cqfm-testCaseDescription","valueMarkdown":"Male Pt with BPH Dx, Initial and Followup USS, with OV starting 1 minute past MP end"}],"modifierExtension":[{"url":"http://hl7.org/fhir/us/cqfmeasures/StructureDefinition/cqfm-isTestCase","valueBoolean":true}],"status":"complete","type":"individual","measure":"https://madie.cms.gov/Measure/UrinarySymptomScoreChangeAfterBenignProstaticHyperplasiaFHIR","period":{"start":"2025-01-01","end":"2025-12-31"},"group":[{"population":[{"code":{"coding":[{"system":"http://terminology.hl7.org/CodeSystem/measure-population","code":"initial-population","display":"Initial Population"}]},"count":0},{"code":{"coding":[{"system":"http://terminology.hl7.org/CodeSystem/measure-population","code":"denominator","display":"Denominator"}]},"count":0},{"code":{"coding":[{"system":"http://terminology.hl7.org/CodeSystem/measure-population","code":"denominator-exclusion","display":"Denominator Exclusion"}]},"count":0},{"code":{"coding":[{"system":"http://terminology.hl7.org/CodeSystem/measure-population","code":"numerator","display":"Numerator"}]},"count":0}]}]},"request":{"method":"PUT","url":"MeasureReport/f0f935e8-96ca-46b8-b771-0e91a808018d"}}]}