{"resourceType":"Bundle","id":"tests-8bb45bbf-4685-45ed-ab5d-004f87214748-bundle","type":"transaction","entry":[{"fullUrl":"https://madie.cms.gov/Patient/8bb45bbf-4685-45ed-ab5d-004f87214748","resource":{"resourceType":"Patient","id":"8bb45bbf-4685-45ed-ab5d-004f87214748","meta":{"profile":["http://hl7.org/fhir/us/qicore/StructureDefinition/qicore-patient"]},"extension":[{"url":"http://hl7.org/fhir/us/core/StructureDefinition/us-core-race","extension":[{"url":"ombCategory","valueCoding":{"system":"urn:oid:2.16.840.1.113883.6.238","code":"2106-3","display":"White"}},{"url":"text","valueString":"White"}]},{"url":"http://hl7.org/fhir/us/core/StructureDefinition/us-core-ethnicity","extension":[{"url":"ombCategory","valueCoding":{"system":"urn:oid:2.16.840.1.113883.6.238","code":"2135-2","display":"Hispanic or Latino","userSelected":true}},{"url":"text","valueString":"Hispanic or Latino"}]}],"identifier":[{"type":{"coding":[{"system":"http://terminology.hl7.org/CodeSystem/v2-0203","code":"MR"}]},"system":"https://smarthealth.com","value":"900082319426"}],"name":[{"family":"DENEXPass","given":["MorbidObesityDxOnSameDayAs2ndUSS"]}],"gender":"male","birthDate":"1958-01-10"},"request":{"method":"PUT","url":"Patient/8bb45bbf-4685-45ed-ab5d-004f87214748"}},{"fullUrl":"https://madie.cms.gov/Encounter/55509231","resource":{"resourceType":"Encounter","id":"56364813-a8c5-412a-9dd2-32e209559d42","meta":{"profile":["http://hl7.org/fhir/us/qicore/StructureDefinition/qicore-encounter"]},"status":"finished","class":{"system":"http://terminology.hl7.org/CodeSystem/v3-ActCode","code":"AMB","display":"ambulatory"},"type":[{"coding":[{"system":"http://snomed.info/sct","version":"http://snomed.info/sct/731000124108/version/20240301","code":"439740005","display":"Postoperative follow-up visit (procedure)","userSelected":true}]}],"subject":{"reference":"Patient/8bb45bbf-4685-45ed-ab5d-004f87214748"},"period":{"start":"2025-05-01T08:00:00.000+00:00","end":"2025-05-01T08:30:00.000+00:00"}},"request":{"method":"PUT","url":"Encounter/56364813-a8c5-412a-9dd2-32e209559d42"}},{"fullUrl":"https://madie.cms.gov/Condition/55509232","resource":{"resourceType":"Condition","id":"fe62df80-3f31-4725-834a-b873acb1c5c2","meta":{"profile":["http://hl7.org/fhir/us/qicore/StructureDefinition/qicore-condition"]},"clinicalStatus":{"coding":[{"system":"http://terminology.hl7.org/CodeSystem/condition-clinical","code":"active","display":"active","userSelected":true}]},"verificationStatus":{"coding":[{"system":"http://terminology.hl7.org/CodeSystem/condition-ver-status","code":"confirmed","display":"Confirmed","userSelected":true}]},"category":[{"coding":[{"system":"http://terminology.hl7.org/CodeSystem/condition-category","code":"encounter-diagnosis","display":"Encounter Diagnosis"}]}],"code":{"coding":[{"system":"http://hl7.org/fhir/sid/icd-10-cm","version":"2024","code":"N40.1","display":"Benign prostatic hyperplasia with lower urinary tract symptoms","userSelected":true}]},"subject":{"reference":"Patient/8bb45bbf-4685-45ed-ab5d-004f87214748"},"onsetPeriod":{"start":"2024-12-14T15:00:00.000+00:00"}},"request":{"method":"PUT","url":"Condition/fe62df80-3f31-4725-834a-b873acb1c5c2"}},{"fullUrl":"https://madie.cms.gov/Condition/55509600","resource":{"resourceType":"Condition","id":"90825c33-7495-4d44-9f59-031ec849e969","meta":{"profile":["http://hl7.org/fhir/us/qicore/StructureDefinition/qicore-condition"]},"clinicalStatus":{"coding":[{"system":"http://terminology.hl7.org/CodeSystem/condition-clinical","code":"active","display":"active","userSelected":true}]},"verificationStatus":{"coding":[{"system":"http://terminology.hl7.org/CodeSystem/condition-ver-status","code":"confirmed","display":"Confirmed","userSelected":true}]},"category":[{"coding":[{"system":"http://terminology.hl7.org/CodeSystem/condition-category","code":"encounter-diagnosis","display":"Encounter Diagnosis"}]}],"code":{"coding":[{"system":"http://snomed.info/sct","version":"http://snomed.info/sct/731000124108/version/20240301","code":"238136002","display":"Morbid obesity (disorder)"}]},"subject":{"reference":"Patient/8bb45bbf-4685-45ed-ab5d-004f87214748"},"onsetPeriod":{"start":"2025-12-01T08:15:00.000+00:00"}},"request":{"method":"PUT","url":"Condition/90825c33-7495-4d44-9f59-031ec849e969"}},{"fullUrl":"https://madie.cms.gov/Observation/55509233","resource":{"resourceType":"Observation","id":"20d96115-a68e-47aa-a38c-cb6a8bf94503","meta":{"profile":["http://hl7.org/fhir/us/qicore/StructureDefinition/qicore-observation"]},"status":"final","category":[{"coding":[{"system":"http://terminology.hl7.org/CodeSystem/observation-category","code":"survey","display":"Survey"}]}],"code":{"coding":[{"system":"http://loinc.org","version":"2.76","code":"80976-4","display":"International Prostate Symptom Score [IPSS]","userSelected":true}]},"subject":{"reference":"Patient/8bb45bbf-4685-45ed-ab5d-004f87214748"},"effectiveDateTime":"2025-01-02T08:15:00.000+00:00","valueInteger":5},"request":{"method":"PUT","url":"Observation/20d96115-a68e-47aa-a38c-cb6a8bf94503"}},{"fullUrl":"https://madie.cms.gov/Observation/55509234","resource":{"resourceType":"Observation","id":"f99ffc87-82ef-4d98-82cc-7c500b17244e","meta":{"profile":["http://hl7.org/fhir/us/qicore/StructureDefinition/qicore-observation"]},"status":"final","category":[{"coding":[{"system":"http://terminology.hl7.org/CodeSystem/observation-category","code":"survey","display":"Survey"}]}],"code":{"coding":[{"system":"http://loinc.org","version":"2.76","code":"80976-4","display":"International Prostate Symptom Score [IPSS]","userSelected":true}]},"subject":{"reference":"Patient/8bb45bbf-4685-45ed-ab5d-004f87214748"},"effectiveDateTime":"2025-12-01T08:15:00.000+00:00","valueInteger":5},"request":{"method":"PUT","url":"Observation/f99ffc87-82ef-4d98-82cc-7c500b17244e"}},{"fullUrl":"https://madie.cms.gov/MeasureReport/4d032a13-00d3-4665-bc16-748d1d8726bf","resource":{"resourceType":"MeasureReport","id":"4d032a13-00d3-4665-bc16-748d1d8726bf","meta":{"profile":["http://hl7.org/fhir/us/cqfmeasures/StructureDefinition/test-case-cqfm"]},"contained":[{"resourceType":"Parameters","id":"a4af3c1a-e64b-43c8-b5f5-e61627877a7e-parameters","parameter":[{"name":"subject","valueString":"8bb45bbf-4685-45ed-ab5d-004f87214748"}]}],"extension":[{"url":"http://hl7.org/fhir/us/cqfmeasures/StructureDefinition/cqfm-inputParameters","valueReference":{"reference":"#a4af3c1a-e64b-43c8-b5f5-e61627877a7e-parameters"}},{"url":"http://hl7.org/fhir/us/cqfmeasures/StructureDefinition/cqfm-testCaseDescription","valueMarkdown":"Patient has a dignosis of Morbid Obesity occuring same day as second urinary symptom assessment and qualifying for denominator exclusion population."}],"modifierExtension":[{"url":"http://hl7.org/fhir/us/cqfmeasures/StructureDefinition/cqfm-isTestCase","valueBoolean":true}],"status":"complete","type":"individual","measure":"https://madie.cms.gov/Measure/UrinarySymptomScoreChangeAfterBenignProstaticHyperplasiaFHIR","period":{"start":"2025-01-01","end":"2025-12-31"},"group":[{"population":[{"code":{"coding":[{"system":"http://terminology.hl7.org/CodeSystem/measure-population","code":"initial-population","display":"Initial Population"}]},"count":1},{"code":{"coding":[{"system":"http://terminology.hl7.org/CodeSystem/measure-population","code":"denominator","display":"Denominator"}]},"count":1},{"code":{"coding":[{"system":"http://terminology.hl7.org/CodeSystem/measure-population","code":"denominator-exclusion","display":"Denominator Exclusion"}]},"count":1},{"code":{"coding":[{"system":"http://terminology.hl7.org/CodeSystem/measure-population","code":"numerator","display":"Numerator"}]},"count":0}]}]},"request":{"method":"PUT","url":"MeasureReport/4d032a13-00d3-4665-bc16-748d1d8726bf"}}]}