{
  "resourceType": "Bundle",
  "id": "IPPFail-EncounterLOS121Days-bundle",
  "type": "transaction",
  "entry": [ {
    "fullUrl": "https://madie.cms.gov/Encounter/bbb3a3c9-2204-4527-987f-c0235b5718f3",
    "resource": {
      "resourceType": "Encounter",
      "id": "bbb3a3c9-2204-4527-987f-c0235b5718f3",
      "meta": {
        "profile": [ "http://hl7.org/fhir/us/qicore/StructureDefinition/qicore-encounter" ]
      },
      "status": "finished",
      "class": {
        "system": "http://terminology.hl7.org/CodeSystem/v3-ActCode",
        "code": "IMP",
        "display": "inpatient encounter"
      },
      "type": [ {
        "coding": [ {
          "system": "http://snomed.info/sct",
          "code": "183452005"
        } ]
      } ],
      "subject": {
        "reference": "Patient/5829147b-0a83-464b-bc92-cebb96b4ae38"
      },
      "period": {
        "start": "2026-07-01T08:00:00+00:00",
        "end": "2026-10-30T08:15:00+00:00"
      }
    },
    "request": {
      "method": "PUT",
      "url": "Encounter/bbb3a3c9-2204-4527-987f-c0235b5718f3"
    }
  }, {
    "fullUrl": "https://madie.cms.gov/Patient/5829147b-0a83-464b-bc92-cebb96b4ae38",
    "resource": {
      "resourceType": "Patient",
      "id": "5829147b-0a83-464b-bc92-cebb96b4ae38",
      "meta": {
        "profile": [ "http://hl7.org/fhir/us/qicore/StructureDefinition/qicore-patient" ]
      },
      "extension": [ {
        "url": "http://hl7.org/fhir/us/core/StructureDefinition/us-core-race",
        "extension": [ {
          "url": "ombCategory",
          "valueCoding": {
            "system": "urn:oid:2.16.840.1.113883.6.238",
            "code": "2054-5",
            "display": "Black or African American",
            "userSelected": true
          }
        }, {
          "url": "text",
          "valueString": "Black or African American"
        } ]
      }, {
        "url": "http://hl7.org/fhir/us/core/StructureDefinition/us-core-ethnicity",
        "extension": [ {
          "url": "ombCategory",
          "valueCoding": {
            "system": "urn:oid:2.16.840.1.113883.6.238",
            "code": "2186-5",
            "display": "Not Hispanic or Latino",
            "userSelected": true
          }
        }, {
          "url": "text",
          "valueString": "Not Hispanic or Latino"
        } ]
      } ],
      "identifier": [ {
        "type": {
          "coding": [ {
            "system": "http://terminology.hl7.org/CodeSystem/v2-0203",
            "code": "MR"
          } ]
        },
        "system": "https://bonnie-fhir.healthit.gov/",
        "value": "61152a3b98086b7a79cbd7c1"
      } ],
      "active": true,
      "name": [ {
        "use": "usual",
        "family": "IPPFail",
        "given": [ "Enc1FallPOAEnc2FallNPOAAndInjuryNPOA" ]
      } ],
      "gender": "male",
      "birthDate": "1994-11-30"
    },
    "request": {
      "method": "PUT",
      "url": "Patient/5829147b-0a83-464b-bc92-cebb96b4ae38"
    }
  }, {
    "fullUrl": "https://madie.cms.gov/MeasureReport/cfc89ef8-3c05-4390-bdca-d5162cd9148f",
    "resource": {
      "resourceType": "MeasureReport",
      "id": "cfc89ef8-3c05-4390-bdca-d5162cd9148f",
      "meta": {
        "profile": [ "http://hl7.org/fhir/us/cqfmeasures/StructureDefinition/test-case-cqfm" ]
      },
      "contained": [ {
        "resourceType": "Parameters",
        "id": "0b0664c4-da8f-4b3e-b3b8-3326f249bed1-parameters",
        "parameter": [ {
          "name": "subject",
          "valueString": "5829147b-0a83-464b-bc92-cebb96b4ae38"
        } ]
      } ],
      "extension": [ {
        "url": "http://hl7.org/fhir/us/cqfmeasures/StructureDefinition/cqfm-inputParameters",
        "valueReference": {
          "reference": "#0b0664c4-da8f-4b3e-b3b8-3326f249bed1-parameters"
        }
      }, {
        "url": "http://hl7.org/fhir/us/cqfmeasures/StructureDefinition/cqfm-testCaseDescription",
        "valueMarkdown": "IP w/correct age, but LOS = 121 days. Must be LOS <=120 days to qualify for IPP. IPP Fails"
      } ],
      "modifierExtension": [ {
        "url": "http://hl7.org/fhir/us/cqfmeasures/StructureDefinition/cqfm-isTestCase",
        "valueBoolean": true
      } ],
      "status": "complete",
      "type": "individual",
      "measure": "https://madie.cms.gov/Measure/FallsWithInjuryFHIR",
      "period": {
        "start": "2026-01-01",
        "end": "2026-12-31"
      },
      "group": [ {
        "population": [ {
          "code": {
            "coding": [ {
              "system": "http://terminology.hl7.org/CodeSystem/measure-population",
              "code": "initial-population",
              "display": "Initial Population"
            } ]
          },
          "count": 0
        }, {
          "code": {
            "coding": [ {
              "system": "http://terminology.hl7.org/CodeSystem/measure-population",
              "code": "denominator",
              "display": "Denominator"
            } ]
          },
          "count": 0
        }, {
          "code": {
            "coding": [ {
              "system": "http://terminology.hl7.org/CodeSystem/measure-population",
              "code": "denominator-exclusion",
              "display": "Denominator Exclusion"
            } ]
          },
          "count": 0
        }, {
          "code": {
            "coding": [ {
              "system": "http://terminology.hl7.org/CodeSystem/measure-population",
              "code": "numerator",
              "display": "Numerator"
            } ]
          },
          "count": 0
        }, {
          "code": {
            "coding": [ {
              "system": "http://terminology.hl7.org/CodeSystem/measure-population",
              "code": "numerator-exclusion",
              "display": "Numerator Exclusion"
            } ]
          },
          "count": 0
        } ]
      } ],
      "evaluatedResource": [ {
        "reference": "Encounter/bbb3a3c9-2204-4527-987f-c0235b5718f3"
      }, {
        "reference": "Patient/5829147b-0a83-464b-bc92-cebb96b4ae38"
      } ]
    },
    "request": {
      "method": "PUT",
      "url": "MeasureReport/cfc89ef8-3c05-4390-bdca-d5162cd9148f"
    }
  } ]
}