{
  "resourceType": "Bundle",
  "id": "633b3f9e0968f80122503cd8",
  "type": "transaction",
  "entry": [ {
    "fullUrl": "https://madie.cms.gov/Patient/10f3d5d7-59d7-4642-ac6a-1ea4f7c8ca83",
    "resource": {
      "resourceType": "Patient",
      "id": "10f3d5d7-59d7-4642-ac6a-1ea4f7c8ca83",
      "meta": {
        "profile": [ "http://hl7.org/fhir/us/qicore/StructureDefinition/qicore-patient" ]
      },
      "text": {
        "status": "generated",
        "div": "<div xmlns=\"http://www.w3.org/1999/xhtml\"><div class=\"hapiHeaderText\">Test4EDDMinutesImpactOnWksGest <b>DENOMPASS </b></div><table class=\"hapiPropertyTable\"><tbody><tr><td>Date of birth</td><td><span>01 February 1958</span></td></tr></tbody></table></div>"
      },
      "extension": [ {
        "url": "http://hl7.org/fhir/us/core/StructureDefinition/us-core-race",
        "extension": [ {
          "url": "ombCategory",
          "valueCoding": {
            "system": "urn:oid:2.16.840.1.113883.6.238",
            "code": "1002-5",
            "display": "American Indian or Alaska Native",
            "userSelected": true
          }
        }, {
          "url": "text",
          "valueString": "American Indian or Alaska Native"
        } ]
      }, {
        "url": "http://hl7.org/fhir/us/core/StructureDefinition/us-core-ethnicity",
        "extension": [ {
          "url": "ombCategory",
          "valueCoding": {
            "system": "urn:oid:2.16.840.1.113883.6.238",
            "code": "2135-2",
            "display": "Hispanic or Latino",
            "userSelected": true
          }
        }, {
          "url": "text",
          "valueString": "Hispanic or Latino"
        } ]
      } ],
      "identifier": [ {
        "type": {
          "coding": [ {
            "system": "http://terminology.hl7.org/CodeSystem/v2-0203",
            "code": "MR"
          } ]
        },
        "system": "https://bonnie-fhir.healthit.gov/",
        "value": "633b3f9e0968f80122503cd8"
      } ],
      "active": true,
      "name": [ {
        "use": "usual",
        "family": "DENOMPass",
        "given": [ "Test4EDDMinutesImpactOnWksGest" ]
      } ],
      "gender": "female",
      "birthDate": "1970-02-01"
    },
    "request": {
      "method": "PUT",
      "url": "Patient/10f3d5d7-59d7-4642-ac6a-1ea4f7c8ca83"
    }
  }, {
    "fullUrl": "https://madie.cms.gov/Observation/41118e38-eb0e-4cca-aab3-50c5fd1e9639",
    "resource": {
      "resourceType": "Observation",
      "id": "41118e38-eb0e-4cca-aab3-50c5fd1e9639",
      "meta": {
        "profile": [ "http://hl7.org/fhir/us/qicore/StructureDefinition/qicore-observation" ]
      },
      "status": "final",
      "category": [ {
        "coding": [ {
          "system": "http://terminology.hl7.org/CodeSystem/observation-category",
          "code": "exam",
          "display": "exam",
          "userSelected": true
        } ]
      } ],
      "code": {
        "coding": [ {
          "system": "http://loinc.org",
          "code": "93857-1"
        } ]
      },
      "subject": {
        "reference": "Patient/10f3d5d7-59d7-4642-ac6a-1ea4f7c8ca83"
      },
      "effectiveDateTime": "2025-02-01T08:00:00.000+00:00",
      "valueDateTime": "2025-02-01T08:00:00+00:00"
    },
    "request": {
      "method": "PUT",
      "url": "Observation/41118e38-eb0e-4cca-aab3-50c5fd1e9639"
    }
  }, {
    "fullUrl": "https://madie.cms.gov/Observation/8dc3eef9-e796-442e-8e39-7cbb43ba3e99",
    "resource": {
      "resourceType": "Observation",
      "id": "8dc3eef9-e796-442e-8e39-7cbb43ba3e99",
      "meta": {
        "profile": [ "http://hl7.org/fhir/us/qicore/StructureDefinition/qicore-observation" ]
      },
      "status": "final",
      "category": [ {
        "coding": [ {
          "system": "http://terminology.hl7.org/CodeSystem/observation-category",
          "code": "exam",
          "display": "exam",
          "userSelected": true
        } ]
      } ],
      "code": {
        "coding": [ {
          "system": "http://loinc.org",
          "code": "11778-8"
        } ]
      },
      "subject": {
        "reference": "Patient/10f3d5d7-59d7-4642-ac6a-1ea4f7c8ca83"
      },
      "effectiveDateTime": "2024-04-13T08:01:00.000+00:00",
      "valueDateTime": "2025-02-01T23:59:00.000+00:00"
    },
    "request": {
      "method": "PUT",
      "url": "Observation/8dc3eef9-e796-442e-8e39-7cbb43ba3e99"
    }
  }, {
    "fullUrl": "https://madie.cms.gov/Encounter/7d826137-6ed7-4f8f-834a-afbda592c4be",
    "resource": {
      "resourceType": "Encounter",
      "id": "7d826137-6ed7-4f8f-834a-afbda592c4be",
      "meta": {
        "profile": [ "http://hl7.org/fhir/us/qicore/StructureDefinition/qicore-encounter" ]
      },
      "status": "finished",
      "class": {
        "system": "http://terminology.hl7.org/CodeSystem/v3-ActCode",
        "code": "IMP",
        "display": "inpatient encounter"
      },
      "type": [ {
        "coding": [ {
          "system": "http://snomed.info/sct",
          "code": "183452005"
        } ]
      } ],
      "subject": {
        "reference": "Patient/10f3d5d7-59d7-4642-ac6a-1ea4f7c8ca83"
      },
      "period": {
        "start": "2025-01-30T08:00:00.000Z",
        "end": "2025-02-05T08:15:00.000Z"
      }
    },
    "request": {
      "method": "PUT",
      "url": "Encounter/7d826137-6ed7-4f8f-834a-afbda592c4be"
    }
  }, {
    "fullUrl": "https://madie.cms.gov/Procedure/e120351b-79b9-4cdf-a9fa-d59b0263a43f",
    "resource": {
      "resourceType": "Procedure",
      "id": "e120351b-79b9-4cdf-a9fa-d59b0263a43f",
      "meta": {
        "profile": [ "http://hl7.org/fhir/us/qicore/StructureDefinition/qicore-procedure" ]
      },
      "extension": [ {
        "url": "http://hl7.org/fhir/us/qicore/StructureDefinition/qicore-recorded",
        "valueDateTime": "2013-04-05T09:35:00-04:00"
      } ],
      "status": "completed",
      "code": {
        "coding": [ {
          "system": "http://snomed.info/sct",
          "code": "10745001"
        } ]
      },
      "subject": {
        "reference": "Patient/10f3d5d7-59d7-4642-ac6a-1ea4f7c8ca83"
      },
      "performedPeriod": {
        "start": "2025-02-01T08:00:00.000Z"
      }
    },
    "request": {
      "method": "PUT",
      "url": "Procedure/e120351b-79b9-4cdf-a9fa-d59b0263a43f"
    }
  }, {
    "fullUrl": "https://madie.cms.gov/Coverage/585869d4-de7c-43a4-8a17-20f28ff24ec3",
    "resource": {
      "resourceType": "Coverage",
      "id": "585869d4-de7c-43a4-8a17-20f28ff24ec3",
      "meta": {
        "profile": [ "http://hl7.org/fhir/us/qicore/StructureDefinition/qicore-coverage" ]
      },
      "status": "active",
      "beneficiary": {
        "reference": "Patient/10f3d5d7-59d7-4642-ac6a-1ea4f7c8ca83"
      },
      "payor": [ {
        "reference": "Organization/1265e2bb-ad61-4af2-b459-c56f8eed8253"
      } ]
    },
    "request": {
      "method": "PUT",
      "url": "Coverage/585869d4-de7c-43a4-8a17-20f28ff24ec3"
    }
  }, {
    "fullUrl": "https://madie.cms.gov/Organization/1265e2bb-ad61-4af2-b459-c56f8eed8253",
    "resource": {
      "resourceType": "Organization",
      "id": "1265e2bb-ad61-4af2-b459-c56f8eed8253",
      "meta": {
        "profile": [ "http://hl7.org/fhir/us/qicore/StructureDefinition/qicore-organization" ]
      },
      "identifier": [ {
        "use": "temp",
        "system": "urn:oid:2.16.840.1.113883.4.4",
        "value": "21-3259825"
      } ],
      "active": true,
      "type": [ {
        "coding": [ {
          "system": "http://terminology.hl7.org/CodeSystem/organization-type",
          "code": "pay",
          "display": "Payer"
        } ]
      } ],
      "name": "Blue Cross Blue Shield of Texas",
      "telecom": [ {
        "system": "phone",
        "value": "(+1) 972-766-6900"
      } ],
      "address": [ {
        "use": "billing",
        "type": "postal",
        "line": [ "P.O. Box 660044" ],
        "city": "Dallas",
        "state": "TX",
        "postalCode": "75266-0044",
        "country": "USA"
      } ]
    },
    "request": {
      "method": "PUT",
      "url": "Organization/1265e2bb-ad61-4af2-b459-c56f8eed8253"
    }
  }, {
    "fullUrl": "https://madie.cms.gov/Practitioner/d796b2eb-cc65-4b55-8f04-587a302f8502",
    "resource": {
      "resourceType": "Practitioner",
      "id": "d796b2eb-cc65-4b55-8f04-587a302f8502",
      "identifier": [ {
        "system": "http://hl7.org/fhir/sid/us-npi",
        "value": "123456"
      } ],
      "name": [ {
        "family": "Evil",
        "prefix": [ "Dr" ]
      } ]
    },
    "request": {
      "method": "PUT",
      "url": "Practitioner/d796b2eb-cc65-4b55-8f04-587a302f8502"
    }
  }, {
    "fullUrl": "https://madie.cms.gov/MeasureReport/71cc7e0a-be9f-491a-8386-0ecfd9c683b4",
    "resource": {
      "resourceType": "MeasureReport",
      "id": "71cc7e0a-be9f-491a-8386-0ecfd9c683b4",
      "meta": {
        "profile": [ "http://hl7.org/fhir/us/cqfmeasures/StructureDefinition/test-case-cqfm" ]
      },
      "contained": [ {
        "resourceType": "Parameters",
        "id": "dd501fcf-4253-4670-9126-6e80e57b5330-parameters",
        "parameter": [ {
          "name": "subject",
          "valueString": "10f3d5d7-59d7-4642-ac6a-1ea4f7c8ca83"
        } ]
      } ],
      "extension": [ {
        "url": "http://hl7.org/fhir/us/cqfmeasures/StructureDefinition/cqfm-inputParameters",
        "valueReference": {
          "reference": "#dd501fcf-4253-4670-9126-6e80e57b5330-parameters"
        }
      }, {
        "url": "http://hl7.org/fhir/us/cqfmeasures/StructureDefinition/cqfm-testCaseDescription",
        "valueMarkdown": "\"Delivery date = 2/1/2012 @0800.  EDD = 2/1/2012\n @11:59 pm.  Weeks gestation = 40.\"  To test the impact on calculated weeks gestation, I temporarily changed the logic of this definition:  \"Del Enc with CGA Greater than or Equal to 20 Weeks\" to = 40."
      } ],
      "modifierExtension": [ {
        "url": "http://hl7.org/fhir/us/cqfmeasures/StructureDefinition/cqfm-isTestCase",
        "valueBoolean": true
      } ],
      "status": "complete",
      "type": "individual",
      "measure": "https://madie.cms.gov/Measure/CMS1028FHIRPCSevereOBComps",
      "period": {
        "start": "2025-01-01",
        "end": "2025-12-31"
      },
      "group": [ {
        "population": [ {
          "code": {
            "coding": [ {
              "system": "http://terminology.hl7.org/CodeSystem/measure-population",
              "code": "initial-population",
              "display": "Initial Population"
            } ]
          },
          "count": 1
        }, {
          "code": {
            "coding": [ {
              "system": "http://terminology.hl7.org/CodeSystem/measure-population",
              "code": "denominator",
              "display": "Denominator"
            } ]
          },
          "count": 1
        }, {
          "code": {
            "coding": [ {
              "system": "http://terminology.hl7.org/CodeSystem/measure-population",
              "code": "numerator",
              "display": "Numerator"
            } ]
          },
          "count": 0
        }, {
          "code": {
            "coding": [ {
              "system": "http://terminology.hl7.org/CodeSystem/measure-population",
              "code": "numerator-exclusion",
              "display": "Numerator Exclusion"
            } ]
          },
          "count": 0
        } ]
      }, {
        "population": [ {
          "code": {
            "coding": [ {
              "system": "http://terminology.hl7.org/CodeSystem/measure-population",
              "code": "initial-population",
              "display": "Initial Population"
            } ]
          },
          "count": 1
        }, {
          "code": {
            "coding": [ {
              "system": "http://terminology.hl7.org/CodeSystem/measure-population",
              "code": "denominator",
              "display": "Denominator"
            } ]
          },
          "count": 1
        }, {
          "code": {
            "coding": [ {
              "system": "http://terminology.hl7.org/CodeSystem/measure-population",
              "code": "numerator",
              "display": "Numerator"
            } ]
          },
          "count": 0
        }, {
          "code": {
            "coding": [ {
              "system": "http://terminology.hl7.org/CodeSystem/measure-population",
              "code": "numerator-exclusion",
              "display": "Numerator Exclusion"
            } ]
          },
          "count": 0
        } ]
      } ],
      "evaluatedResource": [ {
        "reference": "Patient/10f3d5d7-59d7-4642-ac6a-1ea4f7c8ca83"
      }, {
        "reference": "Observation/41118e38-eb0e-4cca-aab3-50c5fd1e9639"
      }, {
        "reference": "Observation/8dc3eef9-e796-442e-8e39-7cbb43ba3e99"
      }, {
        "reference": "Encounter/7d826137-6ed7-4f8f-834a-afbda592c4be"
      }, {
        "reference": "Procedure/e120351b-79b9-4cdf-a9fa-d59b0263a43f"
      }, {
        "reference": "Coverage/585869d4-de7c-43a4-8a17-20f28ff24ec3"
      }, {
        "reference": "Organization/1265e2bb-ad61-4af2-b459-c56f8eed8253"
      }, {
        "reference": "Practitioner/d796b2eb-cc65-4b55-8f04-587a302f8502"
      } ]
    },
    "request": {
      "method": "PUT",
      "url": "MeasureReport/71cc7e0a-be9f-491a-8386-0ecfd9c683b4"
    }
  } ]
}