{"resourceType":"Bundle","id":"tests-9c8a2409-413e-4708-acd4-df59100810ad-bundle","type":"transaction","entry":[{"fullUrl":"https://madie.cms.gov/Patient/9c8a2409-413e-4708-acd4-df59100810ad","resource":{"resourceType":"Patient","id":"9c8a2409-413e-4708-acd4-df59100810ad","meta":{"profile":["http://hl7.org/fhir/us/qicore/StructureDefinition/qicore-patient"]},"extension":[{"url":"http://hl7.org/fhir/us/core/StructureDefinition/us-core-race","extension":[{"url":"ombCategory","valueCoding":{"system":"urn:oid:2.16.840.1.113883.6.238","code":"1002-5","display":"American Indian or Alaska Native","userSelected":true}},{"url":"text","valueString":"American Indian or Alaska Native"}]},{"url":"http://hl7.org/fhir/us/core/StructureDefinition/us-core-ethnicity","extension":[{"url":"ombCategory","valueCoding":{"system":"urn:oid:2.16.840.1.113883.6.238","code":"2135-2","display":"Hispanic or Latino","userSelected":true}},{"url":"text","valueString":"Hispanic or Latino"}]}],"identifier":[{"type":{"coding":[{"system":"http://terminology.hl7.org/CodeSystem/v2-0203","code":"MR"}]},"system":"https://bonnie-fhir.healthit.gov/","value":"62fd4b6a0968f8012246b316"}],"name":[{"family":"NUMERPass","given":["1stAnd2ndReferralsWithConsultantReports"]}],"gender":"female","birthDate":"1989-12-31"},"request":{"method":"PUT","url":"Patient/9c8a2409-413e-4708-acd4-df59100810ad"}},{"fullUrl":"https://madie.cms.gov/Task/consultant-report-070e","resource":{"resourceType":"Task","id":"f2a01a37-bd66-4f2d-99c8-02170d545cba","meta":{"profile":["http://hl7.org/fhir/us/qicore/StructureDefinition/qicore-task"]},"identifier":[{"use":"official","system":"http:/goodhealth.org/identifiers","value":"20170201-002"}],"basedOn":[{"reference":"ServiceRequest/referral-070f"}],"status":"completed","intent":"order","priority":"routine","code":{"coding":[{"system":"http://loinc.org","version":"2.72","code":"11488-4","display":"Consult note","userSelected":true}]},"for":{"reference":"Patient/8f9f3df4-60f6-4c9a-855f-1e3fa9b30f96"},"executionPeriod":{"start":"2025-06-06T08:00:00.000+00:00","end":"2025-06-06T08:15:00.000+00:00"}},"request":{"method":"PUT","url":"Task/f2a01a37-bd66-4f2d-99c8-02170d545cba"}},{"fullUrl":"https://madie.cms.gov/ServiceRequest/referral-070f","resource":{"resourceType":"ServiceRequest","id":"92ae904d-f525-4d58-a0c4-4df1a04b1b90","meta":{"profile":["http://hl7.org/fhir/us/qicore/StructureDefinition/qicore-servicerequest"]},"status":"active","intent":"order","code":{"coding":[{"system":"http://snomed.info/sct","version":"2022-03","code":"103696004","display":"Patient referral to specialist (procedure)","userSelected":true}]},"subject":{"reference":"Patient/8f9f3df4-60f6-4c9a-855f-1e3fa9b30f96"},"authoredOn":"2025-06-06T08:00:00.000+00:00"},"request":{"method":"PUT","url":"ServiceRequest/92ae904d-f525-4d58-a0c4-4df1a04b1b90"}},{"fullUrl":"https://madie.cms.gov/Task/consultant-report-d99e","resource":{"resourceType":"Task","id":"3b22566a-c332-46e9-85e6-d9678d02779b","meta":{"profile":["http://hl7.org/fhir/us/qicore/StructureDefinition/qicore-task"]},"identifier":[{"use":"official","system":"http:/goodhealth.org/identifiers","value":"20170201-002"}],"basedOn":[{"reference":"ServiceRequest/referral-d99f"}],"status":"completed","intent":"order","priority":"routine","code":{"coding":[{"system":"http://loinc.org","version":"2.72","code":"11488-4","display":"Consult note","userSelected":true}]},"for":{"reference":"Patient/8f9f3df4-60f6-4c9a-855f-1e3fa9b30f96"},"executionPeriod":{"start":"2025-06-09T08:00:00.000+00:00","end":"2025-06-09T08:15:00.000+00:00"}},"request":{"method":"PUT","url":"Task/3b22566a-c332-46e9-85e6-d9678d02779b"}},{"fullUrl":"https://madie.cms.gov/ServiceRequest/referral-d99f","resource":{"resourceType":"ServiceRequest","id":"1b4c7127-5843-4056-abe6-63483f0787dc","meta":{"profile":["http://hl7.org/fhir/us/qicore/StructureDefinition/qicore-servicerequest"]},"status":"active","intent":"order","code":{"coding":[{"system":"http://snomed.info/sct","version":"2022-03","code":"103696004","display":"Patient referral to specialist (procedure)","userSelected":true}]},"subject":{"reference":"Patient/8f9f3df4-60f6-4c9a-855f-1e3fa9b30f96"},"authoredOn":"2025-01-09T08:00:00.000+00:00"},"request":{"method":"PUT","url":"ServiceRequest/1b4c7127-5843-4056-abe6-63483f0787dc"}},{"fullUrl":"https://madie.cms.gov/Encounter/ophthalmological-services-1ea9","resource":{"resourceType":"Encounter","id":"a94e053c-558b-442d-824a-1844da57d531","meta":{"profile":["http://hl7.org/fhir/us/qicore/StructureDefinition/qicore-encounter"]},"status":"finished","class":{"system":"http://terminology.hl7.org/CodeSystem/v3-ActCode","code":"AMB","display":"ambulatory"},"type":[{"coding":[{"system":"http://snomed.info/sct","version":"2022-03","code":"359960003","display":"Ophthalmologic examination and evaluation under general anesthesia, limited (procedure)","userSelected":true}]}],"subject":{"reference":"Patient/8f9f3df4-60f6-4c9a-855f-1e3fa9b30f96"},"period":{"start":"2025-05-27T08:00:00.000+00:00","end":"2025-05-27T09:15:00.000+00:00"}},"request":{"method":"PUT","url":"Encounter/a94e053c-558b-442d-824a-1844da57d531"}},{"fullUrl":"https://madie.cms.gov/Coverage/1","resource":{"resourceType":"Coverage","id":"684c5d41-3eb9-41cb-86b7-d5ddaf3de6c1","meta":{"profile":["http://hl7.org/fhir/us/qicore/StructureDefinition/qicore-coverage"]},"status":"active","beneficiary":{"reference":"Patient/8f9f3df4-60f6-4c9a-855f-1e3fa9b30f96"},"payor":[{"reference":"Organization/a6c3e6fa-301e-4714-9d04-3dde9a7e7c49"}]},"request":{"method":"PUT","url":"Coverage/684c5d41-3eb9-41cb-86b7-d5ddaf3de6c1"}},{"fullUrl":"https://madie.cms.gov/Organization/123456","resource":{"resourceType":"Organization","id":"a6c3e6fa-301e-4714-9d04-3dde9a7e7c49","meta":{"profile":["http://hl7.org/fhir/us/qicore/StructureDefinition/qicore-organization"]},"identifier":[{"use":"temp","system":"urn:oid:2.16.840.1.113883.4.4","value":"21-3259825"}],"active":true,"type":[{"coding":[{"system":"http://terminology.hl7.org/CodeSystem/organization-type","code":"pay","display":"Payer"}]}],"name":"Blue Cross Blue Shield of Texas","telecom":[{"system":"phone","value":"(+1) 972-766-6900"}],"address":[{"use":"billing","type":"postal","line":["P.O. Box 660044"],"city":"Dallas","state":"TX","postalCode":"75266-0044","country":"USA"}]},"request":{"method":"PUT","url":"Organization/a6c3e6fa-301e-4714-9d04-3dde9a7e7c49"}},{"fullUrl":"https://madie.cms.gov/Practitioner/practitioner-123456","resource":{"resourceType":"Practitioner","id":"67f804d2-ab8e-4562-9393-a45cd9fbc1ad","meta":{"profile":["http://hl7.org/fhir/us/qicore/StructureDefinition/qicore-practitioner"]},"identifier":[{"system":"http://hl7.org/fhir/sid/us-npi","value":"123456"}],"name":[{"family":"Evil","prefix":["Dr"]}]},"request":{"method":"PUT","url":"Practitioner/67f804d2-ab8e-4562-9393-a45cd9fbc1ad"}},{"fullUrl":"https://madie.cms.gov/MeasureReport/271111f0-2b9a-484f-b856-644534c392e7","resource":{"resourceType":"MeasureReport","id":"271111f0-2b9a-484f-b856-644534c392e7","meta":{"profile":["http://hl7.org/fhir/us/cqfmeasures/StructureDefinition/test-case-cqfm"]},"contained":[{"resourceType":"Parameters","id":"83edcde2-3351-417a-a873-fd51a4e2fc38-parameters","parameter":[{"name":"subject","valueString":"9c8a2409-413e-4708-acd4-df59100810ad"}]}],"extension":[{"url":"http://hl7.org/fhir/us/cqfmeasures/StructureDefinition/cqfm-inputParameters","valueReference":{"reference":"#83edcde2-3351-417a-a873-fd51a4e2fc38-parameters"}},{"url":"http://hl7.org/fhir/us/cqfmeasures/StructureDefinition/cqfm-testCaseDescription","valueMarkdown":"2 out of 2 Referrals with associated Consultant reports received."}],"modifierExtension":[{"url":"http://hl7.org/fhir/us/cqfmeasures/StructureDefinition/cqfm-isTestCase","valueBoolean":true}],"status":"complete","type":"individual","measure":"https://madie.cms.gov/Measure/CRLReceiptofSpecialistReportFHIR","period":{"start":"2025-01-01","end":"2025-12-31"},"group":[{"population":[{"code":{"coding":[{"system":"http://terminology.hl7.org/CodeSystem/measure-population","code":"initial-population","display":"Initial Population"}]},"count":1},{"code":{"coding":[{"system":"http://terminology.hl7.org/CodeSystem/measure-population","code":"denominator","display":"Denominator"}]},"count":1},{"code":{"coding":[{"system":"http://terminology.hl7.org/CodeSystem/measure-population","code":"numerator","display":"Numerator"}]},"count":1}]}]},"request":{"method":"PUT","url":"MeasureReport/271111f0-2b9a-484f-b856-644534c392e7"}}]}