{"resourceType":"Bundle","id":"tests-b28307c5-37c6-4ed1-86ae-30b7fef3e4f3-bundle","type":"transaction","entry":[{"fullUrl":"https://madie.cms.gov/Patient/b28307c5-37c6-4ed1-86ae-30b7fef3e4f3","resource":{"resourceType":"Patient","id":"b28307c5-37c6-4ed1-86ae-30b7fef3e4f3","meta":{"profile":["http://hl7.org/fhir/us/qicore/StructureDefinition/qicore-patient"]},"extension":[{"url":"http://hl7.org/fhir/us/core/StructureDefinition/us-core-race","extension":[{"url":"ombCategory","valueCoding":{"system":"urn:oid:2.16.840.1.113883.6.238","code":"2028-9","display":"Asian","userSelected":true}},{"url":"text","valueString":"Asian"}]},{"url":"http://hl7.org/fhir/us/core/StructureDefinition/us-core-ethnicity","extension":[{"url":"ombCategory","valueCoding":{"system":"urn:oid:2.16.840.1.113883.6.238","code":"2186-5","display":"Not Hispanic or Latino","userSelected":true}},{"url":"text","valueString":"Not Hispanic or Latino"}]}],"identifier":[{"type":{"coding":[{"system":"http://terminology.hl7.org/CodeSystem/v2-0203","code":"MR"}]},"system":"https://bonnie-fhir.healthit.gov/","value":"62fd4b660968f8012246b012"}],"name":[{"family":"DenomPass","given":["EncRefNewPsychDRC"]}],"gender":"female","birthDate":"1988-11-29"},"request":{"method":"PUT","url":"Patient/b28307c5-37c6-4ed1-86ae-30b7fef3e4f3"}},{"fullUrl":"https://madie.cms.gov/ServiceRequest/referral-a544","resource":{"resourceType":"ServiceRequest","id":"a3fe8ea5-673f-4d55-ab3b-a224da50e211","meta":{"profile":["http://hl7.org/fhir/us/qicore/StructureDefinition/qicore-servicerequest"]},"status":"completed","intent":"order","code":{"coding":[{"system":"http://snomed.info/sct","version":"2022-03","code":"103696004","display":"Patient referral to specialist (procedure)","userSelected":true}]},"subject":{"reference":"Patient/b28307c5-37c6-4ed1-86ae-30b7fef3e4f3"},"authoredOn":"2025-01-01T00:00:00.000+00:00"},"request":{"method":"PUT","url":"ServiceRequest/a3fe8ea5-673f-4d55-ab3b-a224da50e211"}},{"fullUrl":"https://madie.cms.gov/Encounter/health-behavior-assessment-456","resource":{"resourceType":"Encounter","id":"9054ba85-27dc-4a06-9963-3e1a829ee82c","meta":{"profile":["http://hl7.org/fhir/us/qicore/StructureDefinition/qicore-encounter"]},"status":"finished","class":{"system":"http://terminology.hl7.org/CodeSystem/v3-ActCode","code":"AMB","display":"ambulatory"},"type":[{"coding":[{"system":"http://www.ama-assn.org/go/cpt","version":"2021","code":"96156","display":"Health behavior assessment, or re-assessment (ie, health-focused clinical interview, behavioral observations, clinical decision making)","userSelected":true}]}],"subject":{"reference":"Patient/b28307c5-37c6-4ed1-86ae-30b7fef3e4f3"},"period":{"start":"2025-01-01T00:00:00.000+00:00","end":"2025-01-01T00:59:00.000+00:00"}},"request":{"method":"PUT","url":"Encounter/9054ba85-27dc-4a06-9963-3e1a829ee82c"}},{"fullUrl":"https://madie.cms.gov/Coverage/1","resource":{"resourceType":"Coverage","id":"beadd2c8-135f-49c2-8e69-8d1101185d93","meta":{"profile":["http://hl7.org/fhir/us/qicore/StructureDefinition/qicore-coverage"]},"status":"active","beneficiary":{"reference":"Patient/b28307c5-37c6-4ed1-86ae-30b7fef3e4f3"},"payor":[{"reference":"Organization/806b0255-13cb-4f2b-9412-571554dd2169"}]},"request":{"method":"PUT","url":"Coverage/beadd2c8-135f-49c2-8e69-8d1101185d93"}},{"fullUrl":"https://madie.cms.gov/Organization/123456","resource":{"resourceType":"Organization","id":"806b0255-13cb-4f2b-9412-571554dd2169","meta":{"profile":["http://hl7.org/fhir/us/qicore/StructureDefinition/qicore-organization"]},"identifier":[{"use":"temp","system":"urn:oid:2.16.840.1.113883.4.4","value":"21-3259825"}],"active":true,"type":[{"coding":[{"system":"http://terminology.hl7.org/CodeSystem/organization-type","code":"pay","display":"Payer"}]}],"name":"Blue Cross Blue Shield of Texas","telecom":[{"system":"phone","value":"(+1) 972-766-6900"}],"address":[{"use":"billing","type":"postal","line":["P.O. Box 660044"],"city":"Dallas","state":"TX","postalCode":"75266-0044","country":"USA"}]},"request":{"method":"PUT","url":"Organization/806b0255-13cb-4f2b-9412-571554dd2169"}},{"fullUrl":"https://madie.cms.gov/Practitioner/practitioner-123456","resource":{"resourceType":"Practitioner","id":"9b911654-3a64-46bc-ad77-f19d7c793a4d","meta":{"profile":["http://hl7.org/fhir/us/qicore/StructureDefinition/qicore-practitioner"]},"identifier":[{"system":"http://hl7.org/fhir/sid/us-npi","value":"123456"}],"name":[{"family":"Evil","prefix":["Dr"]}]},"request":{"method":"PUT","url":"Practitioner/9b911654-3a64-46bc-ad77-f19d7c793a4d"}},{"fullUrl":"https://madie.cms.gov/MeasureReport/31bb1b49-5d0c-4861-a1da-a8825bd97a4a","resource":{"resourceType":"MeasureReport","id":"31bb1b49-5d0c-4861-a1da-a8825bd97a4a","meta":{"profile":["http://hl7.org/fhir/us/cqfmeasures/StructureDefinition/test-case-cqfm"]},"contained":[{"resourceType":"Parameters","id":"eef0e2f3-b41a-4395-95d7-22226805bad2-parameters","parameter":[{"name":"subject","valueString":"b28307c5-37c6-4ed1-86ae-30b7fef3e4f3"}]}],"extension":[{"url":"http://hl7.org/fhir/us/cqfmeasures/StructureDefinition/cqfm-inputParameters","valueReference":{"reference":"#eef0e2f3-b41a-4395-95d7-22226805bad2-parameters"}},{"url":"http://hl7.org/fhir/us/cqfmeasures/StructureDefinition/cqfm-testCaseDescription","valueMarkdown":"Enc starts first minute of MP and ends in 59 minutes, referral order made."}],"modifierExtension":[{"url":"http://hl7.org/fhir/us/cqfmeasures/StructureDefinition/cqfm-isTestCase","valueBoolean":true}],"status":"complete","type":"individual","measure":"https://madie.cms.gov/Measure/CRLReceiptofSpecialistReportFHIR","period":{"start":"2025-01-01","end":"2025-12-31"},"group":[{"population":[{"code":{"coding":[{"system":"http://terminology.hl7.org/CodeSystem/measure-population","code":"initial-population","display":"Initial Population"}]},"count":1},{"code":{"coding":[{"system":"http://terminology.hl7.org/CodeSystem/measure-population","code":"denominator","display":"Denominator"}]},"count":1},{"code":{"coding":[{"system":"http://terminology.hl7.org/CodeSystem/measure-population","code":"numerator","display":"Numerator"}]},"count":0}]}]},"request":{"method":"PUT","url":"MeasureReport/31bb1b49-5d0c-4861-a1da-a8825bd97a4a"}}]}