{"resourceType":"Bundle","id":"tests-410e4dd2-3d67-4178-a254-7605a0c1b0e6-bundle","type":"transaction","entry":[{"fullUrl":"https://madie.cms.gov/Patient/410e4dd2-3d67-4178-a254-7605a0c1b0e6","resource":{"resourceType":"Patient","id":"410e4dd2-3d67-4178-a254-7605a0c1b0e6","meta":{"profile":["http://hl7.org/fhir/us/qicore/StructureDefinition/qicore-patient"]},"extension":[{"url":"http://hl7.org/fhir/us/core/StructureDefinition/us-core-race","extension":[{"url":"ombCategory","valueCoding":{"system":"urn:oid:2.16.840.1.113883.6.238","code":"1002-5","display":"American Indian or Alaska Native","userSelected":true}},{"url":"text","valueString":"American Indian or Alaska Native"}]},{"url":"http://hl7.org/fhir/us/core/StructureDefinition/us-core-ethnicity","extension":[{"url":"ombCategory","valueCoding":{"system":"urn:oid:2.16.840.1.113883.6.238","code":"2135-2","display":"Hispanic or Latino","userSelected":true}},{"url":"text","valueString":"Hispanic or Latino"}]}],"identifier":[{"type":{"coding":[{"system":"http://terminology.hl7.org/CodeSystem/v2-0203","code":"MR"}]},"system":"https://bonnie-fhir.healthit.gov/","value":"62fd4b660968f8012246b082"}],"name":[{"family":"IPFail","given":["EncounterInvalidType"]}],"gender":"male","birthDate":"1966-01-19"},"request":{"method":"PUT","url":"Patient/410e4dd2-3d67-4178-a254-7605a0c1b0e6"}},{"fullUrl":"https://madie.cms.gov/ServiceRequest/referral-11d1","resource":{"resourceType":"ServiceRequest","id":"e7e4e098-1ebf-43f3-9da4-02215f453923","meta":{"profile":["http://hl7.org/fhir/us/qicore/StructureDefinition/qicore-servicerequest"]},"status":"active","intent":"order","code":{"coding":[{"system":"http://snomed.info/sct","version":"2022-03","code":"103696004","display":"Patient referral to specialist (procedure)","userSelected":true}]},"subject":{"reference":"Patient/410e4dd2-3d67-4178-a254-7605a0c1b0e6"},"authoredOn":"2025-10-27T08:00:00.000+00:00"},"request":{"method":"PUT","url":"ServiceRequest/e7e4e098-1ebf-43f3-9da4-02215f453923"}},{"fullUrl":"https://madie.cms.gov/Encounter/emergency-department-visit-a542","resource":{"resourceType":"Encounter","id":"16fa08aa-eee3-443d-b218-26385d2acade","meta":{"profile":["http://hl7.org/fhir/us/qicore/StructureDefinition/qicore-encounter"]},"status":"finished","class":{"system":"http://terminology.hl7.org/CodeSystem/v3-ActCode","code":"AMB","display":"ambulatory"},"type":[{"coding":[{"system":"http://snomed.info/sct","version":"2022-03","code":"4525004","display":"Emergency department patient visit (procedure)","userSelected":true}]}],"subject":{"reference":"Patient/410e4dd2-3d67-4178-a254-7605a0c1b0e6"},"period":{"start":"2025-01-01T00:00:00.000+00:00","end":"2025-01-01T01:15:00.000+00:00"}},"request":{"method":"PUT","url":"Encounter/16fa08aa-eee3-443d-b218-26385d2acade"}},{"fullUrl":"https://madie.cms.gov/Coverage/1","resource":{"resourceType":"Coverage","id":"c8922eec-83f0-40ef-b71d-f6859f1b5516","meta":{"profile":["http://hl7.org/fhir/us/qicore/StructureDefinition/qicore-coverage"]},"status":"active","beneficiary":{"reference":"Patient/410e4dd2-3d67-4178-a254-7605a0c1b0e6"},"payor":[{"reference":"Organization/4da248b0-6e59-49b7-b80e-338aa21d299f"}]},"request":{"method":"PUT","url":"Coverage/c8922eec-83f0-40ef-b71d-f6859f1b5516"}},{"fullUrl":"https://madie.cms.gov/Organization/123456","resource":{"resourceType":"Organization","id":"4da248b0-6e59-49b7-b80e-338aa21d299f","meta":{"profile":["http://hl7.org/fhir/us/qicore/StructureDefinition/qicore-organization"]},"identifier":[{"use":"temp","system":"urn:oid:2.16.840.1.113883.4.4","value":"21-3259825"}],"active":true,"type":[{"coding":[{"system":"http://terminology.hl7.org/CodeSystem/organization-type","code":"pay","display":"Payer"}]}],"name":"Blue Cross Blue Shield of Texas","telecom":[{"system":"phone","value":"(+1) 972-766-6900"}],"address":[{"use":"billing","type":"postal","line":["P.O. Box 660044"],"city":"Dallas","state":"TX","postalCode":"75266-0044","country":"USA"}]},"request":{"method":"PUT","url":"Organization/4da248b0-6e59-49b7-b80e-338aa21d299f"}},{"fullUrl":"https://madie.cms.gov/Practitioner/practitioner-123456","resource":{"resourceType":"Practitioner","id":"9bb8e09c-23c0-4c58-9747-645bf8c4a7e2","meta":{"profile":["http://hl7.org/fhir/us/qicore/StructureDefinition/qicore-practitioner"]},"identifier":[{"system":"http://hl7.org/fhir/sid/us-npi","value":"123456"}],"name":[{"family":"Evil","prefix":["Dr"]}]},"request":{"method":"PUT","url":"Practitioner/9bb8e09c-23c0-4c58-9747-645bf8c4a7e2"}},{"fullUrl":"https://madie.cms.gov/MeasureReport/a5016792-e008-468f-b22a-826738156cab","resource":{"resourceType":"MeasureReport","id":"a5016792-e008-468f-b22a-826738156cab","meta":{"profile":["http://hl7.org/fhir/us/cqfmeasures/StructureDefinition/test-case-cqfm"]},"contained":[{"resourceType":"Parameters","id":"ab913f07-455e-490e-abb4-fff5d156a520-parameters","parameter":[{"name":"subject","valueString":"410e4dd2-3d67-4178-a254-7605a0c1b0e6"}]}],"extension":[{"url":"http://hl7.org/fhir/us/cqfmeasures/StructureDefinition/cqfm-inputParameters","valueReference":{"reference":"#ab913f07-455e-490e-abb4-fff5d156a520-parameters"}},{"url":"http://hl7.org/fhir/us/cqfmeasures/StructureDefinition/cqfm-testCaseDescription","valueMarkdown":"Encounter during MP status finished Referral Status Active Intent Order during Referral period Invalid encounter of ED visit"}],"modifierExtension":[{"url":"http://hl7.org/fhir/us/cqfmeasures/StructureDefinition/cqfm-isTestCase","valueBoolean":true}],"status":"complete","type":"individual","measure":"https://madie.cms.gov/Measure/CRLReceiptofSpecialistReportFHIR","period":{"start":"2025-01-01","end":"2025-12-31"},"group":[{"population":[{"code":{"coding":[{"system":"http://terminology.hl7.org/CodeSystem/measure-population","code":"initial-population","display":"Initial Population"}]},"count":0},{"code":{"coding":[{"system":"http://terminology.hl7.org/CodeSystem/measure-population","code":"denominator","display":"Denominator"}]},"count":0},{"code":{"coding":[{"system":"http://terminology.hl7.org/CodeSystem/measure-population","code":"numerator","display":"Numerator"}]},"count":0}]}]},"request":{"method":"PUT","url":"MeasureReport/a5016792-e008-468f-b22a-826738156cab"}}]}