{"resourceType":"Bundle","id":"tests-6881b30a-7eff-4897-9f87-ad2c31683bdc-bundle","type":"transaction","entry":[{"fullUrl":"https://madie.cms.gov/Patient/6881b30a-7eff-4897-9f87-ad2c31683bdc","resource":{"resourceType":"Patient","id":"6881b30a-7eff-4897-9f87-ad2c31683bdc","meta":{"profile":["http://hl7.org/fhir/us/qicore/StructureDefinition/qicore-patient"]},"extension":[{"url":"http://hl7.org/fhir/us/core/StructureDefinition/us-core-race","extension":[{"url":"ombCategory","valueCoding":{"system":"urn:oid:2.16.840.1.113883.6.238","code":"1002-5","display":"American Indian or Alaska Native","userSelected":true}},{"url":"text","valueString":"American Indian or Alaska Native"}]},{"url":"http://hl7.org/fhir/us/core/StructureDefinition/us-core-ethnicity","extension":[{"url":"ombCategory","valueCoding":{"system":"urn:oid:2.16.840.1.113883.6.238","code":"2186-5","display":"Not Hispanic or Latino","userSelected":true}},{"url":"text","valueString":"Not Hispanic or Latino"}]}],"identifier":[{"type":{"coding":[{"system":"http://terminology.hl7.org/CodeSystem/v2-0203","code":"MR"}]},"system":"https://bonnie-fhir.healthit.gov/","value":"62fd4b660968f8012246b04a"}],"name":[{"family":"IPFail","given":["ReferralStatusNotValid"]}],"gender":"male","birthDate":"1966-01-19"},"request":{"method":"PUT","url":"Patient/6881b30a-7eff-4897-9f87-ad2c31683bdc"}},{"fullUrl":"https://madie.cms.gov/Encounter/office-visit-f4a1","resource":{"resourceType":"Encounter","id":"37f09a09-e75e-467a-ada5-e152ab912203","meta":{"profile":["http://hl7.org/fhir/us/qicore/StructureDefinition/qicore-encounter"]},"status":"finished","class":{"system":"http://terminology.hl7.org/CodeSystem/v3-ActCode","code":"AMB","display":"ambulatory"},"type":[{"coding":[{"system":"http://snomed.info/sct","version":"2022-03","code":"185463005","display":"Visit out of hours (procedure)","userSelected":true}]}],"subject":{"reference":"Patient/6881b30a-7eff-4897-9f87-ad2c31683bdc"},"period":{"start":"2025-01-01T08:00:00.000+00:00","end":"2025-01-01T09:15:00.000+00:00"}},"request":{"method":"PUT","url":"Encounter/37f09a09-e75e-467a-ada5-e152ab912203"}},{"fullUrl":"https://madie.cms.gov/ServiceRequest/referral-11d1","resource":{"resourceType":"ServiceRequest","id":"976b9f10-159c-416c-a168-b8defa84a25b","meta":{"profile":["http://hl7.org/fhir/us/qicore/StructureDefinition/qicore-servicerequest"]},"status":"unknown","intent":"order","code":{"coding":[{"system":"http://snomed.info/sct","version":"2022-03","code":"103696004","display":"Patient referral to specialist (procedure)","userSelected":true}]},"subject":{"reference":"Patient/6881b30a-7eff-4897-9f87-ad2c31683bdc"},"authoredOn":"2025-10-31T08:00:00.000+00:00"},"request":{"method":"PUT","url":"ServiceRequest/976b9f10-159c-416c-a168-b8defa84a25b"}},{"fullUrl":"https://madie.cms.gov/Coverage/1","resource":{"resourceType":"Coverage","id":"823364eb-f0ad-40d5-9046-fb2a5b0ba976","meta":{"profile":["http://hl7.org/fhir/us/qicore/StructureDefinition/qicore-coverage"]},"status":"active","beneficiary":{"reference":"Patient/6881b30a-7eff-4897-9f87-ad2c31683bdc"},"payor":[{"reference":"Organization/607fdef9-3983-4cef-ab1a-95434d29b463"}]},"request":{"method":"PUT","url":"Coverage/823364eb-f0ad-40d5-9046-fb2a5b0ba976"}},{"fullUrl":"https://madie.cms.gov/Organization/123456","resource":{"resourceType":"Organization","id":"607fdef9-3983-4cef-ab1a-95434d29b463","meta":{"profile":["http://hl7.org/fhir/us/qicore/StructureDefinition/qicore-organization"]},"identifier":[{"use":"temp","system":"urn:oid:2.16.840.1.113883.4.4","value":"21-3259825"}],"active":true,"type":[{"coding":[{"system":"http://terminology.hl7.org/CodeSystem/organization-type","code":"pay","display":"Payer"}]}],"name":"Blue Cross Blue Shield of Texas","telecom":[{"system":"phone","value":"(+1) 972-766-6900"}],"address":[{"use":"billing","type":"postal","line":["P.O. Box 660044"],"city":"Dallas","state":"TX","postalCode":"75266-0044","country":"USA"}]},"request":{"method":"PUT","url":"Organization/607fdef9-3983-4cef-ab1a-95434d29b463"}},{"fullUrl":"https://madie.cms.gov/Practitioner/practitioner-123456","resource":{"resourceType":"Practitioner","id":"b015ea7c-52f9-4cbf-aeef-548fec1e25f3","meta":{"profile":["http://hl7.org/fhir/us/qicore/StructureDefinition/qicore-practitioner"]},"identifier":[{"system":"http://hl7.org/fhir/sid/us-npi","value":"123456"}],"name":[{"family":"Evil","prefix":["Dr"]}]},"request":{"method":"PUT","url":"Practitioner/b015ea7c-52f9-4cbf-aeef-548fec1e25f3"}},{"fullUrl":"https://madie.cms.gov/MeasureReport/a9299cab-6cbc-4a4b-81ae-30177406cf7f","resource":{"resourceType":"MeasureReport","id":"a9299cab-6cbc-4a4b-81ae-30177406cf7f","meta":{"profile":["http://hl7.org/fhir/us/cqfmeasures/StructureDefinition/test-case-cqfm"]},"contained":[{"resourceType":"Parameters","id":"65e9a012-5cab-471a-a099-3a9708463eb1-parameters","parameter":[{"name":"subject","valueString":"6881b30a-7eff-4897-9f87-ad2c31683bdc"}]}],"extension":[{"url":"http://hl7.org/fhir/us/cqfmeasures/StructureDefinition/cqfm-inputParameters","valueReference":{"reference":"#65e9a012-5cab-471a-a099-3a9708463eb1-parameters"}},{"url":"http://hl7.org/fhir/us/cqfmeasures/StructureDefinition/cqfm-testCaseDescription","valueMarkdown":"Encounter during MP. status finished. Referral Status not equal to Active. Intent Order during Referral period\n"}],"modifierExtension":[{"url":"http://hl7.org/fhir/us/cqfmeasures/StructureDefinition/cqfm-isTestCase","valueBoolean":true}],"status":"complete","type":"individual","measure":"https://madie.cms.gov/Measure/CRLReceiptofSpecialistReportFHIR","period":{"start":"2025-01-01","end":"2025-12-31"},"group":[{"population":[{"code":{"coding":[{"system":"http://terminology.hl7.org/CodeSystem/measure-population","code":"initial-population","display":"Initial Population"}]},"count":0},{"code":{"coding":[{"system":"http://terminology.hl7.org/CodeSystem/measure-population","code":"denominator","display":"Denominator"}]},"count":0},{"code":{"coding":[{"system":"http://terminology.hl7.org/CodeSystem/measure-population","code":"numerator","display":"Numerator"}]},"count":0}]}]},"request":{"method":"PUT","url":"MeasureReport/a9299cab-6cbc-4a4b-81ae-30177406cf7f"}}]}