{"resourceType":"Bundle","id":"tests-23b6a342-ca5b-4a61-83c8-9e7672cd439f-bundle","type":"transaction","entry":[{"fullUrl":"https://madie.cms.gov/Patient/23b6a342-ca5b-4a61-83c8-9e7672cd439f","resource":{"resourceType":"Patient","id":"23b6a342-ca5b-4a61-83c8-9e7672cd439f","meta":{"profile":["http://hl7.org/fhir/us/qicore/StructureDefinition/qicore-patient"]},"extension":[{"url":"http://hl7.org/fhir/us/core/StructureDefinition/us-core-race","extension":[{"url":"ombCategory","valueCoding":{"system":"urn:oid:2.16.840.1.113883.6.238","code":"2076-8","display":"Native Hawaiian or Other Pacific Islander","userSelected":true}},{"url":"text","valueString":"Native Hawaiian or Other Pacific Islander"}]},{"url":"http://hl7.org/fhir/us/core/StructureDefinition/us-core-ethnicity","extension":[{"url":"ombCategory","valueCoding":{"system":"urn:oid:2.16.840.1.113883.6.238","code":"2186-5","display":"Not Hispanic or Latino","userSelected":true}},{"url":"text","valueString":"Not Hispanic or Latino"}]}],"identifier":[{"type":{"coding":[{"system":"http://terminology.hl7.org/CodeSystem/v2-0203","code":"MR"}]},"system":"https://bonnie-fhir.healthit.gov/","value":"62fd4b700968f82603aac81c"}],"name":[{"family":"IPFail","given":["EncOverlapsStartMP"]}],"gender":"female","birthDate":"1972-02-25"},"request":{"method":"PUT","url":"Patient/23b6a342-ca5b-4a61-83c8-9e7672cd439f"}},{"fullUrl":"https://madie.cms.gov/Encounter/preventive-care-services-initial-office-visit-18-and-up-a533","resource":{"resourceType":"Encounter","id":"462e627f-67b4-4089-8e11-262d254104f9","meta":{"profile":["http://hl7.org/fhir/us/qicore/StructureDefinition/qicore-encounter"]},"status":"finished","class":{"system":"http://terminology.hl7.org/CodeSystem/v3-ActCode","code":"AMB","display":"ambulatory"},"type":[{"coding":[{"system":"http://www.ama-assn.org/go/cpt","version":"2021","code":"99385","display":"Initial comprehensive preventive medicine evaluation and management of an individual including an age and gender appropriate history, examination, counseling/anticipatory guidance/risk factor reduction interventions, and the ordering of laboratory/diagnostic procedures, new patient; 18-39 years","userSelected":true}]}],"subject":{"reference":"Patient/23b6a342-ca5b-4a61-83c8-9e7672cd439f"},"period":{"start":"2024-12-31T23:00:00.000+00:00","end":"2025-01-01T00:00:00.000+00:00"}},"request":{"method":"PUT","url":"Encounter/462e627f-67b4-4089-8e11-262d254104f9"}},{"fullUrl":"https://madie.cms.gov/ServiceRequest/referral-a536","resource":{"resourceType":"ServiceRequest","id":"b72c0058-d0e3-428b-9692-9a22a164afd5","meta":{"profile":["http://hl7.org/fhir/us/qicore/StructureDefinition/qicore-servicerequest"]},"status":"active","intent":"order","code":{"coding":[{"system":"http://snomed.info/sct","version":"2022-03","code":"103696004","display":"Patient referral to specialist (procedure)","userSelected":true}]},"subject":{"reference":"Patient/23b6a342-ca5b-4a61-83c8-9e7672cd439f"},"authoredOn":"2025-10-31T23:59:00.000+00:00"},"request":{"method":"PUT","url":"ServiceRequest/b72c0058-d0e3-428b-9692-9a22a164afd5"}},{"fullUrl":"https://madie.cms.gov/Coverage/1","resource":{"resourceType":"Coverage","id":"f79c5edf-4070-4f75-983d-133dfe9a0d10","meta":{"profile":["http://hl7.org/fhir/us/qicore/StructureDefinition/qicore-coverage"]},"status":"active","beneficiary":{"reference":"Patient/23b6a342-ca5b-4a61-83c8-9e7672cd439f"},"payor":[{"reference":"Organization/3778262e-e084-4bb5-9a47-1a144735f786"}]},"request":{"method":"PUT","url":"Coverage/f79c5edf-4070-4f75-983d-133dfe9a0d10"}},{"fullUrl":"https://madie.cms.gov/Organization/123456","resource":{"resourceType":"Organization","id":"3778262e-e084-4bb5-9a47-1a144735f786","meta":{"profile":["http://hl7.org/fhir/us/qicore/StructureDefinition/qicore-organization"]},"identifier":[{"use":"temp","system":"urn:oid:2.16.840.1.113883.4.4","value":"21-3259825"}],"active":true,"type":[{"coding":[{"system":"http://terminology.hl7.org/CodeSystem/organization-type","code":"pay","display":"Payer"}]}],"name":"Blue Cross Blue Shield of Texas","telecom":[{"system":"phone","value":"(+1) 972-766-6900"}],"address":[{"use":"billing","type":"postal","line":["P.O. Box 660044"],"city":"Dallas","state":"TX","postalCode":"75266-0044","country":"USA"}]},"request":{"method":"PUT","url":"Organization/3778262e-e084-4bb5-9a47-1a144735f786"}},{"fullUrl":"https://madie.cms.gov/Practitioner/practitioner-123456","resource":{"resourceType":"Practitioner","id":"59fe220f-c2f3-446a-b3ed-5bdc94e2d44b","meta":{"profile":["http://hl7.org/fhir/us/qicore/StructureDefinition/qicore-practitioner"]},"identifier":[{"system":"http://hl7.org/fhir/sid/us-npi","value":"123456"}],"name":[{"family":"Evil","prefix":["Dr"]}]},"request":{"method":"PUT","url":"Practitioner/59fe220f-c2f3-446a-b3ed-5bdc94e2d44b"}},{"fullUrl":"https://madie.cms.gov/MeasureReport/98482b19-9c7c-4675-a5f7-4b6a05e09188","resource":{"resourceType":"MeasureReport","id":"98482b19-9c7c-4675-a5f7-4b6a05e09188","meta":{"profile":["http://hl7.org/fhir/us/cqfmeasures/StructureDefinition/test-case-cqfm"]},"contained":[{"resourceType":"Parameters","id":"96698545-4176-4e68-a184-781a4645bb34-parameters","parameter":[{"name":"subject","valueString":"23b6a342-ca5b-4a61-83c8-9e7672cd439f"}]}],"extension":[{"url":"http://hl7.org/fhir/us/cqfmeasures/StructureDefinition/cqfm-inputParameters","valueReference":{"reference":"#96698545-4176-4e68-a184-781a4645bb34-parameters"}},{"url":"http://hl7.org/fhir/us/cqfmeasures/StructureDefinition/cqfm-testCaseDescription","valueMarkdown":"Encounter overlaps MP (\"start\" : \"202x-12-31T23:00:00.000+00:00\",\"end\" : \"202x-01-01T00:00:00.000+00:00\") with status finished valid Referral (\"202x-10-31T23:59:00.000+00:00\") Status Active Intent Order\n\n\n\n"}],"modifierExtension":[{"url":"http://hl7.org/fhir/us/cqfmeasures/StructureDefinition/cqfm-isTestCase","valueBoolean":true}],"status":"complete","type":"individual","measure":"https://madie.cms.gov/Measure/CRLReceiptofSpecialistReportFHIR","period":{"start":"2025-01-01","end":"2025-12-31"},"group":[{"population":[{"code":{"coding":[{"system":"http://terminology.hl7.org/CodeSystem/measure-population","code":"initial-population","display":"Initial Population"}]},"count":0},{"code":{"coding":[{"system":"http://terminology.hl7.org/CodeSystem/measure-population","code":"denominator","display":"Denominator"}]},"count":0},{"code":{"coding":[{"system":"http://terminology.hl7.org/CodeSystem/measure-population","code":"numerator","display":"Numerator"}]},"count":0}]}]},"request":{"method":"PUT","url":"MeasureReport/98482b19-9c7c-4675-a5f7-4b6a05e09188"}}]}