{"resourceType":"Bundle","id":"tests-87f715f5-f824-4b6a-a36b-f617146af0c4-bundle","type":"transaction","entry":[{"fullUrl":"https://madie.cms.gov/Patient/87f715f5-f824-4b6a-a36b-f617146af0c4","resource":{"resourceType":"Patient","id":"87f715f5-f824-4b6a-a36b-f617146af0c4","meta":{"profile":["http://hl7.org/fhir/us/qicore/StructureDefinition/qicore-patient"]},"extension":[{"url":"http://hl7.org/fhir/us/core/StructureDefinition/us-core-race","extension":[{"url":"ombCategory","valueCoding":{"system":"urn:oid:2.16.840.1.113883.6.238","code":"2028-9","display":"Asian","userSelected":true}},{"url":"text","valueString":"Asian"}]},{"url":"http://hl7.org/fhir/us/core/StructureDefinition/us-core-ethnicity","extension":[{"url":"ombCategory","valueCoding":{"system":"urn:oid:2.16.840.1.113883.6.238","code":"2186-5","display":"Not Hispanic or Latino","userSelected":true}},{"url":"text","valueString":"Not Hispanic or Latino"}]}],"identifier":[{"type":{"coding":[{"system":"http://terminology.hl7.org/CodeSystem/v2-0203","code":"MR"}]},"system":"https://bonnie-fhir.healthit.gov/","value":"62fd4b660968f8012246b012"}],"name":[{"family":"DenomPass","given":["EncAndReferralDuringPeriods"]}],"gender":"female","birthDate":"1988-11-29"},"request":{"method":"PUT","url":"Patient/87f715f5-f824-4b6a-a36b-f617146af0c4"}},{"fullUrl":"https://madie.cms.gov/ServiceRequest/referral-a544","resource":{"resourceType":"ServiceRequest","id":"c5087319-ae54-4020-b0f0-6464441a941c","meta":{"profile":["http://hl7.org/fhir/us/qicore/StructureDefinition/qicore-servicerequest"]},"status":"completed","intent":"order","code":{"coding":[{"system":"http://snomed.info/sct","version":"2022-03","code":"103696004","display":"Patient referral to specialist (procedure)","userSelected":true}]},"subject":{"reference":"Patient/87f715f5-f824-4b6a-a36b-f617146af0c4"},"authoredOn":"2025-01-01T00:00:00.000+00:00"},"request":{"method":"PUT","url":"ServiceRequest/c5087319-ae54-4020-b0f0-6464441a941c"}},{"fullUrl":"https://madie.cms.gov/Encounter/preventive-care-established-office-visit-0-to-17-a545","resource":{"resourceType":"Encounter","id":"d2691846-5e63-4011-9918-8c602a9f6ac5","meta":{"profile":["http://hl7.org/fhir/us/qicore/StructureDefinition/qicore-encounter"]},"status":"finished","class":{"system":"http://terminology.hl7.org/CodeSystem/v3-ActCode","code":"AMB","display":"ambulatory"},"type":[{"coding":[{"system":"http://www.ama-assn.org/go/cpt","version":"2021","code":"99391","display":"Periodic comprehensive preventive medicine reevaluation and management of an individual including an age and gender appropriate history, examination, counseling/anticipatory guidance/risk factor reduction interventions, and the ordering of laboratory/diagnostic procedures, established patient; infant (age younger than 1 year)","userSelected":true}]}],"subject":{"reference":"Patient/87f715f5-f824-4b6a-a36b-f617146af0c4"},"period":{"start":"2025-01-01T00:00:00.000+00:00","end":"2025-01-01T00:59:00.000+00:00"}},"request":{"method":"PUT","url":"Encounter/d2691846-5e63-4011-9918-8c602a9f6ac5"}},{"fullUrl":"https://madie.cms.gov/Coverage/1","resource":{"resourceType":"Coverage","id":"0ae6e5f7-b6e1-4241-9032-e0044aaf10a2","meta":{"profile":["http://hl7.org/fhir/us/qicore/StructureDefinition/qicore-coverage"]},"status":"active","beneficiary":{"reference":"Patient/87f715f5-f824-4b6a-a36b-f617146af0c4"},"payor":[{"reference":"Organization/5ad6ea38-07e9-4482-9e1b-c09eee595be9"}]},"request":{"method":"PUT","url":"Coverage/0ae6e5f7-b6e1-4241-9032-e0044aaf10a2"}},{"fullUrl":"https://madie.cms.gov/Organization/123456","resource":{"resourceType":"Organization","id":"5ad6ea38-07e9-4482-9e1b-c09eee595be9","meta":{"profile":["http://hl7.org/fhir/us/qicore/StructureDefinition/qicore-organization"]},"identifier":[{"use":"temp","system":"urn:oid:2.16.840.1.113883.4.4","value":"21-3259825"}],"active":true,"type":[{"coding":[{"system":"http://terminology.hl7.org/CodeSystem/organization-type","code":"pay","display":"Payer"}]}],"name":"Blue Cross Blue Shield of Texas","telecom":[{"system":"phone","value":"(+1) 972-766-6900"}],"address":[{"use":"billing","type":"postal","line":["P.O. Box 660044"],"city":"Dallas","state":"TX","postalCode":"75266-0044","country":"USA"}]},"request":{"method":"PUT","url":"Organization/5ad6ea38-07e9-4482-9e1b-c09eee595be9"}},{"fullUrl":"https://madie.cms.gov/Practitioner/practitioner-123456","resource":{"resourceType":"Practitioner","id":"6a3066c8-1a88-4752-9a2e-ad552116f48e","meta":{"profile":["http://hl7.org/fhir/us/qicore/StructureDefinition/qicore-practitioner"]},"identifier":[{"system":"http://hl7.org/fhir/sid/us-npi","value":"123456"}],"name":[{"family":"Evil","prefix":["Dr"]}]},"request":{"method":"PUT","url":"Practitioner/6a3066c8-1a88-4752-9a2e-ad552116f48e"}},{"fullUrl":"https://madie.cms.gov/MeasureReport/e6e25b10-6f0e-4232-877d-02a7b8e068eb","resource":{"resourceType":"MeasureReport","id":"e6e25b10-6f0e-4232-877d-02a7b8e068eb","meta":{"profile":["http://hl7.org/fhir/us/cqfmeasures/StructureDefinition/test-case-cqfm"]},"contained":[{"resourceType":"Parameters","id":"6b99bcdc-7b01-4e90-86f2-98211af1595e-parameters","parameter":[{"name":"subject","valueString":"87f715f5-f824-4b6a-a36b-f617146af0c4"}]}],"extension":[{"url":"http://hl7.org/fhir/us/cqfmeasures/StructureDefinition/cqfm-inputParameters","valueReference":{"reference":"#6b99bcdc-7b01-4e90-86f2-98211af1595e-parameters"}},{"url":"http://hl7.org/fhir/us/cqfmeasures/StructureDefinition/cqfm-testCaseDescription","valueMarkdown":"Encounter during MP status finished Referral Status Completed  Intent Order during Referral period"}],"modifierExtension":[{"url":"http://hl7.org/fhir/us/cqfmeasures/StructureDefinition/cqfm-isTestCase","valueBoolean":true}],"status":"complete","type":"individual","measure":"https://madie.cms.gov/Measure/CRLReceiptofSpecialistReportFHIR","period":{"start":"2025-01-01","end":"2025-12-31"},"group":[{"population":[{"code":{"coding":[{"system":"http://terminology.hl7.org/CodeSystem/measure-population","code":"initial-population","display":"Initial Population"}]},"count":1},{"code":{"coding":[{"system":"http://terminology.hl7.org/CodeSystem/measure-population","code":"denominator","display":"Denominator"}]},"count":1},{"code":{"coding":[{"system":"http://terminology.hl7.org/CodeSystem/measure-population","code":"numerator","display":"Numerator"}]},"count":0}]}]},"request":{"method":"PUT","url":"MeasureReport/e6e25b10-6f0e-4232-877d-02a7b8e068eb"}}]}