{"resourceType":"Bundle","id":"tests-3b78668b-12ea-47b0-b788-b8dca6a62aba-bundle","type":"transaction","entry":[{"fullUrl":"https://madie.cms.gov/Patient/3b78668b-12ea-47b0-b788-b8dca6a62aba","resource":{"resourceType":"Patient","id":"3b78668b-12ea-47b0-b788-b8dca6a62aba","meta":{"profile":["http://hl7.org/fhir/us/qicore/StructureDefinition/qicore-patient"]},"extension":[{"url":"http://hl7.org/fhir/us/core/StructureDefinition/us-core-ethnicity","extension":[{"url":"ombCategory","valueCoding":{"system":"urn:oid:2.16.840.1.113883.6.238","code":"2135-2","display":"Hispanic or Latino","userSelected":true}},{"url":"text","valueString":"Hispanic or Latino"}]}],"identifier":[{"type":{"coding":[{"system":"http://terminology.hl7.org/CodeSystem/v2-0203","code":"MR"}]},"system":"https://bonnie-fhir.healthit.gov/","value":"62fd4b670968f8012246b12a"}],"name":[{"family":"IPFail","given":["ReferralAfterRefPeriodNextMP"]}],"gender":"unknown","birthDate":"1990-07-01"},"request":{"method":"PUT","url":"Patient/3b78668b-12ea-47b0-b788-b8dca6a62aba"}},{"fullUrl":"https://madie.cms.gov/ServiceRequest/referral-a53b","resource":{"resourceType":"ServiceRequest","id":"87a9b93a-a830-4c31-b00e-c3889d41410b","meta":{"profile":["http://hl7.org/fhir/us/qicore/StructureDefinition/qicore-servicerequest"]},"status":"active","intent":"order","code":{"coding":[{"system":"http://snomed.info/sct","version":"2022-03","code":"103696004","display":"Patient referral to specialist (procedure)","userSelected":true}]},"subject":{"reference":"Patient/3b78668b-12ea-47b0-b788-b8dca6a62aba"},"authoredOn":"2026-01-01T00:00:00.000+00:00"},"request":{"method":"PUT","url":"ServiceRequest/87a9b93a-a830-4c31-b00e-c3889d41410b"}},{"fullUrl":"https://madie.cms.gov/Encounter/preventive-care-services-initial-office-visit-0-to-17-a53c","resource":{"resourceType":"Encounter","id":"def5ad9e-f1c4-4779-a60c-2634b010b584","meta":{"profile":["http://hl7.org/fhir/us/qicore/StructureDefinition/qicore-encounter"]},"status":"finished","class":{"system":"http://terminology.hl7.org/CodeSystem/v3-ActCode","code":"AMB","display":"ambulatory"},"type":[{"coding":[{"system":"http://www.ama-assn.org/go/cpt","version":"2021","code":"99381","display":"Initial comprehensive preventive medicine evaluation and management of an individual including an age and gender appropriate history, examination, counseling/anticipatory guidance/risk factor reduction interventions, and the ordering of laboratory/diagnostic procedures, new patient; infant (age younger than 1 year)","userSelected":true}]}],"subject":{"reference":"Patient/3b78668b-12ea-47b0-b788-b8dca6a62aba"},"period":{"start":"2025-12-31T23:00:00.000+00:00","end":"2025-12-31T23:59:00.000+00:00"}},"request":{"method":"PUT","url":"Encounter/def5ad9e-f1c4-4779-a60c-2634b010b584"}},{"fullUrl":"https://madie.cms.gov/Coverage/1","resource":{"resourceType":"Coverage","id":"039ad4f6-5846-4d11-a0dc-d3ec5f93cbc6","meta":{"profile":["http://hl7.org/fhir/us/qicore/StructureDefinition/qicore-coverage"]},"status":"active","beneficiary":{"reference":"Patient/3b78668b-12ea-47b0-b788-b8dca6a62aba"},"payor":[{"reference":"Organization/aeb2c6be-6577-4bba-a6b6-6eab95111f1b"}]},"request":{"method":"PUT","url":"Coverage/039ad4f6-5846-4d11-a0dc-d3ec5f93cbc6"}},{"fullUrl":"https://madie.cms.gov/Organization/123456","resource":{"resourceType":"Organization","id":"aeb2c6be-6577-4bba-a6b6-6eab95111f1b","meta":{"profile":["http://hl7.org/fhir/us/qicore/StructureDefinition/qicore-organization"]},"identifier":[{"use":"temp","system":"urn:oid:2.16.840.1.113883.4.4","value":"21-3259825"}],"active":true,"type":[{"coding":[{"system":"http://terminology.hl7.org/CodeSystem/organization-type","code":"pay","display":"Payer"}]}],"name":"Blue Cross Blue Shield of Texas","telecom":[{"system":"phone","value":"(+1) 972-766-6900"}],"address":[{"use":"billing","type":"postal","line":["P.O. Box 660044"],"city":"Dallas","state":"TX","postalCode":"75266-0044","country":"USA"}]},"request":{"method":"PUT","url":"Organization/aeb2c6be-6577-4bba-a6b6-6eab95111f1b"}},{"fullUrl":"https://madie.cms.gov/Practitioner/practitioner-123456","resource":{"resourceType":"Practitioner","id":"3c486e55-9b64-4710-8df1-c094c2831924","meta":{"profile":["http://hl7.org/fhir/us/qicore/StructureDefinition/qicore-practitioner"]},"identifier":[{"system":"http://hl7.org/fhir/sid/us-npi","value":"123456"}],"name":[{"family":"Evil","prefix":["Dr"]}]},"request":{"method":"PUT","url":"Practitioner/3c486e55-9b64-4710-8df1-c094c2831924"}},{"fullUrl":"https://madie.cms.gov/MeasureReport/fa84aa78-fafd-4328-8225-c63a8ae6d155","resource":{"resourceType":"MeasureReport","id":"fa84aa78-fafd-4328-8225-c63a8ae6d155","meta":{"profile":["http://hl7.org/fhir/us/cqfmeasures/StructureDefinition/test-case-cqfm"]},"contained":[{"resourceType":"Parameters","id":"674f1a9f-ceee-47d0-a3ed-196b61f9e5a1-parameters","parameter":[{"name":"subject","valueString":"3b78668b-12ea-47b0-b788-b8dca6a62aba"}]}],"extension":[{"url":"http://hl7.org/fhir/us/cqfmeasures/StructureDefinition/cqfm-inputParameters","valueReference":{"reference":"#674f1a9f-ceee-47d0-a3ed-196b61f9e5a1-parameters"}},{"url":"http://hl7.org/fhir/us/cqfmeasures/StructureDefinition/cqfm-testCaseDescription","valueMarkdown":"Encounter after MP (12/31  ends at 23:59) status finished Referral Status Active Intent Order after Referral period (\"202x-01-01T00:00:00.000+00:00\")"}],"modifierExtension":[{"url":"http://hl7.org/fhir/us/cqfmeasures/StructureDefinition/cqfm-isTestCase","valueBoolean":true}],"status":"complete","type":"individual","measure":"https://madie.cms.gov/Measure/CRLReceiptofSpecialistReportFHIR","period":{"start":"2025-01-01","end":"2025-12-31"},"group":[{"population":[{"code":{"coding":[{"system":"http://terminology.hl7.org/CodeSystem/measure-population","code":"initial-population","display":"Initial Population"}]},"count":0},{"code":{"coding":[{"system":"http://terminology.hl7.org/CodeSystem/measure-population","code":"denominator","display":"Denominator"}]},"count":0},{"code":{"coding":[{"system":"http://terminology.hl7.org/CodeSystem/measure-population","code":"numerator","display":"Numerator"}]},"count":0}]}]},"request":{"method":"PUT","url":"MeasureReport/fa84aa78-fafd-4328-8225-c63a8ae6d155"}}]}