{
  "resourceType": "Bundle",
  "id": "ippfail-scanoutsidemp",
  "type": "transaction",
  "entry": [ {
    "fullUrl": "https://madie.cms.gov/Patient/e189d3ab-c593-44f2-940d-50d7f08eb847",
    "resource": {
      "resourceType": "Patient",
      "id": "e189d3ab-c593-44f2-940d-50d7f08eb847",
      "meta": {
        "profile": [ "http://hl7.org/fhir/us/core/StructureDefinition/us-core-patient", "http://hl7.org/fhir/us/qicore/StructureDefinition/qicore-patient" ]
      },
      "extension": [ {
        "url": "http://hl7.org/fhir/us/core/StructureDefinition/us-core-race",
        "extension": [ {
          "url": "ombCategory",
          "valueCoding": {
            "system": "urn:oid:2.16.840.1.113883.6.238",
            "code": "2028-9",
            "display": "Asian"
          }
        }, {
          "url": "text",
          "valueString": "Asian"
        } ]
      }, {
        "url": "http://hl7.org/fhir/us/core/StructureDefinition/us-core-ethnicity",
        "extension": [ {
          "url": "ombCategory",
          "valueCoding": {
            "system": "urn:oid:2.16.840.1.113883.6.238",
            "code": "2135-2",
            "display": "Hispanic or Latino"
          }
        }, {
          "url": "text",
          "valueString": "Hispanic or Latino"
        } ]
      } ],
      "identifier": [ {
        "system": "http://hospital.smarthealthit.org",
        "value": "999999995"
      } ],
      "name": [ {
        "family": "ScanOutsideMP",
        "given": [ "IPPFail" ]
      } ],
      "gender": "male",
      "birthDate": "1978-06-12"
    },
    "request": {
      "method": "PUT",
      "url": "Patient/e189d3ab-c593-44f2-940d-50d7f08eb847"
    }
  }, {
    "fullUrl": "https://madie.cms.gov/Encounter/ippfail-scanoutsidemp-1",
    "resource": {
      "resourceType": "Encounter",
      "id": "ippfail-scanoutsidemp-1",
      "meta": {
        "profile": [ "http://hl7.org/fhir/us/qicore/StructureDefinition/qicore-encounter" ]
      },
      "status": "finished",
      "class": {
        "system": "http://terminology.hl7.org/CodeSystem/v3-ActCode",
        "code": "IMP",
        "display": "inpatient encounter"
      },
      "type": [ {
        "coding": [ {
          "system": "http://snomed.info/sct",
          "code": "183452005",
          "display": "Emergency hospital admission"
        } ]
      } ],
      "subject": {
        "reference": "Patient/e189d3ab-c593-44f2-940d-50d7f08eb847"
      },
      "period": {
        "start": "2025-12-30T00:00:00.000Z",
        "end": "2026-01-03T01:00:00.000Z"
      }
    },
    "request": {
      "method": "PUT",
      "url": "Encounter/ippfail-scanoutsidemp-1"
    }
  }, {
    "fullUrl": "https://madie.cms.gov/Observation/ippfail-scanoutsidemp-2",
    "resource": {
      "resourceType": "Observation",
      "id": "ippfail-scanoutsidemp-2",
      "meta": {
        "profile": [ "http://hl7.org/fhir/us/qicore/StructureDefinition/qicore-observation" ]
      },
      "status": "final",
      "category": [ {
        "coding": [ {
          "system": "http://terminology.hl7.org/CodeSystem/observation-category",
          "code": "imaging",
          "display": "Imaging"
        } ]
      } ],
      "code": {
        "coding": [ {
          "system": "http://loinc.org",
          "code": "96914-7",
          "display": "CT dose and image quality category"
        } ],
        "text": "CT dose and image quality category"
      },
      "subject": {
        "reference": "Patient/e189d3ab-c593-44f2-940d-50d7f08eb847"
      },
      "encounter": {
        "reference": "Encounter/ippfail-scanoutsidemp-1"
      },
      "effectiveDateTime": "2026-01-02T00:00:00.000Z",
      "valueCodeableConcept": {
        "coding": [ {
          "system": "http://alaracare.com",
          "code": "ABDOPEL RT",
          "display": "Abdomen or Pelvis Routine Dose"
        } ]
      },
      "component": [ {
        "code": {
          "coding": [ {
            "system": "http://loinc.org",
            "code": "96912-1",
            "display": "Calculated CT global noise"
          } ]
        },
        "valueQuantity": {
          "value": 63,
          "unit": "[hnsf'U]",
          "system": "http://unitsofmeasure.org",
          "code": "[hnsf'U]"
        }
      }, {
        "code": {
          "coding": [ {
            "system": "http://loinc.org",
            "code": "96913-9",
            "display": "Calculated CT size-adjusted dose"
          } ]
        },
        "valueQuantity": {
          "value": 597,
          "unit": "mGy.cm",
          "system": "http://unitsofmeasure.org",
          "code": "mGy.cm"
        }
      } ]
    },
    "request": {
      "method": "PUT",
      "url": "Observation/ippfail-scanoutsidemp-2"
    }
  }, {
    "fullUrl": "https://madie.cms.gov/MeasureReport/2956869c-f4cb-41d5-afa2-b9e3d0f89ec2",
    "resource": {
      "resourceType": "MeasureReport",
      "id": "2956869c-f4cb-41d5-afa2-b9e3d0f89ec2",
      "meta": {
        "profile": [ "http://hl7.org/fhir/us/cqfmeasures/StructureDefinition/test-case-cqfm" ]
      },
      "contained": [ {
        "resourceType": "Parameters",
        "id": "ae148b05-baf8-49f9-b123-b0886fadaa0e-parameters",
        "parameter": [ {
          "name": "subject",
          "valueString": "e189d3ab-c593-44f2-940d-50d7f08eb847"
        } ]
      } ],
      "extension": [ {
        "url": "http://hl7.org/fhir/us/cqfmeasures/StructureDefinition/cqfm-inputParameters",
        "valueReference": {
          "reference": "#ae148b05-baf8-49f9-b123-b0886fadaa0e-parameters"
        }
      }, {
        "url": "http://hl7.org/fhir/us/cqfmeasures/StructureDefinition/cqfm-testCaseDescription",
        "valueMarkdown": "Patient has encounter that started in MP but goes into next year and scan happens in next year so should not meet IPP"
      } ],
      "modifierExtension": [ {
        "url": "http://hl7.org/fhir/us/cqfmeasures/StructureDefinition/cqfm-isTestCase",
        "valueBoolean": true
      } ],
      "status": "complete",
      "type": "individual",
      "measure": "https://madie.cms.gov/Measure/AlaraCTIQRFHIR",
      "period": {
        "start": "2025-01-01",
        "end": "2025-12-31"
      },
      "group": [ {
        "population": [ {
          "code": {
            "coding": [ {
              "system": "http://terminology.hl7.org/CodeSystem/measure-population",
              "code": "initial-population",
              "display": "Initial Population"
            } ]
          },
          "count": 0
        }, {
          "code": {
            "coding": [ {
              "system": "http://terminology.hl7.org/CodeSystem/measure-population",
              "code": "denominator",
              "display": "Denominator"
            } ]
          },
          "count": 0
        }, {
          "code": {
            "coding": [ {
              "system": "http://terminology.hl7.org/CodeSystem/measure-population",
              "code": "denominator-exclusion",
              "display": "Denominator Exclusion"
            } ]
          },
          "count": 0
        }, {
          "code": {
            "coding": [ {
              "system": "http://terminology.hl7.org/CodeSystem/measure-population",
              "code": "numerator",
              "display": "Numerator"
            } ]
          },
          "count": 0
        } ]
      } ],
      "evaluatedResource": [ {
        "reference": "Patient/e189d3ab-c593-44f2-940d-50d7f08eb847"
      }, {
        "reference": "Encounter/ippfail-scanoutsidemp-1"
      }, {
        "reference": "Observation/ippfail-scanoutsidemp-2"
      } ]
    },
    "request": {
      "method": "PUT",
      "url": "MeasureReport/2956869c-f4cb-41d5-afa2-b9e3d0f89ec2"
    }
  } ]
}