{
  "resourceType": "Bundle",
  "id": "6129135802c62a011f2e760d",
  "type": "transaction",
  "entry": [ {
    "fullUrl": "https://madie.cms.gov/Patient/35db40dc-2669-4ea3-98f1-9ef8e45bf6c5",
    "resource": {
      "resourceType": "Patient",
      "id": "35db40dc-2669-4ea3-98f1-9ef8e45bf6c5",
      "meta": {
        "profile": [ "http://hl7.org/fhir/us/qicore/StructureDefinition/qicore-patient" ]
      },
      "text": {
        "status": "generated",
        "div": "<div xmlns=\"http://www.w3.org/1999/xhtml\"><div class=\"hapiHeaderText\">AllSTKEncounter_FailAllNoSTK <b>IPFAIL </b></div><table class=\"hapiPropertyTable\"><tbody><tr><td>Identifier</td><td>05f04bc3a037918e7f8e8e698f994329</td></tr><tr><td>Date of birth</td><td><span>21 August 1994</span></td></tr></tbody></table></div>"
      },
      "extension": [ {
        "url": "http://hl7.org/fhir/us/core/StructureDefinition/us-core-race",
        "extension": [ {
          "url": "ombCategory",
          "valueCoding": {
            "system": "urn:oid:2.16.840.1.113883.6.238",
            "code": "1002-5",
            "display": "American Indian or Alaska Native",
            "userSelected": true
          }
        }, {
          "url": "text",
          "valueString": "American Indian or Alaska Native"
        } ]
      }, {
        "url": "http://hl7.org/fhir/us/core/StructureDefinition/us-core-ethnicity",
        "extension": [ {
          "url": "ombCategory",
          "valueCoding": {
            "system": "urn:oid:2.16.840.1.113883.6.238",
            "code": "2135-2",
            "display": "Hispanic or Latino",
            "userSelected": true
          }
        }, {
          "url": "text",
          "valueString": "Hispanic or Latino"
        } ]
      } ],
      "identifier": [ {
        "type": {
          "coding": [ {
            "system": "http://terminology.hl7.org/CodeSystem/v2-0203",
            "code": "MR"
          } ]
        },
        "system": "https://bonnie-fhir.healthit.gov/",
        "value": "6129135802c62a011f2e760d"
      } ],
      "active": true,
      "name": [ {
        "use": "usual",
        "family": "IPFail",
        "given": [ "AllSTKEncounter_FailAllNoSTK" ]
      } ],
      "gender": "male",
      "birthDate": "2004-08-21"
    },
    "request": {
      "method": "PUT",
      "url": "Patient/35db40dc-2669-4ea3-98f1-9ef8e45bf6c5"
    }
  }, {
    "fullUrl": "https://madie.cms.gov/Encounter/39688793-d2a6-45a0-91c7-25846a8bfc23",
    "resource": {
      "resourceType": "Encounter",
      "id": "39688793-d2a6-45a0-91c7-25846a8bfc23",
      "meta": {
        "profile": [ "http://hl7.org/fhir/us/qicore/StructureDefinition/qicore-encounter" ]
      },
      "status": "finished",
      "class": {
        "system": "http://terminology.hl7.org/CodeSystem/v3-ActCode",
        "code": "IMP",
        "display": "inpatient encounter",
        "userSelected": true
      },
      "type": [ {
        "coding": [ {
          "system": "http://snomed.info/sct",
          "code": "32485007"
        } ]
      } ],
      "subject": {
        "reference": "Patient/35db40dc-2669-4ea3-98f1-9ef8e45bf6c5"
      },
      "period": {
        "start": "2026-08-21T09:30:00.000+00:00",
        "end": "2026-12-19T10:30:00.000+00:00"
      },
      "length": {
        "value": 120.0,
        "unit": "days"
      }
    },
    "request": {
      "method": "PUT",
      "url": "Encounter/39688793-d2a6-45a0-91c7-25846a8bfc23"
    }
  }, {
    "fullUrl": "https://madie.cms.gov/Coverage/a95e9e9d-39a9-4a41-8437-6f0cd0f6c7d2",
    "resource": {
      "resourceType": "Coverage",
      "id": "a95e9e9d-39a9-4a41-8437-6f0cd0f6c7d2",
      "meta": {
        "profile": [ "http://hl7.org/fhir/us/qicore/StructureDefinition/qicore-coverage" ]
      },
      "status": "active",
      "beneficiary": {
        "reference": "Patient/35db40dc-2669-4ea3-98f1-9ef8e45bf6c5"
      },
      "payor": [ {
        "reference": "Organization/695db398-1b69-4520-acab-ae7a5ffd2155"
      } ]
    },
    "request": {
      "method": "PUT",
      "url": "Coverage/a95e9e9d-39a9-4a41-8437-6f0cd0f6c7d2"
    }
  }, {
    "fullUrl": "https://madie.cms.gov/Organization/695db398-1b69-4520-acab-ae7a5ffd2155",
    "resource": {
      "resourceType": "Organization",
      "id": "695db398-1b69-4520-acab-ae7a5ffd2155",
      "meta": {
        "profile": [ "http://hl7.org/fhir/us/qicore/StructureDefinition/qicore-organization" ]
      },
      "identifier": [ {
        "use": "temp",
        "system": "urn:oid:2.16.840.1.113883.4.4",
        "value": "21-3259825"
      } ],
      "active": true,
      "type": [ {
        "coding": [ {
          "system": "http://terminology.hl7.org/CodeSystem/organization-type",
          "code": "pay",
          "display": "Payer"
        } ]
      } ],
      "name": "Blue Cross Blue Shield of Texas",
      "telecom": [ {
        "system": "phone",
        "value": "(+1) 972-766-6900"
      } ],
      "address": [ {
        "use": "billing",
        "type": "postal",
        "line": [ "P.O. Box 660044" ],
        "city": "Dallas",
        "state": "TX",
        "postalCode": "75266-0044",
        "country": "USA"
      } ]
    },
    "request": {
      "method": "PUT",
      "url": "Organization/695db398-1b69-4520-acab-ae7a5ffd2155"
    }
  }, {
    "fullUrl": "https://madie.cms.gov/MeasureReport/44a8c49a-213d-4fe9-ab68-089189597901",
    "resource": {
      "resourceType": "MeasureReport",
      "id": "44a8c49a-213d-4fe9-ab68-089189597901",
      "meta": {
        "profile": [ "http://hl7.org/fhir/us/cqfmeasures/StructureDefinition/test-case-cqfm" ]
      },
      "contained": [ {
        "resourceType": "Parameters",
        "id": "2fd7f343-d91c-4018-956e-e9d834c6026e-parameters",
        "parameter": [ {
          "name": "subject",
          "valueString": "35db40dc-2669-4ea3-98f1-9ef8e45bf6c5"
        } ]
      } ],
      "extension": [ {
        "url": "http://hl7.org/fhir/us/cqfmeasures/StructureDefinition/cqfm-inputParameters",
        "valueReference": {
          "reference": "#2fd7f343-d91c-4018-956e-e9d834c6026e-parameters"
        }
      }, {
        "url": "http://hl7.org/fhir/us/cqfmeasures/StructureDefinition/cqfm-testCaseDescription",
        "valueMarkdown": "Patient is 18 with Non-Elective Inpatient Encounter (LOS 120 days) ends during MP with no diagnosis of stroke"
      } ],
      "modifierExtension": [ {
        "url": "http://hl7.org/fhir/us/cqfmeasures/StructureDefinition/cqfm-isTestCase",
        "valueBoolean": true
      } ],
      "status": "complete",
      "type": "individual",
      "measure": "https://madie.cms.gov/Measure/CMS104FHIRSTKDCAntithrombotic",
      "period": {
        "start": "2026-01-01",
        "end": "2026-12-31"
      },
      "group": [ {
        "population": [ {
          "code": {
            "coding": [ {
              "system": "http://terminology.hl7.org/CodeSystem/measure-population",
              "code": "initial-population",
              "display": "Initial Population"
            } ]
          },
          "count": 0
        }, {
          "code": {
            "coding": [ {
              "system": "http://terminology.hl7.org/CodeSystem/measure-population",
              "code": "denominator",
              "display": "Denominator"
            } ]
          },
          "count": 0
        }, {
          "code": {
            "coding": [ {
              "system": "http://terminology.hl7.org/CodeSystem/measure-population",
              "code": "denominator-exclusion",
              "display": "Denominator Exclusion"
            } ]
          },
          "count": 0
        }, {
          "code": {
            "coding": [ {
              "system": "http://terminology.hl7.org/CodeSystem/measure-population",
              "code": "numerator",
              "display": "Numerator"
            } ]
          },
          "count": 0
        }, {
          "code": {
            "coding": [ {
              "system": "http://terminology.hl7.org/CodeSystem/measure-population",
              "code": "denominator-exception",
              "display": "Denominator Exception"
            } ]
          },
          "count": 0
        } ]
      } ],
      "evaluatedResource": [ {
        "reference": "Patient/35db40dc-2669-4ea3-98f1-9ef8e45bf6c5"
      }, {
        "reference": "Encounter/39688793-d2a6-45a0-91c7-25846a8bfc23"
      }, {
        "reference": "Coverage/a95e9e9d-39a9-4a41-8437-6f0cd0f6c7d2"
      }, {
        "reference": "Organization/695db398-1b69-4520-acab-ae7a5ffd2155"
      } ]
    },
    "request": {
      "method": "PUT",
      "url": "MeasureReport/44a8c49a-213d-4fe9-ab68-089189597901"
    }
  } ]
}