{
  "resourceType": "Bundle",
  "id": "DENEXFail-SevereCogImpairmentAfterMP",
  "type": "transaction",
  "entry": [ {
    "fullUrl": "https://madie.cms.gov/Patient/22e26758-8ad6-4784-8d01-0543b2277269",
    "resource": {
      "resourceType": "Patient",
      "id": "22e26758-8ad6-4784-8d01-0543b2277269",
      "meta": {
        "profile": [ "http://hl7.org/fhir/us/qicore/StructureDefinition/qicore-patient" ]
      },
      "extension": [ {
        "url": "http://hl7.org/fhir/us/core/StructureDefinition/us-core-race",
        "extension": [ {
          "url": "ombCategory",
          "valueCoding": {
            "system": "urn:oid:2.16.840.1.113883.6.238",
            "code": "2028-9",
            "display": "Asian"
          }
        }, {
          "url": "text",
          "valueString": "Asian"
        } ]
      }, {
        "url": "http://hl7.org/fhir/us/core/StructureDefinition/us-core-ethnicity",
        "extension": [ {
          "url": "ombCategory",
          "valueCoding": {
            "system": "urn:oid:2.16.840.1.113883.6.238",
            "code": "2135-2",
            "display": "Hispanic or Latino"
          }
        }, {
          "url": "text",
          "valueString": "Hispanic or Latino"
        } ]
      } ],
      "identifier": [ {
        "system": "http://hospital.smarthealthit.org",
        "value": "999999995"
      } ],
      "name": [ {
        "family": "Bertha",
        "given": [ "Betty" ]
      } ],
      "gender": "female",
      "birthDate": "2007-01-01"
    },
    "request": {
      "method": "POST",
      "url": "Patient/22e26758-8ad6-4784-8d01-0543b2277269"
    }
  }, {
    "fullUrl": "https://madie.cms.gov/Encounter/Encounter-51",
    "resource": {
      "resourceType": "Encounter",
      "id": "Encounter-51",
      "meta": {
        "profile": [ "http://hl7.org/fhir/us/qicore/StructureDefinition/qicore-encounter" ]
      },
      "status": "finished",
      "class": {
        "system": "http://terminology.hl7.org/CodeSystem/v3-ActCode",
        "code": "AMB",
        "display": "ambulatory"
      },
      "type": [ {
        "coding": [ {
          "system": "http://snomed.info/sct",
          "code": "185317003",
          "display": "Telephone encounter (procedure)"
        } ]
      } ],
      "subject": {
        "reference": "Patient/22e26758-8ad6-4784-8d01-0543b2277269"
      },
      "period": {
        "start": "2025-01-01T01:00:00.000Z",
        "end": "2025-01-01T01:15:00.000Z"
      }
    },
    "request": {
      "method": "POST",
      "url": "Encounter/Encounter-51"
    }
  }, {
    "fullUrl": "https://madie.cms.gov/Encounter/Encounter-52",
    "resource": {
      "resourceType": "Encounter",
      "id": "Encounter-52",
      "meta": {
        "profile": [ "http://hl7.org/fhir/us/qicore/StructureDefinition/qicore-encounter" ]
      },
      "status": "finished",
      "class": {
        "system": "http://terminology.hl7.org/CodeSystem/v3-ActCode",
        "code": "AMB",
        "display": "ambulatory"
      },
      "type": [ {
        "coding": [ {
          "system": "http://snomed.info/sct",
          "code": "185317003",
          "display": "Telephone encounter (procedure)"
        } ]
      } ],
      "subject": {
        "reference": "Patient/22e26758-8ad6-4784-8d01-0543b2277269"
      },
      "period": {
        "start": "2025-01-02T01:00:00.000Z",
        "end": "2025-01-02T01:15:00.000Z"
      }
    },
    "request": {
      "method": "POST",
      "url": "Encounter/Encounter-52"
    }
  }, {
    "fullUrl": "https://madie.cms.gov/Condition/Condition-23",
    "resource": {
      "resourceType": "Condition",
      "id": "Condition-23",
      "meta": {
        "profile": [ "http://hl7.org/fhir/us/qicore/StructureDefinition/qicore-condition" ]
      },
      "clinicalStatus": {
        "coding": [ {
          "system": "http://terminology.hl7.org/CodeSystem/condition-clinical",
          "code": "active"
        } ]
      },
      "category": [ {
        "coding": [ {
          "system": "http://terminology.hl7.org/CodeSystem/condition-category",
          "code": "problem-list-item",
          "display": "Problem List Item"
        } ]
      } ],
      "code": {
        "coding": [ {
          "system": "http://snomed.info/sct",
          "code": "10091002",
          "display": "High output heart failure (disorder)"
        } ]
      },
      "subject": {
        "reference": "Patient/22e26758-8ad6-4784-8d01-0543b2277269"
      },
      "onsetDateTime": "2024-12-31T00:00:00.000Z"
    },
    "request": {
      "method": "POST",
      "url": "Condition/Condition-23"
    }
  }, {
    "fullUrl": "https://madie.cms.gov/Condition/Condition-24",
    "resource": {
      "resourceType": "Condition",
      "id": "Condition-24",
      "meta": {
        "profile": [ "http://hl7.org/fhir/us/qicore/StructureDefinition/qicore-condition" ]
      },
      "clinicalStatus": {
        "coding": [ {
          "system": "http://terminology.hl7.org/CodeSystem/condition-clinical",
          "code": "active"
        } ]
      },
      "category": [ {
        "coding": [ {
          "system": "http://terminology.hl7.org/CodeSystem/condition-category",
          "code": "problem-list-item",
          "display": "Problem List Item"
        } ]
      } ],
      "code": {
        "coding": [ {
          "system": "http://snomed.info/sct",
          "code": "702956004",
          "display": "Severe cognitive impairment (finding)"
        } ]
      },
      "subject": {
        "reference": "Patient/22e26758-8ad6-4784-8d01-0543b2277269"
      },
      "onsetDateTime": "2026-01-01T00:00:00.000Z"
    },
    "request": {
      "method": "POST",
      "url": "Condition/Condition-24"
    }
  }, {
    "fullUrl": "https://madie.cms.gov/MeasureReport/26883ce1-5f61-417b-920c-fbb73acac0b2",
    "resource": {
      "resourceType": "MeasureReport",
      "id": "26883ce1-5f61-417b-920c-fbb73acac0b2",
      "meta": {
        "profile": [ "http://hl7.org/fhir/us/cqfmeasures/StructureDefinition/test-case-cqfm" ]
      },
      "contained": [ {
        "resourceType": "Parameters",
        "id": "c943ba12-cd82-4664-b487-9fc0647d9f62-parameters",
        "parameter": [ {
          "name": "subject",
          "valueString": "22e26758-8ad6-4784-8d01-0543b2277269"
        } ]
      } ],
      "extension": [ {
        "url": "http://hl7.org/fhir/us/cqfmeasures/StructureDefinition/cqfm-inputParameters",
        "valueReference": {
          "reference": "#c943ba12-cd82-4664-b487-9fc0647d9f62-parameters"
        }
      }, {
        "url": "http://hl7.org/fhir/us/cqfmeasures/StructureDefinition/cqfm-testCaseDescription",
        "valueMarkdown": "Patient has severe cognitive impairment that starts after the MP."
      } ],
      "modifierExtension": [ {
        "url": "http://hl7.org/fhir/us/cqfmeasures/StructureDefinition/cqfm-isTestCase",
        "valueBoolean": true
      } ],
      "status": "complete",
      "type": "individual",
      "measure": "https://madie.cms.gov/Measure/FunctionalStatusAssessmentsforHeartFailureFHIR",
      "period": {
        "start": "2025-01-01",
        "end": "2025-12-31"
      },
      "group": [ {
        "population": [ {
          "code": {
            "coding": [ {
              "system": "http://terminology.hl7.org/CodeSystem/measure-population",
              "code": "initial-population",
              "display": "Initial Population"
            } ]
          },
          "count": 1
        }, {
          "code": {
            "coding": [ {
              "system": "http://terminology.hl7.org/CodeSystem/measure-population",
              "code": "denominator",
              "display": "Denominator"
            } ]
          },
          "count": 1
        }, {
          "code": {
            "coding": [ {
              "system": "http://terminology.hl7.org/CodeSystem/measure-population",
              "code": "denominator-exclusion",
              "display": "Denominator Exclusion"
            } ]
          },
          "count": 0
        }, {
          "code": {
            "coding": [ {
              "system": "http://terminology.hl7.org/CodeSystem/measure-population",
              "code": "numerator",
              "display": "Numerator"
            } ]
          },
          "count": 0
        } ]
      } ],
      "evaluatedResource": [ {
        "reference": "Patient/22e26758-8ad6-4784-8d01-0543b2277269"
      }, {
        "reference": "Encounter/Encounter-51"
      }, {
        "reference": "Encounter/Encounter-52"
      }, {
        "reference": "Condition/Condition-23"
      }, {
        "reference": "Condition/Condition-24"
      } ]
    },
    "request": {
      "method": "POST",
      "url": "MeasureReport/26883ce1-5f61-417b-920c-fbb73acac0b2"
    }
  } ]
}