{
  "resourceType": "Bundle",
  "id": "633b3f9f0968f80122503ce3",
  "type": "transaction",
  "entry": [ {
    "fullUrl": "https://madie.cms.gov/Patient/f538dfbc-b3d0-48c5-aed5-76a2e2515f2d",
    "resource": {
      "resourceType": "Patient",
      "id": "f538dfbc-b3d0-48c5-aed5-76a2e2515f2d",
      "meta": {
        "profile": [ "http://hl7.org/fhir/us/qicore/StructureDefinition/qicore-patient" ]
      },
      "text": {
        "status": "generated",
        "div": "<div xmlns=\"http://www.w3.org/1999/xhtml\"><div class=\"hapiHeaderText\">AssPrfEGALastIs19FirstIs20 <b>DENOMFAIL </b></div><table class=\"hapiPropertyTable\"><tbody><tr><td>Date of birth</td><td><span>01 February 2004</span></td></tr></tbody></table></div>"
      },
      "extension": [ {
        "url": "http://hl7.org/fhir/us/core/StructureDefinition/us-core-race",
        "extension": [ {
          "url": "ombCategory",
          "valueCoding": {
            "system": "urn:oid:2.16.840.1.113883.6.238",
            "code": "1002-5",
            "display": "American Indian or Alaska Native",
            "userSelected": true
          }
        }, {
          "url": "text",
          "valueString": "American Indian or Alaska Native"
        } ]
      }, {
        "url": "http://hl7.org/fhir/us/core/StructureDefinition/us-core-ethnicity",
        "extension": [ {
          "url": "ombCategory",
          "valueCoding": {
            "system": "urn:oid:2.16.840.1.113883.6.238",
            "code": "2135-2",
            "display": "Hispanic or Latino",
            "userSelected": true
          }
        }, {
          "url": "text",
          "valueString": "Hispanic or Latino"
        } ]
      } ],
      "identifier": [ {
        "type": {
          "coding": [ {
            "system": "http://terminology.hl7.org/CodeSystem/v2-0203",
            "code": "MR"
          } ]
        },
        "system": "https://bonnie-fhir.healthit.gov/",
        "value": "633b3f9f0968f80122503ce3"
      } ],
      "active": true,
      "name": [ {
        "use": "usual",
        "family": "DENOMFail",
        "given": [ "AssPrfEGALastIs19FirstIs20            " ]
      } ],
      "gender": "female",
      "birthDate": "2004-02-01"
    },
    "request": {
      "method": "PUT",
      "url": "Patient/f538dfbc-b3d0-48c5-aed5-76a2e2515f2d"
    }
  }, {
    "fullUrl": "https://madie.cms.gov/Observation/eb4fc040-1c52-44ee-9a7b-75341642839e",
    "resource": {
      "resourceType": "Observation",
      "id": "eb4fc040-1c52-44ee-9a7b-75341642839e",
      "meta": {
        "profile": [ "http://hl7.org/fhir/us/qicore/StructureDefinition/qicore-observation" ]
      },
      "status": "final",
      "category": [ {
        "coding": [ {
          "system": "http://terminology.hl7.org/CodeSystem/observation-category",
          "code": "exam",
          "display": "exam",
          "userSelected": true
        } ]
      } ],
      "code": {
        "coding": [ {
          "system": "http://loinc.org",
          "code": "93857-1"
        } ]
      },
      "subject": {
        "reference": "Patient/f538dfbc-b3d0-48c5-aed5-76a2e2515f2d"
      },
      "effectiveDateTime": "2025-02-01T08:00:00.000+00:00",
      "valueDateTime": "2025-02-01T08:00:00+00:00"
    },
    "request": {
      "method": "PUT",
      "url": "Observation/eb4fc040-1c52-44ee-9a7b-75341642839e"
    }
  }, {
    "fullUrl": "https://madie.cms.gov/Observation/fff85557-93b3-4229-8e74-fa3d9427971f",
    "resource": {
      "resourceType": "Observation",
      "id": "fff85557-93b3-4229-8e74-fa3d9427971f",
      "meta": {
        "profile": [ "http://hl7.org/fhir/us/qicore/StructureDefinition/qicore-observation" ]
      },
      "status": "final",
      "category": [ {
        "coding": [ {
          "system": "http://terminology.hl7.org/CodeSystem/observation-category",
          "code": "exam",
          "display": "exam",
          "userSelected": true
        } ]
      } ],
      "code": {
        "coding": [ {
          "system": "http://loinc.org",
          "code": "11884-4"
        } ]
      },
      "subject": {
        "reference": "Patient/f538dfbc-b3d0-48c5-aed5-76a2e2515f2d"
      },
      "effectiveDateTime": "2025-02-01T07:00:00.000+00:00",
      "valueQuantity": {
        "value": 20,
        "unit": "wk"
      }
    },
    "request": {
      "method": "PUT",
      "url": "Observation/fff85557-93b3-4229-8e74-fa3d9427971f"
    }
  }, {
    "fullUrl": "https://madie.cms.gov/Observation/78363202-46cb-413a-b665-e617f797b5c0",
    "resource": {
      "resourceType": "Observation",
      "id": "78363202-46cb-413a-b665-e617f797b5c0",
      "meta": {
        "profile": [ "http://hl7.org/fhir/us/qicore/StructureDefinition/qicore-observation" ]
      },
      "status": "final",
      "category": [ {
        "coding": [ {
          "system": "http://terminology.hl7.org/CodeSystem/observation-category",
          "code": "exam",
          "display": "exam",
          "userSelected": true
        } ]
      } ],
      "code": {
        "coding": [ {
          "system": "http://loinc.org",
          "code": "11884-4"
        } ]
      },
      "subject": {
        "reference": "Patient/f538dfbc-b3d0-48c5-aed5-76a2e2515f2d"
      },
      "effectiveDateTime": "2025-02-01T08:00:00.000+00:00",
      "valueQuantity": {
        "value": 19,
        "unit": "wk"
      }
    },
    "request": {
      "method": "PUT",
      "url": "Observation/78363202-46cb-413a-b665-e617f797b5c0"
    }
  }, {
    "fullUrl": "https://madie.cms.gov/Encounter/31e74d25-8f56-41d6-8d69-d487f854f84c",
    "resource": {
      "resourceType": "Encounter",
      "id": "31e74d25-8f56-41d6-8d69-d487f854f84c",
      "meta": {
        "profile": [ "http://hl7.org/fhir/us/qicore/StructureDefinition/qicore-encounter" ]
      },
      "status": "finished",
      "class": {
        "system": "http://terminology.hl7.org/CodeSystem/v3-ActCode",
        "code": "IMP",
        "display": "inpatient encounter"
      },
      "type": [ {
        "coding": [ {
          "system": "http://snomed.info/sct",
          "code": "183452005"
        } ]
      } ],
      "subject": {
        "reference": "Patient/f538dfbc-b3d0-48c5-aed5-76a2e2515f2d"
      },
      "period": {
        "start": "2025-02-01T08:00:00.000Z",
        "end": "2025-02-05T08:15:00.000Z"
      },
      "diagnosis": [ {
        "condition": {
          "reference": "Condition/delivery-of-singleton-f83c"
        },
        "use": {
          "coding": [ {
            "system": "http://snomed.info/sct",
            "code": "169826009",
            "display": "Delivery of Singleton"
          } ]
        }
      } ]
    },
    "request": {
      "method": "PUT",
      "url": "Encounter/31e74d25-8f56-41d6-8d69-d487f854f84c"
    }
  }, {
    "fullUrl": "https://madie.cms.gov/Coverage/8929525b-6ab0-4413-a27b-0f09b7de07b7",
    "resource": {
      "resourceType": "Coverage",
      "id": "8929525b-6ab0-4413-a27b-0f09b7de07b7",
      "status": "active",
      "beneficiary": {
        "reference": "Patient/f538dfbc-b3d0-48c5-aed5-76a2e2515f2d"
      },
      "period": {
        "start": "2004-02-01T08:00:00.000Z"
      },
      "payor": [ {
        "reference": "Organization/a1c990e7-056f-40e3-8299-92ea99dfab2b"
      } ]
    },
    "request": {
      "method": "PUT",
      "url": "Coverage/8929525b-6ab0-4413-a27b-0f09b7de07b7"
    }
  }, {
    "fullUrl": "https://madie.cms.gov/Procedure/d7171550-cd96-45b8-a210-5689a1b82ab7",
    "resource": {
      "resourceType": "Procedure",
      "id": "d7171550-cd96-45b8-a210-5689a1b82ab7",
      "meta": {
        "profile": [ "http://hl7.org/fhir/us/qicore/StructureDefinition/qicore-procedure" ]
      },
      "extension": [ {
        "url": "http://hl7.org/fhir/us/qicore/StructureDefinition/qicore-recorded",
        "valueDateTime": "2013-04-05T09:35:00-04:00"
      } ],
      "status": "completed",
      "code": {
        "coding": [ {
          "system": "http://snomed.info/sct",
          "code": "10745001"
        } ]
      },
      "subject": {
        "reference": "Patient/f538dfbc-b3d0-48c5-aed5-76a2e2515f2d"
      },
      "performedPeriod": {
        "start": "2025-02-01T08:00:00.000Z",
        "end": "2025-02-05T08:15:00.000Z"
      }
    },
    "request": {
      "method": "PUT",
      "url": "Procedure/d7171550-cd96-45b8-a210-5689a1b82ab7"
    }
  }, {
    "fullUrl": "https://madie.cms.gov/Organization/a1c990e7-056f-40e3-8299-92ea99dfab2b",
    "resource": {
      "resourceType": "Organization",
      "id": "a1c990e7-056f-40e3-8299-92ea99dfab2b",
      "meta": {
        "profile": [ "http://hl7.org/fhir/us/qicore/StructureDefinition/qicore-organization" ]
      },
      "identifier": [ {
        "use": "temp",
        "system": "urn:oid:2.16.840.1.113883.4.4",
        "value": "21-3259825"
      } ],
      "active": true,
      "type": [ {
        "coding": [ {
          "system": "http://terminology.hl7.org/CodeSystem/organization-type",
          "code": "pay",
          "display": "Payer"
        } ]
      } ],
      "name": "Blue Cross Blue Shield of Texas",
      "telecom": [ {
        "system": "phone",
        "value": "(+1) 972-766-6900"
      } ],
      "address": [ {
        "use": "billing",
        "type": "postal",
        "line": [ "P.O. Box 660044" ],
        "city": "Dallas",
        "state": "TX",
        "postalCode": "75266-0044",
        "country": "USA"
      } ]
    },
    "request": {
      "method": "PUT",
      "url": "Organization/a1c990e7-056f-40e3-8299-92ea99dfab2b"
    }
  }, {
    "fullUrl": "https://madie.cms.gov/Practitioner/69efa38d-e79f-4367-880f-c3b54efee454",
    "resource": {
      "resourceType": "Practitioner",
      "id": "69efa38d-e79f-4367-880f-c3b54efee454",
      "identifier": [ {
        "system": "http://hl7.org/fhir/sid/us-npi",
        "value": "123456"
      } ],
      "name": [ {
        "family": "Evil",
        "prefix": [ "Dr" ]
      } ]
    },
    "request": {
      "method": "PUT",
      "url": "Practitioner/69efa38d-e79f-4367-880f-c3b54efee454"
    }
  }, {
    "fullUrl": "https://madie.cms.gov/MeasureReport/b489ed6d-4d22-4efe-8419-29719bdcfc3d",
    "resource": {
      "resourceType": "MeasureReport",
      "id": "b489ed6d-4d22-4efe-8419-29719bdcfc3d",
      "meta": {
        "profile": [ "http://hl7.org/fhir/us/cqfmeasures/StructureDefinition/test-case-cqfm" ]
      },
      "contained": [ {
        "resourceType": "Parameters",
        "id": "8a4f8250-9f71-4611-b9b6-1315753c4637-parameters",
        "parameter": [ {
          "name": "subject",
          "valueString": "f538dfbc-b3d0-48c5-aed5-76a2e2515f2d"
        } ]
      } ],
      "extension": [ {
        "url": "http://hl7.org/fhir/us/cqfmeasures/StructureDefinition/cqfm-inputParameters",
        "valueReference": {
          "reference": "#8a4f8250-9f71-4611-b9b6-1315753c4637-parameters"
        }
      }, {
        "url": "http://hl7.org/fhir/us/cqfmeasures/StructureDefinition/cqfm-testCaseDescription",
        "valueMarkdown": "Last Assessment Performed EGA = 19 weeks\n"
      } ],
      "modifierExtension": [ {
        "url": "http://hl7.org/fhir/us/cqfmeasures/StructureDefinition/cqfm-isTestCase",
        "valueBoolean": true
      } ],
      "status": "complete",
      "type": "individual",
      "measure": "https://madie.cms.gov/Measure/CMS1028FHIRPCSevereOBComps",
      "period": {
        "start": "2025-01-01",
        "end": "2025-12-31"
      },
      "group": [ {
        "population": [ {
          "code": {
            "coding": [ {
              "system": "http://terminology.hl7.org/CodeSystem/measure-population",
              "code": "initial-population",
              "display": "Initial Population"
            } ]
          },
          "count": 1
        }, {
          "code": {
            "coding": [ {
              "system": "http://terminology.hl7.org/CodeSystem/measure-population",
              "code": "denominator",
              "display": "Denominator"
            } ]
          },
          "count": 0
        }, {
          "code": {
            "coding": [ {
              "system": "http://terminology.hl7.org/CodeSystem/measure-population",
              "code": "numerator",
              "display": "Numerator"
            } ]
          },
          "count": 0
        }, {
          "code": {
            "coding": [ {
              "system": "http://terminology.hl7.org/CodeSystem/measure-population",
              "code": "numerator-exclusion",
              "display": "Numerator Exclusion"
            } ]
          },
          "count": 0
        } ]
      }, {
        "population": [ {
          "code": {
            "coding": [ {
              "system": "http://terminology.hl7.org/CodeSystem/measure-population",
              "code": "initial-population",
              "display": "Initial Population"
            } ]
          },
          "count": 1
        }, {
          "code": {
            "coding": [ {
              "system": "http://terminology.hl7.org/CodeSystem/measure-population",
              "code": "denominator",
              "display": "Denominator"
            } ]
          },
          "count": 0
        }, {
          "code": {
            "coding": [ {
              "system": "http://terminology.hl7.org/CodeSystem/measure-population",
              "code": "numerator",
              "display": "Numerator"
            } ]
          },
          "count": 0
        }, {
          "code": {
            "coding": [ {
              "system": "http://terminology.hl7.org/CodeSystem/measure-population",
              "code": "numerator-exclusion",
              "display": "Numerator Exclusion"
            } ]
          },
          "count": 0
        } ]
      } ],
      "evaluatedResource": [ {
        "reference": "Patient/f538dfbc-b3d0-48c5-aed5-76a2e2515f2d"
      }, {
        "reference": "Observation/eb4fc040-1c52-44ee-9a7b-75341642839e"
      }, {
        "reference": "Observation/fff85557-93b3-4229-8e74-fa3d9427971f"
      }, {
        "reference": "Observation/78363202-46cb-413a-b665-e617f797b5c0"
      }, {
        "reference": "Encounter/31e74d25-8f56-41d6-8d69-d487f854f84c"
      }, {
        "reference": "Coverage/8929525b-6ab0-4413-a27b-0f09b7de07b7"
      }, {
        "reference": "Procedure/d7171550-cd96-45b8-a210-5689a1b82ab7"
      }, {
        "reference": "Organization/a1c990e7-056f-40e3-8299-92ea99dfab2b"
      }, {
        "reference": "Practitioner/69efa38d-e79f-4367-880f-c3b54efee454"
      } ]
    },
    "request": {
      "method": "PUT",
      "url": "MeasureReport/b489ed6d-4d22-4efe-8419-29719bdcfc3d"
    }
  } ]
}