{
  "resourceType": "Bundle",
  "id": "NUMERFail-FallNPOANoInjury",
  "type": "transaction",
  "entry": [ {
    "fullUrl": "https://madie.cms.gov/Encounter/194ed15c-9c72-41f3-87a4-2d573d94d32d",
    "resource": {
      "resourceType": "Encounter",
      "id": "194ed15c-9c72-41f3-87a4-2d573d94d32d",
      "meta": {
        "profile": [ "http://hl7.org/fhir/us/qicore/StructureDefinition/qicore-encounter" ]
      },
      "status": "finished",
      "class": {
        "system": "http://terminology.hl7.org/CodeSystem/v3-ActCode",
        "code": "IMP",
        "display": "inpatient encounter"
      },
      "type": [ {
        "coding": [ {
          "system": "http://snomed.info/sct",
          "code": "183452005"
        } ]
      } ],
      "subject": {
        "reference": "Patient/3279a237-292f-47b1-9039-ba46b57e765a"
      },
      "period": {
        "start": "2026-11-09T11:00:00+00:00",
        "end": "2026-11-12T08:15:00+00:00"
      },
      "diagnosis": [ {
        "extension": [ {
          "url": "http://hl7.org/fhir/us/qicore/StructureDefinition/qicore-encounter-diagnosisPresentOnAdmission",
          "valueCodeableConcept": {
            "coding": [ {
              "system": "https://www.cms.gov/Medicare/Medicare-Fee-for-Service-Payment/HospitalAcqCond/Coding",
              "code": "N"
            } ]
          }
        } ],
        "condition": {
          "reference": "Condition/3632fcbf-09d1-4056-8d10-b12d1c2eb148"
        }
      } ]
    },
    "request": {
      "method": "PUT",
      "url": "Encounter/194ed15c-9c72-41f3-87a4-2d573d94d32d"
    }
  }, {
    "fullUrl": "https://madie.cms.gov/Encounter/26f506e1-fb5b-4997-9bb2-03e40cd6bc13",
    "resource": {
      "resourceType": "Encounter",
      "id": "26f506e1-fb5b-4997-9bb2-03e40cd6bc13",
      "meta": {
        "profile": [ "http://hl7.org/fhir/us/qicore/StructureDefinition/qicore-encounter" ]
      },
      "status": "finished",
      "class": {
        "system": "http://terminology.hl7.org/CodeSystem/v3-ActCode",
        "code": "IMP",
        "display": "inpatient encounter"
      },
      "type": [ {
        "coding": [ {
          "system": "http://snomed.info/sct",
          "code": "4525004"
        } ]
      } ],
      "subject": {
        "reference": "Patient/3279a237-292f-47b1-9039-ba46b57e765a"
      },
      "period": {
        "start": "2026-11-08T08:00:00+00:00",
        "end": "2026-11-09T10:15:00+00:00"
      }
    },
    "request": {
      "method": "PUT",
      "url": "Encounter/26f506e1-fb5b-4997-9bb2-03e40cd6bc13"
    }
  }, {
    "fullUrl": "https://madie.cms.gov/Condition/3632fcbf-09d1-4056-8d10-b12d1c2eb148",
    "resource": {
      "resourceType": "Condition",
      "id": "3632fcbf-09d1-4056-8d10-b12d1c2eb148",
      "meta": {
        "profile": [ "http://hl7.org/fhir/us/qicore/StructureDefinition/qicore-condition" ]
      },
      "clinicalStatus": {
        "coding": [ {
          "system": "http://terminology.hl7.org/CodeSystem/condition-clinical",
          "code": "active"
        } ]
      },
      "verificationStatus": {
        "coding": [ {
          "system": "http://terminology.hl7.org/CodeSystem/condition-ver-status",
          "code": "confirmed"
        } ]
      },
      "category": [ {
        "coding": [ {
          "system": "http://terminology.hl7.org/CodeSystem/condition-category",
          "code": "encounter-diagnosis",
          "display": "Encounter Diagnosis"
        } ]
      } ],
      "code": {
        "coding": [ {
          "system": "http://snomed.info/sct",
          "code": "242390007"
        } ]
      },
      "subject": {
        "reference": "Patient/3279a237-292f-47b1-9039-ba46b57e765a"
      },
      "encounter": {
        "reference": "Encounter/194ed15c-9c72-41f3-87a4-2d573d94d32d"
      }
    },
    "request": {
      "method": "PUT",
      "url": "Condition/3632fcbf-09d1-4056-8d10-b12d1c2eb148"
    }
  }, {
    "fullUrl": "https://madie.cms.gov/Patient/3279a237-292f-47b1-9039-ba46b57e765a",
    "resource": {
      "resourceType": "Patient",
      "id": "3279a237-292f-47b1-9039-ba46b57e765a",
      "meta": {
        "profile": [ "http://hl7.org/fhir/us/qicore/StructureDefinition/qicore-patient" ]
      },
      "extension": [ {
        "url": "http://hl7.org/fhir/us/core/StructureDefinition/us-core-race",
        "extension": [ {
          "url": "ombCategory",
          "valueCoding": {
            "system": "urn:oid:2.16.840.1.113883.6.238",
            "code": "2054-5",
            "display": "Black or African American",
            "userSelected": true
          }
        }, {
          "url": "text",
          "valueString": "Black or African American"
        } ]
      }, {
        "url": "http://hl7.org/fhir/us/core/StructureDefinition/us-core-ethnicity",
        "extension": [ {
          "url": "ombCategory",
          "valueCoding": {
            "system": "urn:oid:2.16.840.1.113883.6.238",
            "code": "2186-5",
            "display": "Not Hispanic or Latino",
            "userSelected": true
          }
        }, {
          "url": "text",
          "valueString": "Not Hispanic or Latino"
        } ]
      } ],
      "identifier": [ {
        "type": {
          "coding": [ {
            "system": "http://terminology.hl7.org/CodeSystem/v2-0203",
            "code": "MR"
          } ]
        },
        "system": "https://bonnie-fhir.healthit.gov/",
        "value": "61152a3b98086b7a79cbd7c1"
      } ],
      "active": true,
      "name": [ {
        "use": "usual",
        "family": "NUMERFail",
        "given": [ "FallNPOANoInjury" ]
      } ],
      "gender": "male",
      "birthDate": "1964-12-11"
    },
    "request": {
      "method": "PUT",
      "url": "Patient/3279a237-292f-47b1-9039-ba46b57e765a"
    }
  }, {
    "fullUrl": "https://madie.cms.gov/MeasureReport/68fa2d9c-0149-494e-a1dc-f361c1d0bcec",
    "resource": {
      "resourceType": "MeasureReport",
      "id": "68fa2d9c-0149-494e-a1dc-f361c1d0bcec",
      "meta": {
        "profile": [ "http://hl7.org/fhir/us/cqfmeasures/StructureDefinition/test-case-cqfm" ]
      },
      "contained": [ {
        "resourceType": "Parameters",
        "id": "918848e0-fd33-475b-a1f9-d5db2d9ef5b6-parameters",
        "parameter": [ {
          "name": "subject",
          "valueString": "3279a237-292f-47b1-9039-ba46b57e765a"
        } ]
      } ],
      "extension": [ {
        "url": "http://hl7.org/fhir/us/cqfmeasures/StructureDefinition/cqfm-inputParameters",
        "valueReference": {
          "reference": "#918848e0-fd33-475b-a1f9-d5db2d9ef5b6-parameters"
        }
      }, {
        "url": "http://hl7.org/fhir/us/cqfmeasures/StructureDefinition/cqfm-testCaseDescription",
        "valueMarkdown": "Encounter diagnoses include a fall NPOA but no injury. Numerator fails"
      } ],
      "modifierExtension": [ {
        "url": "http://hl7.org/fhir/us/cqfmeasures/StructureDefinition/cqfm-isTestCase",
        "valueBoolean": true
      } ],
      "status": "complete",
      "type": "individual",
      "measure": "https://madie.cms.gov/Measure/FallsWithInjuryFHIR",
      "period": {
        "start": "2026-01-01",
        "end": "2026-12-31"
      },
      "group": [ {
        "population": [ {
          "code": {
            "coding": [ {
              "system": "http://terminology.hl7.org/CodeSystem/measure-population",
              "code": "initial-population",
              "display": "Initial Population"
            } ]
          },
          "count": 1
        }, {
          "code": {
            "coding": [ {
              "system": "http://terminology.hl7.org/CodeSystem/measure-population",
              "code": "denominator",
              "display": "Denominator"
            } ]
          },
          "count": 1
        }, {
          "code": {
            "coding": [ {
              "system": "http://terminology.hl7.org/CodeSystem/measure-population",
              "code": "denominator-exclusion",
              "display": "Denominator Exclusion"
            } ]
          },
          "count": 0
        }, {
          "code": {
            "coding": [ {
              "system": "http://terminology.hl7.org/CodeSystem/measure-population",
              "code": "numerator",
              "display": "Numerator"
            } ]
          },
          "count": 0
        }, {
          "code": {
            "coding": [ {
              "system": "http://terminology.hl7.org/CodeSystem/measure-population",
              "code": "numerator-exclusion",
              "display": "Numerator Exclusion"
            } ]
          },
          "count": 0
        }, {
          "code": {
            "coding": [ {
              "system": "http://terminology.hl7.org/CodeSystem/measure-population",
              "code": "denominator-observation",
              "display": "DenominatorObservation"
            } ]
          },
          "count": 4
        } ]
      } ],
      "evaluatedResource": [ {
        "reference": "Encounter/194ed15c-9c72-41f3-87a4-2d573d94d32d"
      }, {
        "reference": "Encounter/26f506e1-fb5b-4997-9bb2-03e40cd6bc13"
      }, {
        "reference": "Condition/3632fcbf-09d1-4056-8d10-b12d1c2eb148"
      }, {
        "reference": "Patient/3279a237-292f-47b1-9039-ba46b57e765a"
      } ]
    },
    "request": {
      "method": "PUT",
      "url": "MeasureReport/68fa2d9c-0149-494e-a1dc-f361c1d0bcec"
    }
  } ]
}