{
  "resourceType": "Bundle",
  "id": "ippfail-under18",
  "type": "transaction",
  "entry": [ {
    "fullUrl": "https://madie.cms.gov/Patient/9c33d71f-61b3-4ace-8129-2cdcacfaf99b",
    "resource": {
      "resourceType": "Patient",
      "id": "9c33d71f-61b3-4ace-8129-2cdcacfaf99b",
      "meta": {
        "profile": [ "http://hl7.org/fhir/us/core/StructureDefinition/us-core-patient", "http://hl7.org/fhir/us/qicore/StructureDefinition/qicore-patient" ]
      },
      "extension": [ {
        "url": "http://hl7.org/fhir/us/core/StructureDefinition/us-core-race",
        "extension": [ {
          "url": "ombCategory",
          "valueCoding": {
            "system": "urn:oid:2.16.840.1.113883.6.238",
            "code": "2028-9",
            "display": "Asian"
          }
        }, {
          "url": "text",
          "valueString": "Asian"
        } ]
      }, {
        "url": "http://hl7.org/fhir/us/core/StructureDefinition/us-core-ethnicity",
        "extension": [ {
          "url": "ombCategory",
          "valueCoding": {
            "system": "urn:oid:2.16.840.1.113883.6.238",
            "code": "2135-2",
            "display": "Hispanic or Latino"
          }
        }, {
          "url": "text",
          "valueString": "Hispanic or Latino"
        } ]
      } ],
      "identifier": [ {
        "system": "http://hospital.smarthealthit.org",
        "value": "999999995"
      } ],
      "name": [ {
        "family": "Under18",
        "given": [ "IPPFail" ]
      } ],
      "gender": "female",
      "birthDate": "2007-01-02"
    },
    "request": {
      "method": "POST",
      "url": "Patient/9c33d71f-61b3-4ace-8129-2cdcacfaf99b"
    }
  }, {
    "fullUrl": "https://madie.cms.gov/Encounter/ippfail-under18-1",
    "resource": {
      "resourceType": "Encounter",
      "id": "ippfail-under18-1",
      "meta": {
        "profile": [ "http://hl7.org/fhir/us/qicore/StructureDefinition/qicore-encounter" ]
      },
      "status": "finished",
      "class": {
        "system": "http://terminology.hl7.org/CodeSystem/v3-ActCode",
        "code": "IMP",
        "display": "inpatient encounter"
      },
      "type": [ {
        "coding": [ {
          "system": "http://snomed.info/sct",
          "code": "183452005",
          "display": "Emergency hospital admission"
        } ]
      } ],
      "subject": {
        "reference": "Patient/9c33d71f-61b3-4ace-8129-2cdcacfaf99b"
      },
      "period": {
        "start": "2024-01-01T00:00:00.000Z",
        "end": "2024-01-03T01:00:00.000Z"
      }
    },
    "request": {
      "method": "POST",
      "url": "Encounter/ippfail-under18-1"
    }
  }, {
    "fullUrl": "https://madie.cms.gov/Observation/ippfail-under18-2",
    "resource": {
      "resourceType": "Observation",
      "id": "ippfail-under18-2",
      "meta": {
        "profile": [ "http://hl7.org/fhir/us/qicore/StructureDefinition/qicore-observation" ]
      },
      "status": "final",
      "category": [ {
        "coding": [ {
          "system": "http://terminology.hl7.org/CodeSystem/observation-category",
          "code": "imaging",
          "display": "Imaging"
        } ]
      } ],
      "code": {
        "coding": [ {
          "system": "http://loinc.org",
          "code": "96914-7",
          "display": "CT dose and image quality category"
        } ],
        "text": "CT dose and image quality category"
      },
      "subject": {
        "reference": "Patient/9c33d71f-61b3-4ace-8129-2cdcacfaf99b"
      },
      "encounter": {
        "reference": "Encounter/ippfail-under18-1"
      },
      "effectiveDateTime": "2024-01-02T00:00:00.000Z",
      "valueCodeableConcept": {
        "coding": [ {
          "system": "http://loinc.org",
          "code": "LA31752-1",
          "display": "Abdomen and Pelvis Low Dose"
        } ]
      },
      "component": [ {
        "code": {
          "coding": [ {
            "system": "http://loinc.org",
            "code": "96912-1",
            "display": "Calculated CT global noise"
          } ]
        },
        "valueQuantity": {
          "value": 63,
          "unit": "[hnsf'U]",
          "system": "http://unitsofmeasure.org",
          "code": "[hnsf'U]"
        }
      }, {
        "code": {
          "coding": [ {
            "system": "http://loinc.org",
            "code": "96913-9",
            "display": "Calculated CT size-adjusted dose"
          } ]
        },
        "valueQuantity": {
          "value": 597,
          "unit": "mGy.cm",
          "system": "http://unitsofmeasure.org",
          "code": "mGy.cm"
        }
      } ]
    },
    "request": {
      "method": "POST",
      "url": "Observation/ippfail-under18-2"
    }
  }, {
    "fullUrl": "https://madie.cms.gov/MeasureReport/cd730ec3-6c2c-43cf-adbc-08ea0cbb9f26",
    "resource": {
      "resourceType": "MeasureReport",
      "id": "cd730ec3-6c2c-43cf-adbc-08ea0cbb9f26",
      "meta": {
        "profile": [ "http://hl7.org/fhir/us/cqfmeasures/StructureDefinition/test-case-cqfm" ]
      },
      "contained": [ {
        "resourceType": "Parameters",
        "id": "3f961d6c-59ce-4e22-9808-eea636fd4170-parameters",
        "parameter": [ {
          "name": "subject",
          "valueString": "9c33d71f-61b3-4ace-8129-2cdcacfaf99b"
        } ]
      } ],
      "extension": [ {
        "url": "http://hl7.org/fhir/us/cqfmeasures/StructureDefinition/cqfm-inputParameters",
        "valueReference": {
          "reference": "#3f961d6c-59ce-4e22-9808-eea636fd4170-parameters"
        }
      }, {
        "url": "http://hl7.org/fhir/us/cqfmeasures/StructureDefinition/cqfm-testCaseDescription",
        "valueMarkdown": "Patient is under 18 and fails to meet IPP"
      } ],
      "modifierExtension": [ {
        "url": "http://hl7.org/fhir/us/cqfmeasures/StructureDefinition/cqfm-isTestCase",
        "valueBoolean": true
      } ],
      "status": "complete",
      "type": "individual",
      "measure": "https://madie.cms.gov/Measure/AlaraCTIQRFHIR",
      "period": {
        "start": "2025-01-01",
        "end": "2025-12-31"
      },
      "group": [ {
        "population": [ {
          "code": {
            "coding": [ {
              "system": "http://terminology.hl7.org/CodeSystem/measure-population",
              "code": "initial-population",
              "display": "Initial Population"
            } ]
          },
          "count": 0
        }, {
          "code": {
            "coding": [ {
              "system": "http://terminology.hl7.org/CodeSystem/measure-population",
              "code": "denominator",
              "display": "Denominator"
            } ]
          },
          "count": 0
        }, {
          "code": {
            "coding": [ {
              "system": "http://terminology.hl7.org/CodeSystem/measure-population",
              "code": "denominator-exclusion",
              "display": "Denominator Exclusion"
            } ]
          },
          "count": 0
        }, {
          "code": {
            "coding": [ {
              "system": "http://terminology.hl7.org/CodeSystem/measure-population",
              "code": "numerator",
              "display": "Numerator"
            } ]
          },
          "count": 0
        } ]
      } ],
      "evaluatedResource": [ {
        "reference": "https://madie.cms.gov/Patient/9c33d71f-61b3-4ace-8129-2cdcacfaf99b"
      }, {
        "reference": "https://madie.cms.gov/Encounter/ippfail-under18-1"
      }, {
        "reference": "https://madie.cms.gov/Observation/ippfail-under18-2"
      } ]
    },
    "request": {
      "method": "POST",
      "url": "MeasureReport/cd730ec3-6c2c-43cf-adbc-08ea0cbb9f26"
    }
  } ]
}