{
  "resourceType": "Bundle",
  "id": "NUMERPass-FallNoPOAIndModInjuryNPOA",
  "type": "transaction",
  "entry": [ {
    "fullUrl": "https://madie.cms.gov/Encounter/2dc8840d-1309-4a9a-a44d-82a63ab2c714",
    "resource": {
      "resourceType": "Encounter",
      "id": "2dc8840d-1309-4a9a-a44d-82a63ab2c714",
      "meta": {
        "profile": [ "http://hl7.org/fhir/us/qicore/StructureDefinition/qicore-encounter" ]
      },
      "status": "finished",
      "class": {
        "system": "http://terminology.hl7.org/CodeSystem/v3-ActCode",
        "code": "IMP",
        "display": "inpatient encounter"
      },
      "type": [ {
        "coding": [ {
          "system": "http://snomed.info/sct",
          "code": "183452005"
        } ]
      } ],
      "subject": {
        "reference": "Patient/f1c489fe-5c7d-4e88-9c37-55f10d8b3f8a"
      },
      "period": {
        "start": "2026-11-09T11:00:00+00:00",
        "end": "2026-11-12T08:15:00+00:00"
      },
      "diagnosis": [ {
        "extension": [ {
          "url": "http://hl7.org/fhir/us/qicore/StructureDefinition/qicore-encounter-diagnosisPresentOnAdmission",
          "valueCodeableConcept": {
            "coding": [ {
              "system": "https://www.cms.gov/Medicare/Medicare-Fee-for-Service-Payment/HospitalAcqCond/Coding",
              "code": "N"
            } ]
          }
        } ],
        "condition": {
          "reference": "Condition/90c24b9c-8836-4e65-b163-f01ac0017627"
        }
      }, {
        "condition": {
          "reference": "Condition/b16ae05a-a808-4407-bb10-de87bf54bf8d"
        }
      } ]
    },
    "request": {
      "method": "PUT",
      "url": "Encounter/2dc8840d-1309-4a9a-a44d-82a63ab2c714"
    }
  }, {
    "fullUrl": "https://madie.cms.gov/Encounter/d8d2c6e8-2113-4d67-907e-09d305d3d390",
    "resource": {
      "resourceType": "Encounter",
      "id": "d8d2c6e8-2113-4d67-907e-09d305d3d390",
      "meta": {
        "profile": [ "http://hl7.org/fhir/us/qicore/StructureDefinition/qicore-encounter" ]
      },
      "status": "finished",
      "class": {
        "system": "http://terminology.hl7.org/CodeSystem/v3-ActCode",
        "code": "IMP",
        "display": "inpatient encounter"
      },
      "type": [ {
        "coding": [ {
          "system": "http://snomed.info/sct",
          "code": "4525004"
        } ]
      } ],
      "subject": {
        "reference": "Patient/f1c489fe-5c7d-4e88-9c37-55f10d8b3f8a"
      },
      "period": {
        "start": "2026-11-09T08:00:00+00:00",
        "end": "2026-11-09T10:15:00+00:00"
      }
    },
    "request": {
      "method": "PUT",
      "url": "Encounter/d8d2c6e8-2113-4d67-907e-09d305d3d390"
    }
  }, {
    "fullUrl": "https://madie.cms.gov/Condition/b16ae05a-a808-4407-bb10-de87bf54bf8d",
    "resource": {
      "resourceType": "Condition",
      "id": "b16ae05a-a808-4407-bb10-de87bf54bf8d",
      "meta": {
        "profile": [ "http://hl7.org/fhir/us/qicore/StructureDefinition/qicore-condition" ]
      },
      "clinicalStatus": {
        "coding": [ {
          "system": "http://terminology.hl7.org/CodeSystem/condition-clinical",
          "code": "active"
        } ]
      },
      "verificationStatus": {
        "coding": [ {
          "system": "http://terminology.hl7.org/CodeSystem/condition-ver-status",
          "code": "confirmed"
        } ]
      },
      "category": [ {
        "coding": [ {
          "system": "http://terminology.hl7.org/CodeSystem/condition-category",
          "code": "encounter-diagnosis",
          "display": "Encounter Diagnosis"
        } ]
      } ],
      "code": {
        "coding": [ {
          "system": "http://hl7.org/fhir/sid/icd-10-cm",
          "code": "W01.0XXA"
        } ]
      },
      "subject": {
        "reference": "Patient/f1c489fe-5c7d-4e88-9c37-55f10d8b3f8a"
      },
      "encounter": {
        "reference": "Encounter/2dc8840d-1309-4a9a-a44d-82a63ab2c714"
      }
    },
    "request": {
      "method": "PUT",
      "url": "Condition/b16ae05a-a808-4407-bb10-de87bf54bf8d"
    }
  }, {
    "fullUrl": "https://madie.cms.gov/Condition/90c24b9c-8836-4e65-b163-f01ac0017627",
    "resource": {
      "resourceType": "Condition",
      "id": "90c24b9c-8836-4e65-b163-f01ac0017627",
      "meta": {
        "profile": [ "http://hl7.org/fhir/us/qicore/StructureDefinition/qicore-condition" ]
      },
      "clinicalStatus": {
        "coding": [ {
          "system": "http://terminology.hl7.org/CodeSystem/condition-clinical",
          "code": "active"
        } ]
      },
      "verificationStatus": {
        "coding": [ {
          "system": "http://terminology.hl7.org/CodeSystem/condition-ver-status",
          "code": "confirmed"
        } ]
      },
      "category": [ {
        "coding": [ {
          "system": "http://terminology.hl7.org/CodeSystem/condition-category",
          "code": "encounter-diagnosis",
          "display": "Encounter Diagnosis"
        } ]
      } ],
      "code": {
        "coding": [ {
          "system": "http://hl7.org/fhir/sid/icd-10-cm",
          "code": "S01.00XA"
        } ]
      },
      "subject": {
        "reference": "Patient/f1c489fe-5c7d-4e88-9c37-55f10d8b3f8a"
      },
      "encounter": {
        "reference": "Encounter/2dc8840d-1309-4a9a-a44d-82a63ab2c714"
      }
    },
    "request": {
      "method": "PUT",
      "url": "Condition/90c24b9c-8836-4e65-b163-f01ac0017627"
    }
  }, {
    "fullUrl": "https://madie.cms.gov/Patient/f1c489fe-5c7d-4e88-9c37-55f10d8b3f8a",
    "resource": {
      "resourceType": "Patient",
      "id": "f1c489fe-5c7d-4e88-9c37-55f10d8b3f8a",
      "meta": {
        "profile": [ "http://hl7.org/fhir/us/qicore/StructureDefinition/qicore-patient" ]
      },
      "extension": [ {
        "url": "http://hl7.org/fhir/us/core/StructureDefinition/us-core-race",
        "extension": [ {
          "url": "ombCategory",
          "valueCoding": {
            "system": "urn:oid:2.16.840.1.113883.6.238",
            "code": "2028-9",
            "display": "Asian",
            "userSelected": true
          }
        }, {
          "url": "text",
          "valueString": "Asian"
        } ]
      }, {
        "url": "http://hl7.org/fhir/us/core/StructureDefinition/us-core-ethnicity",
        "extension": [ {
          "url": "ombCategory",
          "valueCoding": {
            "system": "urn:oid:2.16.840.1.113883.6.238",
            "code": "2186-5",
            "display": "Not Hispanic or Latino",
            "userSelected": true
          }
        }, {
          "url": "text",
          "valueString": "Not Hispanic or Latino"
        } ]
      } ],
      "identifier": [ {
        "type": {
          "coding": [ {
            "system": "http://terminology.hl7.org/CodeSystem/v2-0203",
            "code": "MR"
          } ]
        },
        "system": "https://bonnie-fhir.healthit.gov/",
        "value": "61152a3b98086b7a79cbd7c1"
      } ],
      "active": true,
      "name": [ {
        "use": "usual",
        "family": "NUMERPass",
        "given": [ "FallNoPOAIndModInjuryNPOA" ]
      } ],
      "gender": "male",
      "birthDate": "2000-09-09"
    },
    "request": {
      "method": "PUT",
      "url": "Patient/f1c489fe-5c7d-4e88-9c37-55f10d8b3f8a"
    }
  }, {
    "fullUrl": "https://madie.cms.gov/MeasureReport/0d9f38a3-8136-4a8c-b081-4ab19c8ec954",
    "resource": {
      "resourceType": "MeasureReport",
      "id": "0d9f38a3-8136-4a8c-b081-4ab19c8ec954",
      "meta": {
        "profile": [ "http://hl7.org/fhir/us/cqfmeasures/StructureDefinition/test-case-cqfm" ]
      },
      "contained": [ {
        "resourceType": "Parameters",
        "id": "d293cf5c-a6ae-49b5-874c-503411e9c31f-parameters",
        "parameter": [ {
          "name": "subject",
          "valueString": "f1c489fe-5c7d-4e88-9c37-55f10d8b3f8a"
        } ]
      } ],
      "extension": [ {
        "url": "http://hl7.org/fhir/us/cqfmeasures/StructureDefinition/cqfm-inputParameters",
        "valueReference": {
          "reference": "#d293cf5c-a6ae-49b5-874c-503411e9c31f-parameters"
        }
      }, {
        "url": "http://hl7.org/fhir/us/cqfmeasures/StructureDefinition/cqfm-testCaseDescription",
        "valueMarkdown": "Encounter diagnoses include: Fall with no POA indicator, and Moderate injury NPOA. Meets Numerator"
      } ],
      "modifierExtension": [ {
        "url": "http://hl7.org/fhir/us/cqfmeasures/StructureDefinition/cqfm-isTestCase",
        "valueBoolean": true
      } ],
      "status": "complete",
      "type": "individual",
      "measure": "https://madie.cms.gov/Measure/FallsWithInjuryFHIR",
      "period": {
        "start": "2026-01-01",
        "end": "2026-12-31"
      },
      "group": [ {
        "population": [ {
          "code": {
            "coding": [ {
              "system": "http://terminology.hl7.org/CodeSystem/measure-population",
              "code": "initial-population",
              "display": "Initial Population"
            } ]
          },
          "count": 1
        }, {
          "code": {
            "coding": [ {
              "system": "http://terminology.hl7.org/CodeSystem/measure-population",
              "code": "denominator",
              "display": "Denominator"
            } ]
          },
          "count": 1
        }, {
          "code": {
            "coding": [ {
              "system": "http://terminology.hl7.org/CodeSystem/measure-population",
              "code": "denominator-exclusion",
              "display": "Denominator Exclusion"
            } ]
          },
          "count": 0
        }, {
          "code": {
            "coding": [ {
              "system": "http://terminology.hl7.org/CodeSystem/measure-population",
              "code": "numerator",
              "display": "Numerator"
            } ]
          },
          "count": 1
        }, {
          "code": {
            "coding": [ {
              "system": "http://terminology.hl7.org/CodeSystem/measure-population",
              "code": "numerator-exclusion",
              "display": "Numerator Exclusion"
            } ]
          },
          "count": 0
        }, {
          "code": {
            "coding": [ {
              "system": "http://terminology.hl7.org/CodeSystem/measure-population",
              "code": "denominator-observation",
              "display": "DenominatorObservation"
            } ]
          },
          "count": 3
        }, {
          "code": {
            "coding": [ {
              "system": "http://terminology.hl7.org/CodeSystem/measure-population",
              "code": "numerator-observation",
              "display": "Numerator Observation"
            } ]
          },
          "count": 1
        } ]
      } ],
      "evaluatedResource": [ {
        "reference": "Encounter/2dc8840d-1309-4a9a-a44d-82a63ab2c714"
      }, {
        "reference": "Encounter/d8d2c6e8-2113-4d67-907e-09d305d3d390"
      }, {
        "reference": "Condition/b16ae05a-a808-4407-bb10-de87bf54bf8d"
      }, {
        "reference": "Condition/90c24b9c-8836-4e65-b163-f01ac0017627"
      }, {
        "reference": "Patient/f1c489fe-5c7d-4e88-9c37-55f10d8b3f8a"
      } ]
    },
    "request": {
      "method": "PUT",
      "url": "MeasureReport/0d9f38a3-8136-4a8c-b081-4ab19c8ec954"
    }
  } ]
}