{"resourceType":"Bundle","id":"tests-42be9d46-4c2f-4493-8299-d33dcbb7170e-bundle","type":"transaction","entry":[{"fullUrl":"https://madie.cms.gov/Patient/42be9d46-4c2f-4493-8299-d33dcbb7170e","resource":{"resourceType":"Patient","id":"42be9d46-4c2f-4493-8299-d33dcbb7170e","meta":{"profile":["http://hl7.org/fhir/us/qicore/StructureDefinition/qicore-patient"]},"extension":[{"url":"http://hl7.org/fhir/us/core/StructureDefinition/us-core-race","extension":[{"url":"ombCategory","valueCoding":{"system":"urn:oid:2.16.840.1.113883.6.238","code":"1002-5","display":"American Indian or Alaska Native","userSelected":true}},{"url":"text","valueString":"American Indian or Alaska Native"}]},{"url":"http://hl7.org/fhir/us/core/StructureDefinition/us-core-ethnicity","extension":[{"url":"ombCategory","valueCoding":{"system":"urn:oid:2.16.840.1.113883.6.238","code":"2135-2","display":"Hispanic or Latino","userSelected":true}},{"url":"text","valueString":"Hispanic or Latino"}]}],"identifier":[{"type":{"coding":[{"system":"http://terminology.hl7.org/CodeSystem/v2-0203","code":"MR"}]},"system":"https://bonnie-fhir.healthit.gov/","value":"661476b015ed5841a5547ebf"}],"name":[{"family":"NUMERStrat4Pass","given":["EDObsBoarded"]}],"gender":"male","birthDate":"2008-01-01"},"request":{"method":"PUT","url":"Patient/42be9d46-4c2f-4493-8299-d33dcbb7170e"}},{"fullUrl":"https://madie.cms.gov/Encounter/5b365dae-bef1-4006-8f4c-3888b4010d57","resource":{"resourceType":"Encounter","id":"5b365dae-bef1-4006-8f4c-3888b4010d57","meta":{"profile":["http://hl7.org/fhir/us/qicore/StructureDefinition/qicore-encounter"]},"status":"finished","class":{"system":"http://terminology.hl7.org/CodeSystem/v3-ActCode","code":"EMER","display":"emergency department"},"type":[{"coding":[{"system":"http://snomed.info/sct","version":"2023-09","code":"4525004","display":"Emergency department patient visit (procedure)","userSelected":true}]}],"subject":{"reference":"Patient/42be9d46-4c2f-4493-8299-d33dcbb7170e"},"period":{"start":"2026-01-01T00:00:00.000+00:00","end":"2026-01-01T06:00:00.000+00:00"},"diagnosis":[{"condition":{"reference":"Condition/1bafd093-2cb4-4d05-b727-9451d5ed61a4"},"use":{"coding":[{"system":"http://terminology.hl7.org/CodeSystem/diagnosis-role","code":"billing"}]},"rank":1}],"location":[{"location":{"reference":"Location/a92defc3-71f7-4c18-8483-f71fee07856a"},"period":{"start":"2026-01-01T00:00:00.000+00:00","end":"2026-01-01T10:01:00.000+00:00"}}]},"request":{"method":"PUT","url":"Encounter/5b365dae-bef1-4006-8f4c-3888b4010d57"}},{"fullUrl":"https://madie.cms.gov/ServiceRequest/b2454e01-3258-4cd3-bc4f-7512a1472c4d","resource":{"resourceType":"ServiceRequest","id":"b2454e01-3258-4cd3-bc4f-7512a1472c4d","meta":{"profile":["http://hl7.org/fhir/us/qicore/StructureDefinition/qicore-servicerequest"]},"status":"active","intent":"order","code":{"coding":[{"system":"http://snomed.info/sct","code":"448551000124100","display":"Patient transfer to another hospital (procedure)","userSelected":true}]},"subject":{"reference":"Patient/42be9d46-4c2f-4493-8299-d33dcbb7170e"},"authoredOn":"2026-01-01T02:00:00.000+00:00"},"request":{"method":"PUT","url":"ServiceRequest/b2454e01-3258-4cd3-bc4f-7512a1472c4d"}},{"fullUrl":"https://madie.cms.gov/Location/a92defc3-71f7-4c18-8483-f71fee07856a","resource":{"resourceType":"Location","id":"a92defc3-71f7-4c18-8483-f71fee07856a","meta":{"profile":["http://hl7.org/fhir/us/qicore/StructureDefinition/qicore-location"]},"identifier":[{"use":"usual","system":"http://exampleoflocation.com","value":"B1-S.F2"}],"name":"Emergency Department","type":[{"coding":[{"system":"https://www.cdc.gov/nhsn/cdaportal/terminology/codesystem/hsloc.html","version":"2022","code":"1108-0","display":"Emergency Department","userSelected":true}]}]},"request":{"method":"PUT","url":"Location/a92defc3-71f7-4c18-8483-f71fee07856a"}},{"fullUrl":"https://madie.cms.gov/Coverage/7fa8be43-5ae3-4015-a1e9-3b00cbae3db9","resource":{"resourceType":"Coverage","id":"7fa8be43-5ae3-4015-a1e9-3b00cbae3db9","meta":{"profile":["http://hl7.org/fhir/us/qicore/StructureDefinition/qicore-coverage"]},"status":"active","beneficiary":{"reference":"Patient/42be9d46-4c2f-4493-8299-d33dcbb7170e"},"payor":[{"reference":"Organization/607fdef9-3983-4cef-ab1a-95434d29b463"}]},"request":{"method":"PUT","url":"Coverage/7fa8be43-5ae3-4015-a1e9-3b00cbae3db9"}},{"fullUrl":"https://madie.cms.gov/Condition/1bafd093-2cb4-4d05-b727-9451d5ed61a4","resource":{"resourceType":"Condition","id":"1bafd093-2cb4-4d05-b727-9451d5ed61a4","meta":{"profile":["http://hl7.org/fhir/us/qicore/StructureDefinition/qicore-condition"]},"category":[{"coding":[{"system":"http://terminology.hl7.org/CodeSystem/condition-category","code":"encounter-diagnosis","display":"Encounter Diagnosis"}]}],"code":{"coding":[{"system":"http://snomed.info/sct","version":"2023-09","code":"10349009","display":"Multi-infarct dementia with delirium (disorder)","userSelected":true}]},"subject":{"reference":"Patient/42be9d46-4c2f-4493-8299-d33dcbb7170e"},"recordedDate":"2026-01-01T08:00:00.000+00:00"},"request":{"method":"PUT","url":"Condition/1bafd093-2cb4-4d05-b727-9451d5ed61a4"}},{"fullUrl":"https://madie.cms.gov/Encounter/db9160a3-0cc3-4dfe-9ca9-5b3911d7c349","resource":{"resourceType":"Encounter","id":"db9160a3-0cc3-4dfe-9ca9-5b3911d7c349","meta":{"profile":["http://hl7.org/fhir/us/qicore/StructureDefinition/qicore-encounter"]},"status":"finished","class":{"system":"http://terminology.hl7.org/CodeSystem/v3-ActCode","code":"EMER","display":"emergency"},"type":[{"coding":[{"system":"http://www.ama-assn.org/go/cpt","version":"2024","code":"99221","display":"Initial hospital inpatient or observation care, per day, for the evaluation and management of a patient, which requires a medically appropriate history and/or examination and straightforward or low level medical decision making. When using total time on the date of the encounter for code selection, 40 minutes must be met or exceeded.","userSelected":true}]}],"subject":{"reference":"Patient/42be9d46-4c2f-4493-8299-d33dcbb7170e"},"period":{"start":"2026-01-01T01:01:00.000+00:00","end":"2026-01-01T05:59:00.000+00:00"}},"request":{"method":"PUT","url":"Encounter/db9160a3-0cc3-4dfe-9ca9-5b3911d7c349"}},{"fullUrl":"https://madie.cms.gov/Organization/0c64137d-ca26-463a-81e3-de100cad8cda","resource":{"resourceType":"Organization","id":"607fdef9-3983-4cef-ab1a-95434d29b463","meta":{"profile":["http://hl7.org/fhir/us/qicore/StructureDefinition/qicore-organization"]},"identifier":[{"use":"temp","system":"urn:oid:2.16.840.1.113883.4.4","value":"21-3259825"}],"active":true,"type":[{"coding":[{"system":"http://terminology.hl7.org/CodeSystem/organization-type","code":"pay","display":"Payer"}]}],"name":"Blue Cross Blue Shield of Texas","telecom":[{"system":"phone","value":"(+1) 972-766-6900"}],"address":[{"use":"billing","type":"postal","line":["P.O. Box 660044"],"city":"Dallas","state":"TX","postalCode":"75266-0044","country":"USA"}]},"request":{"method":"PUT","url":"Organization/607fdef9-3983-4cef-ab1a-95434d29b463"}},{"fullUrl":"https://madie.cms.gov/Practitioner/326b45f4-fbf2-444d-989e-266fd8f020e5","resource":{"resourceType":"Practitioner","id":"326b45f4-fbf2-444d-989e-266fd8f020e5","meta":{"profile":["http://hl7.org/fhir/us/qicore/StructureDefinition/qicore-practitioner"]},"identifier":[{"system":"http://hl7.org/fhir/sid/us-npi","value":"123456"}],"name":[{"family":"Evil","prefix":["Dr"]}]},"request":{"method":"PUT","url":"Practitioner/326b45f4-fbf2-444d-989e-266fd8f020e5"}},{"fullUrl":"https://madie.cms.gov/MeasureReport/33cbcc87-2373-4368-89f2-2f7a0756a08e","resource":{"resourceType":"MeasureReport","id":"33cbcc87-2373-4368-89f2-2f7a0756a08e","meta":{"profile":["http://hl7.org/fhir/us/cqfmeasures/StructureDefinition/test-case-cqfm"]},"contained":[{"resourceType":"Parameters","id":"8273e7fe-50ad-400d-805e-f740ea004e8d-parameters","parameter":[{"name":"subject","valueString":"42be9d46-4c2f-4493-8299-d33dcbb7170e"}]}],"extension":[{"url":"http://hl7.org/fhir/us/cqfmeasures/StructureDefinition/cqfm-inputParameters","valueReference":{"reference":"#8273e7fe-50ad-400d-805e-f740ea004e8d-parameters"}},{"url":"http://hl7.org/fhir/us/cqfmeasures/StructureDefinition/cqfm-testCaseDescription","valueMarkdown":"Adult, ED observation during ED enc where patient was boarded 6 hrs 1 min; Enc 8 hrs, enc departure 8 hrs 1 min."}],"modifierExtension":[{"url":"http://hl7.org/fhir/us/cqfmeasures/StructureDefinition/cqfm-isTestCase","valueBoolean":true}],"status":"complete","type":"individual","measure":"https://madie.cms.gov/Measure/CMS1264ECCQREHQRFHIR","period":{"start":"2026-01-01","end":"2026-12-31"},"group":[{"population":[{"code":{"coding":[{"system":"http://terminology.hl7.org/CodeSystem/measure-population","code":"initial-population","display":"Initial Population"}]},"count":1},{"code":{"coding":[{"system":"http://terminology.hl7.org/CodeSystem/measure-population","code":"denominator","display":"Denominator"}]},"count":1},{"code":{"coding":[{"system":"http://terminology.hl7.org/CodeSystem/measure-population","code":"numerator","display":"Numerator"}]},"count":0}]}]},"request":{"method":"PUT","url":"MeasureReport/33cbcc87-2373-4368-89f2-2f7a0756a08e"}}]}