{"resourceType":"Bundle","id":"tests-7dd19e80-23c6-4e31-86a9-bb833cfc676b-bundle","type":"transaction","entry":[{"fullUrl":"https://madie.cms.gov/Patient/7dd19e80-23c6-4e31-86a9-bb833cfc676b","resource":{"resourceType":"Patient","id":"7dd19e80-23c6-4e31-86a9-bb833cfc676b","meta":{"profile":["http://hl7.org/fhir/us/qicore/StructureDefinition/qicore-patient"]},"extension":[{"url":"http://hl7.org/fhir/us/core/StructureDefinition/us-core-race","extension":[{"url":"ombCategory","valueCoding":{"system":"urn:oid:2.16.840.1.113883.6.238","code":"1002-5","display":"American Indian or Alaska Native","userSelected":true}},{"url":"text","valueString":"American Indian or Alaska Native"}]},{"url":"http://hl7.org/fhir/us/core/StructureDefinition/us-core-ethnicity","extension":[{"url":"ombCategory","valueCoding":{"system":"urn:oid:2.16.840.1.113883.6.238","code":"2135-2","display":"Hispanic or Latino","userSelected":true}},{"url":"text","valueString":"Hispanic or Latino"}]}],"identifier":[{"type":{"coding":[{"system":"http://terminology.hl7.org/CodeSystem/v2-0203","code":"MR"}]},"system":"https://bonnie-fhir.healthit.gov/","value":"661476b015ed5841a5547ebf"}],"name":[{"family":"NUMERStrat2Fail","given":["EDLOS480Minutes"]}],"gender":"male","birthDate":"2008-01-01"},"request":{"method":"PUT","url":"Patient/7dd19e80-23c6-4e31-86a9-bb833cfc676b"}},{"fullUrl":"https://madie.cms.gov/Encounter/a0346319-a338-4741-91b6-0a836da20e8d","resource":{"resourceType":"Encounter","id":"a0346319-a338-4741-91b6-0a836da20e8d","meta":{"profile":["http://hl7.org/fhir/us/qicore/StructureDefinition/qicore-encounter"]},"status":"finished","class":{"system":"http://terminology.hl7.org/CodeSystem/v3-ActCode","code":"EMER","display":"emergency department"},"type":[{"coding":[{"system":"http://snomed.info/sct","version":"2023-09","code":"4525004","display":"Emergency department patient visit (procedure)","userSelected":true}]}],"subject":{"reference":"Patient/7dd19e80-23c6-4e31-86a9-bb833cfc676b"},"period":{"start":"2026-01-01T06:00:00.000+00:00","end":"2026-01-01T14:01:00.000+00:00"},"diagnosis":[{"condition":{"reference":"Condition/dfb3ad82-1151-44a7-a40d-288f3f7e1fcd"},"use":{"coding":[{"system":"http://terminology.hl7.org/CodeSystem/diagnosis-role","code":"billing"}]},"rank":1}],"location":[{"location":{"reference":"Location/0621bfc6-04c6-43ef-a6e0-1203d10c1e13"},"period":{"start":"2026-01-01T06:00:00.000+00:00","end":"2026-01-01T14:00:00.000+00:00"}}]},"request":{"method":"PUT","url":"Encounter/a0346319-a338-4741-91b6-0a836da20e8d"}},{"fullUrl":"https://madie.cms.gov/Location/0621bfc6-04c6-43ef-a6e0-1203d10c1e13","resource":{"resourceType":"Location","id":"0621bfc6-04c6-43ef-a6e0-1203d10c1e13","meta":{"profile":["http://hl7.org/fhir/us/qicore/StructureDefinition/qicore-location"]},"identifier":[{"use":"usual","system":"http://exampleoflocation.com","value":"B1-S.F2"}],"name":"Emergency Department","type":[{"coding":[{"system":"https://www.cdc.gov/nhsn/cdaportal/terminology/codesystem/hsloc.html","version":"2022","code":"1108-0","display":"Emergency Department","userSelected":true}]}]},"request":{"method":"PUT","url":"Location/0621bfc6-04c6-43ef-a6e0-1203d10c1e13"}},{"fullUrl":"https://madie.cms.gov/Condition/dfb3ad82-1151-44a7-a40d-288f3f7e1fcd","resource":{"resourceType":"Condition","id":"dfb3ad82-1151-44a7-a40d-288f3f7e1fcd","meta":{"profile":["http://hl7.org/fhir/us/qicore/StructureDefinition/qicore-condition"]},"category":[{"coding":[{"system":"http://terminology.hl7.org/CodeSystem/condition-category","code":"encounter-diagnosis","display":"Encounter Diagnosis"}]}],"code":{"coding":[{"system":"http://snomed.info/sct","version":"2023-09","code":"10660471000119109","display":"Ulcer of left foot due to type 2 diabetes mellitus (disorder)","userSelected":true}]},"subject":{"reference":"Patient/7dd19e80-23c6-4e31-86a9-bb833cfc676b"},"recordedDate":"2026-01-01T08:00:00.000+00:00"},"request":{"method":"PUT","url":"Condition/dfb3ad82-1151-44a7-a40d-288f3f7e1fcd"}},{"fullUrl":"https://madie.cms.gov/Coverage/0115aded-d28b-4cb0-aa91-46dd53511377","resource":{"resourceType":"Coverage","id":"0115aded-d28b-4cb0-aa91-46dd53511377","meta":{"profile":["http://hl7.org/fhir/us/qicore/StructureDefinition/qicore-coverage"]},"status":"active","beneficiary":{"reference":"Patient/7dd19e80-23c6-4e31-86a9-bb833cfc676b"},"payor":[{"reference":"Organization/e75793c9-fdf6-463a-8c1d-4ee44320dc25"}]},"request":{"method":"PUT","url":"Coverage/0115aded-d28b-4cb0-aa91-46dd53511377"}},{"fullUrl":"https://madie.cms.gov/Organization/ccdaadf8-a15a-48b0-92ad-59a5440f9094","resource":{"resourceType":"Organization","id":"e75793c9-fdf6-463a-8c1d-4ee44320dc25","meta":{"profile":["http://hl7.org/fhir/us/qicore/StructureDefinition/qicore-organization"]},"identifier":[{"use":"temp","system":"urn:oid:2.16.840.1.113883.4.4","value":"21-3259825"}],"active":true,"type":[{"coding":[{"system":"http://terminology.hl7.org/CodeSystem/organization-type","code":"pay","display":"Payer"}]}],"name":"Blue Cross Blue Shield of Texas","telecom":[{"system":"phone","value":"(+1) 972-766-6900"}],"address":[{"use":"billing","type":"postal","line":["P.O. Box 660044"],"city":"Dallas","state":"TX","postalCode":"75266-0044","country":"USA"}]},"request":{"method":"PUT","url":"Organization/e75793c9-fdf6-463a-8c1d-4ee44320dc25"}},{"fullUrl":"https://madie.cms.gov/Practitioner/92386c5e-ad60-4053-8b92-9066c246d52f","resource":{"resourceType":"Practitioner","id":"92386c5e-ad60-4053-8b92-9066c246d52f","meta":{"profile":["http://hl7.org/fhir/us/qicore/StructureDefinition/qicore-practitioner"]},"identifier":[{"system":"http://hl7.org/fhir/sid/us-npi","value":"123456"}],"name":[{"family":"Evil","prefix":["Dr"]}]},"request":{"method":"PUT","url":"Practitioner/92386c5e-ad60-4053-8b92-9066c246d52f"}},{"fullUrl":"https://madie.cms.gov/MeasureReport/da96aca2-565e-4cf4-87e3-498537c415a0","resource":{"resourceType":"MeasureReport","id":"da96aca2-565e-4cf4-87e3-498537c415a0","meta":{"profile":["http://hl7.org/fhir/us/cqfmeasures/StructureDefinition/test-case-cqfm"]},"contained":[{"resourceType":"Parameters","id":"f576f34f-be88-449a-bc6e-431b6dceb4a0-parameters","parameter":[{"name":"subject","valueString":"7dd19e80-23c6-4e31-86a9-bb833cfc676b"}]}],"extension":[{"url":"http://hl7.org/fhir/us/cqfmeasures/StructureDefinition/cqfm-inputParameters","valueReference":{"reference":"#f576f34f-be88-449a-bc6e-431b6dceb4a0-parameters"}},{"url":"http://hl7.org/fhir/us/cqfmeasures/StructureDefinition/cqfm-testCaseDescription","valueMarkdown":"ED enc first day of MP lasting 481 minutes (start to end) but ED LOS 480 (arrival to departure)"}],"modifierExtension":[{"url":"http://hl7.org/fhir/us/cqfmeasures/StructureDefinition/cqfm-isTestCase","valueBoolean":true}],"status":"complete","type":"individual","measure":"https://madie.cms.gov/Measure/CMS1264ECCQREHQRFHIR","period":{"start":"2026-01-01","end":"2026-12-31"},"group":[{"population":[{"code":{"coding":[{"system":"http://terminology.hl7.org/CodeSystem/measure-population","code":"initial-population","display":"Initial Population"}]},"count":1},{"code":{"coding":[{"system":"http://terminology.hl7.org/CodeSystem/measure-population","code":"denominator","display":"Denominator"}]},"count":1},{"code":{"coding":[{"system":"http://terminology.hl7.org/CodeSystem/measure-population","code":"numerator","display":"Numerator"}]},"count":0}]}]},"request":{"method":"PUT","url":"MeasureReport/da96aca2-565e-4cf4-87e3-498537c415a0"}}]}