{"resourceType":"Bundle","id":"tests-040dc7b1-27f9-43a3-82c9-b1a514db3071-bundle","type":"transaction","entry":[{"fullUrl":"https://madie.cms.gov/Patient/040dc7b1-27f9-43a3-82c9-b1a514db3071","resource":{"resourceType":"Patient","id":"040dc7b1-27f9-43a3-82c9-b1a514db3071","meta":{"profile":["http://hl7.org/fhir/us/qicore/StructureDefinition/qicore-patient"]},"extension":[{"url":"http://hl7.org/fhir/us/core/StructureDefinition/us-core-race","extension":[{"url":"ombCategory","valueCoding":{"system":"urn:oid:2.16.840.1.113883.6.238","code":"1002-5","display":"American Indian or Alaska Native","userSelected":true}},{"url":"text","valueString":"American Indian or Alaska Native"}]},{"url":"http://hl7.org/fhir/us/core/StructureDefinition/us-core-ethnicity","extension":[{"url":"ombCategory","valueCoding":{"system":"urn:oid:2.16.840.1.113883.6.238","code":"2135-2","display":"Hispanic or Latino","userSelected":true}},{"url":"text","valueString":"Hispanic or Latino"}]}],"identifier":[{"type":{"coding":[{"system":"http://terminology.hl7.org/CodeSystem/v2-0203","code":"MR"}]},"system":"https://bonnie-fhir.healthit.gov/","value":"661476b015ed5841a5547ebf"}],"name":[{"family":"NUMERStrat3Pass","given":["OrderToTransferGreaterThan240MinBeforeDeparture"]}],"gender":"male","birthDate":"2009-01-01"},"request":{"method":"PUT","url":"Patient/040dc7b1-27f9-43a3-82c9-b1a514db3071"}},{"fullUrl":"https://madie.cms.gov/Encounter/c2e3902c-a88f-472b-9269-f94bcbd91317","resource":{"resourceType":"Encounter","id":"c2e3902c-a88f-472b-9269-f94bcbd91317","meta":{"profile":["http://hl7.org/fhir/us/qicore/StructureDefinition/qicore-encounter"]},"status":"finished","class":{"system":"http://terminology.hl7.org/CodeSystem/v3-ActCode","code":"EMER","display":"emergency department"},"type":[{"coding":[{"system":"http://snomed.info/sct","version":"2023-09","code":"4525004","display":"Emergency department patient visit (procedure)","userSelected":true}]}],"subject":{"reference":"Patient/040dc7b1-27f9-43a3-82c9-b1a514db3071"},"period":{"start":"2026-01-01T00:00:00.000+00:00","end":"2026-01-01T06:00:00.000+00:00"},"diagnosis":[{"condition":{"reference":"Condition/d4d39e65-07f6-470f-936c-27acffb30620"},"use":{"coding":[{"system":"http://terminology.hl7.org/CodeSystem/diagnosis-role","code":"billing"}]},"rank":1}],"location":[{"location":{"reference":"Location/41e2169c-ea6c-4ffe-9f83-2071514eebc5"},"period":{"start":"2026-01-01T00:00:00.000+00:00","end":"2026-01-01T06:01:00.000+00:00"}}]},"request":{"method":"PUT","url":"Encounter/c2e3902c-a88f-472b-9269-f94bcbd91317"}},{"fullUrl":"https://madie.cms.gov/ServiceRequest/23f6f735-0d8e-419c-b0b9-e107bc72a4ba","resource":{"resourceType":"ServiceRequest","id":"23f6f735-0d8e-419c-b0b9-e107bc72a4ba","meta":{"profile":["http://hl7.org/fhir/us/qicore/StructureDefinition/qicore-servicerequest"]},"status":"completed","intent":"order","code":{"coding":[{"system":"http://snomed.info/sct","code":"19712007","display":"Patient transfer, to another health care facility (procedure)","userSelected":true}]},"subject":{"reference":"Patient/040dc7b1-27f9-43a3-82c9-b1a514db3071"},"authoredOn":"2026-01-01T02:00:00.000+00:00"},"request":{"method":"PUT","url":"ServiceRequest/23f6f735-0d8e-419c-b0b9-e107bc72a4ba"}},{"fullUrl":"https://madie.cms.gov/Location/41e2169c-ea6c-4ffe-9f83-2071514eebc5","resource":{"resourceType":"Location","id":"41e2169c-ea6c-4ffe-9f83-2071514eebc5","meta":{"profile":["http://hl7.org/fhir/us/qicore/StructureDefinition/qicore-location"]},"identifier":[{"use":"usual","system":"http://exampleoflocation.com","value":"B1-S.F2"}],"name":"Emergency Department","type":[{"coding":[{"system":"https://www.cdc.gov/nhsn/cdaportal/terminology/codesystem/hsloc.html","version":"2022","code":"1108-0","display":"Emergency Department","userSelected":true}]}]},"request":{"method":"PUT","url":"Location/41e2169c-ea6c-4ffe-9f83-2071514eebc5"}},{"fullUrl":"https://madie.cms.gov/Coverage/f2d13eb0-0e46-47c5-b6b1-b69397ac3b6d","resource":{"resourceType":"Coverage","id":"f2d13eb0-0e46-47c5-b6b1-b69397ac3b6d","meta":{"profile":["http://hl7.org/fhir/us/qicore/StructureDefinition/qicore-coverage"]},"status":"active","beneficiary":{"reference":"Patient/040dc7b1-27f9-43a3-82c9-b1a514db3071"},"payor":[{"reference":"Organization/3e899f33-84eb-4634-a770-a5a0bd7a80e7"}]},"request":{"method":"PUT","url":"Coverage/f2d13eb0-0e46-47c5-b6b1-b69397ac3b6d"}},{"fullUrl":"https://madie.cms.gov/Condition/d4d39e65-07f6-470f-936c-27acffb30620","resource":{"resourceType":"Condition","id":"d4d39e65-07f6-470f-936c-27acffb30620","meta":{"profile":["http://hl7.org/fhir/us/qicore/StructureDefinition/qicore-condition"]},"category":[{"coding":[{"system":"http://terminology.hl7.org/CodeSystem/condition-category","code":"encounter-diagnosis","display":"Encounter Diagnosis"}]}],"code":{"coding":[{"system":"http://snomed.info/sct","version":"2023-09","code":"10349009","display":"Multi-infarct dementia with delirium (disorder)","userSelected":true}]},"subject":{"reference":"Patient/040dc7b1-27f9-43a3-82c9-b1a514db3071"},"recordedDate":"2026-01-01T08:00:00.000+00:00"},"request":{"method":"PUT","url":"Condition/d4d39e65-07f6-470f-936c-27acffb30620"}},{"fullUrl":"https://madie.cms.gov/Organization/0b15acae-3cb1-4ff5-923e-910279badfe4","resource":{"resourceType":"Organization","id":"3e899f33-84eb-4634-a770-a5a0bd7a80e7","meta":{"profile":["http://hl7.org/fhir/us/qicore/StructureDefinition/qicore-organization"]},"identifier":[{"use":"temp","system":"urn:oid:2.16.840.1.113883.4.4","value":"21-3259825"}],"active":true,"type":[{"coding":[{"system":"http://terminology.hl7.org/CodeSystem/organization-type","code":"pay","display":"Payer"}]}],"name":"Blue Cross Blue Shield of Texas","telecom":[{"system":"phone","value":"(+1) 972-766-6900"}],"address":[{"use":"billing","type":"postal","line":["P.O. Box 660044"],"city":"Dallas","state":"TX","postalCode":"75266-0044","country":"USA"}]},"request":{"method":"PUT","url":"Organization/3e899f33-84eb-4634-a770-a5a0bd7a80e7"}},{"fullUrl":"https://madie.cms.gov/Practitioner/684b5fe7-d3fd-4595-8b23-700f80283171","resource":{"resourceType":"Practitioner","id":"684b5fe7-d3fd-4595-8b23-700f80283171","meta":{"profile":["http://hl7.org/fhir/us/qicore/StructureDefinition/qicore-practitioner"]},"identifier":[{"system":"http://hl7.org/fhir/sid/us-npi","value":"123456"}],"name":[{"family":"Evil","prefix":["Dr"]}]},"request":{"method":"PUT","url":"Practitioner/684b5fe7-d3fd-4595-8b23-700f80283171"}},{"fullUrl":"https://madie.cms.gov/MeasureReport/920b7111-e6cc-42eb-8e2b-8ccc3a23a9b7","resource":{"resourceType":"MeasureReport","id":"920b7111-e6cc-42eb-8e2b-8ccc3a23a9b7","meta":{"profile":["http://hl7.org/fhir/us/cqfmeasures/StructureDefinition/test-case-cqfm"]},"contained":[{"resourceType":"Parameters","id":"f4d418f8-9e2a-4144-a4d9-13bed7d08310-parameters","parameter":[{"name":"subject","valueString":"040dc7b1-27f9-43a3-82c9-b1a514db3071"}]}],"extension":[{"url":"http://hl7.org/fhir/us/cqfmeasures/StructureDefinition/cqfm-inputParameters","valueReference":{"reference":"#f4d418f8-9e2a-4144-a4d9-13bed7d08310-parameters"}},{"url":"http://hl7.org/fhir/us/cqfmeasures/StructureDefinition/cqfm-testCaseDescription","valueMarkdown":"Enc 1st minute of 1st day of MP; adolescent, with mental illness, transferred"}],"modifierExtension":[{"url":"http://hl7.org/fhir/us/cqfmeasures/StructureDefinition/cqfm-isTestCase","valueBoolean":true}],"status":"complete","type":"individual","measure":"https://madie.cms.gov/Measure/CMS1264ECCQREHQRFHIR","period":{"start":"2026-01-01","end":"2026-12-31"},"group":[{"population":[{"code":{"coding":[{"system":"http://terminology.hl7.org/CodeSystem/measure-population","code":"initial-population","display":"Initial Population"}]},"count":1},{"code":{"coding":[{"system":"http://terminology.hl7.org/CodeSystem/measure-population","code":"denominator","display":"Denominator"}]},"count":1},{"code":{"coding":[{"system":"http://terminology.hl7.org/CodeSystem/measure-population","code":"numerator","display":"Numerator"}]},"count":1}]}]},"request":{"method":"PUT","url":"MeasureReport/920b7111-e6cc-42eb-8e2b-8ccc3a23a9b7"}}]}