{"resourceType":"Bundle","id":"tests-21b841f6-b863-4c1d-8798-41c527b04a92-bundle","type":"transaction","entry":[{"fullUrl":"https://madie.cms.gov/Patient/21b841f6-b863-4c1d-8798-41c527b04a92","resource":{"resourceType":"Patient","id":"21b841f6-b863-4c1d-8798-41c527b04a92","meta":{"profile":["http://hl7.org/fhir/us/qicore/StructureDefinition/qicore-patient"]},"extension":[{"url":"http://hl7.org/fhir/us/core/StructureDefinition/us-core-race","extension":[{"url":"ombCategory","valueCoding":{"system":"urn:oid:2.16.840.1.113883.6.238","code":"1002-5","display":"American Indian or Alaska Native","userSelected":true}},{"url":"text","valueString":"American Indian or Alaska Native"}]},{"url":"http://hl7.org/fhir/us/core/StructureDefinition/us-core-ethnicity","extension":[{"url":"ombCategory","valueCoding":{"system":"urn:oid:2.16.840.1.113883.6.238","code":"2135-2","display":"Hispanic or Latino","userSelected":true}},{"url":"text","valueString":"Hispanic or Latino"}]}],"identifier":[{"type":{"coding":[{"system":"http://terminology.hl7.org/CodeSystem/v2-0203","code":"MR"}]},"system":"https://bonnie-fhir.healthit.gov/","value":"661476b015ed5841a5547ebf"}],"name":[{"family":"NUMERStrat4Fail","given":["EDLOS480Minutes"]}],"gender":"male","birthDate":"2008-01-01"},"request":{"method":"PUT","url":"Patient/21b841f6-b863-4c1d-8798-41c527b04a92"}},{"fullUrl":"https://madie.cms.gov/Encounter/54ee7488-806a-400a-ac9e-0f990de4a67f","resource":{"resourceType":"Encounter","id":"54ee7488-806a-400a-ac9e-0f990de4a67f","meta":{"profile":["http://hl7.org/fhir/us/qicore/StructureDefinition/qicore-encounter"]},"status":"finished","class":{"system":"http://terminology.hl7.org/CodeSystem/v3-ActCode","code":"EMER","display":"emergency department"},"type":[{"coding":[{"system":"http://snomed.info/sct","version":"2023-09","code":"4525004","display":"Emergency department patient visit (procedure)","userSelected":true}]}],"subject":{"reference":"Patient/21b841f6-b863-4c1d-8798-41c527b04a92"},"period":{"start":"2026-01-01T00:00:00.000+00:00","end":"2026-01-01T08:00:00.000+00:00"},"diagnosis":[{"condition":{"reference":"Condition/cc515676-d5bc-41b2-aa72-802f34af080b"},"use":{"coding":[{"system":"http://terminology.hl7.org/CodeSystem/diagnosis-role","code":"billing"}]},"rank":1}],"location":[{"location":{"reference":"Location/968ae5d5-e58d-4508-9c61-ecf405639ad5"},"period":{"start":"2026-01-01T00:00:00.000+00:00","end":"2026-01-01T08:00:00.000+00:00"}}]},"request":{"method":"PUT","url":"Encounter/54ee7488-806a-400a-ac9e-0f990de4a67f"}},{"fullUrl":"https://madie.cms.gov/Location/968ae5d5-e58d-4508-9c61-ecf405639ad5","resource":{"resourceType":"Location","id":"968ae5d5-e58d-4508-9c61-ecf405639ad5","meta":{"profile":["http://hl7.org/fhir/us/qicore/StructureDefinition/qicore-location"]},"identifier":[{"use":"usual","system":"http://exampleoflocation.com","value":"B1-S.F2"}],"name":"Emergency Department","type":[{"coding":[{"system":"https://www.cdc.gov/nhsn/cdaportal/terminology/codesystem/hsloc.html","version":"2022","code":"1108-0","display":"Emergency Department","userSelected":true}]}]},"request":{"method":"PUT","url":"Location/968ae5d5-e58d-4508-9c61-ecf405639ad5"}},{"fullUrl":"https://madie.cms.gov/Coverage/2f414d51-40d5-46e5-8dcf-83810a01b686","resource":{"resourceType":"Coverage","id":"2f414d51-40d5-46e5-8dcf-83810a01b686","meta":{"profile":["http://hl7.org/fhir/us/qicore/StructureDefinition/qicore-coverage"]},"status":"active","beneficiary":{"reference":"Patient/21b841f6-b863-4c1d-8798-41c527b04a92"},"payor":[{"reference":"Organization/f7da4368-fb6d-4d73-a75b-f78024cbb18d"}]},"request":{"method":"PUT","url":"Coverage/2f414d51-40d5-46e5-8dcf-83810a01b686"}},{"fullUrl":"https://madie.cms.gov/Condition/cc515676-d5bc-41b2-aa72-802f34af080b","resource":{"resourceType":"Condition","id":"cc515676-d5bc-41b2-aa72-802f34af080b","meta":{"profile":["http://hl7.org/fhir/us/qicore/StructureDefinition/qicore-condition"]},"category":[{"coding":[{"system":"http://terminology.hl7.org/CodeSystem/condition-category","code":"encounter-diagnosis","display":"Encounter Diagnosis"}]}],"code":{"coding":[{"system":"http://snomed.info/sct","version":"2023-09","code":"10349009","display":"Multi-infarct dementia with delirium (disorder)","userSelected":true}]},"subject":{"reference":"Patient/21b841f6-b863-4c1d-8798-41c527b04a92"},"recordedDate":"2026-04-09T08:00:00.000+00:00"},"request":{"method":"PUT","url":"Condition/cc515676-d5bc-41b2-aa72-802f34af080b"}},{"fullUrl":"https://madie.cms.gov/Organization/25a88f36-fa59-4172-b8af-e8723e92d301","resource":{"resourceType":"Organization","id":"f7da4368-fb6d-4d73-a75b-f78024cbb18d","meta":{"profile":["http://hl7.org/fhir/us/qicore/StructureDefinition/qicore-organization"]},"identifier":[{"use":"temp","system":"urn:oid:2.16.840.1.113883.4.4","value":"21-3259825"}],"active":true,"type":[{"coding":[{"system":"http://terminology.hl7.org/CodeSystem/organization-type","code":"pay","display":"Payer"}]}],"name":"Blue Cross Blue Shield of Texas","telecom":[{"system":"phone","value":"(+1) 972-766-6900"}],"address":[{"use":"billing","type":"postal","line":["P.O. Box 660044"],"city":"Dallas","state":"TX","postalCode":"75266-0044","country":"USA"}]},"request":{"method":"PUT","url":"Organization/f7da4368-fb6d-4d73-a75b-f78024cbb18d"}},{"fullUrl":"https://madie.cms.gov/Practitioner/a0659f7e-3d9d-49c5-aeeb-baf69bb41e47","resource":{"resourceType":"Practitioner","id":"a0659f7e-3d9d-49c5-aeeb-baf69bb41e47","meta":{"profile":["http://hl7.org/fhir/us/qicore/StructureDefinition/qicore-practitioner"]},"identifier":[{"system":"http://hl7.org/fhir/sid/us-npi","value":"123456"}],"name":[{"family":"Evil","prefix":["Dr"]}]},"request":{"method":"PUT","url":"Practitioner/a0659f7e-3d9d-49c5-aeeb-baf69bb41e47"}},{"fullUrl":"https://madie.cms.gov/MeasureReport/11d906fd-8e75-40f5-ab4f-bfe48a41d66c","resource":{"resourceType":"MeasureReport","id":"11d906fd-8e75-40f5-ab4f-bfe48a41d66c","meta":{"profile":["http://hl7.org/fhir/us/cqfmeasures/StructureDefinition/test-case-cqfm"]},"contained":[{"resourceType":"Parameters","id":"ae77762c-d075-4b77-b4d9-dcb3758d57de-parameters","parameter":[{"name":"subject","valueString":"21b841f6-b863-4c1d-8798-41c527b04a92"}]}],"extension":[{"url":"http://hl7.org/fhir/us/cqfmeasures/StructureDefinition/cqfm-inputParameters","valueReference":{"reference":"#ae77762c-d075-4b77-b4d9-dcb3758d57de-parameters"}},{"url":"http://hl7.org/fhir/us/cqfmeasures/StructureDefinition/cqfm-testCaseDescription","valueMarkdown":"Adult ED enc first minute of MP LOS is 480 minutes"}],"modifierExtension":[{"url":"http://hl7.org/fhir/us/cqfmeasures/StructureDefinition/cqfm-isTestCase","valueBoolean":true}],"status":"complete","type":"individual","measure":"https://madie.cms.gov/Measure/CMS1264ECCQREHQRFHIR","period":{"start":"2026-01-01","end":"2026-12-31"},"group":[{"population":[{"code":{"coding":[{"system":"http://terminology.hl7.org/CodeSystem/measure-population","code":"initial-population","display":"Initial Population"}]},"count":1},{"code":{"coding":[{"system":"http://terminology.hl7.org/CodeSystem/measure-population","code":"denominator","display":"Denominator"}]},"count":1},{"code":{"coding":[{"system":"http://terminology.hl7.org/CodeSystem/measure-population","code":"numerator","display":"Numerator"}]},"count":0}]}]},"request":{"method":"PUT","url":"MeasureReport/11d906fd-8e75-40f5-ab4f-bfe48a41d66c"}}]}