{"resourceType":"Bundle","id":"tests-3302c6ff-8767-4be7-9c81-f1d98351b247-bundle","type":"transaction","entry":[{"fullUrl":"https://madie.cms.gov/Patient/3302c6ff-8767-4be7-9c81-f1d98351b247","resource":{"resourceType":"Patient","id":"3302c6ff-8767-4be7-9c81-f1d98351b247","meta":{"profile":["http://hl7.org/fhir/us/qicore/StructureDefinition/qicore-patient"]},"extension":[{"url":"http://hl7.org/fhir/us/core/StructureDefinition/us-core-race","extension":[{"url":"ombCategory","valueCoding":{"system":"urn:oid:2.16.840.1.113883.6.238","code":"1002-5","display":"American Indian or Alaska Native","userSelected":true}},{"url":"text","valueString":"American Indian or Alaska Native"}]},{"url":"http://hl7.org/fhir/us/core/StructureDefinition/us-core-ethnicity","extension":[{"url":"ombCategory","valueCoding":{"system":"urn:oid:2.16.840.1.113883.6.238","code":"2135-2","display":"Hispanic or Latino","userSelected":true}},{"url":"text","valueString":"Hispanic or Latino"}]}],"identifier":[{"type":{"coding":[{"system":"http://terminology.hl7.org/CodeSystem/v2-0203","code":"MR"}]},"system":"https://bonnie-fhir.healthit.gov/","value":"661476b015ed5841a5547ebf"}],"name":[{"family":"NUMERStrat1Pass","given":["MultipleEnc1NumerPass1NumerFail"]}],"gender":"male","birthDate":"2010-01-01"},"request":{"method":"PUT","url":"Patient/3302c6ff-8767-4be7-9c81-f1d98351b247"}},{"fullUrl":"https://madie.cms.gov/Encounter/665ac2c4-77da-44a6-9389-4d12b2291b83","resource":{"resourceType":"Encounter","id":"665ac2c4-77da-44a6-9389-4d12b2291b83","meta":{"profile":["http://hl7.org/fhir/us/qicore/StructureDefinition/qicore-encounter"]},"status":"finished","class":{"system":"http://terminology.hl7.org/CodeSystem/v3-ActCode","code":"EMER","display":"emergency department"},"type":[{"coding":[{"system":"http://snomed.info/sct","version":"2023-09","code":"4525004","display":"Emergency department patient visit (procedure)","userSelected":true}]}],"subject":{"reference":"Patient/3302c6ff-8767-4be7-9c81-f1d98351b247"},"period":{"start":"2026-01-01T06:00:00.000+00:00","end":"2026-01-01T14:00:00.000+00:00"},"diagnosis":[{"condition":{"reference":"Condition/ee0b6e13-75f0-4c13-9f13-16fa8d3f7312"},"use":{"coding":[{"system":"http://terminology.hl7.org/CodeSystem/diagnosis-role","code":"billing"}]},"rank":1}],"location":[{"location":{"reference":"Location/0df37c78-cdbb-44ec-aa89-5caa7774db82"},"period":{"start":"2026-01-01T06:00:00.000+00:00","end":"2026-01-01T14:00:00.000+00:00"}}]},"request":{"method":"PUT","url":"Encounter/665ac2c4-77da-44a6-9389-4d12b2291b83"}},{"fullUrl":"https://madie.cms.gov/Encounter/b5c46405-9ed4-438e-814d-f51244f56dec","resource":{"resourceType":"Encounter","id":"b5c46405-9ed4-438e-814d-f51244f56dec","meta":{"profile":["http://hl7.org/fhir/us/qicore/StructureDefinition/qicore-encounter"]},"status":"finished","class":{"system":"http://terminology.hl7.org/CodeSystem/v3-ActCode","code":"EMER","display":"emergency department"},"type":[{"coding":[{"system":"http://snomed.info/sct","version":"2023-09","code":"4525004","display":"Emergency department patient visit (procedure)","userSelected":true}]}],"subject":{"reference":"Patient/3302c6ff-8767-4be7-9c81-f1d98351b247"},"period":{"start":"2026-04-01T06:00:00.000+00:00","end":"2026-04-01T14:01:00.000+00:00"},"diagnosis":[{"condition":{"reference":"Condition/ee0b6e13-75f0-4c13-9f13-16fa8d3f7312"},"use":{"coding":[{"system":"http://terminology.hl7.org/CodeSystem/diagnosis-role","code":"billing"}]},"rank":1}],"location":[{"location":{"reference":"Location/0df37c78-cdbb-44ec-aa89-5caa7774db82"},"period":{"start":"2026-04-01T06:00:00.000+00:00","end":"2026-04-01T14:01:00.000+00:00"}}]},"request":{"method":"PUT","url":"Encounter/b5c46405-9ed4-438e-814d-f51244f56dec"}},{"fullUrl":"https://madie.cms.gov/Condition/ee0b6e13-75f0-4c13-9f13-16fa8d3f7312","resource":{"resourceType":"Condition","id":"ee0b6e13-75f0-4c13-9f13-16fa8d3f7312","meta":{"profile":["http://hl7.org/fhir/us/qicore/StructureDefinition/qicore-condition"]},"category":[{"coding":[{"system":"http://terminology.hl7.org/CodeSystem/condition-category","code":"encounter-diagnosis","display":"Encounter Diagnosis"}]}],"code":{"coding":[{"system":"http://snomed.info/sct","version":"2023-09","code":"10660471000119109","display":"Ulcer of left foot due to type 2 diabetes mellitus (disorder)","userSelected":true}]},"subject":{"reference":"Patient/3302c6ff-8767-4be7-9c81-f1d98351b247"},"recordedDate":"2026-01-01T08:00:00.000+00:00"},"request":{"method":"PUT","url":"Condition/ee0b6e13-75f0-4c13-9f13-16fa8d3f7312"}},{"fullUrl":"https://madie.cms.gov/Location/0df37c78-cdbb-44ec-aa89-5caa7774db82","resource":{"resourceType":"Location","id":"0df37c78-cdbb-44ec-aa89-5caa7774db82","meta":{"profile":["http://hl7.org/fhir/us/qicore/StructureDefinition/qicore-location"]},"identifier":[{"use":"usual","system":"http://exampleoflocation.com","value":"B1-S.F2"}],"name":"Medical Surgical East, first floor","type":[{"coding":[{"system":"https://www.cdc.gov/nhsn/cdaportal/terminology/codesystem/hsloc.html","version":"2022","code":"1108-0","display":"Emergency Department","userSelected":true}]}]},"request":{"method":"PUT","url":"Location/0df37c78-cdbb-44ec-aa89-5caa7774db82"}},{"fullUrl":"https://madie.cms.gov/Coverage/cd234dfd-01cc-49f6-aaf7-e8489bf18947","resource":{"resourceType":"Coverage","id":"cd234dfd-01cc-49f6-aaf7-e8489bf18947","meta":{"profile":["http://hl7.org/fhir/us/qicore/StructureDefinition/qicore-coverage"]},"status":"active","beneficiary":{"reference":"Patient/3302c6ff-8767-4be7-9c81-f1d98351b247"},"payor":[{"reference":"Organization/db141f66-a1cc-407b-9e95-adac27adee14"}]},"request":{"method":"PUT","url":"Coverage/cd234dfd-01cc-49f6-aaf7-e8489bf18947"}},{"fullUrl":"https://madie.cms.gov/Organization/9929002d-2e5e-414d-8da9-5c14d7f94604","resource":{"resourceType":"Organization","id":"db141f66-a1cc-407b-9e95-adac27adee14","meta":{"profile":["http://hl7.org/fhir/us/qicore/StructureDefinition/qicore-organization"]},"identifier":[{"use":"temp","system":"urn:oid:2.16.840.1.113883.4.4","value":"21-3259825"}],"active":true,"type":[{"coding":[{"system":"http://terminology.hl7.org/CodeSystem/organization-type","code":"pay","display":"Payer"}]}],"name":"Blue Cross Blue Shield of Texas","telecom":[{"system":"phone","value":"(+1) 972-766-6900"}],"address":[{"use":"billing","type":"postal","line":["P.O. Box 660044"],"city":"Dallas","state":"TX","postalCode":"75266-0044","country":"USA"}]},"request":{"method":"PUT","url":"Organization/db141f66-a1cc-407b-9e95-adac27adee14"}},{"fullUrl":"https://madie.cms.gov/Practitioner/505dde84-6a8c-4906-b8a5-07413a3a8b52","resource":{"resourceType":"Practitioner","id":"505dde84-6a8c-4906-b8a5-07413a3a8b52","meta":{"profile":["http://hl7.org/fhir/us/qicore/StructureDefinition/qicore-practitioner"]},"identifier":[{"system":"http://hl7.org/fhir/sid/us-npi","value":"123456"}],"name":[{"family":"Evil","prefix":["Dr"]}]},"request":{"method":"PUT","url":"Practitioner/505dde84-6a8c-4906-b8a5-07413a3a8b52"}},{"fullUrl":"https://madie.cms.gov/MeasureReport/9241c170-28ba-4d50-a3c3-38c042a12765","resource":{"resourceType":"MeasureReport","id":"9241c170-28ba-4d50-a3c3-38c042a12765","meta":{"profile":["http://hl7.org/fhir/us/cqfmeasures/StructureDefinition/test-case-cqfm"]},"contained":[{"resourceType":"Parameters","id":"8ff6039d-dead-4aea-9ace-29756a9e0f38-parameters","parameter":[{"name":"subject","valueString":"3302c6ff-8767-4be7-9c81-f1d98351b247"}]}],"extension":[{"url":"http://hl7.org/fhir/us/cqfmeasures/StructureDefinition/cqfm-inputParameters","valueReference":{"reference":"#8ff6039d-dead-4aea-9ace-29756a9e0f38-parameters"}},{"url":"http://hl7.org/fhir/us/cqfmeasures/StructureDefinition/cqfm-testCaseDescription","valueMarkdown":"Encounter in January 240 minutes fails numerator, encounter in April 241 minutes passes numerator.  Adolescent, no mental health diagnosis."}],"modifierExtension":[{"url":"http://hl7.org/fhir/us/cqfmeasures/StructureDefinition/cqfm-isTestCase","valueBoolean":true}],"status":"complete","type":"individual","measure":"https://madie.cms.gov/Measure/CMS1264ECCQREHQRFHIR","period":{"start":"2026-01-01","end":"2026-12-31"},"group":[{"population":[{"code":{"coding":[{"system":"http://terminology.hl7.org/CodeSystem/measure-population","code":"initial-population","display":"Initial Population"}]},"count":2},{"code":{"coding":[{"system":"http://terminology.hl7.org/CodeSystem/measure-population","code":"denominator","display":"Denominator"}]},"count":2},{"code":{"coding":[{"system":"http://terminology.hl7.org/CodeSystem/measure-population","code":"numerator","display":"Numerator"}]},"count":1}]}]},"request":{"method":"PUT","url":"MeasureReport/9241c170-28ba-4d50-a3c3-38c042a12765"}}]}