{"resourceType":"Bundle","id":"tests-e982ec87-76b0-4fe2-b437-ac0503cf2159-bundle","type":"transaction","entry":[{"fullUrl":"https://madie.cms.gov/Patient/e982ec87-76b0-4fe2-b437-ac0503cf2159","resource":{"resourceType":"Patient","id":"e982ec87-76b0-4fe2-b437-ac0503cf2159","meta":{"profile":["http://hl7.org/fhir/us/qicore/StructureDefinition/qicore-patient"]},"extension":[{"url":"http://hl7.org/fhir/us/core/StructureDefinition/us-core-race","extension":[{"url":"ombCategory","valueCoding":{"system":"urn:oid:2.16.840.1.113883.6.238","code":"1002-5","display":"American Indian or Alaska Native","userSelected":true}},{"url":"text","valueString":"American Indian or Alaska Native"}]},{"url":"http://hl7.org/fhir/us/core/StructureDefinition/us-core-ethnicity","extension":[{"url":"ombCategory","valueCoding":{"system":"urn:oid:2.16.840.1.113883.6.238","code":"2135-2","display":"Hispanic or Latino","userSelected":true}},{"url":"text","valueString":"Hispanic or Latino"}]}],"identifier":[{"type":{"coding":[{"system":"http://terminology.hl7.org/CodeSystem/v2-0203","code":"MR"}]},"system":"https://bonnie-fhir.healthit.gov/","value":"6627b12aa014f18eaf21b2c4"}],"name":[{"family":"NUMERStrat1Pass","given":["OrderToTransferGreaterThan240MinBeforeDeparture"]}],"gender":"male","birthDate":"2009-01-01"},"request":{"method":"PUT","url":"Patient/e982ec87-76b0-4fe2-b437-ac0503cf2159"}},{"fullUrl":"https://madie.cms.gov/Encounter/c4c9e0f1-5331-484a-8fb0-870417b11e13","resource":{"resourceType":"Encounter","id":"c4c9e0f1-5331-484a-8fb0-870417b11e13","meta":{"profile":["http://hl7.org/fhir/us/qicore/StructureDefinition/qicore-encounter"]},"status":"finished","class":{"system":"http://terminology.hl7.org/CodeSystem/v3-ActCode","code":"AMB","display":"ambulatory"},"type":[{"coding":[{"system":"http://snomed.info/sct","version":"2023-09","code":"4525004","display":"Emergency department patient visit (procedure)","userSelected":true}]}],"subject":{"reference":"Patient/e982ec87-76b0-4fe2-b437-ac0503cf2159"},"period":{"start":"2026-01-01T01:00:00.000+00:00","end":"2026-01-01T06:01:00.000+00:00"},"diagnosis":[{"condition":{"reference":"Condition/529adf0f-fff5-4762-95e1-c01937eb5e30"},"use":{"coding":[{"system":"http://terminology.hl7.org/CodeSystem/diagnosis-role","code":"billing"}]},"rank":1}],"location":[{"location":{"reference":"Location/bb3fb3da-1468-4106-8e61-31dc8e90c644"},"period":{"start":"2026-01-01T01:00:00.000+00:00","end":"2026-01-01T06:01:00.000+00:00"}}]},"request":{"method":"PUT","url":"Encounter/c4c9e0f1-5331-484a-8fb0-870417b11e13"}},{"fullUrl":"https://madie.cms.gov/Condition/529adf0f-fff5-4762-95e1-c01937eb5e30","resource":{"resourceType":"Condition","id":"529adf0f-fff5-4762-95e1-c01937eb5e30","meta":{"profile":["http://hl7.org/fhir/us/qicore/StructureDefinition/qicore-condition"]},"category":[{"coding":[{"system":"http://terminology.hl7.org/CodeSystem/condition-category","code":"encounter-diagnosis","display":"Encounter Diagnosis"}]}],"code":{"coding":[{"system":"http://snomed.info/sct","version":"2023-09","code":"10660471000119109","display":"Ulcer of left foot due to type 2 diabetes mellitus (disorder)","userSelected":true}]},"subject":{"reference":"Patient/e982ec87-76b0-4fe2-b437-ac0503cf2159"},"recordedDate":"2026-01-01T08:00:00.000+00:00"},"request":{"method":"PUT","url":"Condition/529adf0f-fff5-4762-95e1-c01937eb5e30"}},{"fullUrl":"https://madie.cms.gov/ServiceRequest/d5d025e8-a51d-42a4-b2ce-c1f0f6be47bb","resource":{"resourceType":"ServiceRequest","id":"d5d025e8-a51d-42a4-b2ce-c1f0f6be47bb","meta":{"profile":["http://hl7.org/fhir/us/qicore/StructureDefinition/qicore-servicerequest"]},"status":"completed","intent":"order","code":{"coding":[{"system":"http://snomed.info/sct","code":"19712007","display":"Patient transfer, to another health care facility (procedure)","userSelected":true}]},"subject":{"reference":"Patient/e982ec87-76b0-4fe2-b437-ac0503cf2159"},"authoredOn":"2026-01-01T02:00:00.000+00:00"},"request":{"method":"PUT","url":"ServiceRequest/d5d025e8-a51d-42a4-b2ce-c1f0f6be47bb"}},{"fullUrl":"https://madie.cms.gov/Location/bb3fb3da-1468-4106-8e61-31dc8e90c644","resource":{"resourceType":"Location","id":"bb3fb3da-1468-4106-8e61-31dc8e90c644","meta":{"profile":["http://hl7.org/fhir/us/qicore/StructureDefinition/qicore-location"]},"identifier":[{"use":"usual","system":"http://exampleoflocation.com","value":"B1-S.F2"}],"name":"Emergency Department","type":[{"coding":[{"system":"https://www.cdc.gov/nhsn/cdaportal/terminology/codesystem/hsloc.html","version":"2022","code":"1108-0","display":"Emergency Department","userSelected":true}]}]},"request":{"method":"PUT","url":"Location/bb3fb3da-1468-4106-8e61-31dc8e90c644"}},{"fullUrl":"https://madie.cms.gov/Coverage/2e874879-9273-4b9a-89f6-de9dc816c129","resource":{"resourceType":"Coverage","id":"2e874879-9273-4b9a-89f6-de9dc816c129","meta":{"profile":["http://hl7.org/fhir/us/qicore/StructureDefinition/qicore-coverage"]},"status":"active","beneficiary":{"reference":"Patient/e982ec87-76b0-4fe2-b437-ac0503cf2159"},"payor":[{"reference":"Organization/db141f66-a1cc-407b-9e95-adac27adee14"}]},"request":{"method":"PUT","url":"Coverage/2e874879-9273-4b9a-89f6-de9dc816c129"}},{"fullUrl":"https://madie.cms.gov/Organization/abe9631f-dc2b-47cc-b448-bba3738fc105","resource":{"resourceType":"Organization","id":"db141f66-a1cc-407b-9e95-adac27adee14","meta":{"profile":["http://hl7.org/fhir/us/qicore/StructureDefinition/qicore-organization"]},"identifier":[{"use":"temp","system":"urn:oid:2.16.840.1.113883.4.4","value":"21-3259825"}],"active":true,"type":[{"coding":[{"system":"http://terminology.hl7.org/CodeSystem/organization-type","code":"pay","display":"Payer"}]}],"name":"Blue Cross Blue Shield of Texas","telecom":[{"system":"phone","value":"(+1) 972-766-6900"}],"address":[{"use":"billing","type":"postal","line":["P.O. Box 660044"],"city":"Dallas","state":"TX","postalCode":"75266-0044","country":"USA"}]},"request":{"method":"PUT","url":"Organization/db141f66-a1cc-407b-9e95-adac27adee14"}},{"fullUrl":"https://madie.cms.gov/Practitioner/eabc5c8d-127c-4abd-8629-c67f53f5c0e1","resource":{"resourceType":"Practitioner","id":"eabc5c8d-127c-4abd-8629-c67f53f5c0e1","meta":{"profile":["http://hl7.org/fhir/us/qicore/StructureDefinition/qicore-practitioner"]},"identifier":[{"system":"http://hl7.org/fhir/sid/us-npi","value":"123456"}],"name":[{"family":"Evil","prefix":["Dr"]}]},"request":{"method":"PUT","url":"Practitioner/eabc5c8d-127c-4abd-8629-c67f53f5c0e1"}},{"fullUrl":"https://madie.cms.gov/MeasureReport/1ed4a6f1-9cec-4a98-aaee-fd5f9759e6f0","resource":{"resourceType":"MeasureReport","id":"1ed4a6f1-9cec-4a98-aaee-fd5f9759e6f0","meta":{"profile":["http://hl7.org/fhir/us/cqfmeasures/StructureDefinition/test-case-cqfm"]},"contained":[{"resourceType":"Parameters","id":"4f87d53a-29c2-46f8-bfab-3775c637e7f0-parameters","parameter":[{"name":"subject","valueString":"e982ec87-76b0-4fe2-b437-ac0503cf2159"}]}],"extension":[{"url":"http://hl7.org/fhir/us/cqfmeasures/StructureDefinition/cqfm-inputParameters","valueReference":{"reference":"#4f87d53a-29c2-46f8-bfab-3775c637e7f0-parameters"}},{"url":"http://hl7.org/fhir/us/cqfmeasures/StructureDefinition/cqfm-testCaseDescription","valueMarkdown":"Enc 1st minute of 1st day of MP; adolescent, no mental illness, transferred"}],"modifierExtension":[{"url":"http://hl7.org/fhir/us/cqfmeasures/StructureDefinition/cqfm-isTestCase","valueBoolean":true}],"status":"complete","type":"individual","measure":"https://madie.cms.gov/Measure/CMS1264ECCQREHQRFHIR","period":{"start":"2026-01-01","end":"2026-12-31"},"group":[{"population":[{"code":{"coding":[{"system":"http://terminology.hl7.org/CodeSystem/measure-population","code":"initial-population","display":"Initial Population"}]},"count":1},{"code":{"coding":[{"system":"http://terminology.hl7.org/CodeSystem/measure-population","code":"denominator","display":"Denominator"}]},"count":1},{"code":{"coding":[{"system":"http://terminology.hl7.org/CodeSystem/measure-population","code":"numerator","display":"Numerator"}]},"count":1}]}]},"request":{"method":"PUT","url":"MeasureReport/1ed4a6f1-9cec-4a98-aaee-fd5f9759e6f0"}}]}