{"resourceType":"Bundle","id":"tests-4c95d881-2e7e-4e81-bb4c-b1ae680ff286-bundle","type":"transaction","entry":[{"fullUrl":"https://madie.cms.gov/Patient/4c95d881-2e7e-4e81-bb4c-b1ae680ff286","resource":{"resourceType":"Patient","id":"4c95d881-2e7e-4e81-bb4c-b1ae680ff286","meta":{"profile":["http://hl7.org/fhir/us/qicore/StructureDefinition/qicore-patient"]},"extension":[{"url":"http://hl7.org/fhir/us/core/StructureDefinition/us-core-race","extension":[{"url":"ombCategory","valueCoding":{"system":"urn:oid:2.16.840.1.113883.6.238","code":"1002-5","display":"American Indian or Alaska Native","userSelected":true}},{"url":"text","valueString":"American Indian or Alaska Native"},{"url":"detailed","valueCoding":{"system":"urn:oid:2.16.840.1.113883.6.238","code":"1653-5","display":"Tohono O'Odham"}}]},{"url":"http://hl7.org/fhir/us/core/StructureDefinition/us-core-ethnicity","extension":[{"url":"ombCategory","valueCoding":{"system":"urn:oid:2.16.840.1.113883.6.238","code":"2186-5","display":"Not Hispanic or Latino","userSelected":true}},{"url":"text","valueString":"Not Hispanic or Latino"},{"url":"detailed","valueCoding":{"system":"urn:oid:2.16.840.1.113883.6.238","code":"2153-5","display":"Mexican American Indian"}}]}],"identifier":[{"type":{"coding":[{"system":"http://terminology.hl7.org/CodeSystem/v2-0203","code":"MR"}]},"system":"https://bonnie-fhir.healthit.gov/","value":"62aa60bdc4be4c506d4a534b"}],"name":[{"family":"NUMERStrat3Pass","given":["TimeToTx61Min"]}],"gender":"female","birthDate":"2010-12-31"},"request":{"method":"PUT","url":"Patient/4c95d881-2e7e-4e81-bb4c-b1ae680ff286"}},{"fullUrl":"https://madie.cms.gov/Encounter/2e848214-77d3-4b83-8439-d71d22c56884","resource":{"resourceType":"Encounter","id":"2e848214-77d3-4b83-8439-d71d22c56884","meta":{"profile":["http://hl7.org/fhir/us/qicore/StructureDefinition/qicore-encounter"]},"status":"finished","class":{"system":"http://terminology.hl7.org/CodeSystem/v3-ActCode","code":"EMER","display":"emergency"},"type":[{"coding":[{"system":"http://snomed.info/sct","version":"2023-09","code":"4525004","display":"Emergency department patient visit (procedure)","userSelected":true}]}],"subject":{"reference":"Patient/4c95d881-2e7e-4e81-bb4c-b1ae680ff286"},"period":{"start":"2026-01-01T08:00:00.000+00:00","end":"2026-01-01T12:15:00.000+00:00"},"diagnosis":[{"condition":{"reference":"Condition/8d7dfa18-8a80-4e6e-93e1-1e9546e71370"},"use":{"coding":[{"system":"http://terminology.hl7.org/CodeSystem/diagnosis-role","code":"billing"}]},"rank":1}],"location":[{"location":{"reference":"Location/cbb4b3ae-8001-4cc6-8009-2d88c47c7851"},"period":{"start":"2026-01-01T07:45:00.000+00:00","end":"2026-01-01T12:15:00.000+00:00"}},{"location":{"reference":"Location/f9c76958-dc31-4a8d-ad86-5a7424b8cb91"},"period":{"start":"2026-01-01T09:01:00.000+00:00","end":"2026-01-01T12:15:00.000+00:00"}}]},"request":{"method":"PUT","url":"Encounter/2e848214-77d3-4b83-8439-d71d22c56884"}},{"fullUrl":"https://madie.cms.gov/Location/cbb4b3ae-8001-4cc6-8009-2d88c47c7851","resource":{"resourceType":"Location","id":"cbb4b3ae-8001-4cc6-8009-2d88c47c7851","meta":{"profile":["http://hl7.org/fhir/us/qicore/StructureDefinition/qicore-location"]},"identifier":[{"use":"usual","system":"http://exampleoflocation.com","value":"B1-S.F1"}],"name":"Emergency Department","type":[{"coding":[{"system":"https://www.cdc.gov/nhsn/cdaportal/terminology/codesystem/hsloc.html","version":"2022","code":"1108-0","display":"Emergency Department","userSelected":true}]}]},"request":{"method":"PUT","url":"Location/cbb4b3ae-8001-4cc6-8009-2d88c47c7851"}},{"fullUrl":"https://madie.cms.gov/Location/f9c76958-dc31-4a8d-ad86-5a7424b8cb91","resource":{"resourceType":"Location","id":"f9c76958-dc31-4a8d-ad86-5a7424b8cb91","meta":{"profile":["http://hl7.org/fhir/us/qicore/StructureDefinition/qicore-location"]},"identifier":[{"use":"usual","system":"http://exampleoflocation.com","value":"B1-S.F2"}],"name":"Emergency Department","type":[{"coding":[{"system":"https://www.cdc.gov/nhsn/cdaportal/terminology/codesystem/hsloc.html","version":"2022","code":"1209-6","display":"Treatment Room","userSelected":true}]}]},"request":{"method":"PUT","url":"Location/f9c76958-dc31-4a8d-ad86-5a7424b8cb91"}},{"fullUrl":"https://madie.cms.gov/Condition/8d7dfa18-8a80-4e6e-93e1-1e9546e71370","resource":{"resourceType":"Condition","id":"8d7dfa18-8a80-4e6e-93e1-1e9546e71370","meta":{"profile":["http://hl7.org/fhir/us/qicore/StructureDefinition/qicore-condition"]},"category":[{"coding":[{"system":"http://terminology.hl7.org/CodeSystem/condition-category","code":"encounter-diagnosis","display":"Encounter Diagnosis"}]}],"code":{"coding":[{"system":"http://snomed.info/sct","version":"2023-09","code":"10349009","display":"Multi-infarct dementia with delirium (disorder)","userSelected":true}]},"subject":{"reference":"Patient/4c95d881-2e7e-4e81-bb4c-b1ae680ff286"},"recordedDate":"2026-04-09T08:00:00.000+00:00"},"request":{"method":"PUT","url":"Condition/8d7dfa18-8a80-4e6e-93e1-1e9546e71370"}},{"fullUrl":"https://madie.cms.gov/Location/f598c765-f9f0-45ae-8449-f3d0f557b20a","resource":{"resourceType":"Location","id":"f598c765-f9f0-45ae-8449-f3d0f557b20a","meta":{"profile":["http://hl7.org/fhir/us/qicore/StructureDefinition/qicore-location"]},"identifier":[{"use":"usual","system":"http://exampleoflocation.com","value":"B1-S.F2"}],"name":"Emergency Department","type":[{"coding":[{"system":"https://www.cdc.gov/nhsn/cdaportal/terminology/codesystem/hsloc.html","version":"2022","code":"1108-0","display":"Emergency Department","userSelected":true}]}]},"request":{"method":"PUT","url":"Location/f598c765-f9f0-45ae-8449-f3d0f557b20a"}},{"fullUrl":"https://madie.cms.gov/Location/c4e41356-fe6f-446f-b037-818b1557cf7c","resource":{"resourceType":"Location","id":"c4e41356-fe6f-446f-b037-818b1557cf7c","meta":{"profile":["http://hl7.org/fhir/us/qicore/StructureDefinition/qicore-location"]},"identifier":[{"use":"usual","system":"http://exampleoflocation.com","value":"B1-S.F2"}],"name":"Emergency Department","type":[{"coding":[{"system":"https://www.cdc.gov/nhsn/cdaportal/terminology/codesystem/hsloc.html","version":"2022","code":"1209-6","display":"Treatment Room"}]}]},"request":{"method":"PUT","url":"Location/c4e41356-fe6f-446f-b037-818b1557cf7c"}},{"fullUrl":"https://madie.cms.gov/Coverage/2e6fd799-9722-463d-83e7-d26026485e17","resource":{"resourceType":"Coverage","id":"2e6fd799-9722-463d-83e7-d26026485e17","meta":{"profile":["http://hl7.org/fhir/us/qicore/StructureDefinition/qicore-coverage"]},"status":"active","type":{"coding":[{"system":"https://nahdo.org/sopt","code":"1","display":"MEDICARE"}]},"beneficiary":{"reference":"Patient/4c95d881-2e7e-4e81-bb4c-b1ae680ff286"},"period":{"start":"2023-12-31T00:00:00+00:00"},"payor":[{"reference":"Organization/3778262e-e084-4bb5-9a47-1a144735f786"}]},"request":{"method":"PUT","url":"Coverage/2e6fd799-9722-463d-83e7-d26026485e17"}},{"fullUrl":"https://madie.cms.gov/Organization/bd596fc4-2ca6-4d0c-ad71-8418f212f82a","resource":{"resourceType":"Organization","id":"3778262e-e084-4bb5-9a47-1a144735f786","meta":{"profile":["http://hl7.org/fhir/us/qicore/StructureDefinition/qicore-organization"]},"identifier":[{"use":"temp","system":"urn:oid:2.16.840.1.113883.4.4","value":"21-3259825"}],"active":true,"type":[{"coding":[{"system":"http://terminology.hl7.org/CodeSystem/organization-type","code":"pay","display":"Payer"}]}],"name":"Blue Cross Blue Shield of Texas","telecom":[{"system":"phone","value":"(+1) 972-766-6900"}],"address":[{"use":"billing","type":"postal","line":["P.O. Box 660044"],"city":"Dallas","state":"TX","postalCode":"75266-0044","country":"USA"}]},"request":{"method":"PUT","url":"Organization/3778262e-e084-4bb5-9a47-1a144735f786"}},{"fullUrl":"https://madie.cms.gov/Practitioner/d17b2ffa-7314-4ad7-b9b1-6e907e80301f","resource":{"resourceType":"Practitioner","id":"d17b2ffa-7314-4ad7-b9b1-6e907e80301f","meta":{"profile":["http://hl7.org/fhir/us/qicore/StructureDefinition/qicore-practitioner"]},"identifier":[{"system":"http://hl7.org/fhir/sid/us-npi","value":"123456"}],"name":[{"family":"Evil","prefix":["Dr"]}]},"request":{"method":"PUT","url":"Practitioner/d17b2ffa-7314-4ad7-b9b1-6e907e80301f"}},{"fullUrl":"https://madie.cms.gov/MeasureReport/f96869fd-3338-4e58-8597-4f9381e92924","resource":{"resourceType":"MeasureReport","id":"f96869fd-3338-4e58-8597-4f9381e92924","meta":{"profile":["http://hl7.org/fhir/us/cqfmeasures/StructureDefinition/test-case-cqfm"]},"contained":[{"resourceType":"Parameters","id":"6e79b2ba-dd31-4c4c-932b-fde777c4a8af-parameters","parameter":[{"name":"subject","valueString":"4c95d881-2e7e-4e81-bb4c-b1ae680ff286"}]}],"extension":[{"url":"http://hl7.org/fhir/us/cqfmeasures/StructureDefinition/cqfm-inputParameters","valueReference":{"reference":"#6e79b2ba-dd31-4c4c-932b-fde777c4a8af-parameters"}},{"url":"http://hl7.org/fhir/us/cqfmeasures/StructureDefinition/cqfm-testCaseDescription","valueMarkdown":"Child, age 17 Encounter  end first day of MP, time to treatment 61 minutes  has  mental illness"}],"modifierExtension":[{"url":"http://hl7.org/fhir/us/cqfmeasures/StructureDefinition/cqfm-isTestCase","valueBoolean":true}],"status":"complete","type":"individual","measure":"https://madie.cms.gov/Measure/CMS1264ECCQREHQRFHIR","period":{"start":"2026-01-01","end":"2026-12-31"},"group":[{"population":[{"code":{"coding":[{"system":"http://terminology.hl7.org/CodeSystem/measure-population","code":"initial-population","display":"Initial Population"}]},"count":1},{"code":{"coding":[{"system":"http://terminology.hl7.org/CodeSystem/measure-population","code":"denominator","display":"Denominator"}]},"count":1},{"code":{"coding":[{"system":"http://terminology.hl7.org/CodeSystem/measure-population","code":"numerator","display":"Numerator"}]},"count":1}]}]},"request":{"method":"PUT","url":"MeasureReport/f96869fd-3338-4e58-8597-4f9381e92924"}}]}