{"resourceType":"Bundle","id":"tests-50270eff-f1ed-4cb3-b22b-467d89937c3a-bundle","type":"transaction","entry":[{"fullUrl":"https://madie.cms.gov/Patient/50270eff-f1ed-4cb3-b22b-467d89937c3a","resource":{"resourceType":"Patient","id":"50270eff-f1ed-4cb3-b22b-467d89937c3a","meta":{"profile":["http://hl7.org/fhir/us/qicore/StructureDefinition/qicore-patient"]},"extension":[{"url":"http://hl7.org/fhir/us/core/StructureDefinition/us-core-race","extension":[{"url":"ombCategory","valueCoding":{"system":"urn:oid:2.16.840.1.113883.6.238","code":"1002-5","display":"American Indian or Alaska Native","userSelected":true}},{"url":"text","valueString":"American Indian or Alaska Native"}]},{"url":"http://hl7.org/fhir/us/core/StructureDefinition/us-core-ethnicity","extension":[{"url":"ombCategory","valueCoding":{"system":"urn:oid:2.16.840.1.113883.6.238","code":"2135-2","display":"Hispanic or Latino","userSelected":true}},{"url":"text","valueString":"Hispanic or Latino"}]}],"identifier":[{"type":{"coding":[{"system":"http://terminology.hl7.org/CodeSystem/v2-0203","code":"MR"}]},"system":"https://bonnie-fhir.healthit.gov/","value":"661476b015ed5841a5547ebf"}],"name":[{"family":"NUMERStrat1Fail","given":["PatientTransferOrder240Minutes"]}],"gender":"male","birthDate":"2009-01-01"},"request":{"method":"PUT","url":"Patient/50270eff-f1ed-4cb3-b22b-467d89937c3a"}},{"fullUrl":"https://madie.cms.gov/Encounter/0dfeeb61-56ca-4367-a78e-c813441f5f79","resource":{"resourceType":"Encounter","id":"0dfeeb61-56ca-4367-a78e-c813441f5f79","meta":{"profile":["http://hl7.org/fhir/us/qicore/StructureDefinition/qicore-encounter"]},"status":"finished","class":{"system":"http://terminology.hl7.org/CodeSystem/v3-ActCode","code":"EMER","display":"emergency department"},"type":[{"coding":[{"system":"http://snomed.info/sct","version":"2023-09","code":"4525004","display":"Emergency department patient visit (procedure)","userSelected":true}]}],"subject":{"reference":"Patient/50270eff-f1ed-4cb3-b22b-467d89937c3a"},"period":{"start":"2026-01-01T00:00:00.000+00:00","end":"2026-01-01T04:00:00.000+00:00"},"diagnosis":[{"condition":{"reference":"Condition/non-behavioral-health-diagnosis-without-substance-use-disorders-8a64"},"use":{"coding":[{"system":"http://terminology.hl7.org/CodeSystem/diagnosis-role","code":"billing"}]},"rank":1}],"location":[{"location":{"reference":"Location/3afef75b-6325-479a-8055-1d67426f95b1"},"period":{"start":"2026-01-01T00:00:00.000+00:00","end":"2026-01-01T04:00:00.000+00:00"}}]},"request":{"method":"PUT","url":"Encounter/0dfeeb61-56ca-4367-a78e-c813441f5f79"}},{"fullUrl":"https://madie.cms.gov/ServiceRequest/5f0359a8-92c5-4f4c-aeb9-5924a429f0e8","resource":{"resourceType":"ServiceRequest","id":"5f0359a8-92c5-4f4c-aeb9-5924a429f0e8","meta":{"profile":["http://hl7.org/fhir/us/qicore/StructureDefinition/qicore-servicerequest"]},"status":"completed","intent":"order","code":{"coding":[{"system":"http://snomed.info/sct","code":"19712007","display":"Patient transfer, to another health care facility (procedure)","userSelected":true}]},"subject":{"reference":"Patient/50270eff-f1ed-4cb3-b22b-467d89937c3a"},"authoredOn":"2026-01-01T00:00:00.000+00:00"},"request":{"method":"PUT","url":"ServiceRequest/5f0359a8-92c5-4f4c-aeb9-5924a429f0e8"}},{"fullUrl":"https://madie.cms.gov/Location/3afef75b-6325-479a-8055-1d67426f95b1","resource":{"resourceType":"Location","id":"3afef75b-6325-479a-8055-1d67426f95b1","meta":{"profile":["http://hl7.org/fhir/us/qicore/StructureDefinition/qicore-location"]},"identifier":[{"use":"usual","system":"http://exampleoflocation.com","value":"B1-S.F2"}],"name":"Emergency Department","type":[{"coding":[{"system":"https://www.cdc.gov/nhsn/cdaportal/terminology/codesystem/hsloc.html","version":"2022","code":"1108-0","display":"Emergency Department","userSelected":true}]}]},"request":{"method":"PUT","url":"Location/3afef75b-6325-479a-8055-1d67426f95b1"}},{"fullUrl":"https://madie.cms.gov/Coverage/49704a79-162c-4534-bdd2-e872e746fd7b","resource":{"resourceType":"Coverage","id":"49704a79-162c-4534-bdd2-e872e746fd7b","meta":{"profile":["http://hl7.org/fhir/us/qicore/StructureDefinition/qicore-coverage"]},"status":"active","beneficiary":{"reference":"Patient/50270eff-f1ed-4cb3-b22b-467d89937c3a"},"payor":[{"reference":"Organization/e75793c9-fdf6-463a-8c1d-4ee44320dc25"}]},"request":{"method":"PUT","url":"Coverage/49704a79-162c-4534-bdd2-e872e746fd7b"}},{"fullUrl":"https://madie.cms.gov/Condition/d23195a9-e535-420d-92f7-494556560c5f","resource":{"resourceType":"Condition","id":"d23195a9-e535-420d-92f7-494556560c5f","meta":{"profile":["http://hl7.org/fhir/us/qicore/StructureDefinition/qicore-condition"]},"category":[{"coding":[{"system":"http://terminology.hl7.org/CodeSystem/condition-category","code":"encounter-diagnosis","display":"Encounter Diagnosis"}]}],"code":{"coding":[{"system":"http://snomed.info/sct","version":"2023-09","code":"10674711000119105","display":"Acute severe exacerbation of asthma co-occurrent with allergic rhinitis (disorder)","userSelected":true}]},"subject":{"reference":"Patient/50270eff-f1ed-4cb3-b22b-467d89937c3a"},"recordedDate":"2026-01-01T08:00:00.000+00:00"},"request":{"method":"PUT","url":"Condition/d23195a9-e535-420d-92f7-494556560c5f"}},{"fullUrl":"https://madie.cms.gov/Organization/49cf82a1-d1ca-41ad-aa8b-25db9469b7f0","resource":{"resourceType":"Organization","id":"e75793c9-fdf6-463a-8c1d-4ee44320dc25","meta":{"profile":["http://hl7.org/fhir/us/qicore/StructureDefinition/qicore-organization"]},"identifier":[{"use":"temp","system":"urn:oid:2.16.840.1.113883.4.4","value":"21-3259825"}],"active":true,"type":[{"coding":[{"system":"http://terminology.hl7.org/CodeSystem/organization-type","code":"pay","display":"Payer"}]}],"name":"Blue Cross Blue Shield of Texas","telecom":[{"system":"phone","value":"(+1) 972-766-6900"}],"address":[{"use":"billing","type":"postal","line":["P.O. Box 660044"],"city":"Dallas","state":"TX","postalCode":"75266-0044","country":"USA"}]},"request":{"method":"PUT","url":"Organization/e75793c9-fdf6-463a-8c1d-4ee44320dc25"}},{"fullUrl":"https://madie.cms.gov/Practitioner/aa0a6f85-e443-4ba7-ac06-c3622dc438a1","resource":{"resourceType":"Practitioner","id":"aa0a6f85-e443-4ba7-ac06-c3622dc438a1","meta":{"profile":["http://hl7.org/fhir/us/qicore/StructureDefinition/qicore-practitioner"]},"identifier":[{"system":"http://hl7.org/fhir/sid/us-npi","value":"123456"}],"name":[{"family":"Evil","prefix":["Dr"]}]},"request":{"method":"PUT","url":"Practitioner/aa0a6f85-e443-4ba7-ac06-c3622dc438a1"}},{"fullUrl":"https://madie.cms.gov/MeasureReport/21970ee1-e348-4108-be51-937671482c3d","resource":{"resourceType":"MeasureReport","id":"21970ee1-e348-4108-be51-937671482c3d","meta":{"profile":["http://hl7.org/fhir/us/cqfmeasures/StructureDefinition/test-case-cqfm"]},"contained":[{"resourceType":"Parameters","id":"ab2cdab9-32a0-4509-aae2-e6e0cc61cb77-parameters","parameter":[{"name":"subject","valueString":"50270eff-f1ed-4cb3-b22b-467d89937c3a"}]}],"extension":[{"url":"http://hl7.org/fhir/us/cqfmeasures/StructureDefinition/cqfm-inputParameters","valueReference":{"reference":"#ab2cdab9-32a0-4509-aae2-e6e0cc61cb77-parameters"}},{"url":"http://hl7.org/fhir/us/cqfmeasures/StructureDefinition/cqfm-testCaseDescription","valueMarkdown":"Enc first day of MP, has allergic rhinitis, pt transfer order at 240 minutes"}],"modifierExtension":[{"url":"http://hl7.org/fhir/us/cqfmeasures/StructureDefinition/cqfm-isTestCase","valueBoolean":true}],"status":"complete","type":"individual","measure":"https://madie.cms.gov/Measure/CMS1264ECCQREHQRFHIR","period":{"start":"2026-01-01","end":"2026-12-31"},"group":[{"population":[{"code":{"coding":[{"system":"http://terminology.hl7.org/CodeSystem/measure-population","code":"initial-population","display":"Initial Population"}]},"count":1},{"code":{"coding":[{"system":"http://terminology.hl7.org/CodeSystem/measure-population","code":"denominator","display":"Denominator"}]},"count":1},{"code":{"coding":[{"system":"http://terminology.hl7.org/CodeSystem/measure-population","code":"numerator","display":"Numerator"}]},"count":0}]}]},"request":{"method":"PUT","url":"MeasureReport/21970ee1-e348-4108-be51-937671482c3d"}}]}