{"resourceType":"Bundle","id":"tests-1f8035de-4255-434e-a32f-b97039ec57ff-bundle","type":"transaction","entry":[{"fullUrl":"https://madie.cms.gov/Patient/1f8035de-4255-434e-a32f-b97039ec57ff","resource":{"resourceType":"Patient","id":"1f8035de-4255-434e-a32f-b97039ec57ff","meta":{"profile":["http://hl7.org/fhir/us/qicore/StructureDefinition/qicore-patient"]},"extension":[{"url":"http://hl7.org/fhir/us/core/StructureDefinition/us-core-race","extension":[{"url":"ombCategory","valueCoding":{"system":"urn:oid:2.16.840.1.113883.6.238","code":"1002-5","display":"American Indian or Alaska Native","userSelected":true}},{"url":"text","valueString":"American Indian or Alaska Native"}]},{"url":"http://hl7.org/fhir/us/core/StructureDefinition/us-core-ethnicity","extension":[{"url":"ombCategory","valueCoding":{"system":"urn:oid:2.16.840.1.113883.6.238","code":"2135-2","display":"Hispanic or Latino","userSelected":true}},{"url":"text","valueString":"Hispanic or Latino"}]}],"identifier":[{"type":{"coding":[{"system":"http://terminology.hl7.org/CodeSystem/v2-0203","code":"MR"}]},"system":"https://bonnie-fhir.healthit.gov/","value":"661476b015ed5841a5547ebf"}],"name":[{"family":"NUMERStrat2Pass","given":["EDObsBoarded"]}],"gender":"male","birthDate":"2007-01-01"},"request":{"method":"PUT","url":"Patient/1f8035de-4255-434e-a32f-b97039ec57ff"}},{"fullUrl":"https://madie.cms.gov/Encounter/0b6c81ee-54f1-401a-a29a-931035a79872","resource":{"resourceType":"Encounter","id":"0b6c81ee-54f1-401a-a29a-931035a79872","meta":{"profile":["http://hl7.org/fhir/us/qicore/StructureDefinition/qicore-encounter"]},"status":"finished","class":{"system":"http://terminology.hl7.org/CodeSystem/v3-ActCode","code":"EMER","display":"emergency department"},"type":[{"coding":[{"system":"http://snomed.info/sct","version":"2023-09","code":"4525004","display":"Emergency department patient visit (procedure)","userSelected":true}]}],"subject":{"reference":"Patient/1f8035de-4255-434e-a32f-b97039ec57ff"},"period":{"start":"2026-01-01T00:00:00.000+00:00","end":"2026-01-01T06:00:00.000+00:00"},"diagnosis":[{"condition":{"reference":"Condition/9074e9ee-0d39-4cc7-84d6-abd38e1e6964"},"use":{"coding":[{"system":"http://terminology.hl7.org/CodeSystem/diagnosis-role","code":"billing"}]},"rank":1}],"location":[{"location":{"reference":"Location/5c419209-41df-47b6-b4cd-c8dcdc63b01c"},"period":{"start":"2026-01-01T00:00:00.000+00:00","end":"2026-01-01T10:01:00.000+00:00"}},{"location":{"reference":"Location/3a7740f6-17d6-4226-9fa1-c3f3c9d89fa9"},"period":{"start":"2026-01-01T02:00:00.000+00:00","end":"2026-01-01T10:01:00.000+00:00"}}]},"request":{"method":"PUT","url":"Encounter/0b6c81ee-54f1-401a-a29a-931035a79872"}},{"fullUrl":"https://madie.cms.gov/ServiceRequest/d8c133b2-b306-4bc9-8fcc-147be407d35d","resource":{"resourceType":"ServiceRequest","id":"d8c133b2-b306-4bc9-8fcc-147be407d35d","meta":{"profile":["http://hl7.org/fhir/us/qicore/StructureDefinition/qicore-servicerequest"]},"status":"active","intent":"order","code":{"coding":[{"system":"http://snomed.info/sct","code":"19712007","display":"Patient transfer, to another health care facility (procedure)","userSelected":true}]},"subject":{"reference":"Patient/1f8035de-4255-434e-a32f-b97039ec57ff"},"authoredOn":"2026-01-01T02:00:00.000+00:00"},"request":{"method":"PUT","url":"ServiceRequest/d8c133b2-b306-4bc9-8fcc-147be407d35d"}},{"fullUrl":"https://madie.cms.gov/Location/5c419209-41df-47b6-b4cd-c8dcdc63b01c","resource":{"resourceType":"Location","id":"5c419209-41df-47b6-b4cd-c8dcdc63b01c","meta":{"profile":["http://hl7.org/fhir/us/qicore/StructureDefinition/qicore-location"]},"identifier":[{"use":"usual","system":"http://exampleoflocation.com","value":"B1-S.F2"}],"name":"MEmergency Department","type":[{"coding":[{"system":"https://www.cdc.gov/nhsn/cdaportal/terminology/codesystem/hsloc.html","version":"2022","code":"1108-0","display":"Emergency Department","userSelected":true}]}]},"request":{"method":"PUT","url":"Location/5c419209-41df-47b6-b4cd-c8dcdc63b01c"}},{"fullUrl":"https://madie.cms.gov/Location/3a7740f6-17d6-4226-9fa1-c3f3c9d89fa9","resource":{"resourceType":"Location","id":"3a7740f6-17d6-4226-9fa1-c3f3c9d89fa9","meta":{"profile":["http://hl7.org/fhir/us/qicore/StructureDefinition/qicore-location"]},"identifier":[{"use":"usual","system":"http://exampleoflocation.com","value":"B1-S.F2"}],"name":"Emergency Department","type":[{"coding":[{"system":"https://www.cdc.gov/nhsn/cdaportal/terminology/codesystem/hsloc.html","version":"2022","code":"1209-6","display":"Treatment Room","userSelected":true}]}]},"request":{"method":"PUT","url":"Location/3a7740f6-17d6-4226-9fa1-c3f3c9d89fa9"}},{"fullUrl":"https://madie.cms.gov/Coverage/5089b9ba-2315-4cc7-b3ce-2761017b1f3c","resource":{"resourceType":"Coverage","id":"5089b9ba-2315-4cc7-b3ce-2761017b1f3c","meta":{"profile":["http://hl7.org/fhir/us/qicore/StructureDefinition/qicore-coverage"]},"status":"active","beneficiary":{"reference":"Patient/1f8035de-4255-434e-a32f-b97039ec57ff"},"payor":[{"reference":"Organization/607fdef9-3983-4cef-ab1a-95434d29b463"}]},"request":{"method":"PUT","url":"Coverage/5089b9ba-2315-4cc7-b3ce-2761017b1f3c"}},{"fullUrl":"https://madie.cms.gov/Condition/9074e9ee-0d39-4cc7-84d6-abd38e1e6964","resource":{"resourceType":"Condition","id":"9074e9ee-0d39-4cc7-84d6-abd38e1e6964","meta":{"profile":["http://hl7.org/fhir/us/qicore/StructureDefinition/qicore-condition"]},"category":[{"coding":[{"system":"http://terminology.hl7.org/CodeSystem/condition-category","code":"encounter-diagnosis","display":"Encounter Diagnosis"}]}],"code":{"coding":[{"system":"http://snomed.info/sct","version":"2023-09","code":"10674711000119105","display":"Acute severe exacerbation of asthma co-occurrent with allergic rhinitis (disorder)","userSelected":true}]},"subject":{"reference":"Patient/1f8035de-4255-434e-a32f-b97039ec57ff"},"recordedDate":"2026-01-01T08:00:00.000+00:00"},"request":{"method":"PUT","url":"Condition/9074e9ee-0d39-4cc7-84d6-abd38e1e6964"}},{"fullUrl":"https://madie.cms.gov/Encounter/ac18ec29-5a67-414e-b725-7cfb9c5d5c91","resource":{"resourceType":"Encounter","id":"ac18ec29-5a67-414e-b725-7cfb9c5d5c91","meta":{"profile":["http://hl7.org/fhir/us/qicore/StructureDefinition/qicore-encounter"]},"status":"finished","class":{"system":"http://terminology.hl7.org/CodeSystem/v3-ActCode","code":"EMER","display":"emergency"},"type":[{"coding":[{"system":"http://www.ama-assn.org/go/cpt","version":"2024","code":"99221","display":"Initial hospital inpatient or observation care, per day, for the evaluation and management of a patient, which requires a medically appropriate history and/or examination and straightforward or low level medical decision making. When using total time on the date of the encounter for code selection, 40 minutes must be met or exceeded.","userSelected":true}]}],"subject":{"reference":"Patient/1f8035de-4255-434e-a32f-b97039ec57ff"},"period":{"start":"2026-01-01T01:01:00.000+00:00","end":"2026-01-01T05:59:00.000+00:00"}},"request":{"method":"PUT","url":"Encounter/ac18ec29-5a67-414e-b725-7cfb9c5d5c91"}},{"fullUrl":"https://madie.cms.gov/Organization/b6226987-3e2e-409d-81cf-ec86e93ad46c","resource":{"resourceType":"Organization","id":"607fdef9-3983-4cef-ab1a-95434d29b463","meta":{"profile":["http://hl7.org/fhir/us/qicore/StructureDefinition/qicore-organization"]},"identifier":[{"use":"temp","system":"urn:oid:2.16.840.1.113883.4.4","value":"21-3259825"}],"active":true,"type":[{"coding":[{"system":"http://terminology.hl7.org/CodeSystem/organization-type","code":"pay","display":"Payer"}]}],"name":"Blue Cross Blue Shield of Texas","telecom":[{"system":"phone","value":"(+1) 972-766-6900"}],"address":[{"use":"billing","type":"postal","line":["P.O. Box 660044"],"city":"Dallas","state":"TX","postalCode":"75266-0044","country":"USA"}]},"request":{"method":"PUT","url":"Organization/607fdef9-3983-4cef-ab1a-95434d29b463"}},{"fullUrl":"https://madie.cms.gov/Practitioner/c6a8ba64-d31e-4b49-a8cf-2a088813aa74","resource":{"resourceType":"Practitioner","id":"c6a8ba64-d31e-4b49-a8cf-2a088813aa74","meta":{"profile":["http://hl7.org/fhir/us/qicore/StructureDefinition/qicore-practitioner"]},"identifier":[{"system":"http://hl7.org/fhir/sid/us-npi","value":"123456"}],"name":[{"family":"Evil","prefix":["Dr"]}]},"request":{"method":"PUT","url":"Practitioner/c6a8ba64-d31e-4b49-a8cf-2a088813aa74"}},{"fullUrl":"https://madie.cms.gov/MeasureReport/2b127a10-e968-4d7a-84b7-9a943b7bdd52","resource":{"resourceType":"MeasureReport","id":"2b127a10-e968-4d7a-84b7-9a943b7bdd52","meta":{"profile":["http://hl7.org/fhir/us/cqfmeasures/StructureDefinition/test-case-cqfm"]},"contained":[{"resourceType":"Parameters","id":"d1191069-0579-4ba8-9e3e-ed0bdbc5f0a8-parameters","parameter":[{"name":"subject","valueString":"1f8035de-4255-434e-a32f-b97039ec57ff"}]}],"extension":[{"url":"http://hl7.org/fhir/us/cqfmeasures/StructureDefinition/cqfm-inputParameters","valueReference":{"reference":"#d1191069-0579-4ba8-9e3e-ed0bdbc5f0a8-parameters"}},{"url":"http://hl7.org/fhir/us/cqfmeasures/StructureDefinition/cqfm-testCaseDescription","valueMarkdown":"Time to treatment greater than 60 mins. LOS greater than 8 hours with observational stay."}],"modifierExtension":[{"url":"http://hl7.org/fhir/us/cqfmeasures/StructureDefinition/cqfm-isTestCase","valueBoolean":true}],"status":"complete","type":"individual","measure":"https://madie.cms.gov/Measure/CMS1264ECCQREHQRFHIR","period":{"start":"2026-01-01","end":"2026-12-31"},"group":[{"population":[{"code":{"coding":[{"system":"http://terminology.hl7.org/CodeSystem/measure-population","code":"initial-population","display":"Initial Population"}]},"count":1},{"code":{"coding":[{"system":"http://terminology.hl7.org/CodeSystem/measure-population","code":"denominator","display":"Denominator"}]},"count":1},{"code":{"coding":[{"system":"http://terminology.hl7.org/CodeSystem/measure-population","code":"numerator","display":"Numerator"}]},"count":1}]}]},"request":{"method":"PUT","url":"MeasureReport/2b127a10-e968-4d7a-84b7-9a943b7bdd52"}}]}