{"resourceType":"Bundle","id":"tests-a11dce52-c6b3-46e5-bc01-8994b0c8f471-bundle","type":"transaction","entry":[{"fullUrl":"https://madie.cms.gov/Patient/a11dce52-c6b3-46e5-bc01-8994b0c8f471","resource":{"resourceType":"Patient","id":"a11dce52-c6b3-46e5-bc01-8994b0c8f471","meta":{"profile":["http://hl7.org/fhir/us/qicore/StructureDefinition/qicore-patient"]},"extension":[{"url":"http://hl7.org/fhir/us/core/StructureDefinition/us-core-race","extension":[{"url":"ombCategory","valueCoding":{"system":"urn:oid:2.16.840.1.113883.6.238","code":"1002-5","display":"American Indian or Alaska Native","userSelected":true}},{"url":"text","valueString":"American Indian or Alaska Native"}]},{"url":"http://hl7.org/fhir/us/core/StructureDefinition/us-core-ethnicity","extension":[{"url":"ombCategory","valueCoding":{"system":"urn:oid:2.16.840.1.113883.6.238","code":"2135-2","display":"Hispanic or Latino","userSelected":true}},{"url":"text","valueString":"Hispanic or Latino"}]}],"identifier":[{"type":{"coding":[{"system":"http://terminology.hl7.org/CodeSystem/v2-0203","code":"MR"}]},"system":"https://bonnie-fhir.healthit.gov/","value":"661476b015ed5841a5547ebf"}],"name":[{"family":"NUMEXStrat4Pass","given":["TransferToRehabNotACFDischargeDisposition"]}],"gender":"male","birthDate":"2008-01-01"},"request":{"method":"PUT","url":"Patient/a11dce52-c6b3-46e5-bc01-8994b0c8f471"}},{"fullUrl":"https://madie.cms.gov/Encounter/a789d154-20fd-4455-b9aa-624758d65754","resource":{"resourceType":"Encounter","id":"a789d154-20fd-4455-b9aa-624758d65754","meta":{"profile":["http://hl7.org/fhir/us/qicore/StructureDefinition/qicore-encounter"]},"status":"finished","class":{"system":"http://terminology.hl7.org/CodeSystem/v3-ActCode","code":"EMER","display":"emergency department"},"type":[{"coding":[{"system":"http://snomed.info/sct","version":"2023-09","code":"4525004","display":"Discharge to rehabilitation facility (procedure)","userSelected":true}]}],"subject":{"reference":"Patient/a11dce52-c6b3-46e5-bc01-8994b0c8f471"},"period":{"start":"2026-01-01T06:00:00.000+00:00","end":"2026-01-01T14:01:00.000+00:00"},"diagnosis":[{"condition":{"reference":"Condition/b363d310-6e00-4f12-866b-3dbda1f8305e"},"use":{"coding":[{"system":"http://terminology.hl7.org/CodeSystem/diagnosis-role","code":"billing"}]},"rank":1}],"hospitalization":{"dischargeDisposition":{"coding":[{"system":"http://snomed.info/sct","code":"433591000124103","display":"Discharge to acute care hospital (procedure)","userSelected":true}]}},"location":[{"location":{"reference":"Location/e6adb6fe-e525-4c4b-a1a7-b2fa58d4fa28"},"period":{"start":"2026-01-01T06:00:00.000+00:00","end":"2026-01-01T14:01:00.000+00:00"}}]},"request":{"method":"PUT","url":"Encounter/a789d154-20fd-4455-b9aa-624758d65754"}},{"fullUrl":"https://madie.cms.gov/Condition/b363d310-6e00-4f12-866b-3dbda1f8305e","resource":{"resourceType":"Condition","id":"b363d310-6e00-4f12-866b-3dbda1f8305e","meta":{"profile":["http://hl7.org/fhir/us/qicore/StructureDefinition/qicore-condition"]},"category":[{"coding":[{"system":"http://terminology.hl7.org/CodeSystem/condition-category","code":"encounter-diagnosis","display":"Encounter Diagnosis"}]}],"code":{"coding":[{"system":"http://snomed.info/sct","version":"2023-09","code":"66344007","display":"Recurrent major depression (disorder)","userSelected":true}]},"subject":{"reference":"Patient/a11dce52-c6b3-46e5-bc01-8994b0c8f471"},"recordedDate":"2026-01-01T08:00:00.000+00:00"},"request":{"method":"PUT","url":"Condition/b363d310-6e00-4f12-866b-3dbda1f8305e"}},{"fullUrl":"https://madie.cms.gov/Location/e6adb6fe-e525-4c4b-a1a7-b2fa58d4fa28","resource":{"resourceType":"Location","id":"e6adb6fe-e525-4c4b-a1a7-b2fa58d4fa28","meta":{"profile":["http://hl7.org/fhir/us/qicore/StructureDefinition/qicore-location"]},"identifier":[{"use":"usual","system":"http://exampleoflocation.com","value":"B1-S.F2"}],"name":"Emergency Department","type":[{"coding":[{"system":"https://www.cdc.gov/nhsn/cdaportal/terminology/codesystem/hsloc.html","version":"2022","code":"1108-0","display":"Emergency Department","userSelected":true}]}]},"request":{"method":"PUT","url":"Location/e6adb6fe-e525-4c4b-a1a7-b2fa58d4fa28"}},{"fullUrl":"https://madie.cms.gov/Coverage/b180a949-1e55-4841-80f2-35ad4786c2bd","resource":{"resourceType":"Coverage","id":"b180a949-1e55-4841-80f2-35ad4786c2bd","meta":{"profile":["http://hl7.org/fhir/us/qicore/StructureDefinition/qicore-coverage"]},"status":"active","beneficiary":{"reference":"Patient/a11dce52-c6b3-46e5-bc01-8994b0c8f471"},"payor":[{"reference":"Organization/e75793c9-fdf6-463a-8c1d-4ee44320dc25"}]},"request":{"method":"PUT","url":"Coverage/b180a949-1e55-4841-80f2-35ad4786c2bd"}},{"fullUrl":"https://madie.cms.gov/Organization/eb5d5480-4125-4af8-9baa-be649a36fef0","resource":{"resourceType":"Organization","id":"e75793c9-fdf6-463a-8c1d-4ee44320dc25","meta":{"profile":["http://hl7.org/fhir/us/qicore/StructureDefinition/qicore-organization"]},"identifier":[{"use":"temp","system":"urn:oid:2.16.840.1.113883.4.4","value":"21-3259825"}],"active":true,"type":[{"coding":[{"system":"http://terminology.hl7.org/CodeSystem/organization-type","code":"pay","display":"Payer"}]}],"name":"Blue Cross Blue Shield of Texas","telecom":[{"system":"phone","value":"(+1) 972-766-6900"}],"address":[{"use":"billing","type":"postal","line":["P.O. Box 660044"],"city":"Dallas","state":"TX","postalCode":"75266-0044","country":"USA"}]},"request":{"method":"PUT","url":"Organization/e75793c9-fdf6-463a-8c1d-4ee44320dc25"}},{"fullUrl":"https://madie.cms.gov/Practitioner/3185d703-e808-4b49-ae1d-d7476eb0351d","resource":{"resourceType":"Practitioner","id":"3185d703-e808-4b49-ae1d-d7476eb0351d","meta":{"profile":["http://hl7.org/fhir/us/qicore/StructureDefinition/qicore-practitioner"]},"identifier":[{"system":"http://hl7.org/fhir/sid/us-npi","value":"123456"}],"name":[{"family":"Evil","prefix":["Dr"]}]},"request":{"method":"PUT","url":"Practitioner/3185d703-e808-4b49-ae1d-d7476eb0351d"}},{"fullUrl":"https://madie.cms.gov/MeasureReport/ad1c91b4-09cd-42a6-b51b-74f237a28174","resource":{"resourceType":"MeasureReport","id":"ad1c91b4-09cd-42a6-b51b-74f237a28174","meta":{"profile":["http://hl7.org/fhir/us/cqfmeasures/StructureDefinition/test-case-cqfm"]},"contained":[{"resourceType":"Parameters","id":"4d9d73b7-41ee-4a98-b5d2-54630ed7fc6d-parameters","parameter":[{"name":"subject","valueString":"a11dce52-c6b3-46e5-bc01-8994b0c8f471"}]}],"extension":[{"url":"http://hl7.org/fhir/us/cqfmeasures/StructureDefinition/cqfm-inputParameters","valueReference":{"reference":"#4d9d73b7-41ee-4a98-b5d2-54630ed7fc6d-parameters"}},{"url":"http://hl7.org/fhir/us/cqfmeasures/StructureDefinition/cqfm-testCaseDescription","valueMarkdown":"Enc 1st day of MP, has behavioral health disorder, EDLOS 481 minutes, fails transfer d/t rehab not in Discharge to ACF"}],"modifierExtension":[{"url":"http://hl7.org/fhir/us/cqfmeasures/StructureDefinition/cqfm-isTestCase","valueBoolean":true}],"status":"complete","type":"individual","measure":"https://madie.cms.gov/Measure/CMS1264ECCQREHQRFHIR","period":{"start":"2026-01-01","end":"2026-12-31"},"group":[{"population":[{"code":{"coding":[{"system":"http://terminology.hl7.org/CodeSystem/measure-population","code":"initial-population","display":"Initial Population"}]},"count":1},{"code":{"coding":[{"system":"http://terminology.hl7.org/CodeSystem/measure-population","code":"denominator","display":"Denominator"}]},"count":1},{"code":{"coding":[{"system":"http://terminology.hl7.org/CodeSystem/measure-population","code":"numerator","display":"Numerator"}]},"count":1}]}]},"request":{"method":"PUT","url":"MeasureReport/ad1c91b4-09cd-42a6-b51b-74f237a28174"}}]}