{"resourceType":"Bundle","id":"tests-2c2a7958-4d1a-4142-9360-8045067a1c5b-bundle","type":"transaction","entry":[{"fullUrl":"https://madie.cms.gov/Patient/2c2a7958-4d1a-4142-9360-8045067a1c5b","resource":{"resourceType":"Patient","id":"2c2a7958-4d1a-4142-9360-8045067a1c5b","meta":{"profile":["http://hl7.org/fhir/us/qicore/StructureDefinition/qicore-patient"]},"extension":[{"url":"http://hl7.org/fhir/us/core/StructureDefinition/us-core-race","extension":[{"url":"ombCategory","valueCoding":{"system":"urn:oid:2.16.840.1.113883.6.238","code":"1002-5","display":"American Indian or Alaska Native","userSelected":true}},{"url":"text","valueString":"American Indian or Alaska Native"}]},{"url":"http://hl7.org/fhir/us/core/StructureDefinition/us-core-ethnicity","extension":[{"url":"ombCategory","valueCoding":{"system":"urn:oid:2.16.840.1.113883.6.238","code":"2135-2","display":"Hispanic or Latino","userSelected":true}},{"url":"text","valueString":"Hispanic or Latino"}]}],"identifier":[{"type":{"coding":[{"system":"http://terminology.hl7.org/CodeSystem/v2-0203","code":"MR"}]},"system":"https://bonnie-fhir.healthit.gov/","value":"661476b015ed5841a5547ebf"}],"name":[{"family":"NUMERStrat2Pass","given":["OrderToTransferGreaterThan240MinBeforeDeparture"]}],"gender":"male","birthDate":"2008-01-01"},"request":{"method":"PUT","url":"Patient/2c2a7958-4d1a-4142-9360-8045067a1c5b"}},{"fullUrl":"https://madie.cms.gov/Encounter/ebad65b1-11d9-4f25-afa9-80fab85788ae","resource":{"resourceType":"Encounter","id":"ebad65b1-11d9-4f25-afa9-80fab85788ae","meta":{"profile":["http://hl7.org/fhir/us/qicore/StructureDefinition/qicore-encounter"]},"status":"finished","class":{"system":"http://terminology.hl7.org/CodeSystem/v3-ActCode","code":"IMP","display":"inpatient encounter"},"type":[{"coding":[{"system":"http://snomed.info/sct","version":"2023-09","code":"4525004","display":"Emergency department patient visit (procedure)","userSelected":true}]}],"subject":{"reference":"Patient/2c2a7958-4d1a-4142-9360-8045067a1c5b"},"period":{"start":"2026-01-01T06:00:00.000+00:00","end":"2026-01-01T13:15:00.000+00:00"},"location":[{"location":{"reference":"Location/48c0b9b5-d311-4c59-83b7-59f381d40d10"},"period":{"start":"2026-01-01T06:00:00.000+00:00","end":"2026-01-01T13:15:00.000+00:00"}}]},"request":{"method":"PUT","url":"Encounter/ebad65b1-11d9-4f25-afa9-80fab85788ae"}},{"fullUrl":"https://madie.cms.gov/ServiceRequest/74bc5479-f0e9-4c05-a07b-445d247c5716","resource":{"resourceType":"ServiceRequest","id":"74bc5479-f0e9-4c05-a07b-445d247c5716","meta":{"profile":["http://hl7.org/fhir/us/qicore/StructureDefinition/qicore-servicerequest"]},"status":"completed","intent":"order","code":{"coding":[{"system":"http://snomed.info/sct","code":"19712007","display":"Patient transfer, to another health care facility (procedure)","userSelected":true}]},"subject":{"reference":"Patient/2c2a7958-4d1a-4142-9360-8045067a1c5b"},"authoredOn":"2026-01-01T08:59:00.000+00:00"},"request":{"method":"PUT","url":"ServiceRequest/74bc5479-f0e9-4c05-a07b-445d247c5716"}},{"fullUrl":"https://madie.cms.gov/Condition/a326752a-53cf-477b-9cbb-30671c255707","resource":{"resourceType":"Condition","id":"a326752a-53cf-477b-9cbb-30671c255707","meta":{"profile":["http://hl7.org/fhir/us/qicore/StructureDefinition/qicore-condition"]},"category":[{"coding":[{"system":"http://terminology.hl7.org/CodeSystem/condition-category","code":"encounter-diagnosis","display":"Encounter Diagnosis"}]}],"code":{"coding":[{"system":"http://snomed.info/sct","version":"2023-09","code":"10660471000119109","display":"Ulcer of left foot due to type 2 diabetes mellitus (disorder)","userSelected":true}]},"subject":{"reference":"Patient/2c2a7958-4d1a-4142-9360-8045067a1c5b"},"recordedDate":"2026-01-01T08:00:00.000+00:00"},"request":{"method":"PUT","url":"Condition/a326752a-53cf-477b-9cbb-30671c255707"}},{"fullUrl":"https://madie.cms.gov/Location/48c0b9b5-d311-4c59-83b7-59f381d40d10","resource":{"resourceType":"Location","id":"48c0b9b5-d311-4c59-83b7-59f381d40d10","meta":{"profile":["http://hl7.org/fhir/us/qicore/StructureDefinition/qicore-location"]},"identifier":[{"use":"usual","system":"http://exampleoflocation.com","value":"B1-S.F2"}],"name":"Emergency Department","type":[{"coding":[{"system":"https://www.cdc.gov/nhsn/cdaportal/terminology/codesystem/hsloc.html","version":"2022","code":"1108-0","display":"Emergency Department","userSelected":true}]}]},"request":{"method":"PUT","url":"Location/48c0b9b5-d311-4c59-83b7-59f381d40d10"}},{"fullUrl":"https://madie.cms.gov/Coverage/bcab729e-1396-4a04-a942-17c617c67c7f","resource":{"resourceType":"Coverage","id":"bcab729e-1396-4a04-a942-17c617c67c7f","meta":{"profile":["http://hl7.org/fhir/us/qicore/StructureDefinition/qicore-coverage"]},"status":"active","beneficiary":{"reference":"Patient/2c2a7958-4d1a-4142-9360-8045067a1c5b"},"payor":[{"reference":"Organization/f7da4368-fb6d-4d73-a75b-f78024cbb18d"}]},"request":{"method":"PUT","url":"Coverage/bcab729e-1396-4a04-a942-17c617c67c7f"}},{"fullUrl":"https://madie.cms.gov/Organization/66bab1e1-956c-47a8-a3d0-7b4c71ee5d40","resource":{"resourceType":"Organization","id":"f7da4368-fb6d-4d73-a75b-f78024cbb18d","meta":{"profile":["http://hl7.org/fhir/us/qicore/StructureDefinition/qicore-organization"]},"identifier":[{"use":"temp","system":"urn:oid:2.16.840.1.113883.4.4","value":"21-3259825"}],"active":true,"type":[{"coding":[{"system":"http://terminology.hl7.org/CodeSystem/organization-type","code":"pay","display":"Payer"}]}],"name":"Blue Cross Blue Shield of Texas","telecom":[{"system":"phone","value":"(+1) 972-766-6900"}],"address":[{"use":"billing","type":"postal","line":["P.O. Box 660044"],"city":"Dallas","state":"TX","postalCode":"75266-0044","country":"USA"}]},"request":{"method":"PUT","url":"Organization/f7da4368-fb6d-4d73-a75b-f78024cbb18d"}},{"fullUrl":"https://madie.cms.gov/Practitioner/dd10d852-cbe6-4807-a2ee-087405cadf1b","resource":{"resourceType":"Practitioner","id":"dd10d852-cbe6-4807-a2ee-087405cadf1b","meta":{"profile":["http://hl7.org/fhir/us/qicore/StructureDefinition/qicore-practitioner"]},"identifier":[{"system":"http://hl7.org/fhir/sid/us-npi","value":"123456"}],"name":[{"family":"Evil","prefix":["Dr"]}]},"request":{"method":"PUT","url":"Practitioner/dd10d852-cbe6-4807-a2ee-087405cadf1b"}},{"fullUrl":"https://madie.cms.gov/MeasureReport/181601a9-ff49-4110-a5d4-3ce99d97bb91","resource":{"resourceType":"MeasureReport","id":"181601a9-ff49-4110-a5d4-3ce99d97bb91","meta":{"profile":["http://hl7.org/fhir/us/cqfmeasures/StructureDefinition/test-case-cqfm"]},"contained":[{"resourceType":"Parameters","id":"fe59d036-cb69-49d2-aac5-90b312092f43-parameters","parameter":[{"name":"subject","valueString":"2c2a7958-4d1a-4142-9360-8045067a1c5b"}]}],"extension":[{"url":"http://hl7.org/fhir/us/cqfmeasures/StructureDefinition/cqfm-inputParameters","valueReference":{"reference":"#fe59d036-cb69-49d2-aac5-90b312092f43-parameters"}},{"url":"http://hl7.org/fhir/us/cqfmeasures/StructureDefinition/cqfm-testCaseDescription","valueMarkdown":"Enc 1st minute of 1st day of MP; adult, no mental illness, transferred"}],"modifierExtension":[{"url":"http://hl7.org/fhir/us/cqfmeasures/StructureDefinition/cqfm-isTestCase","valueBoolean":true}],"status":"complete","type":"individual","measure":"https://madie.cms.gov/Measure/CMS1264ECCQREHQRFHIR","period":{"start":"2026-01-01","end":"2026-12-31"},"group":[{"population":[{"code":{"coding":[{"system":"http://terminology.hl7.org/CodeSystem/measure-population","code":"initial-population","display":"Initial Population"}]},"count":1},{"code":{"coding":[{"system":"http://terminology.hl7.org/CodeSystem/measure-population","code":"denominator","display":"Denominator"}]},"count":1},{"code":{"coding":[{"system":"http://terminology.hl7.org/CodeSystem/measure-population","code":"numerator","display":"Numerator"}]},"count":1}]}]},"request":{"method":"PUT","url":"MeasureReport/181601a9-ff49-4110-a5d4-3ce99d97bb91"}}]}