{"resourceType":"Bundle","id":"tests-9ec1a135-fb47-4c1c-8f6b-98afab15274e-bundle","type":"transaction","entry":[{"fullUrl":"https://madie.cms.gov/Patient/9ec1a135-fb47-4c1c-8f6b-98afab15274e","resource":{"resourceType":"Patient","id":"9ec1a135-fb47-4c1c-8f6b-98afab15274e","meta":{"profile":["http://hl7.org/fhir/us/qicore/StructureDefinition/qicore-patient"]},"extension":[{"url":"http://hl7.org/fhir/us/core/StructureDefinition/us-core-race","extension":[{"url":"ombCategory","valueCoding":{"system":"urn:oid:2.16.840.1.113883.6.238","code":"1002-5","display":"American Indian or Alaska Native","userSelected":true}},{"url":"text","valueString":"American Indian or Alaska Native"}]},{"url":"http://hl7.org/fhir/us/core/StructureDefinition/us-core-ethnicity","extension":[{"url":"ombCategory","valueCoding":{"system":"urn:oid:2.16.840.1.113883.6.238","code":"2135-2","display":"Hispanic or Latino","userSelected":true}},{"url":"text","valueString":"Hispanic or Latino"}]}],"identifier":[{"type":{"coding":[{"system":"http://terminology.hl7.org/CodeSystem/v2-0203","code":"MR"}]},"system":"https://bonnie-fhir.healthit.gov/","value":"661476b015ed5841a5547ebf"}],"name":[{"family":"NUMEXStrat3Pass","given":["PatientTransferToAnotherHospital"]}],"gender":"male","birthDate":"2009-01-01"},"request":{"method":"PUT","url":"Patient/9ec1a135-fb47-4c1c-8f6b-98afab15274e"}},{"fullUrl":"https://madie.cms.gov/Encounter/7a04e2e1-53a7-4528-965f-9e0a291d8a07","resource":{"resourceType":"Encounter","id":"7a04e2e1-53a7-4528-965f-9e0a291d8a07","meta":{"profile":["http://hl7.org/fhir/us/qicore/StructureDefinition/qicore-encounter"]},"status":"finished","class":{"system":"http://terminology.hl7.org/CodeSystem/v3-ActCode","code":"EMER","display":"emergency department"},"type":[{"coding":[{"system":"http://snomed.info/sct","version":"2023-09","code":"4525004","display":"Emergency department patient visit (procedure)","userSelected":true}]}],"subject":{"reference":"Patient/9ec1a135-fb47-4c1c-8f6b-98afab15274e"},"period":{"start":"2026-01-01T00:00:00.000+00:00","end":"2026-01-01T06:00:00.000+00:00"},"diagnosis":[{"condition":{"reference":"Condition/2bff3dec-598e-48cf-8444-d90b35442baf"},"use":{"coding":[{"system":"http://terminology.hl7.org/CodeSystem/diagnosis-role","code":"billing"}]},"rank":1}],"location":[{"location":{"reference":"Location/8bb151e5-f4c2-456b-a92b-9b7c734106af"},"period":{"start":"2026-01-01T00:00:00.000+00:00","end":"2026-01-01T06:01:00.000+00:00"}}]},"request":{"method":"PUT","url":"Encounter/7a04e2e1-53a7-4528-965f-9e0a291d8a07"}},{"fullUrl":"https://madie.cms.gov/ServiceRequest/3101ded7-60f1-4d21-a019-b3bbe1f809b7","resource":{"resourceType":"ServiceRequest","id":"3101ded7-60f1-4d21-a019-b3bbe1f809b7","meta":{"profile":["http://hl7.org/fhir/us/qicore/StructureDefinition/qicore-servicerequest"]},"status":"completed","intent":"order","code":{"coding":[{"system":"http://snomed.info/sct","code":"448551000124100","display":"Patient transfer to another hospital (procedure)","userSelected":true}]},"subject":{"reference":"Patient/9ec1a135-fb47-4c1c-8f6b-98afab15274e"},"authoredOn":"2026-01-01T02:00:00.000+00:00"},"request":{"method":"PUT","url":"ServiceRequest/3101ded7-60f1-4d21-a019-b3bbe1f809b7"}},{"fullUrl":"https://madie.cms.gov/Location/8bb151e5-f4c2-456b-a92b-9b7c734106af","resource":{"resourceType":"Location","id":"8bb151e5-f4c2-456b-a92b-9b7c734106af","meta":{"profile":["http://hl7.org/fhir/us/qicore/StructureDefinition/qicore-location"]},"identifier":[{"use":"usual","system":"http://exampleoflocation.com","value":"B1-S.F2"}],"name":"Emergency Department","type":[{"coding":[{"system":"https://www.cdc.gov/nhsn/cdaportal/terminology/codesystem/hsloc.html","version":"2022","code":"1108-0","display":"Emergency Department","userSelected":true}]}]},"request":{"method":"PUT","url":"Location/8bb151e5-f4c2-456b-a92b-9b7c734106af"}},{"fullUrl":"https://madie.cms.gov/Coverage/6c50fae9-1cf7-47e8-95ba-344e1c961e0b","resource":{"resourceType":"Coverage","id":"6c50fae9-1cf7-47e8-95ba-344e1c961e0b","meta":{"profile":["http://hl7.org/fhir/us/qicore/StructureDefinition/qicore-coverage"]},"status":"active","beneficiary":{"reference":"Patient/9ec1a135-fb47-4c1c-8f6b-98afab15274e"},"payor":[{"reference":"Organization/3778262e-e084-4bb5-9a47-1a144735f786"}]},"request":{"method":"PUT","url":"Coverage/6c50fae9-1cf7-47e8-95ba-344e1c961e0b"}},{"fullUrl":"https://madie.cms.gov/Condition/2bff3dec-598e-48cf-8444-d90b35442baf","resource":{"resourceType":"Condition","id":"2bff3dec-598e-48cf-8444-d90b35442baf","meta":{"profile":["http://hl7.org/fhir/us/qicore/StructureDefinition/qicore-condition"]},"category":[{"coding":[{"system":"http://terminology.hl7.org/CodeSystem/condition-category","code":"encounter-diagnosis","display":"Encounter Diagnosis"}]}],"code":{"coding":[{"system":"http://snomed.info/sct","version":"2023-09","code":"66344007","display":"Recurrent major depression (disorder)","userSelected":true}]},"subject":{"reference":"Patient/9ec1a135-fb47-4c1c-8f6b-98afab15274e"},"recordedDate":"2025-04-18T08:00:00.000+00:00"},"request":{"method":"PUT","url":"Condition/2bff3dec-598e-48cf-8444-d90b35442baf"}},{"fullUrl":"https://madie.cms.gov/Coverage/6433f979-d700-48de-92d7-c3135ee7da08","resource":{"resourceType":"Coverage","id":"6433f979-d700-48de-92d7-c3135ee7da08","meta":{"profile":["http://hl7.org/fhir/us/qicore/StructureDefinition/qicore-coverage"]},"status":"active","beneficiary":{"reference":"Patient/9ec1a135-fb47-4c1c-8f6b-98afab15274e"},"payor":[{"reference":"Organization/3778262e-e084-4bb5-9a47-1a144735f786"}]},"request":{"method":"PUT","url":"Coverage/6433f979-d700-48de-92d7-c3135ee7da08"}},{"fullUrl":"https://madie.cms.gov/ServiceRequest/0f4dc105-5eef-4d15-af41-5e1b62ab0848","resource":{"resourceType":"ServiceRequest","id":"0f4dc105-5eef-4d15-af41-5e1b62ab0848","meta":{"profile":["http://hl7.org/fhir/us/qicore/StructureDefinition/qicore-servicerequest"]},"status":"active","intent":"order","code":{"coding":[{"system":"http://www.ama-assn.org/go/cpt","version":"2024","code":"99221","display":"Initial hospital inpatient or observation care, per day, for the evaluation and management of a patient, which requires a medically appropriate history and/or examination and straightforward or low level medical decision making. When using total time on the date of the encounter for code selection, 40 minutes must be met or exceeded.","userSelected":true}]},"subject":{"reference":"Patient/9ec1a135-fb47-4c1c-8f6b-98afab15274e"},"authoredOn":"2026-01-01T02:00:00.000+00:00"},"request":{"method":"PUT","url":"ServiceRequest/0f4dc105-5eef-4d15-af41-5e1b62ab0848"}},{"fullUrl":"https://madie.cms.gov/Organization/5d361f11-44ba-4aad-b848-4ede0fb0f7b5","resource":{"resourceType":"Organization","id":"3778262e-e084-4bb5-9a47-1a144735f786","meta":{"profile":["http://hl7.org/fhir/us/qicore/StructureDefinition/qicore-organization"]},"identifier":[{"use":"temp","system":"urn:oid:2.16.840.1.113883.4.4","value":"21-3259825"}],"active":true,"type":[{"coding":[{"system":"http://terminology.hl7.org/CodeSystem/organization-type","code":"pay","display":"Payer"}]}],"name":"Blue Cross Blue Shield of Texas","telecom":[{"system":"phone","value":"(+1) 972-766-6900"}],"address":[{"use":"billing","type":"postal","line":["P.O. Box 660044"],"city":"Dallas","state":"TX","postalCode":"75266-0044","country":"USA"}]},"request":{"method":"PUT","url":"Organization/3778262e-e084-4bb5-9a47-1a144735f786"}},{"fullUrl":"https://madie.cms.gov/Practitioner/5d4d66f2-a2a5-4ec7-8162-01e208975b48","resource":{"resourceType":"Practitioner","id":"5d4d66f2-a2a5-4ec7-8162-01e208975b48","meta":{"profile":["http://hl7.org/fhir/us/qicore/StructureDefinition/qicore-practitioner"]},"identifier":[{"system":"http://hl7.org/fhir/sid/us-npi","value":"123456"}],"name":[{"family":"Evil","prefix":["Dr"]}]},"request":{"method":"PUT","url":"Practitioner/5d4d66f2-a2a5-4ec7-8162-01e208975b48"}},{"fullUrl":"https://madie.cms.gov/MeasureReport/005d91f7-6128-48d4-b5c1-4e0f51a1c3b2","resource":{"resourceType":"MeasureReport","id":"005d91f7-6128-48d4-b5c1-4e0f51a1c3b2","meta":{"profile":["http://hl7.org/fhir/us/cqfmeasures/StructureDefinition/test-case-cqfm"]},"contained":[{"resourceType":"Parameters","id":"df944ce9-68ac-405b-9b6e-053c8053831e-parameters","parameter":[{"name":"subject","valueString":"9ec1a135-fb47-4c1c-8f6b-98afab15274e"}]}],"extension":[{"url":"http://hl7.org/fhir/us/cqfmeasures/StructureDefinition/cqfm-inputParameters","valueReference":{"reference":"#df944ce9-68ac-405b-9b6e-053c8053831e-parameters"}},{"url":"http://hl7.org/fhir/us/cqfmeasures/StructureDefinition/cqfm-testCaseDescription","valueMarkdown":"Child, transfer order during ED enc where patient was boarded 6 hrs 1 min; Enc 8 hrs, enc departure 8 hrs 1 min. dx asthma "}],"modifierExtension":[{"url":"http://hl7.org/fhir/us/cqfmeasures/StructureDefinition/cqfm-isTestCase","valueBoolean":true}],"status":"complete","type":"individual","measure":"https://madie.cms.gov/Measure/CMS1264ECCQREHQRFHIR","period":{"start":"2026-01-01","end":"2026-12-31"},"group":[{"population":[{"code":{"coding":[{"system":"http://terminology.hl7.org/CodeSystem/measure-population","code":"initial-population","display":"Initial Population"}]},"count":1},{"code":{"coding":[{"system":"http://terminology.hl7.org/CodeSystem/measure-population","code":"denominator","display":"Denominator"}]},"count":1},{"code":{"coding":[{"system":"http://terminology.hl7.org/CodeSystem/measure-population","code":"numerator","display":"Numerator"}]},"count":0}]}]},"request":{"method":"PUT","url":"MeasureReport/005d91f7-6128-48d4-b5c1-4e0f51a1c3b2"}}]}