{"resourceType":"Bundle","id":"tests-66803f75-5dc5-43fb-9844-f18d765a64ec-bundle","type":"transaction","entry":[{"fullUrl":"https://madie.cms.gov/Patient/66803f75-5dc5-43fb-9844-f18d765a64ec","resource":{"resourceType":"Patient","id":"66803f75-5dc5-43fb-9844-f18d765a64ec","meta":{"profile":["http://hl7.org/fhir/us/qicore/StructureDefinition/qicore-patient"]},"extension":[{"url":"http://hl7.org/fhir/us/core/StructureDefinition/us-core-race","extension":[{"url":"ombCategory","valueCoding":{"system":"urn:oid:2.16.840.1.113883.6.238","code":"1002-5","display":"American Indian or Alaska Native","userSelected":true}},{"url":"text","valueString":"American Indian or Alaska Native"}]},{"url":"http://hl7.org/fhir/us/core/StructureDefinition/us-core-ethnicity","extension":[{"url":"ombCategory","valueCoding":{"system":"urn:oid:2.16.840.1.113883.6.238","code":"2135-2","display":"Hispanic or Latino","userSelected":true}},{"url":"text","valueString":"Hispanic or Latino"}]}],"identifier":[{"type":{"coding":[{"system":"http://terminology.hl7.org/CodeSystem/v2-0203","code":"MR"}]},"system":"https://bonnie-fhir.healthit.gov/","value":"6615806fdb207d74c03b8a5f"}],"name":[{"family":"NUMERStrat2Pass","given":["LWBS"]}],"gender":"male","birthDate":"2007-01-01"},"request":{"method":"PUT","url":"Patient/66803f75-5dc5-43fb-9844-f18d765a64ec"}},{"fullUrl":"https://madie.cms.gov/Encounter/3d2405af-6a2c-4a71-92bb-ac910678738b","resource":{"resourceType":"Encounter","id":"3d2405af-6a2c-4a71-92bb-ac910678738b","meta":{"profile":["http://hl7.org/fhir/us/qicore/StructureDefinition/qicore-encounter"]},"status":"finished","class":{"system":"http://terminology.hl7.org/CodeSystem/v3-ActCode","code":"EMER","display":"emergency"},"type":[{"coding":[{"system":"http://snomed.info/sct","version":"2023-09","code":"225390008","display":"Triage (procedure)","userSelected":true}]}],"subject":{"reference":"Patient/66803f75-5dc5-43fb-9844-f18d765a64ec"},"period":{"start":"2026-12-31T08:00:00.000+00:00","end":"2026-12-31T08:15:00.000+00:00"},"hospitalization":{"dischargeDisposition":{"coding":[{"system":"http://snomed.info/sct","code":"21541000119102","display":"Patient left without being seen (finding)","userSelected":true}]}}},"request":{"method":"PUT","url":"Encounter/3d2405af-6a2c-4a71-92bb-ac910678738b"}},{"fullUrl":"https://madie.cms.gov/Coverage/9d3e6688-a2e7-49a5-9991-108b2d300a69","resource":{"resourceType":"Coverage","id":"9d3e6688-a2e7-49a5-9991-108b2d300a69","meta":{"profile":["http://hl7.org/fhir/us/qicore/StructureDefinition/qicore-coverage"]},"status":"active","beneficiary":{"reference":"Patient/66803f75-5dc5-43fb-9844-f18d765a64ec"},"payor":[{"reference":"Organization/607fdef9-3983-4cef-ab1a-95434d29b463"}]},"request":{"method":"PUT","url":"Coverage/9d3e6688-a2e7-49a5-9991-108b2d300a69"}},{"fullUrl":"https://madie.cms.gov/Organization/f492a4c1-7f73-411c-a685-b820dac4cdd8","resource":{"resourceType":"Organization","id":"607fdef9-3983-4cef-ab1a-95434d29b463","meta":{"profile":["http://hl7.org/fhir/us/qicore/StructureDefinition/qicore-organization"]},"identifier":[{"use":"temp","system":"urn:oid:2.16.840.1.113883.4.4","value":"21-3259825"}],"active":true,"type":[{"coding":[{"system":"http://terminology.hl7.org/CodeSystem/organization-type","code":"pay","display":"Payer"}]}],"name":"Blue Cross Blue Shield of Texas","telecom":[{"system":"phone","value":"(+1) 972-766-6900"}],"address":[{"use":"billing","type":"postal","line":["P.O. Box 660044"],"city":"Dallas","state":"TX","postalCode":"75266-0044","country":"USA"}]},"request":{"method":"PUT","url":"Organization/607fdef9-3983-4cef-ab1a-95434d29b463"}},{"fullUrl":"https://madie.cms.gov/Practitioner/fd38fb32-6af1-429c-be7e-ff349bdbbefc","resource":{"resourceType":"Practitioner","id":"fd38fb32-6af1-429c-be7e-ff349bdbbefc","meta":{"profile":["http://hl7.org/fhir/us/qicore/StructureDefinition/qicore-practitioner"]},"identifier":[{"system":"http://hl7.org/fhir/sid/us-npi","value":"123456"}],"name":[{"family":"Evil","prefix":["Dr"]}]},"request":{"method":"PUT","url":"Practitioner/fd38fb32-6af1-429c-be7e-ff349bdbbefc"}},{"fullUrl":"https://madie.cms.gov/MeasureReport/c33f1e46-58c7-4d3a-947a-2938834fc04f","resource":{"resourceType":"MeasureReport","id":"c33f1e46-58c7-4d3a-947a-2938834fc04f","meta":{"profile":["http://hl7.org/fhir/us/cqfmeasures/StructureDefinition/test-case-cqfm"]},"contained":[{"resourceType":"Parameters","id":"7463b600-dde7-46eb-9531-4dc6a4a2ddf1-parameters","parameter":[{"name":"subject","valueString":"66803f75-5dc5-43fb-9844-f18d765a64ec"}]}],"extension":[{"url":"http://hl7.org/fhir/us/cqfmeasures/StructureDefinition/cqfm-inputParameters","valueReference":{"reference":"#7463b600-dde7-46eb-9531-4dc6a4a2ddf1-parameters"}},{"url":"http://hl7.org/fhir/us/cqfmeasures/StructureDefinition/cqfm-testCaseDescription","valueMarkdown":"Adult, age 18 ED enc last day of MP, LWBS, no mental illness"}],"modifierExtension":[{"url":"http://hl7.org/fhir/us/cqfmeasures/StructureDefinition/cqfm-isTestCase","valueBoolean":true}],"status":"complete","type":"individual","measure":"https://madie.cms.gov/Measure/CMS1264ECCQREHQRFHIR","period":{"start":"2026-01-01","end":"2026-12-31"},"group":[{"population":[{"code":{"coding":[{"system":"http://terminology.hl7.org/CodeSystem/measure-population","code":"initial-population","display":"Initial Population"}]},"count":1},{"code":{"coding":[{"system":"http://terminology.hl7.org/CodeSystem/measure-population","code":"denominator","display":"Denominator"}]},"count":1},{"code":{"coding":[{"system":"http://terminology.hl7.org/CodeSystem/measure-population","code":"numerator","display":"Numerator"}]},"count":1}]}]},"request":{"method":"PUT","url":"MeasureReport/c33f1e46-58c7-4d3a-947a-2938834fc04f"}}]}