{"resourceType":"Bundle","id":"tests-b312fbc9-083f-4832-8d7c-d3e64df4145b-bundle","type":"transaction","entry":[{"fullUrl":"https://madie.cms.gov/Patient/b312fbc9-083f-4832-8d7c-d3e64df4145b","resource":{"resourceType":"Patient","id":"b312fbc9-083f-4832-8d7c-d3e64df4145b","meta":{"profile":["http://hl7.org/fhir/us/qicore/StructureDefinition/qicore-patient"]},"extension":[{"url":"http://hl7.org/fhir/us/core/StructureDefinition/us-core-race","extension":[{"url":"ombCategory","valueCoding":{"system":"urn:oid:2.16.840.1.113883.6.238","code":"1002-5","display":"American Indian or Alaska Native","userSelected":true}},{"url":"text","valueString":"American Indian or Alaska Native"}]},{"url":"http://hl7.org/fhir/us/core/StructureDefinition/us-core-ethnicity","extension":[{"url":"ombCategory","valueCoding":{"system":"urn:oid:2.16.840.1.113883.6.238","code":"2135-2","display":"Hispanic or Latino","userSelected":true}},{"url":"text","valueString":"Hispanic or Latino"}]}],"identifier":[{"type":{"coding":[{"system":"http://terminology.hl7.org/CodeSystem/v2-0203","code":"MR"}]},"system":"https://bonnie-fhir.healthit.gov/","value":"661476b015ed5841a5547ebf"}],"name":[{"family":"NUMERStrat4Pass","given":["OrderToTransferGreaterThan240MinBeforeDeparture"]}],"gender":"male","birthDate":"2008-01-01"},"request":{"method":"PUT","url":"Patient/b312fbc9-083f-4832-8d7c-d3e64df4145b"}},{"fullUrl":"https://madie.cms.gov/Encounter/83f2639f-8ad9-426e-99ae-4e3f3f793f08","resource":{"resourceType":"Encounter","id":"83f2639f-8ad9-426e-99ae-4e3f3f793f08","meta":{"profile":["http://hl7.org/fhir/us/qicore/StructureDefinition/qicore-encounter"]},"status":"finished","class":{"system":"http://terminology.hl7.org/CodeSystem/v3-ActCode","code":"EMER","display":"emergency department"},"type":[{"coding":[{"system":"http://snomed.info/sct","version":"2023-09","code":"4525004","display":"Emergency department patient visit (procedure)","userSelected":true}]}],"subject":{"reference":"Patient/b312fbc9-083f-4832-8d7c-d3e64df4145b"},"period":{"start":"2026-01-01T00:00:00.000+00:00","end":"2026-01-01T06:00:00.000+00:00"},"diagnosis":[{"condition":{"reference":"Condition/887e66f6-71da-4646-ba8d-8d26d37f07c2"},"use":{"coding":[{"system":"http://terminology.hl7.org/CodeSystem/diagnosis-role","code":"billing"}]},"rank":1}],"location":[{"location":{"reference":"Location/3f3e6369-9233-4fab-b744-40595d48e9da"},"period":{"start":"2026-01-01T00:00:00.000+00:00","end":"2026-01-01T06:01:00.000+00:00"}}]},"request":{"method":"PUT","url":"Encounter/83f2639f-8ad9-426e-99ae-4e3f3f793f08"}},{"fullUrl":"https://madie.cms.gov/ServiceRequest/6d1bf833-3b86-42bc-a50f-377363663dd2","resource":{"resourceType":"ServiceRequest","id":"6d1bf833-3b86-42bc-a50f-377363663dd2","meta":{"profile":["http://hl7.org/fhir/us/qicore/StructureDefinition/qicore-servicerequest"]},"status":"completed","intent":"order","code":{"coding":[{"system":"http://snomed.info/sct","code":"19712007","display":"Patient transfer, to another health care facility (procedure)","userSelected":true}]},"subject":{"reference":"Patient/b312fbc9-083f-4832-8d7c-d3e64df4145b"},"authoredOn":"2026-01-01T02:00:00.000+00:00"},"request":{"method":"PUT","url":"ServiceRequest/6d1bf833-3b86-42bc-a50f-377363663dd2"}},{"fullUrl":"https://madie.cms.gov/Location/3f3e6369-9233-4fab-b744-40595d48e9da","resource":{"resourceType":"Location","id":"3f3e6369-9233-4fab-b744-40595d48e9da","meta":{"profile":["http://hl7.org/fhir/us/qicore/StructureDefinition/qicore-location"]},"identifier":[{"use":"usual","system":"http://exampleoflocation.com","value":"B1-S.F2"}],"name":"Emergency Department","type":[{"coding":[{"system":"https://www.cdc.gov/nhsn/cdaportal/terminology/codesystem/hsloc.html","version":"2022","code":"1108-0","display":"Emergency Department","userSelected":true}]}]},"request":{"method":"PUT","url":"Location/3f3e6369-9233-4fab-b744-40595d48e9da"}},{"fullUrl":"https://madie.cms.gov/Coverage/6bc3afff-7fbd-48f4-98b8-f4fa3206af8c","resource":{"resourceType":"Coverage","id":"6bc3afff-7fbd-48f4-98b8-f4fa3206af8c","meta":{"profile":["http://hl7.org/fhir/us/qicore/StructureDefinition/qicore-coverage"]},"status":"active","beneficiary":{"reference":"Patient/b312fbc9-083f-4832-8d7c-d3e64df4145b"},"payor":[{"reference":"Organization/18ca435c-cae6-4c34-8033-af717477f9fc"}]},"request":{"method":"PUT","url":"Coverage/6bc3afff-7fbd-48f4-98b8-f4fa3206af8c"}},{"fullUrl":"https://madie.cms.gov/Condition/887e66f6-71da-4646-ba8d-8d26d37f07c2","resource":{"resourceType":"Condition","id":"887e66f6-71da-4646-ba8d-8d26d37f07c2","meta":{"profile":["http://hl7.org/fhir/us/qicore/StructureDefinition/qicore-condition"]},"category":[{"coding":[{"system":"http://terminology.hl7.org/CodeSystem/condition-category","code":"encounter-diagnosis","display":"Encounter Diagnosis"}]}],"code":{"coding":[{"system":"http://snomed.info/sct","version":"2023-09","code":"10349009","display":"Multi-infarct dementia with delirium (disorder)","userSelected":true}]},"subject":{"reference":"Patient/b312fbc9-083f-4832-8d7c-d3e64df4145b"},"recordedDate":"2026-01-01T08:00:00.000+00:00"},"request":{"method":"PUT","url":"Condition/887e66f6-71da-4646-ba8d-8d26d37f07c2"}},{"fullUrl":"https://madie.cms.gov/Organization/d1897a47-aa17-404a-b3d4-a5968d649bac","resource":{"resourceType":"Organization","id":"18ca435c-cae6-4c34-8033-af717477f9fc","meta":{"profile":["http://hl7.org/fhir/us/qicore/StructureDefinition/qicore-organization"]},"identifier":[{"use":"temp","system":"urn:oid:2.16.840.1.113883.4.4","value":"21-3259825"}],"active":true,"type":[{"coding":[{"system":"http://terminology.hl7.org/CodeSystem/organization-type","code":"pay","display":"Payer"}]}],"name":"Blue Cross Blue Shield of Texas","telecom":[{"system":"phone","value":"(+1) 972-766-6900"}],"address":[{"use":"billing","type":"postal","line":["P.O. Box 660044"],"city":"Dallas","state":"TX","postalCode":"75266-0044","country":"USA"}]},"request":{"method":"PUT","url":"Organization/18ca435c-cae6-4c34-8033-af717477f9fc"}},{"fullUrl":"https://madie.cms.gov/Practitioner/4dfc579e-e5f7-487c-b565-7bb75b12952c","resource":{"resourceType":"Practitioner","id":"4dfc579e-e5f7-487c-b565-7bb75b12952c","meta":{"profile":["http://hl7.org/fhir/us/qicore/StructureDefinition/qicore-practitioner"]},"identifier":[{"system":"http://hl7.org/fhir/sid/us-npi","value":"123456"}],"name":[{"family":"Evil","prefix":["Dr"]}]},"request":{"method":"PUT","url":"Practitioner/4dfc579e-e5f7-487c-b565-7bb75b12952c"}},{"fullUrl":"https://madie.cms.gov/MeasureReport/e4bd95d3-86c3-4cfa-a58b-0cc71f7e8ef7","resource":{"resourceType":"MeasureReport","id":"e4bd95d3-86c3-4cfa-a58b-0cc71f7e8ef7","meta":{"profile":["http://hl7.org/fhir/us/cqfmeasures/StructureDefinition/test-case-cqfm"]},"contained":[{"resourceType":"Parameters","id":"af4c3028-7c1e-4c21-9f9b-5e859f14d27b-parameters","parameter":[{"name":"subject","valueString":"b312fbc9-083f-4832-8d7c-d3e64df4145b"}]}],"extension":[{"url":"http://hl7.org/fhir/us/cqfmeasures/StructureDefinition/cqfm-inputParameters","valueReference":{"reference":"#af4c3028-7c1e-4c21-9f9b-5e859f14d27b-parameters"}},{"url":"http://hl7.org/fhir/us/cqfmeasures/StructureDefinition/cqfm-testCaseDescription","valueMarkdown":"Enc 1st minute of 1st day of MP; adult with mental illness, transferred"}],"modifierExtension":[{"url":"http://hl7.org/fhir/us/cqfmeasures/StructureDefinition/cqfm-isTestCase","valueBoolean":true}],"status":"complete","type":"individual","measure":"https://madie.cms.gov/Measure/CMS1264ECCQREHQRFHIR","period":{"start":"2026-01-01","end":"2026-12-31"},"group":[{"population":[{"code":{"coding":[{"system":"http://terminology.hl7.org/CodeSystem/measure-population","code":"initial-population","display":"Initial Population"}]},"count":1},{"code":{"coding":[{"system":"http://terminology.hl7.org/CodeSystem/measure-population","code":"denominator","display":"Denominator"}]},"count":1},{"code":{"coding":[{"system":"http://terminology.hl7.org/CodeSystem/measure-population","code":"numerator","display":"Numerator"}]},"count":1}]}]},"request":{"method":"PUT","url":"MeasureReport/e4bd95d3-86c3-4cfa-a58b-0cc71f7e8ef7"}}]}