{"resourceType":"Bundle","id":"tests-dad5b672-1e5b-437c-91fe-1f69b5d58c70-bundle","type":"transaction","entry":[{"fullUrl":"https://madie.cms.gov/Patient/dad5b672-1e5b-437c-91fe-1f69b5d58c70","resource":{"resourceType":"Patient","id":"dad5b672-1e5b-437c-91fe-1f69b5d58c70","meta":{"profile":["http://hl7.org/fhir/us/qicore/StructureDefinition/qicore-patient"]},"extension":[{"url":"http://hl7.org/fhir/us/core/StructureDefinition/us-core-race","extension":[{"url":"ombCategory","valueCoding":{"system":"urn:oid:2.16.840.1.113883.6.238","code":"1002-5","display":"American Indian or Alaska Native","userSelected":true}},{"url":"text","valueString":"American Indian or Alaska Native"}]},{"url":"http://hl7.org/fhir/us/core/StructureDefinition/us-core-ethnicity","extension":[{"url":"ombCategory","valueCoding":{"system":"urn:oid:2.16.840.1.113883.6.238","code":"2135-2","display":"Hispanic or Latino","userSelected":true}},{"url":"text","valueString":"Hispanic or Latino"}]}],"identifier":[{"type":{"coding":[{"system":"http://terminology.hl7.org/CodeSystem/v2-0203","code":"MR"}]},"system":"https://bonnie-fhir.healthit.gov/","value":"661476b015ed5841a5547ebf"}],"name":[{"family":"NUMEXStrat2Fail","given":["BoardedAfterEDEncEnds"]}],"gender":"unknown","birthDate":"2008-01-01"},"request":{"method":"PUT","url":"Patient/dad5b672-1e5b-437c-91fe-1f69b5d58c70"}},{"fullUrl":"https://madie.cms.gov/Encounter/ac4c92d5-7621-4396-a9a6-08c495c21d2e","resource":{"resourceType":"Encounter","id":"ac4c92d5-7621-4396-a9a6-08c495c21d2e","meta":{"profile":["http://hl7.org/fhir/us/qicore/StructureDefinition/qicore-encounter"]},"status":"finished","class":{"system":"http://terminology.hl7.org/CodeSystem/v3-ActCode","code":"EMER","display":"emergency department"},"type":[{"coding":[{"system":"http://snomed.info/sct","version":"2023-09","code":"4525004","display":"Emergency department patient visit (procedure)","userSelected":true}]}],"subject":{"reference":"Patient/dad5b672-1e5b-437c-91fe-1f69b5d58c70"},"period":{"start":"2026-01-01T00:00:00.000+00:00","end":"2026-01-01T01:59:00.000+00:00"},"diagnosis":[{"condition":{"reference":"Condition/non-behavioral-health-diagnosis-without-substance-use-disorders-8a64"},"use":{"coding":[{"system":"http://terminology.hl7.org/CodeSystem/diagnosis-role","code":"billing"}]},"rank":1}],"location":[{"location":{"reference":"Location/03036190-8dda-4e9a-9b0a-1022b627f5b9"},"period":{"start":"2026-01-01T00:00:00.000+00:00","end":"2026-01-01T08:01:00.000+00:00"}}]},"request":{"method":"PUT","url":"Encounter/ac4c92d5-7621-4396-a9a6-08c495c21d2e"}},{"fullUrl":"https://madie.cms.gov/ServiceRequest/79a8be2c-1ae2-433a-9520-747bc50f9bf2","resource":{"resourceType":"ServiceRequest","id":"79a8be2c-1ae2-433a-9520-747bc50f9bf2","meta":{"profile":["http://hl7.org/fhir/us/qicore/StructureDefinition/qicore-servicerequest"]},"status":"completed","intent":"order","code":{"coding":[{"system":"http://snomed.info/sct","code":"19712007","display":"Patient transfer, to another health care facility (procedure)","userSelected":true}]},"subject":{"reference":"Patient/dad5b672-1e5b-437c-91fe-1f69b5d58c70"},"authoredOn":"2026-01-01T02:00:00.000+00:00"},"request":{"method":"PUT","url":"ServiceRequest/79a8be2c-1ae2-433a-9520-747bc50f9bf2"}},{"fullUrl":"https://madie.cms.gov/Location/03036190-8dda-4e9a-9b0a-1022b627f5b9","resource":{"resourceType":"Location","id":"03036190-8dda-4e9a-9b0a-1022b627f5b9","meta":{"profile":["http://hl7.org/fhir/us/qicore/StructureDefinition/qicore-location"]},"identifier":[{"use":"usual","system":"http://exampleoflocation.com","value":"B1-S.F2"}],"name":"Emergency Department","type":[{"coding":[{"system":"https://www.cdc.gov/nhsn/cdaportal/terminology/codesystem/hsloc.html","version":"2022","code":"1108-0","display":"Emergency Department","userSelected":true}]}]},"request":{"method":"PUT","url":"Location/03036190-8dda-4e9a-9b0a-1022b627f5b9"}},{"fullUrl":"https://madie.cms.gov/Coverage/014c8ee2-d4d5-455d-909c-ef5d5a41c17f","resource":{"resourceType":"Coverage","id":"014c8ee2-d4d5-455d-909c-ef5d5a41c17f","meta":{"profile":["http://hl7.org/fhir/us/qicore/StructureDefinition/qicore-coverage"]},"status":"active","beneficiary":{"reference":"Patient/dad5b672-1e5b-437c-91fe-1f69b5d58c70"},"payor":[{"reference":"Organization/f7da4368-fb6d-4d73-a75b-f78024cbb18d"}]},"request":{"method":"PUT","url":"Coverage/014c8ee2-d4d5-455d-909c-ef5d5a41c17f"}},{"fullUrl":"https://madie.cms.gov/Condition/3fccc7d8-25ac-4b17-8e37-2a0e3289126d","resource":{"resourceType":"Condition","id":"3fccc7d8-25ac-4b17-8e37-2a0e3289126d","meta":{"profile":["http://hl7.org/fhir/us/qicore/StructureDefinition/qicore-condition"]},"category":[{"coding":[{"system":"http://terminology.hl7.org/CodeSystem/condition-category","code":"encounter-diagnosis","display":"Encounter Diagnosis"}]}],"code":{"coding":[{"system":"http://snomed.info/sct","version":"2023-09","code":"10674711000119105","display":"Acute severe exacerbation of asthma co-occurrent with allergic rhinitis (disorder)","userSelected":true}]},"subject":{"reference":"Patient/dad5b672-1e5b-437c-91fe-1f69b5d58c70"},"recordedDate":"2026-01-01T08:00:00.000+00:00"},"request":{"method":"PUT","url":"Condition/3fccc7d8-25ac-4b17-8e37-2a0e3289126d"}},{"fullUrl":"https://madie.cms.gov/ServiceRequest/641a8c3e-6a11-464b-ba97-01fb17e2ca50","resource":{"resourceType":"ServiceRequest","id":"641a8c3e-6a11-464b-ba97-01fb17e2ca50","meta":{"profile":["http://hl7.org/fhir/us/qicore/StructureDefinition/qicore-servicerequest"]},"status":"active","intent":"order","code":{"coding":[{"system":"http://snomed.info/sct","version":"2023-09","code":"448551000124100","display":"Patient transfer to another hospital (procedure)","userSelected":true}]},"subject":{"reference":"Patient/dad5b672-1e5b-437c-91fe-1f69b5d58c70"},"authoredOn":"2026-01-01T06:02:00.000+00:00"},"request":{"method":"PUT","url":"ServiceRequest/641a8c3e-6a11-464b-ba97-01fb17e2ca50"}},{"fullUrl":"https://madie.cms.gov/Organization/2d200f9a-be4c-4a72-b0de-31ed76224218","resource":{"resourceType":"Organization","id":"f7da4368-fb6d-4d73-a75b-f78024cbb18d","meta":{"profile":["http://hl7.org/fhir/us/qicore/StructureDefinition/qicore-organization"]},"identifier":[{"use":"temp","system":"urn:oid:2.16.840.1.113883.4.4","value":"21-3259825"}],"active":true,"type":[{"coding":[{"system":"http://terminology.hl7.org/CodeSystem/organization-type","code":"pay","display":"Payer"}]}],"name":"Blue Cross Blue Shield of Texas","telecom":[{"system":"phone","value":"(+1) 972-766-6900"}],"address":[{"use":"billing","type":"postal","line":["P.O. Box 660044"],"city":"Dallas","state":"TX","postalCode":"75266-0044","country":"USA"}]},"request":{"method":"PUT","url":"Organization/f7da4368-fb6d-4d73-a75b-f78024cbb18d"}},{"fullUrl":"https://madie.cms.gov/Practitioner/eed77e2c-4116-40a6-bfd9-395280021962","resource":{"resourceType":"Practitioner","id":"eed77e2c-4116-40a6-bfd9-395280021962","meta":{"profile":["http://hl7.org/fhir/us/qicore/StructureDefinition/qicore-practitioner"]},"identifier":[{"system":"http://hl7.org/fhir/sid/us-npi","value":"123456"}],"name":[{"family":"Evil","prefix":["Dr"]}]},"request":{"method":"PUT","url":"Practitioner/eed77e2c-4116-40a6-bfd9-395280021962"}},{"fullUrl":"https://madie.cms.gov/MeasureReport/4aa918f1-9f4e-47bf-b49b-4b0d33efa472","resource":{"resourceType":"MeasureReport","id":"4aa918f1-9f4e-47bf-b49b-4b0d33efa472","meta":{"profile":["http://hl7.org/fhir/us/cqfmeasures/StructureDefinition/test-case-cqfm"]},"contained":[{"resourceType":"Parameters","id":"2f355639-ec1a-4fba-833f-d5770490e16b-parameters","parameter":[{"name":"subject","valueString":"dad5b672-1e5b-437c-91fe-1f69b5d58c70"}]}],"extension":[{"url":"http://hl7.org/fhir/us/cqfmeasures/StructureDefinition/cqfm-inputParameters","valueReference":{"reference":"#2f355639-ec1a-4fba-833f-d5770490e16b-parameters"}},{"url":"http://hl7.org/fhir/us/cqfmeasures/StructureDefinition/cqfm-testCaseDescription","valueMarkdown":"Adult, ED transfer order AFTER ED enc where patient was boarded 6 hrs 1 min; Enc 8 hrs, enc departure 8 hrs 1 min. dx asthma "}],"modifierExtension":[{"url":"http://hl7.org/fhir/us/cqfmeasures/StructureDefinition/cqfm-isTestCase","valueBoolean":true}],"status":"complete","type":"individual","measure":"https://madie.cms.gov/Measure/CMS1264ECCQREHQRFHIR","period":{"start":"2026-01-01","end":"2026-12-31"},"group":[{"population":[{"code":{"coding":[{"system":"http://terminology.hl7.org/CodeSystem/measure-population","code":"initial-population","display":"Initial Population"}]},"count":1},{"code":{"coding":[{"system":"http://terminology.hl7.org/CodeSystem/measure-population","code":"denominator","display":"Denominator"}]},"count":1},{"code":{"coding":[{"system":"http://terminology.hl7.org/CodeSystem/measure-population","code":"numerator","display":"Numerator"}]},"count":1}]}]},"request":{"method":"PUT","url":"MeasureReport/4aa918f1-9f4e-47bf-b49b-4b0d33efa472"}}]}