{"resourceType":"Bundle","id":"tests-9b5e4d84-366b-4082-8409-b7e18e0a3c45-bundle","type":"transaction","entry":[{"fullUrl":"https://madie.cms.gov/Patient/9b5e4d84-366b-4082-8409-b7e18e0a3c45","resource":{"resourceType":"Patient","id":"9b5e4d84-366b-4082-8409-b7e18e0a3c45","meta":{"profile":["http://hl7.org/fhir/us/qicore/StructureDefinition/qicore-patient"]},"extension":[{"url":"http://hl7.org/fhir/us/core/StructureDefinition/us-core-race","extension":[{"url":"ombCategory","valueCoding":{"system":"urn:oid:2.16.840.1.113883.6.238","code":"1002-5","display":"American Indian or Alaska Native","userSelected":true}},{"url":"text","valueString":"American Indian or Alaska Native"}]},{"url":"http://hl7.org/fhir/us/core/StructureDefinition/us-core-ethnicity","extension":[{"url":"ombCategory","valueCoding":{"system":"urn:oid:2.16.840.1.113883.6.238","code":"2135-2","display":"Hispanic or Latino","userSelected":true}},{"url":"text","valueString":"Hispanic or Latino"}]}],"identifier":[{"type":{"coding":[{"system":"http://terminology.hl7.org/CodeSystem/v2-0203","code":"MR"}]},"system":"https://bonnie-fhir.healthit.gov/","value":"661476b015ed5841a5547ebf"}],"name":[{"family":"NUMERStrat4Pass","given":["Boarded241MinOrderTransfer"]}],"gender":"male","birthDate":"2007-01-01"},"request":{"method":"PUT","url":"Patient/9b5e4d84-366b-4082-8409-b7e18e0a3c45"}},{"fullUrl":"https://madie.cms.gov/Encounter/9590df4e-d61b-43ed-a48d-bf16508c1364","resource":{"resourceType":"Encounter","id":"9590df4e-d61b-43ed-a48d-bf16508c1364","meta":{"profile":["http://hl7.org/fhir/us/qicore/StructureDefinition/qicore-encounter"]},"status":"finished","class":{"system":"http://terminology.hl7.org/CodeSystem/v3-ActCode","code":"EMER","display":"emergency department"},"type":[{"coding":[{"system":"http://snomed.info/sct","version":"2023-09","code":"4525004","display":"Emergency department patient visit (procedure)","userSelected":true}]}],"subject":{"reference":"Patient/9b5e4d84-366b-4082-8409-b7e18e0a3c45"},"period":{"start":"2026-01-01T19:58:00.000+00:00","end":"2026-01-01T19:58:00.000+00:00"},"diagnosis":[{"condition":{"reference":"Condition/80d7f2ee-0ad1-4a44-aa49-0e06a3b1c5d3"},"use":{"coding":[{"system":"http://terminology.hl7.org/CodeSystem/diagnosis-role","code":"billing"}]},"rank":1}],"location":[{"location":{"reference":"Location/039a0c1d-7fef-4d60-a0f7-d1731d8859ad"},"period":{"start":"2026-01-01T19:58:00.000+00:00","end":"2026-01-01T23:59:00.000+00:00"}}]},"request":{"method":"PUT","url":"Encounter/9590df4e-d61b-43ed-a48d-bf16508c1364"}},{"fullUrl":"https://madie.cms.gov/ServiceRequest/e33038c6-1d3b-4522-9c28-cd49ca69577f","resource":{"resourceType":"ServiceRequest","id":"e33038c6-1d3b-4522-9c28-cd49ca69577f","meta":{"profile":["http://hl7.org/fhir/us/qicore/StructureDefinition/qicore-servicerequest"]},"status":"completed","intent":"order","code":{"coding":[{"system":"http://snomed.info/sct","code":"19712007","display":"Patient transfer, to another health care facility (procedure)","userSelected":true}]},"subject":{"reference":"Patient/9b5e4d84-366b-4082-8409-b7e18e0a3c45"},"authoredOn":"2026-01-01T19:58:00.000+00:00"},"request":{"method":"PUT","url":"ServiceRequest/e33038c6-1d3b-4522-9c28-cd49ca69577f"}},{"fullUrl":"https://madie.cms.gov/Location/039a0c1d-7fef-4d60-a0f7-d1731d8859ad","resource":{"resourceType":"Location","id":"039a0c1d-7fef-4d60-a0f7-d1731d8859ad","meta":{"profile":["http://hl7.org/fhir/us/qicore/StructureDefinition/qicore-location"]},"identifier":[{"use":"usual","system":"http://exampleoflocation.com","value":"B1-S.F2"}],"name":"Emergency Department","type":[{"coding":[{"system":"https://www.cdc.gov/nhsn/cdaportal/terminology/codesystem/hsloc.html","version":"2022","code":"1108-0","display":"Emergency Department","userSelected":true}]}]},"request":{"method":"PUT","url":"Location/039a0c1d-7fef-4d60-a0f7-d1731d8859ad"}},{"fullUrl":"https://madie.cms.gov/Coverage/981f8716-84b6-49c4-b671-8410c9cb6429","resource":{"resourceType":"Coverage","id":"981f8716-84b6-49c4-b671-8410c9cb6429","meta":{"profile":["http://hl7.org/fhir/us/qicore/StructureDefinition/qicore-coverage"]},"status":"active","beneficiary":{"reference":"Patient/9b5e4d84-366b-4082-8409-b7e18e0a3c45"},"payor":[{"reference":"Organization/3778262e-e084-4bb5-9a47-1a144735f786"}]},"request":{"method":"PUT","url":"Coverage/981f8716-84b6-49c4-b671-8410c9cb6429"}},{"fullUrl":"https://madie.cms.gov/Condition/80d7f2ee-0ad1-4a44-aa49-0e06a3b1c5d3","resource":{"resourceType":"Condition","id":"80d7f2ee-0ad1-4a44-aa49-0e06a3b1c5d3","meta":{"profile":["http://hl7.org/fhir/us/qicore/StructureDefinition/qicore-condition"]},"category":[{"coding":[{"system":"http://terminology.hl7.org/CodeSystem/condition-category","code":"encounter-diagnosis","display":"Encounter Diagnosis"}]}],"code":{"coding":[{"system":"http://snomed.info/sct","version":"2023-09","code":"10349009","display":"Multi-infarct dementia with delirium (disorder)","userSelected":true}]},"subject":{"reference":"Patient/9b5e4d84-366b-4082-8409-b7e18e0a3c45"},"recordedDate":"2026-04-09T08:00:00.000+00:00"},"request":{"method":"PUT","url":"Condition/80d7f2ee-0ad1-4a44-aa49-0e06a3b1c5d3"}},{"fullUrl":"https://madie.cms.gov/Organization/c47c513b-56ab-4c26-bfd5-2b7d40f4945e","resource":{"resourceType":"Organization","id":"3778262e-e084-4bb5-9a47-1a144735f786","meta":{"profile":["http://hl7.org/fhir/us/qicore/StructureDefinition/qicore-organization"]},"identifier":[{"use":"temp","system":"urn:oid:2.16.840.1.113883.4.4","value":"21-3259825"}],"active":true,"type":[{"coding":[{"system":"http://terminology.hl7.org/CodeSystem/organization-type","code":"pay","display":"Payer"}]}],"name":"Blue Cross Blue Shield of Texas","telecom":[{"system":"phone","value":"(+1) 972-766-6900"}],"address":[{"use":"billing","type":"postal","line":["P.O. Box 660044"],"city":"Dallas","state":"TX","postalCode":"75266-0044","country":"USA"}]},"request":{"method":"PUT","url":"Organization/3778262e-e084-4bb5-9a47-1a144735f786"}},{"fullUrl":"https://madie.cms.gov/Practitioner/721934cf-d827-4f61-a150-4b480074a8b4","resource":{"resourceType":"Practitioner","id":"721934cf-d827-4f61-a150-4b480074a8b4","meta":{"profile":["http://hl7.org/fhir/us/qicore/StructureDefinition/qicore-practitioner"]},"identifier":[{"system":"http://hl7.org/fhir/sid/us-npi","value":"123456"}],"name":[{"family":"Evil","prefix":["Dr"]}]},"request":{"method":"PUT","url":"Practitioner/721934cf-d827-4f61-a150-4b480074a8b4"}},{"fullUrl":"https://madie.cms.gov/MeasureReport/81df5d17-15c0-4b81-8260-8247a4e4c7d5","resource":{"resourceType":"MeasureReport","id":"81df5d17-15c0-4b81-8260-8247a4e4c7d5","meta":{"profile":["http://hl7.org/fhir/us/cqfmeasures/StructureDefinition/test-case-cqfm"]},"contained":[{"resourceType":"Parameters","id":"91b9de86-3765-4430-bc8b-0890d41746b9-parameters","parameter":[{"name":"subject","valueString":"9b5e4d84-366b-4082-8409-b7e18e0a3c45"}]}],"extension":[{"url":"http://hl7.org/fhir/us/cqfmeasures/StructureDefinition/cqfm-inputParameters","valueReference":{"reference":"#91b9de86-3765-4430-bc8b-0890d41746b9-parameters"}},{"url":"http://hl7.org/fhir/us/cqfmeasures/StructureDefinition/cqfm-testCaseDescription","valueMarkdown":"Adult, age 18, ED enc, order to transfer, boarded 241 minutes (time from decision to transfer to departure) , mental illness"}],"modifierExtension":[{"url":"http://hl7.org/fhir/us/cqfmeasures/StructureDefinition/cqfm-isTestCase","valueBoolean":true}],"status":"complete","type":"individual","measure":"https://madie.cms.gov/Measure/CMS1264ECCQREHQRFHIR","period":{"start":"2026-01-01","end":"2026-12-31"},"group":[{"population":[{"code":{"coding":[{"system":"http://terminology.hl7.org/CodeSystem/measure-population","code":"initial-population","display":"Initial Population"}]},"count":1},{"code":{"coding":[{"system":"http://terminology.hl7.org/CodeSystem/measure-population","code":"denominator","display":"Denominator"}]},"count":1},{"code":{"coding":[{"system":"http://terminology.hl7.org/CodeSystem/measure-population","code":"numerator","display":"Numerator"}]},"count":1}]}]},"request":{"method":"PUT","url":"MeasureReport/81df5d17-15c0-4b81-8260-8247a4e4c7d5"}}]}