{"resourceType":"Bundle","id":"tests-cc00e728-de5f-4df8-abcb-1e610496be66-bundle","type":"transaction","entry":[{"fullUrl":"https://madie.cms.gov/Patient/cc00e728-de5f-4df8-abcb-1e610496be66","resource":{"resourceType":"Patient","id":"cc00e728-de5f-4df8-abcb-1e610496be66","meta":{"profile":["http://hl7.org/fhir/us/qicore/StructureDefinition/qicore-patient"]},"extension":[{"url":"http://hl7.org/fhir/us/core/StructureDefinition/us-core-race","extension":[{"url":"ombCategory","valueCoding":{"system":"urn:oid:2.16.840.1.113883.6.238","code":"2076-8","display":"Native Hawaiian or Other Pacific Islander","userSelected":true}},{"url":"text","valueString":"Native Hawaiian or Other Pacific Islander"}]},{"url":"http://hl7.org/fhir/us/core/StructureDefinition/us-core-ethnicity","extension":[{"url":"ombCategory","valueCoding":{"system":"urn:oid:2.16.840.1.113883.6.238","code":"2186-5","display":"Not Hispanic or Latino","userSelected":true}},{"url":"text","valueString":"Not Hispanic or Latino"}]}],"identifier":[{"type":{"coding":[{"system":"http://terminology.hl7.org/CodeSystem/v2-0203","code":"MR"}]},"system":"https://bonnie-fhir.healthit.gov/","value":"661579e3db207d74c03b8a54"}],"name":[{"family":"NUMERStrat1Fail","given":["TimeToTx60Min"]}],"gender":"female","birthDate":"2009-12-31"},"request":{"method":"PUT","url":"Patient/cc00e728-de5f-4df8-abcb-1e610496be66"}},{"fullUrl":"https://madie.cms.gov/Encounter/39f924d9-1426-494b-84d1-ef827961b7db","resource":{"resourceType":"Encounter","id":"39f924d9-1426-494b-84d1-ef827961b7db","meta":{"profile":["http://hl7.org/fhir/us/qicore/StructureDefinition/qicore-encounter"]},"status":"finished","class":{"system":"http://terminology.hl7.org/CodeSystem/v3-ActCode","code":"EMER","display":"emergency"},"type":[{"coding":[{"system":"http://snomed.info/sct","version":"2023-09","code":"4525004","display":"Emergency department patient visit (procedure)","userSelected":true}]}],"subject":{"reference":"Patient/cc00e728-de5f-4df8-abcb-1e610496be66"},"period":{"start":"2026-01-01T08:00:00.000+00:00","end":"2026-01-01T12:15:00.000+00:00"},"location":[{"location":{"reference":"Location/1becab86-1a30-444c-ab86-fa4ab37770c7"},"period":{"start":"2026-01-01T07:45:00.000+00:00","end":"2026-01-01T12:15:00.000+00:00"}},{"location":{"reference":"Location/1a2e7d42-3ae8-4b05-b689-eebe4c94bd20"},"period":{"start":"2026-01-01T08:45:00.000+00:00","end":"2026-01-01T12:15:00.000+00:00"}}]},"request":{"method":"PUT","url":"Encounter/39f924d9-1426-494b-84d1-ef827961b7db"}},{"fullUrl":"https://madie.cms.gov/Location/1becab86-1a30-444c-ab86-fa4ab37770c7","resource":{"resourceType":"Location","id":"1becab86-1a30-444c-ab86-fa4ab37770c7","meta":{"profile":["http://hl7.org/fhir/us/qicore/StructureDefinition/qicore-location"]},"identifier":[{"use":"usual","system":"http://exampleoflocation.com","value":"B1-S.F1"}],"name":"Medical Surgical East, first floor","type":[{"coding":[{"system":"https://www.cdc.gov/nhsn/cdaportal/terminology/codesystem/hsloc.html","version":"2022","code":"1108-0","display":"Emergency Department","userSelected":true}]}]},"request":{"method":"PUT","url":"Location/1becab86-1a30-444c-ab86-fa4ab37770c7"}},{"fullUrl":"https://madie.cms.gov/Location/1a2e7d42-3ae8-4b05-b689-eebe4c94bd20","resource":{"resourceType":"Location","id":"1a2e7d42-3ae8-4b05-b689-eebe4c94bd20","meta":{"profile":["http://hl7.org/fhir/us/qicore/StructureDefinition/qicore-location"]},"identifier":[{"use":"usual","system":"http://exampleoflocation.com","value":"B1-S.F2"}],"name":"Emergency Department","type":[{"coding":[{"system":"https://www.cdc.gov/nhsn/cdaportal/terminology/codesystem/hsloc.html","version":"2022","code":"1209-6","display":"Treatment Room","userSelected":true}]}]},"request":{"method":"PUT","url":"Location/1a2e7d42-3ae8-4b05-b689-eebe4c94bd20"}},{"fullUrl":"https://madie.cms.gov/Condition/77c51a91-5f00-4fd5-9101-316a516c7616","resource":{"resourceType":"Condition","id":"77c51a91-5f00-4fd5-9101-316a516c7616","meta":{"profile":["http://hl7.org/fhir/us/qicore/StructureDefinition/qicore-condition"]},"category":[{"coding":[{"system":"http://terminology.hl7.org/CodeSystem/condition-category","code":"encounter-diagnosis","display":"Encounter Diagnosis"}]}],"code":{"coding":[{"system":"http://snomed.info/sct","version":"2023-09","code":"10660471000119109","display":"Ulcer of left foot due to type 2 diabetes mellitus (disorder)","userSelected":true}]},"subject":{"reference":"Patient/cc00e728-de5f-4df8-abcb-1e610496be66"},"recordedDate":"2026-01-01T08:00:00.000+00:00"},"request":{"method":"PUT","url":"Condition/77c51a91-5f00-4fd5-9101-316a516c7616"}},{"fullUrl":"https://madie.cms.gov/Location/08389245-5b9c-4579-9c34-8b78d1199e35","resource":{"resourceType":"Location","id":"08389245-5b9c-4579-9c34-8b78d1199e35","meta":{"profile":["http://hl7.org/fhir/us/qicore/StructureDefinition/qicore-location"]},"identifier":[{"use":"usual","system":"http://exampleoflocation.com","value":"B1-S.F2"}],"name":"Emergency Department","type":[{"coding":[{"system":"https://www.cdc.gov/nhsn/cdaportal/terminology/codesystem/hsloc.html","version":"2022","code":"1108-0","display":"Emergency Department","userSelected":true}]}]},"request":{"method":"PUT","url":"Location/08389245-5b9c-4579-9c34-8b78d1199e35"}},{"fullUrl":"https://madie.cms.gov/Location/cc3fd235-01d6-4e6f-a87d-556ae50b321a","resource":{"resourceType":"Location","id":"cc3fd235-01d6-4e6f-a87d-556ae50b321a","meta":{"profile":["http://hl7.org/fhir/us/qicore/StructureDefinition/qicore-location"]},"identifier":[{"use":"usual","system":"http://exampleoflocation.com","value":"B1-S.F2"}],"name":"Emergency Department","type":[{"coding":[{"system":"https://www.cdc.gov/nhsn/cdaportal/terminology/codesystem/hsloc.html","version":"2022","code":"1108-0","display":"Emergency Department","userSelected":true}]}]},"request":{"method":"PUT","url":"Location/cc3fd235-01d6-4e6f-a87d-556ae50b321a"}},{"fullUrl":"https://madie.cms.gov/Coverage/c438cde7-ae62-4ce5-87ce-7b6bdfa7629c","resource":{"resourceType":"Coverage","id":"c438cde7-ae62-4ce5-87ce-7b6bdfa7629c","meta":{"profile":["http://hl7.org/fhir/us/qicore/StructureDefinition/qicore-coverage"]},"status":"active","beneficiary":{"reference":"Patient/cc00e728-de5f-4df8-abcb-1e610496be66"},"payor":[{"reference":"Organization/3778262e-e084-4bb5-9a47-1a144735f786"}]},"request":{"method":"PUT","url":"Coverage/c438cde7-ae62-4ce5-87ce-7b6bdfa7629c"}},{"fullUrl":"https://madie.cms.gov/Organization/1080d942-c5ef-4551-b9ef-656878497d83","resource":{"resourceType":"Organization","id":"3778262e-e084-4bb5-9a47-1a144735f786","meta":{"profile":["http://hl7.org/fhir/us/qicore/StructureDefinition/qicore-organization"]},"identifier":[{"use":"temp","system":"urn:oid:2.16.840.1.113883.4.4","value":"21-3259825"}],"active":true,"type":[{"coding":[{"system":"http://terminology.hl7.org/CodeSystem/organization-type","code":"pay","display":"Payer"}]}],"name":"Blue Cross Blue Shield of Texas","telecom":[{"system":"phone","value":"(+1) 972-766-6900"}],"address":[{"use":"billing","type":"postal","line":["P.O. Box 660044"],"city":"Dallas","state":"TX","postalCode":"75266-0044","country":"USA"}]},"request":{"method":"PUT","url":"Organization/3778262e-e084-4bb5-9a47-1a144735f786"}},{"fullUrl":"https://madie.cms.gov/Practitioner/67e296f6-db7a-482f-8731-676210f26299","resource":{"resourceType":"Practitioner","id":"67e296f6-db7a-482f-8731-676210f26299","meta":{"profile":["http://hl7.org/fhir/us/qicore/StructureDefinition/qicore-practitioner"]},"identifier":[{"system":"http://hl7.org/fhir/sid/us-npi","value":"123456"}],"name":[{"family":"Evil","prefix":["Dr"]}]},"request":{"method":"PUT","url":"Practitioner/67e296f6-db7a-482f-8731-676210f26299"}},{"fullUrl":"https://madie.cms.gov/MeasureReport/dfd27e43-82af-465d-a690-600066ba29ad","resource":{"resourceType":"MeasureReport","id":"dfd27e43-82af-465d-a690-600066ba29ad","meta":{"profile":["http://hl7.org/fhir/us/cqfmeasures/StructureDefinition/test-case-cqfm"]},"contained":[{"resourceType":"Parameters","id":"29b8a821-9a62-49a6-a4f0-8562d45055d7-parameters","parameter":[{"name":"subject","valueString":"cc00e728-de5f-4df8-abcb-1e610496be66"}]}],"extension":[{"url":"http://hl7.org/fhir/us/cqfmeasures/StructureDefinition/cqfm-inputParameters","valueReference":{"reference":"#29b8a821-9a62-49a6-a4f0-8562d45055d7-parameters"}},{"url":"http://hl7.org/fhir/us/cqfmeasures/StructureDefinition/cqfm-testCaseDescription","valueMarkdown":"Child ED enc first day of MP, time to tx 60minutes. "}],"modifierExtension":[{"url":"http://hl7.org/fhir/us/cqfmeasures/StructureDefinition/cqfm-isTestCase","valueBoolean":true}],"status":"complete","type":"individual","measure":"https://madie.cms.gov/Measure/CMS1264ECCQREHQRFHIR","period":{"start":"2026-01-01","end":"2026-12-31"},"group":[{"population":[{"code":{"coding":[{"system":"http://terminology.hl7.org/CodeSystem/measure-population","code":"initial-population","display":"Initial Population"}]},"count":1},{"code":{"coding":[{"system":"http://terminology.hl7.org/CodeSystem/measure-population","code":"denominator","display":"Denominator"}]},"count":1},{"code":{"coding":[{"system":"http://terminology.hl7.org/CodeSystem/measure-population","code":"numerator","display":"Numerator"}]},"count":0}]}]},"request":{"method":"PUT","url":"MeasureReport/dfd27e43-82af-465d-a690-600066ba29ad"}}]}