{"resourceType":"Bundle","id":"tests-01959faf-5ea5-41cb-b960-b74da18cca85-bundle","type":"transaction","entry":[{"fullUrl":"https://madie.cms.gov/Patient/01959faf-5ea5-41cb-b960-b74da18cca85","resource":{"resourceType":"Patient","id":"01959faf-5ea5-41cb-b960-b74da18cca85","meta":{"profile":["http://hl7.org/fhir/us/qicore/StructureDefinition/qicore-patient"]},"extension":[{"url":"http://hl7.org/fhir/us/core/StructureDefinition/us-core-race","extension":[{"url":"ombCategory","valueCoding":{"system":"urn:oid:2.16.840.1.113883.6.238","code":"1002-5","display":"American Indian or Alaska Native","userSelected":true}},{"url":"text","valueString":"American Indian or Alaska Native"}]},{"url":"http://hl7.org/fhir/us/core/StructureDefinition/us-core-ethnicity","extension":[{"url":"ombCategory","valueCoding":{"system":"urn:oid:2.16.840.1.113883.6.238","code":"2135-2","display":"Hispanic or Latino","userSelected":true}},{"url":"text","valueString":"Hispanic or Latino"}]}],"identifier":[{"type":{"coding":[{"system":"http://terminology.hl7.org/CodeSystem/v2-0203","code":"MR"}]},"system":"https://bonnie-fhir.healthit.gov/","value":"6617e30316793f5a4fae16fe"}],"name":[{"family":"NUMERStrat3Pass","given":["DecisionToTransferOrderBoarded241Min"]}],"gender":"male","birthDate":"2009-01-01"},"request":{"method":"PUT","url":"Patient/01959faf-5ea5-41cb-b960-b74da18cca85"}},{"fullUrl":"https://madie.cms.gov/Encounter/1cfa5339-3232-459b-bf09-e53797479922","resource":{"resourceType":"Encounter","id":"1cfa5339-3232-459b-bf09-e53797479922","meta":{"profile":["http://hl7.org/fhir/us/qicore/StructureDefinition/qicore-encounter"]},"status":"finished","class":{"system":"http://terminology.hl7.org/CodeSystem/v3-ActCode","code":"EMER","display":"emergency"},"type":[{"coding":[{"system":"http://snomed.info/sct","version":"2023-09","code":"4525004","display":"Emergency department patient visit (procedure)","userSelected":true}]}],"subject":{"reference":"Patient/01959faf-5ea5-41cb-b960-b74da18cca85"},"period":{"start":"2026-01-01T00:00:00.000+00:00","end":"2026-01-01T06:00:00.000+00:00"},"diagnosis":[{"condition":{"reference":"Condition/d4c55f28-e9d0-4acf-81b0-4e824f820596"},"use":{"coding":[{"system":"http://terminology.hl7.org/CodeSystem/diagnosis-role","code":"billing"}]},"rank":1}],"location":[{"location":{"reference":"Location/5fc45a40-d34d-44bb-8f23-32dca1240019"},"period":{"start":"2026-01-01T00:00:00.000+00:00","end":"2026-01-01T06:01:00.000+00:00"}}]},"request":{"method":"PUT","url":"Encounter/1cfa5339-3232-459b-bf09-e53797479922"}},{"fullUrl":"https://madie.cms.gov/Location/5fc45a40-d34d-44bb-8f23-32dca1240019","resource":{"resourceType":"Location","id":"5fc45a40-d34d-44bb-8f23-32dca1240019","meta":{"profile":["http://hl7.org/fhir/us/qicore/StructureDefinition/qicore-location"]},"identifier":[{"use":"usual","system":"http://exampleoflocation.com","value":"B1-S.F2"}],"name":"Local ED","type":[{"coding":[{"system":"https://www.cdc.gov/nhsn/cdaportal/terminology/codesystem/hsloc.html","version":"2022","code":"1108-0","display":"Emergency Department","userSelected":true}]}]},"request":{"method":"PUT","url":"Location/5fc45a40-d34d-44bb-8f23-32dca1240019"}},{"fullUrl":"https://madie.cms.gov/ServiceRequest/7b0273a9-3fa5-4042-a47d-dd9f56c8096b","resource":{"resourceType":"ServiceRequest","id":"7b0273a9-3fa5-4042-a47d-dd9f56c8096b","meta":{"profile":["http://hl7.org/fhir/us/qicore/StructureDefinition/qicore-servicerequest"]},"status":"completed","intent":"order","code":{"coding":[{"system":"http://snomed.info/sct","code":"19712007","display":"Patient transfer, to another health care facility (procedure)","userSelected":true}]},"subject":{"reference":"Patient/01959faf-5ea5-41cb-b960-b74da18cca85"},"authoredOn":"2026-01-01T02:00:00.000+00:00"},"request":{"method":"PUT","url":"ServiceRequest/7b0273a9-3fa5-4042-a47d-dd9f56c8096b"}},{"fullUrl":"https://madie.cms.gov/Condition/d4c55f28-e9d0-4acf-81b0-4e824f820596","resource":{"resourceType":"Condition","id":"d4c55f28-e9d0-4acf-81b0-4e824f820596","meta":{"profile":["http://hl7.org/fhir/us/qicore/StructureDefinition/qicore-condition"]},"category":[{"coding":[{"system":"http://terminology.hl7.org/CodeSystem/condition-category","code":"encounter-diagnosis","display":"Encounter Diagnosis"}]}],"code":{"coding":[{"system":"http://snomed.info/sct","version":"2023-09","code":"10349009","display":"Multi-infarct dementia with delirium (disorder)","userSelected":true}]},"subject":{"reference":"Patient/01959faf-5ea5-41cb-b960-b74da18cca85"},"recordedDate":"2025-12-31T23:59:00.000+00:00"},"request":{"method":"PUT","url":"Condition/d4c55f28-e9d0-4acf-81b0-4e824f820596"}},{"fullUrl":"https://madie.cms.gov/Coverage/e0025d3b-6e2c-4530-983d-bf2e30663751","resource":{"resourceType":"Coverage","id":"e0025d3b-6e2c-4530-983d-bf2e30663751","meta":{"profile":["http://hl7.org/fhir/us/qicore/StructureDefinition/qicore-coverage"]},"status":"active","beneficiary":{"reference":"Patient/01959faf-5ea5-41cb-b960-b74da18cca85"},"payor":[{"reference":"Organization/3778262e-e084-4bb5-9a47-1a144735f786"}]},"request":{"method":"PUT","url":"Coverage/e0025d3b-6e2c-4530-983d-bf2e30663751"}},{"fullUrl":"https://madie.cms.gov/Organization/f3c85c19-5043-4844-83a4-72404b2f931e","resource":{"resourceType":"Organization","id":"3778262e-e084-4bb5-9a47-1a144735f786","meta":{"profile":["http://hl7.org/fhir/us/qicore/StructureDefinition/qicore-organization"]},"identifier":[{"use":"temp","system":"urn:oid:2.16.840.1.113883.4.4","value":"21-3259825"}],"active":true,"type":[{"coding":[{"system":"http://terminology.hl7.org/CodeSystem/organization-type","code":"pay","display":"Payer"}]}],"name":"Blue Cross Blue Shield of Texas","telecom":[{"system":"phone","value":"(+1) 972-766-6900"}],"address":[{"use":"billing","type":"postal","line":["P.O. Box 660044"],"city":"Dallas","state":"TX","postalCode":"75266-0044","country":"USA"}]},"request":{"method":"PUT","url":"Organization/3778262e-e084-4bb5-9a47-1a144735f786"}},{"fullUrl":"https://madie.cms.gov/Practitioner/c8d23077-aedf-480f-bd34-9ca935cf7dd1","resource":{"resourceType":"Practitioner","id":"c8d23077-aedf-480f-bd34-9ca935cf7dd1","meta":{"profile":["http://hl7.org/fhir/us/qicore/StructureDefinition/qicore-practitioner"]},"identifier":[{"system":"http://hl7.org/fhir/sid/us-npi","value":"123456"}],"name":[{"family":"Evil","prefix":["Dr"]}]},"request":{"method":"PUT","url":"Practitioner/c8d23077-aedf-480f-bd34-9ca935cf7dd1"}},{"fullUrl":"https://madie.cms.gov/MeasureReport/d54b3ffe-812c-4b75-b931-0dbffc43ed6b","resource":{"resourceType":"MeasureReport","id":"d54b3ffe-812c-4b75-b931-0dbffc43ed6b","meta":{"profile":["http://hl7.org/fhir/us/cqfmeasures/StructureDefinition/test-case-cqfm"]},"contained":[{"resourceType":"Parameters","id":"fcea9e80-d2c5-4345-8b08-993b66cc9482-parameters","parameter":[{"name":"subject","valueString":"01959faf-5ea5-41cb-b960-b74da18cca85"}]}],"extension":[{"url":"http://hl7.org/fhir/us/cqfmeasures/StructureDefinition/cqfm-inputParameters","valueReference":{"reference":"#fcea9e80-d2c5-4345-8b08-993b66cc9482-parameters"}},{"url":"http://hl7.org/fhir/us/cqfmeasures/StructureDefinition/cqfm-testCaseDescription","valueMarkdown":"ED enc first minute of MP, 6 hrs (start to end), (arrival to departure 6 hrs, 1 min)  decision to transfer order effective 0200,  behavioral health dx last day of last MP"}],"modifierExtension":[{"url":"http://hl7.org/fhir/us/cqfmeasures/StructureDefinition/cqfm-isTestCase","valueBoolean":true}],"status":"complete","type":"individual","measure":"https://madie.cms.gov/Measure/CMS1264ECCQREHQRFHIR","period":{"start":"2026-01-01","end":"2026-12-31"},"group":[{"population":[{"code":{"coding":[{"system":"http://terminology.hl7.org/CodeSystem/measure-population","code":"initial-population","display":"Initial Population"}]},"count":1},{"code":{"coding":[{"system":"http://terminology.hl7.org/CodeSystem/measure-population","code":"denominator","display":"Denominator"}]},"count":1},{"code":{"coding":[{"system":"http://terminology.hl7.org/CodeSystem/measure-population","code":"numerator","display":"Numerator"}]},"count":1}]}]},"request":{"method":"PUT","url":"MeasureReport/d54b3ffe-812c-4b75-b931-0dbffc43ed6b"}}]}