{"resourceType":"Bundle","id":"tests-5ae9589c-1301-45a0-af30-ac7b679b649f-bundle","type":"transaction","entry":[{"fullUrl":"https://madie.cms.gov/Patient/5ae9589c-1301-45a0-af30-ac7b679b649f","resource":{"resourceType":"Patient","id":"5ae9589c-1301-45a0-af30-ac7b679b649f","meta":{"profile":["http://hl7.org/fhir/us/qicore/StructureDefinition/qicore-patient"]},"extension":[{"url":"http://hl7.org/fhir/us/core/StructureDefinition/us-core-race","extension":[{"url":"ombCategory","valueCoding":{"system":"urn:oid:2.16.840.1.113883.6.238","code":"2076-8","display":"Native Hawaiian or Other Pacific Islander","userSelected":true}},{"url":"text","valueString":"Native Hawaiian or Other Pacific Islander"}]},{"url":"http://hl7.org/fhir/us/core/StructureDefinition/us-core-ethnicity","extension":[{"url":"ombCategory","valueCoding":{"system":"urn:oid:2.16.840.1.113883.6.238","code":"2186-5","display":"Not Hispanic or Latino","userSelected":true}},{"url":"text","valueString":"Not Hispanic or Latino"}]}],"identifier":[{"type":{"coding":[{"system":"http://terminology.hl7.org/CodeSystem/v2-0203","code":"MR"}]},"system":"https://bonnie-fhir.healthit.gov/","value":"661579e3db207d74c03b8a54"}],"name":[{"family":"NUMERStrat2Pass","given":["TimeToTx61Min"]}],"gender":"female","birthDate":"2007-12-31"},"request":{"method":"PUT","url":"Patient/5ae9589c-1301-45a0-af30-ac7b679b649f"}},{"fullUrl":"https://madie.cms.gov/Encounter/353c1f79-f2b2-4e42-8fc4-a8a37eefe7e2","resource":{"resourceType":"Encounter","id":"353c1f79-f2b2-4e42-8fc4-a8a37eefe7e2","meta":{"profile":["http://hl7.org/fhir/us/qicore/StructureDefinition/qicore-encounter"]},"status":"finished","class":{"system":"http://terminology.hl7.org/CodeSystem/v3-ActCode","code":"EMER","display":"emergency"},"type":[{"coding":[{"system":"http://snomed.info/sct","version":"2023-09","code":"4525004","display":"Emergency department patient visit (procedure)","userSelected":true}]}],"subject":{"reference":"Patient/5ae9589c-1301-45a0-af30-ac7b679b649f"},"period":{"start":"2026-01-01T08:00:00.000+00:00","end":"2026-01-01T12:15:00.000+00:00"},"diagnosis":[{"condition":{"reference":"Condition/16e78cde-73d7-4ff3-bd8c-cf9a8ac3406d"},"use":{"coding":[{"system":"http://terminology.hl7.org/CodeSystem/diagnosis-role","code":"billing"}]},"rank":1}],"location":[{"location":{"reference":"Location/6e4f3ec6-357b-401a-8513-98fd236644c1"},"period":{"start":"2026-01-01T07:45:00.000+00:00","end":"2026-01-01T12:15:00.000+00:00"}},{"location":{"reference":"Location/8d1ca40a-0a76-4847-9734-be33f341b7fe"},"period":{"start":"2026-01-01T09:01:00.000+00:00","end":"2026-01-01T12:15:00.000+00:00"}}]},"request":{"method":"PUT","url":"Encounter/353c1f79-f2b2-4e42-8fc4-a8a37eefe7e2"}},{"fullUrl":"https://madie.cms.gov/Location/6e4f3ec6-357b-401a-8513-98fd236644c1","resource":{"resourceType":"Location","id":"6e4f3ec6-357b-401a-8513-98fd236644c1","meta":{"profile":["http://hl7.org/fhir/us/qicore/StructureDefinition/qicore-location"]},"identifier":[{"use":"usual","system":"http://exampleoflocation.com","value":"B1-S.F1"}],"name":"Emergency Department","type":[{"coding":[{"system":"https://www.cdc.gov/nhsn/cdaportal/terminology/codesystem/hsloc.html","version":"2022","code":"1108-0","display":"Emergency Department","userSelected":true}]}]},"request":{"method":"PUT","url":"Location/6e4f3ec6-357b-401a-8513-98fd236644c1"}},{"fullUrl":"https://madie.cms.gov/Location/8d1ca40a-0a76-4847-9734-be33f341b7fe","resource":{"resourceType":"Location","id":"8d1ca40a-0a76-4847-9734-be33f341b7fe","meta":{"profile":["http://hl7.org/fhir/us/qicore/StructureDefinition/qicore-location"]},"identifier":[{"use":"usual","system":"http://exampleoflocation.com","value":"B1-S.F2"}],"name":"Emergency Department","type":[{"coding":[{"system":"https://www.cdc.gov/nhsn/cdaportal/terminology/codesystem/hsloc.html","version":"2022","code":"1209-6","display":"Treatment Room","userSelected":true}]}]},"request":{"method":"PUT","url":"Location/8d1ca40a-0a76-4847-9734-be33f341b7fe"}},{"fullUrl":"https://madie.cms.gov/Condition/16e78cde-73d7-4ff3-bd8c-cf9a8ac3406d","resource":{"resourceType":"Condition","id":"16e78cde-73d7-4ff3-bd8c-cf9a8ac3406d","meta":{"profile":["http://hl7.org/fhir/us/qicore/StructureDefinition/qicore-condition"]},"category":[{"coding":[{"system":"http://terminology.hl7.org/CodeSystem/condition-category","code":"encounter-diagnosis","display":"Encounter Diagnosis"}]}],"code":{"coding":[{"system":"http://snomed.info/sct","version":"2023-09","code":"10660471000119109","display":"Ulcer of left foot due to type 2 diabetes mellitus (disorder)","userSelected":true}]},"subject":{"reference":"Patient/5ae9589c-1301-45a0-af30-ac7b679b649f"},"recordedDate":"2026-01-01T08:00:00.000+00:00"},"request":{"method":"PUT","url":"Condition/16e78cde-73d7-4ff3-bd8c-cf9a8ac3406d"}},{"fullUrl":"https://madie.cms.gov/Location/5f916865-e9d7-433c-9268-645ad3e622de","resource":{"resourceType":"Location","id":"5f916865-e9d7-433c-9268-645ad3e622de","meta":{"profile":["http://hl7.org/fhir/us/qicore/StructureDefinition/qicore-location"]},"identifier":[{"use":"usual","system":"http://exampleoflocation.com","value":"B1-S.F1"}],"name":"Medical Surgical East, first floor","type":[{"coding":[{"system":"https://www.cdc.gov/nhsn/cdaportal/terminology/codesystem/hsloc.html","version":"2022","code":"1108-0","display":"Emergency Department","userSelected":true}]}]},"request":{"method":"PUT","url":"Location/5f916865-e9d7-433c-9268-645ad3e622de"}},{"fullUrl":"https://madie.cms.gov/Location/78b6a7cd-337c-4b20-873a-a765ca7e90e8","resource":{"resourceType":"Location","id":"78b6a7cd-337c-4b20-873a-a765ca7e90e8","meta":{"profile":["http://hl7.org/fhir/us/qicore/StructureDefinition/qicore-location"]},"identifier":[{"use":"usual","system":"http://exampleoflocation.com","value":"B1-S.F2"}],"name":"Emergency Department","type":[{"coding":[{"system":"https://www.cdc.gov/nhsn/cdaportal/terminology/codesystem/hsloc.html","version":"2022","code":"1209-6","display":"Treatment Room","userSelected":true}]}]},"request":{"method":"PUT","url":"Location/78b6a7cd-337c-4b20-873a-a765ca7e90e8"}},{"fullUrl":"https://madie.cms.gov/Coverage/d568fd89-816a-4923-90b3-a59fff0d0c54","resource":{"resourceType":"Coverage","id":"d568fd89-816a-4923-90b3-a59fff0d0c54","meta":{"profile":["http://hl7.org/fhir/us/qicore/StructureDefinition/qicore-coverage"]},"status":"active","beneficiary":{"reference":"Patient/5ae9589c-1301-45a0-af30-ac7b679b649f"},"payor":[{"reference":"Organization/607fdef9-3983-4cef-ab1a-95434d29b463"}]},"request":{"method":"PUT","url":"Coverage/d568fd89-816a-4923-90b3-a59fff0d0c54"}},{"fullUrl":"https://madie.cms.gov/Organization/998e6189-8e37-4a9c-87ee-45afceb1b5cc","resource":{"resourceType":"Organization","id":"607fdef9-3983-4cef-ab1a-95434d29b463","meta":{"profile":["http://hl7.org/fhir/us/qicore/StructureDefinition/qicore-organization"]},"identifier":[{"use":"temp","system":"urn:oid:2.16.840.1.113883.4.4","value":"21-3259825"}],"active":true,"type":[{"coding":[{"system":"http://terminology.hl7.org/CodeSystem/organization-type","code":"pay","display":"Payer"}]}],"name":"Blue Cross Blue Shield of Texas","telecom":[{"system":"phone","value":"(+1) 972-766-6900"}],"address":[{"use":"billing","type":"postal","line":["P.O. Box 660044"],"city":"Dallas","state":"TX","postalCode":"75266-0044","country":"USA"}]},"request":{"method":"PUT","url":"Organization/607fdef9-3983-4cef-ab1a-95434d29b463"}},{"fullUrl":"https://madie.cms.gov/Practitioner/b8899312-be0c-454d-a794-857401267759","resource":{"resourceType":"Practitioner","id":"b8899312-be0c-454d-a794-857401267759","meta":{"profile":["http://hl7.org/fhir/us/qicore/StructureDefinition/qicore-practitioner"]},"identifier":[{"system":"http://hl7.org/fhir/sid/us-npi","value":"123456"}],"name":[{"family":"Evil","prefix":["Dr"]}]},"request":{"method":"PUT","url":"Practitioner/b8899312-be0c-454d-a794-857401267759"}},{"fullUrl":"https://madie.cms.gov/MeasureReport/4d5befe6-a730-48bd-98f4-9331819b099e","resource":{"resourceType":"MeasureReport","id":"4d5befe6-a730-48bd-98f4-9331819b099e","meta":{"profile":["http://hl7.org/fhir/us/cqfmeasures/StructureDefinition/test-case-cqfm"]},"contained":[{"resourceType":"Parameters","id":"3eaa9aa8-8ef3-4f60-95df-8cb346089bd9-parameters","parameter":[{"name":"subject","valueString":"5ae9589c-1301-45a0-af30-ac7b679b649f"}]}],"extension":[{"url":"http://hl7.org/fhir/us/cqfmeasures/StructureDefinition/cqfm-inputParameters","valueReference":{"reference":"#3eaa9aa8-8ef3-4f60-95df-8cb346089bd9-parameters"}},{"url":"http://hl7.org/fhir/us/cqfmeasures/StructureDefinition/cqfm-testCaseDescription","valueMarkdown":"Adult, age 18, Encounter first day of MP, time to treatment 61 minutes, no mental illness"}],"modifierExtension":[{"url":"http://hl7.org/fhir/us/cqfmeasures/StructureDefinition/cqfm-isTestCase","valueBoolean":true}],"status":"complete","type":"individual","measure":"https://madie.cms.gov/Measure/CMS1264ECCQREHQRFHIR","period":{"start":"2026-01-01","end":"2026-12-31"},"group":[{"population":[{"code":{"coding":[{"system":"http://terminology.hl7.org/CodeSystem/measure-population","code":"initial-population","display":"Initial Population"}]},"count":1},{"code":{"coding":[{"system":"http://terminology.hl7.org/CodeSystem/measure-population","code":"denominator","display":"Denominator"}]},"count":1},{"code":{"coding":[{"system":"http://terminology.hl7.org/CodeSystem/measure-population","code":"numerator","display":"Numerator"}]},"count":1}]}]},"request":{"method":"PUT","url":"MeasureReport/4d5befe6-a730-48bd-98f4-9331819b099e"}}]}