{"resourceType":"Bundle","id":"tests-ae6b86ec-3d29-4e35-88dc-57f997814f47-bundle","type":"transaction","entry":[{"fullUrl":"https://madie.cms.gov/Patient/ae6b86ec-3d29-4e35-88dc-57f997814f47","resource":{"resourceType":"Patient","id":"ae6b86ec-3d29-4e35-88dc-57f997814f47","meta":{"profile":["http://hl7.org/fhir/us/qicore/StructureDefinition/qicore-patient"]},"extension":[{"url":"http://hl7.org/fhir/us/core/StructureDefinition/us-core-race","extension":[{"url":"ombCategory","valueCoding":{"system":"urn:oid:2.16.840.1.113883.6.238","code":"2076-8","display":"Native Hawaiian or Other Pacific Islander","userSelected":true}},{"url":"text","valueString":"Native Hawaiian or Other Pacific Islander"}]},{"url":"http://hl7.org/fhir/us/core/StructureDefinition/us-core-ethnicity","extension":[{"url":"ombCategory","valueCoding":{"system":"urn:oid:2.16.840.1.113883.6.238","code":"2186-5","display":"Not Hispanic or Latino","userSelected":true}},{"url":"text","valueString":"Not Hispanic or Latino"}]}],"identifier":[{"type":{"coding":[{"system":"http://terminology.hl7.org/CodeSystem/v2-0203","code":"MR"}]},"system":"https://bonnie-fhir.healthit.gov/","value":"661579e3db207d74c03b8a54"}],"name":[{"family":"NUMERStrat4Pass","given":["EncOverlapsEndOfMP"]}],"gender":"female","birthDate":"2007-12-31"},"request":{"method":"PUT","url":"Patient/ae6b86ec-3d29-4e35-88dc-57f997814f47"}},{"fullUrl":"https://madie.cms.gov/Encounter/2b677725-28ee-492a-b32e-691f3e7ebfd1","resource":{"resourceType":"Encounter","id":"2b677725-28ee-492a-b32e-691f3e7ebfd1","meta":{"profile":["http://hl7.org/fhir/us/qicore/StructureDefinition/qicore-encounter"]},"status":"finished","class":{"system":"http://terminology.hl7.org/CodeSystem/v3-ActCode","code":"EMER","display":"emergency"},"type":[{"coding":[{"system":"http://snomed.info/sct","version":"2023-09","code":"4525004","display":"Emergency department patient visit (procedure)","userSelected":true}]}],"subject":{"reference":"Patient/ae6b86ec-3d29-4e35-88dc-57f997814f47"},"period":{"start":"2026-12-31T08:00:00.000+00:00","end":"2027-01-01T12:15:00.000+00:00"},"diagnosis":[{"condition":{"reference":"Condition/6797f3ca-0699-4cb9-a2f8-66f317aa04f0"},"use":{"coding":[{"system":"http://terminology.hl7.org/CodeSystem/diagnosis-role","code":"billing"}]},"rank":1}],"location":[{"location":{"reference":"Location/da488e01-2460-4e96-bc5e-a060ccf05e80"},"period":{"start":"2026-12-31T07:45:00.000+00:00","end":"2027-01-01T12:15:00.000+00:00"}},{"location":{"reference":"Location/e979658c-1c3b-491f-b984-1209f37e2b6e"},"period":{"start":"2026-12-31T09:01:00.000+00:00","end":"2027-01-01T12:15:00.000+00:00"}}]},"request":{"method":"PUT","url":"Encounter/2b677725-28ee-492a-b32e-691f3e7ebfd1"}},{"fullUrl":"https://madie.cms.gov/Location/da488e01-2460-4e96-bc5e-a060ccf05e80","resource":{"resourceType":"Location","id":"da488e01-2460-4e96-bc5e-a060ccf05e80","meta":{"profile":["http://hl7.org/fhir/us/qicore/StructureDefinition/qicore-location"]},"identifier":[{"use":"usual","system":"http://exampleoflocation.com","value":"B1-S.F1"}],"name":"Emergency Department","type":[{"coding":[{"system":"https://www.cdc.gov/nhsn/cdaportal/terminology/codesystem/hsloc.html","version":"2022","code":"1108-0","display":"Emergency Department","userSelected":true}]}]},"request":{"method":"PUT","url":"Location/da488e01-2460-4e96-bc5e-a060ccf05e80"}},{"fullUrl":"https://madie.cms.gov/Location/e979658c-1c3b-491f-b984-1209f37e2b6e","resource":{"resourceType":"Location","id":"e979658c-1c3b-491f-b984-1209f37e2b6e","meta":{"profile":["http://hl7.org/fhir/us/qicore/StructureDefinition/qicore-location"]},"identifier":[{"use":"usual","system":"http://exampleoflocation.com","value":"B1-S.F2"}],"name":"Emergency Department","type":[{"coding":[{"system":"https://www.cdc.gov/nhsn/cdaportal/terminology/codesystem/hsloc.html","version":"2022","code":"1209-6","display":"Treatment Room","userSelected":true}]}]},"request":{"method":"PUT","url":"Location/e979658c-1c3b-491f-b984-1209f37e2b6e"}},{"fullUrl":"https://madie.cms.gov/Condition/6797f3ca-0699-4cb9-a2f8-66f317aa04f0","resource":{"resourceType":"Condition","id":"6797f3ca-0699-4cb9-a2f8-66f317aa04f0","meta":{"profile":["http://hl7.org/fhir/us/qicore/StructureDefinition/qicore-condition"]},"category":[{"coding":[{"system":"http://terminology.hl7.org/CodeSystem/condition-category","code":"encounter-diagnosis","display":"Encounter Diagnosis"}]}],"code":{"coding":[{"system":"http://snomed.info/sct","version":"2023-09","code":"10349009","display":"Multi-infarct dementia with delirium (disorder)","userSelected":true}]},"subject":{"reference":"Patient/ae6b86ec-3d29-4e35-88dc-57f997814f47"},"recordedDate":"2026-04-09T08:00:00.000+00:00"},"request":{"method":"PUT","url":"Condition/6797f3ca-0699-4cb9-a2f8-66f317aa04f0"}},{"fullUrl":"https://madie.cms.gov/Location/3540df7f-181d-4ec2-bce2-6d7ffa7f8010","resource":{"resourceType":"Location","id":"3540df7f-181d-4ec2-bce2-6d7ffa7f8010","meta":{"profile":["http://hl7.org/fhir/us/qicore/StructureDefinition/qicore-location"]},"identifier":[{"use":"usual","system":"http://exampleoflocation.com","value":"B1-S.F2"}],"name":"Emergency Department","type":[{"coding":[{"system":"https://www.cdc.gov/nhsn/cdaportal/terminology/codesystem/hsloc.html","version":"2022","code":"1108-0","display":"Emergency Department","userSelected":true}]}]},"request":{"method":"PUT","url":"Location/3540df7f-181d-4ec2-bce2-6d7ffa7f8010"}},{"fullUrl":"https://madie.cms.gov/Location/8af2aaa1-23fc-4d21-b923-d9d298ee3e88","resource":{"resourceType":"Location","id":"8af2aaa1-23fc-4d21-b923-d9d298ee3e88","meta":{"profile":["http://hl7.org/fhir/us/qicore/StructureDefinition/qicore-location"]},"identifier":[{"use":"usual","system":"http://exampleoflocation.com","value":"B1-S.F2"}],"name":"Emergency Department","type":[{"coding":[{"system":"https://www.cdc.gov/nhsn/cdaportal/terminology/codesystem/hsloc.html","version":"2022","code":"1209-6","display":"Treatment Room"}]}]},"request":{"method":"PUT","url":"Location/8af2aaa1-23fc-4d21-b923-d9d298ee3e88"}},{"fullUrl":"https://madie.cms.gov/Coverage/3e30762e-f823-4953-911f-bdd8781be556","resource":{"resourceType":"Coverage","id":"3e30762e-f823-4953-911f-bdd8781be556","meta":{"profile":["http://hl7.org/fhir/us/qicore/StructureDefinition/qicore-coverage"]},"status":"active","beneficiary":{"reference":"Patient/ae6b86ec-3d29-4e35-88dc-57f997814f47"},"payor":[{"reference":"Organization/db141f66-a1cc-407b-9e95-adac27adee14"}]},"request":{"method":"PUT","url":"Coverage/3e30762e-f823-4953-911f-bdd8781be556"}},{"fullUrl":"https://madie.cms.gov/Organization/b687f365-370b-4f8c-b274-f1fa5f758b11","resource":{"resourceType":"Organization","id":"db141f66-a1cc-407b-9e95-adac27adee14","meta":{"profile":["http://hl7.org/fhir/us/qicore/StructureDefinition/qicore-organization"]},"identifier":[{"use":"temp","system":"urn:oid:2.16.840.1.113883.4.4","value":"21-3259825"}],"active":true,"type":[{"coding":[{"system":"http://terminology.hl7.org/CodeSystem/organization-type","code":"pay","display":"Payer"}]}],"name":"Blue Cross Blue Shield of Texas","telecom":[{"system":"phone","value":"(+1) 972-766-6900"}],"address":[{"use":"billing","type":"postal","line":["P.O. Box 660044"],"city":"Dallas","state":"TX","postalCode":"75266-0044","country":"USA"}]},"request":{"method":"PUT","url":"Organization/db141f66-a1cc-407b-9e95-adac27adee14"}},{"fullUrl":"https://madie.cms.gov/Practitioner/ea9244e2-4e51-4d2f-accc-fa676670fb6b","resource":{"resourceType":"Practitioner","id":"ea9244e2-4e51-4d2f-accc-fa676670fb6b","meta":{"profile":["http://hl7.org/fhir/us/qicore/StructureDefinition/qicore-practitioner"]},"identifier":[{"system":"http://hl7.org/fhir/sid/us-npi","value":"123456"}],"name":[{"family":"Evil","prefix":["Dr"]}]},"request":{"method":"PUT","url":"Practitioner/ea9244e2-4e51-4d2f-accc-fa676670fb6b"}},{"fullUrl":"https://madie.cms.gov/MeasureReport/c89065fa-ee6b-481a-a468-7faf1070f1d1","resource":{"resourceType":"MeasureReport","id":"c89065fa-ee6b-481a-a468-7faf1070f1d1","meta":{"profile":["http://hl7.org/fhir/us/cqfmeasures/StructureDefinition/test-case-cqfm"]},"contained":[{"resourceType":"Parameters","id":"be64175c-fae9-457f-9291-e084a6906f76-parameters","parameter":[{"name":"subject","valueString":"ae6b86ec-3d29-4e35-88dc-57f997814f47"}]}],"extension":[{"url":"http://hl7.org/fhir/us/cqfmeasures/StructureDefinition/cqfm-inputParameters","valueReference":{"reference":"#be64175c-fae9-457f-9291-e084a6906f76-parameters"}},{"url":"http://hl7.org/fhir/us/cqfmeasures/StructureDefinition/cqfm-testCaseDescription","valueMarkdown":"Enc starts last day of MP but ends first day of following year. "}],"modifierExtension":[{"url":"http://hl7.org/fhir/us/cqfmeasures/StructureDefinition/cqfm-isTestCase","valueBoolean":true}],"status":"complete","type":"individual","measure":"https://madie.cms.gov/Measure/CMS1264ECCQREHQRFHIR","period":{"start":"2026-01-01","end":"2026-12-31"},"group":[{"population":[{"code":{"coding":[{"system":"http://terminology.hl7.org/CodeSystem/measure-population","code":"initial-population","display":"Initial Population"}]},"count":0},{"code":{"coding":[{"system":"http://terminology.hl7.org/CodeSystem/measure-population","code":"denominator","display":"Denominator"}]},"count":0},{"code":{"coding":[{"system":"http://terminology.hl7.org/CodeSystem/measure-population","code":"numerator","display":"Numerator"}]},"count":0}]}]},"request":{"method":"PUT","url":"MeasureReport/c89065fa-ee6b-481a-a468-7faf1070f1d1"}}]}