{"resourceType":"Bundle","id":"tests-74855a5c-bb3b-438a-9eb9-7fdc1994d06d-bundle","type":"transaction","entry":[{"fullUrl":"https://madie.cms.gov/Patient/74855a5c-bb3b-438a-9eb9-7fdc1994d06d","resource":{"resourceType":"Patient","id":"74855a5c-bb3b-438a-9eb9-7fdc1994d06d","meta":{"profile":["http://hl7.org/fhir/us/qicore/StructureDefinition/qicore-patient"]},"extension":[{"url":"http://hl7.org/fhir/us/core/StructureDefinition/us-core-race","extension":[{"url":"ombCategory","valueCoding":{"system":"urn:oid:2.16.840.1.113883.6.238","code":"1002-5","display":"American Indian or Alaska Native","userSelected":true}},{"url":"text","valueString":"American Indian or Alaska Native"}]},{"url":"http://hl7.org/fhir/us/core/StructureDefinition/us-core-ethnicity","extension":[{"url":"ombCategory","valueCoding":{"system":"urn:oid:2.16.840.1.113883.6.238","code":"2135-2","display":"Hispanic or Latino","userSelected":true}},{"url":"text","valueString":"Hispanic or Latino"}]}],"identifier":[{"type":{"coding":[{"system":"http://terminology.hl7.org/CodeSystem/v2-0203","code":"MR"}]},"system":"https://bonnie-fhir.healthit.gov/","value":"661476b015ed5841a5547ebf"}],"name":[{"family":"NUMERStrat3Pass","given":["EDObsBoarded"]}],"gender":"male","birthDate":"2009-01-01"},"request":{"method":"PUT","url":"Patient/74855a5c-bb3b-438a-9eb9-7fdc1994d06d"}},{"fullUrl":"https://madie.cms.gov/Encounter/4f9b73e7-3393-4a14-97fb-d0fdce75d3c5","resource":{"resourceType":"Encounter","id":"4f9b73e7-3393-4a14-97fb-d0fdce75d3c5","meta":{"profile":["http://hl7.org/fhir/us/qicore/StructureDefinition/qicore-encounter"]},"status":"finished","class":{"system":"http://terminology.hl7.org/CodeSystem/v3-ActCode","code":"EMER","display":"emergency department"},"type":[{"coding":[{"system":"http://snomed.info/sct","version":"2023-09","code":"4525004","display":"Emergency department patient visit (procedure)","userSelected":true}]}],"subject":{"reference":"Patient/74855a5c-bb3b-438a-9eb9-7fdc1994d06d"},"period":{"start":"2026-01-01T00:00:00.000+00:00","end":"2026-01-01T06:00:00.000+00:00"},"diagnosis":[{"condition":{"reference":"Condition/non-behavioral-health-diagnosis-without-substance-use-disorders-8a64"},"use":{"coding":[{"system":"http://terminology.hl7.org/CodeSystem/diagnosis-role","code":"billing"}]},"rank":1}],"location":[{"location":{"reference":"Location/463655b6-00e3-4764-9c2a-2a5fedba1eed"},"period":{"start":"2026-01-01T00:00:00.000+00:00","end":"2026-01-01T10:01:00.000+00:00"}}]},"request":{"method":"PUT","url":"Encounter/4f9b73e7-3393-4a14-97fb-d0fdce75d3c5"}},{"fullUrl":"https://madie.cms.gov/ServiceRequest/6bb4e494-dfb4-49c7-a318-d7ff0b501303","resource":{"resourceType":"ServiceRequest","id":"6bb4e494-dfb4-49c7-a318-d7ff0b501303","meta":{"profile":["http://hl7.org/fhir/us/qicore/StructureDefinition/qicore-servicerequest"]},"status":"active","intent":"order","code":{"coding":[{"system":"http://snomed.info/sct","code":"448551000124100","display":"Patient transfer to another hospital (procedure)","userSelected":true}]},"subject":{"reference":"Patient/74855a5c-bb3b-438a-9eb9-7fdc1994d06d"},"authoredOn":"2026-01-01T02:00:00.000+00:00"},"request":{"method":"PUT","url":"ServiceRequest/6bb4e494-dfb4-49c7-a318-d7ff0b501303"}},{"fullUrl":"https://madie.cms.gov/Location/463655b6-00e3-4764-9c2a-2a5fedba1eed","resource":{"resourceType":"Location","id":"463655b6-00e3-4764-9c2a-2a5fedba1eed","meta":{"profile":["http://hl7.org/fhir/us/qicore/StructureDefinition/qicore-location"]},"identifier":[{"use":"usual","system":"http://exampleoflocation.com","value":"B1-S.F2"}],"name":"Medical Surgical East, first floor","type":[{"coding":[{"system":"https://www.cdc.gov/nhsn/cdaportal/terminology/codesystem/hsloc.html","version":"2022","code":"1108-0","display":"Emergency Department","userSelected":true}]}]},"request":{"method":"PUT","url":"Location/463655b6-00e3-4764-9c2a-2a5fedba1eed"}},{"fullUrl":"https://madie.cms.gov/Coverage/f72a5ff1-f0bf-4cfd-ab65-9dc9a9b7f135","resource":{"resourceType":"Coverage","id":"f72a5ff1-f0bf-4cfd-ab65-9dc9a9b7f135","meta":{"profile":["http://hl7.org/fhir/us/qicore/StructureDefinition/qicore-coverage"]},"status":"active","beneficiary":{"reference":"Patient/74855a5c-bb3b-438a-9eb9-7fdc1994d06d"},"payor":[{"reference":"Organization/e75793c9-fdf6-463a-8c1d-4ee44320dc25"}]},"request":{"method":"PUT","url":"Coverage/f72a5ff1-f0bf-4cfd-ab65-9dc9a9b7f135"}},{"fullUrl":"https://madie.cms.gov/Condition/41a714a7-8989-4b93-9c1e-1e1c46265757","resource":{"resourceType":"Condition","id":"41a714a7-8989-4b93-9c1e-1e1c46265757","meta":{"profile":["http://hl7.org/fhir/us/qicore/StructureDefinition/qicore-condition"]},"category":[{"coding":[{"system":"http://terminology.hl7.org/CodeSystem/condition-category","code":"encounter-diagnosis","display":"Encounter Diagnosis"}]}],"code":{"coding":[{"system":"http://snomed.info/sct","version":"2023-09","code":"10674711000119105","display":"Acute severe exacerbation of asthma co-occurrent with allergic rhinitis (disorder)","userSelected":true}]},"subject":{"reference":"Patient/74855a5c-bb3b-438a-9eb9-7fdc1994d06d"},"recordedDate":"2026-01-01T08:00:00.000+00:00"},"request":{"method":"PUT","url":"Condition/41a714a7-8989-4b93-9c1e-1e1c46265757"}},{"fullUrl":"https://madie.cms.gov/Encounter/2ec8ba09-313e-435d-b8e3-34d08fa109ce","resource":{"resourceType":"Encounter","id":"2ec8ba09-313e-435d-b8e3-34d08fa109ce","meta":{"profile":["http://hl7.org/fhir/us/qicore/StructureDefinition/qicore-encounter"]},"status":"finished","class":{"system":"http://terminology.hl7.org/CodeSystem/v3-ActCode","code":"EMER","display":"emergency"},"type":[{"coding":[{"system":"http://www.ama-assn.org/go/cpt","version":"2024","code":"99221","display":"Initial hospital inpatient or observation care, per day, for the evaluation and management of a patient, which requires a medically appropriate history and/or examination and straightforward or low level medical decision making. When using total time on the date of the encounter for code selection, 40 minutes must be met or exceeded.","userSelected":true}]}],"subject":{"reference":"Patient/74855a5c-bb3b-438a-9eb9-7fdc1994d06d"},"period":{"start":"2026-01-01T01:01:00.000+00:00","end":"2026-01-01T05:59:00.000+00:00"}},"request":{"method":"PUT","url":"Encounter/2ec8ba09-313e-435d-b8e3-34d08fa109ce"}},{"fullUrl":"https://madie.cms.gov/Organization/4d65c5b4-b338-42cd-b2eb-5a0aa19b705b","resource":{"resourceType":"Organization","id":"e75793c9-fdf6-463a-8c1d-4ee44320dc25","meta":{"profile":["http://hl7.org/fhir/us/qicore/StructureDefinition/qicore-organization"]},"identifier":[{"use":"temp","system":"urn:oid:2.16.840.1.113883.4.4","value":"21-3259825"}],"active":true,"type":[{"coding":[{"system":"http://terminology.hl7.org/CodeSystem/organization-type","code":"pay","display":"Payer"}]}],"name":"Blue Cross Blue Shield of Texas","telecom":[{"system":"phone","value":"(+1) 972-766-6900"}],"address":[{"use":"billing","type":"postal","line":["P.O. Box 660044"],"city":"Dallas","state":"TX","postalCode":"75266-0044","country":"USA"}]},"request":{"method":"PUT","url":"Organization/e75793c9-fdf6-463a-8c1d-4ee44320dc25"}},{"fullUrl":"https://madie.cms.gov/Practitioner/4035528d-b575-4287-87ca-511c116a7f36","resource":{"resourceType":"Practitioner","id":"4035528d-b575-4287-87ca-511c116a7f36","meta":{"profile":["http://hl7.org/fhir/us/qicore/StructureDefinition/qicore-practitioner"]},"identifier":[{"system":"http://hl7.org/fhir/sid/us-npi","value":"123456"}],"name":[{"family":"Evil","prefix":["Dr"]}]},"request":{"method":"PUT","url":"Practitioner/4035528d-b575-4287-87ca-511c116a7f36"}},{"fullUrl":"https://madie.cms.gov/MeasureReport/63ab26bf-5d8b-4265-8407-aff9db4aa8e4","resource":{"resourceType":"MeasureReport","id":"63ab26bf-5d8b-4265-8407-aff9db4aa8e4","meta":{"profile":["http://hl7.org/fhir/us/cqfmeasures/StructureDefinition/test-case-cqfm"]},"contained":[{"resourceType":"Parameters","id":"033bdfb9-0dca-48ac-8628-d6269c656e90-parameters","parameter":[{"name":"subject","valueString":"74855a5c-bb3b-438a-9eb9-7fdc1994d06d"}]}],"extension":[{"url":"http://hl7.org/fhir/us/cqfmeasures/StructureDefinition/cqfm-inputParameters","valueReference":{"reference":"#033bdfb9-0dca-48ac-8628-d6269c656e90-parameters"}},{"url":"http://hl7.org/fhir/us/cqfmeasures/StructureDefinition/cqfm-testCaseDescription","valueMarkdown":"Child, ED observation during ED enc where patient was boarded 6 hrs 1 min; Enc 8 hrs, enc departure 8 hrs 1 min. dx asthma "}],"modifierExtension":[{"url":"http://hl7.org/fhir/us/cqfmeasures/StructureDefinition/cqfm-isTestCase","valueBoolean":true}],"status":"complete","type":"individual","measure":"https://madie.cms.gov/Measure/CMS1264ECCQREHQRFHIR","period":{"start":"2026-01-01","end":"2026-12-31"},"group":[{"population":[{"code":{"coding":[{"system":"http://terminology.hl7.org/CodeSystem/measure-population","code":"initial-population","display":"Initial Population"}]},"count":1},{"code":{"coding":[{"system":"http://terminology.hl7.org/CodeSystem/measure-population","code":"denominator","display":"Denominator"}]},"count":1},{"code":{"coding":[{"system":"http://terminology.hl7.org/CodeSystem/measure-population","code":"numerator","display":"Numerator"}]},"count":0}]}]},"request":{"method":"PUT","url":"MeasureReport/63ab26bf-5d8b-4265-8407-aff9db4aa8e4"}}]}