{
  "resourceType": "Bundle",
  "id": "63594c7a6aee9629c82981df",
  "type": "transaction",
  "entry": [ {
    "fullUrl": "https://madie.cms.gov/Patient/62e987f4-91e2-40d5-add1-ff824422bda5",
    "resource": {
      "resourceType": "Patient",
      "id": "62e987f4-91e2-40d5-add1-ff824422bda5",
      "meta": {
        "profile": [ "http://hl7.org/fhir/us/qicore/StructureDefinition/qicore-patient" ]
      },
      "text": {
        "status": "generated",
        "div": "<div xmlns=\"http://www.w3.org/1999/xhtml\"><div class=\"hapiHeaderText\">Risk_BleedingDisorder<b>RISKPass </b></div><table class=\"hapiPropertyTable\"><tbody><tr><td>Date of birth</td><td><span>01 February 2004</span></td></tr></tbody></table></div>"
      },
      "extension": [ {
        "url": "http://hl7.org/fhir/us/core/StructureDefinition/us-core-race",
        "extension": [ {
          "url": "ombCategory",
          "valueCoding": {
            "system": "urn:oid:2.16.840.1.113883.6.238",
            "code": "1002-5",
            "display": "American Indian or Alaska Native",
            "userSelected": true
          }
        }, {
          "url": "text",
          "valueString": "American Indian or Alaska Native"
        } ]
      }, {
        "url": "http://hl7.org/fhir/us/core/StructureDefinition/us-core-ethnicity",
        "extension": [ {
          "url": "ombCategory",
          "valueCoding": {
            "system": "urn:oid:2.16.840.1.113883.6.238",
            "code": "2135-2",
            "display": "Hispanic or Latino",
            "userSelected": true
          }
        }, {
          "url": "text",
          "valueString": "Hispanic or Latino"
        } ]
      } ],
      "identifier": [ {
        "type": {
          "coding": [ {
            "system": "http://terminology.hl7.org/CodeSystem/v2-0203",
            "code": "MR"
          } ]
        },
        "system": "https://bonnie-fhir.healthit.gov/",
        "value": "63594c7a6aee9629c82981df"
      } ],
      "active": true,
      "name": [ {
        "use": "usual",
        "family": "RiskPass",
        "given": [ "Risk_BleedingDisorder" ]
      } ],
      "gender": "female",
      "birthDate": "2004-02-01"
    },
    "request": {
      "method": "PUT",
      "url": "Patient/62e987f4-91e2-40d5-add1-ff824422bda5"
    }
  }, {
    "fullUrl": "https://madie.cms.gov/Observation/8909b58d-4fa5-467c-a0db-7d43e83ec4bc",
    "resource": {
      "resourceType": "Observation",
      "id": "8909b58d-4fa5-467c-a0db-7d43e83ec4bc",
      "meta": {
        "profile": [ "http://hl7.org/fhir/us/qicore/StructureDefinition/qicore-observation" ]
      },
      "status": "final",
      "category": [ {
        "coding": [ {
          "system": "http://terminology.hl7.org/CodeSystem/observation-category",
          "code": "exam",
          "display": "exam",
          "userSelected": true
        } ]
      } ],
      "code": {
        "coding": [ {
          "system": "http://loinc.org",
          "code": "93857-1"
        } ]
      },
      "subject": {
        "reference": "Patient/62e987f4-91e2-40d5-add1-ff824422bda5"
      },
      "effectiveDateTime": "2025-02-01T08:00:00.000+00:00",
      "valueDateTime": "2025-02-01T08:00:00+00:00"
    },
    "request": {
      "method": "PUT",
      "url": "Observation/8909b58d-4fa5-467c-a0db-7d43e83ec4bc"
    }
  }, {
    "fullUrl": "https://madie.cms.gov/Observation/41c3d42a-700c-468b-a46a-d89ff3553942",
    "resource": {
      "resourceType": "Observation",
      "id": "41c3d42a-700c-468b-a46a-d89ff3553942",
      "meta": {
        "profile": [ "http://hl7.org/fhir/us/qicore/StructureDefinition/qicore-observation" ]
      },
      "status": "final",
      "category": [ {
        "coding": [ {
          "system": "http://terminology.hl7.org/CodeSystem/observation-category",
          "code": "exam",
          "display": "exam",
          "userSelected": true
        } ]
      } ],
      "code": {
        "coding": [ {
          "system": "http://loinc.org",
          "code": "11778-8"
        } ]
      },
      "subject": {
        "reference": "Patient/62e987f4-91e2-40d5-add1-ff824422bda5"
      },
      "effectiveDateTime": "2025-02-01T08:00:00.000+00:00",
      "valueDateTime": "2025-02-01T00:00:00.000+00:00"
    },
    "request": {
      "method": "PUT",
      "url": "Observation/41c3d42a-700c-468b-a46a-d89ff3553942"
    }
  }, {
    "fullUrl": "https://madie.cms.gov/Encounter/696dc779-d9e7-4d5e-992c-7ac74669b7d9",
    "resource": {
      "resourceType": "Encounter",
      "id": "696dc779-d9e7-4d5e-992c-7ac74669b7d9",
      "meta": {
        "profile": [ "http://hl7.org/fhir/us/qicore/StructureDefinition/qicore-encounter" ]
      },
      "status": "finished",
      "class": {
        "system": "http://terminology.hl7.org/CodeSystem/v3-ActCode",
        "code": "IMP",
        "display": "inpatient encounter"
      },
      "type": [ {
        "coding": [ {
          "system": "http://snomed.info/sct",
          "code": "183452005"
        } ]
      } ],
      "subject": {
        "reference": "Patient/62e987f4-91e2-40d5-add1-ff824422bda5"
      },
      "period": {
        "start": "2025-02-01T08:00:00.000Z",
        "end": "2025-02-05T08:15:00.000Z"
      },
      "diagnosis": [ {
        "extension": [ {
          "url": "http://hl7.org/fhir/us/qicore/StructureDefinition/qicore-encounter-diagnosisPresentOnAdmission",
          "valueCodeableConcept": {
            "coding": [ {
              "system": "https://www.cms.gov/Medicare/Medicare-Fee-for-Service-Payment/HospitalAcqCond/Coding",
              "code": "Y"
            } ]
          }
        } ],
        "condition": {
          "reference": "Resource/BleedingDisorder-81e0"
        }
      }, {
        "extension": [ {
          "url": "http://hl7.org/fhir/us/qicore/StructureDefinition/qicore-encounter-diagnosisPresentOnAdmission",
          "valueCodeableConcept": {
            "coding": [ {
              "system": "https://www.cms.gov/Medicare/Medicare-Fee-for-Service-Payment/HospitalAcqCond/Coding",
              "code": "N"
            } ]
          }
        } ],
        "condition": {
          "reference": "Resource/severe-maternal-morbidity-diagnoses-adc1"
        }
      } ]
    },
    "request": {
      "method": "PUT",
      "url": "Encounter/696dc779-d9e7-4d5e-992c-7ac74669b7d9"
    }
  }, {
    "fullUrl": "https://madie.cms.gov/Procedure/c2e1f2fd-14a4-463b-a98a-e303e5b8ffa0",
    "resource": {
      "resourceType": "Procedure",
      "id": "c2e1f2fd-14a4-463b-a98a-e303e5b8ffa0",
      "meta": {
        "profile": [ "http://hl7.org/fhir/us/qicore/StructureDefinition/qicore-procedure" ]
      },
      "extension": [ {
        "url": "http://hl7.org/fhir/us/qicore/StructureDefinition/qicore-recorded",
        "valueDateTime": "2013-04-05T09:35:00-04:00"
      } ],
      "status": "completed",
      "code": {
        "coding": [ {
          "system": "http://snomed.info/sct",
          "code": "10745001"
        } ]
      },
      "subject": {
        "reference": "Patient/62e987f4-91e2-40d5-add1-ff824422bda5"
      },
      "performedDateTime": "2025-02-01T08:00:00.000+00:00"
    },
    "request": {
      "method": "PUT",
      "url": "Procedure/c2e1f2fd-14a4-463b-a98a-e303e5b8ffa0"
    }
  }, {
    "fullUrl": "https://madie.cms.gov/Condition/8c9e584f-d1d7-4422-a9d7-60d40be137c9",
    "resource": {
      "resourceType": "Condition",
      "id": "8c9e584f-d1d7-4422-a9d7-60d40be137c9",
      "meta": {
        "profile": [ "http://hl7.org/fhir/us/qicore/StructureDefinition/qicore-condition" ]
      },
      "category": [ {
        "coding": [ {
          "system": "http://terminology.hl7.org/CodeSystem/condition-category",
          "code": "encounter-diagnosis",
          "display": "Encounter Diagnosis"
        } ]
      } ],
      "code": {
        "coding": [ {
          "system": "http://hl7.org/fhir/sid/icd-10-cm",
          "version": "2023",
          "code": "A32.7",
          "display": "Listerial sepsis",
          "userSelected": true
        } ]
      },
      "subject": {
        "reference": "Patient/62e987f4-91e2-40d5-add1-ff824422bda5"
      },
      "recordedDate": "2025-10-26T08:00:00.000+00:00"
    },
    "request": {
      "method": "PUT",
      "url": "Condition/8c9e584f-d1d7-4422-a9d7-60d40be137c9"
    }
  }, {
    "fullUrl": "https://madie.cms.gov/Condition/f578d120-6575-436f-9c1e-75702220e19d",
    "resource": {
      "resourceType": "Condition",
      "id": "f578d120-6575-436f-9c1e-75702220e19d",
      "meta": {
        "profile": [ "http://hl7.org/fhir/us/qicore/StructureDefinition/qicore-condition" ]
      },
      "category": [ {
        "coding": [ {
          "system": "http://terminology.hl7.org/CodeSystem/condition-category",
          "code": "encounter-diagnosis",
          "display": "Encounter Diagnosis"
        } ]
      } ],
      "code": {
        "coding": [ {
          "system": "http://hl7.org/fhir/sid/icd-10-cm",
          "version": "2023",
          "code": "D66",
          "display": "Bleeding BleedingDisorder-81e0",
          "userSelected": true
        } ]
      },
      "subject": {
        "reference": "Patient/62e987f4-91e2-40d5-add1-ff824422bda5"
      },
      "recordedDate": "2025-10-26T08:00:00.000+00:00"
    },
    "request": {
      "method": "PUT",
      "url": "Condition/f578d120-6575-436f-9c1e-75702220e19d"
    }
  }, {
    "fullUrl": "https://madie.cms.gov/MeasureReport/204faf01-ddc8-4fbc-a714-b2bebbf0848e",
    "resource": {
      "resourceType": "MeasureReport",
      "id": "204faf01-ddc8-4fbc-a714-b2bebbf0848e",
      "meta": {
        "profile": [ "http://hl7.org/fhir/us/cqfmeasures/StructureDefinition/test-case-cqfm" ]
      },
      "contained": [ {
        "resourceType": "Parameters",
        "id": "0d6e5709-faf5-484e-9219-4c0f2be6787b-parameters",
        "parameter": [ {
          "name": "subject",
          "valueString": "62e987f4-91e2-40d5-add1-ff824422bda5"
        } ]
      } ],
      "extension": [ {
        "url": "http://hl7.org/fhir/us/cqfmeasures/StructureDefinition/cqfm-inputParameters",
        "valueReference": {
          "reference": "#0d6e5709-faf5-484e-9219-4c0f2be6787b-parameters"
        }
      }, {
        "url": "http://hl7.org/fhir/us/cqfmeasures/StructureDefinition/cqfm-testCaseDescription",
        "valueMarkdown": "Risk variable of bleeding disorder.\n\n"
      } ],
      "modifierExtension": [ {
        "url": "http://hl7.org/fhir/us/cqfmeasures/StructureDefinition/cqfm-isTestCase",
        "valueBoolean": true
      } ],
      "status": "complete",
      "type": "individual",
      "measure": "https://madie.cms.gov/Measure/CMS1028FHIRPCSevereOBComps",
      "period": {
        "start": "2025-01-01",
        "end": "2025-12-31"
      },
      "group": [ {
        "population": [ {
          "code": {
            "coding": [ {
              "system": "http://terminology.hl7.org/CodeSystem/measure-population",
              "code": "initial-population",
              "display": "Initial Population"
            } ]
          },
          "count": 1
        }, {
          "code": {
            "coding": [ {
              "system": "http://terminology.hl7.org/CodeSystem/measure-population",
              "code": "denominator",
              "display": "Denominator"
            } ]
          },
          "count": 1
        }, {
          "code": {
            "coding": [ {
              "system": "http://terminology.hl7.org/CodeSystem/measure-population",
              "code": "numerator",
              "display": "Numerator"
            } ]
          },
          "count": 1
        }, {
          "code": {
            "coding": [ {
              "system": "http://terminology.hl7.org/CodeSystem/measure-population",
              "code": "numerator-exclusion",
              "display": "Numerator Exclusion"
            } ]
          },
          "count": 0
        } ]
      }, {
        "population": [ {
          "code": {
            "coding": [ {
              "system": "http://terminology.hl7.org/CodeSystem/measure-population",
              "code": "initial-population",
              "display": "Initial Population"
            } ]
          },
          "count": 1
        }, {
          "code": {
            "coding": [ {
              "system": "http://terminology.hl7.org/CodeSystem/measure-population",
              "code": "denominator",
              "display": "Denominator"
            } ]
          },
          "count": 1
        }, {
          "code": {
            "coding": [ {
              "system": "http://terminology.hl7.org/CodeSystem/measure-population",
              "code": "numerator",
              "display": "Numerator"
            } ]
          },
          "count": 1
        }, {
          "code": {
            "coding": [ {
              "system": "http://terminology.hl7.org/CodeSystem/measure-population",
              "code": "numerator-exclusion",
              "display": "Numerator Exclusion"
            } ]
          },
          "count": 0
        } ]
      } ],
      "evaluatedResource": [ {
        "reference": "Patient/62e987f4-91e2-40d5-add1-ff824422bda5"
      }, {
        "reference": "Observation/8909b58d-4fa5-467c-a0db-7d43e83ec4bc"
      }, {
        "reference": "Observation/41c3d42a-700c-468b-a46a-d89ff3553942"
      }, {
        "reference": "Encounter/696dc779-d9e7-4d5e-992c-7ac74669b7d9"
      }, {
        "reference": "Procedure/c2e1f2fd-14a4-463b-a98a-e303e5b8ffa0"
      }, {
        "reference": "Condition/8c9e584f-d1d7-4422-a9d7-60d40be137c9"
      }, {
        "reference": "Condition/f578d120-6575-436f-9c1e-75702220e19d"
      } ]
    },
    "request": {
      "method": "PUT",
      "url": "MeasureReport/204faf01-ddc8-4fbc-a714-b2bebbf0848e"
    }
  } ]
}