{
  "resourceType": "Bundle",
  "id": "633b3fa00968f80122503d29",
  "type": "transaction",
  "entry": [ {
    "fullUrl": "https://madie.cms.gov/Patient/8e16ccc5-2a18-497a-916f-f7bc94aa94d1",
    "resource": {
      "resourceType": "Patient",
      "id": "8e16ccc5-2a18-497a-916f-f7bc94aa94d1",
      "meta": {
        "profile": [ "http://hl7.org/fhir/us/qicore/StructureDefinition/qicore-patient" ]
      },
      "text": {
        "status": "generated",
        "div": "<div xmlns=\"http://www.w3.org/1999/xhtml\"><div class=\"hapiHeaderText\">DelProcRelDtTm1MinB4MidnightDayB4EncStarts <b>IPFAIL </b></div><table class=\"hapiPropertyTable\"><tbody><tr><td>Date of birth</td><td><span>31 January 2004</span></td></tr></tbody></table></div>"
      },
      "extension": [ {
        "url": "http://hl7.org/fhir/us/core/StructureDefinition/us-core-race",
        "extension": [ {
          "url": "ombCategory",
          "valueCoding": {
            "system": "urn:oid:2.16.840.1.113883.6.238",
            "code": "1002-5",
            "display": "American Indian or Alaska Native",
            "userSelected": true
          }
        }, {
          "url": "text",
          "valueString": "American Indian or Alaska Native"
        } ]
      }, {
        "url": "http://hl7.org/fhir/us/core/StructureDefinition/us-core-ethnicity",
        "extension": [ {
          "url": "ombCategory",
          "valueCoding": {
            "system": "urn:oid:2.16.840.1.113883.6.238",
            "code": "2135-2",
            "display": "Hispanic or Latino",
            "userSelected": true
          }
        }, {
          "url": "text",
          "valueString": "Hispanic or Latino"
        } ]
      } ],
      "identifier": [ {
        "type": {
          "coding": [ {
            "system": "http://terminology.hl7.org/CodeSystem/v2-0203",
            "code": "MR"
          } ]
        },
        "system": "https://bonnie-fhir.healthit.gov/",
        "value": "633b3fa00968f80122503d29"
      } ],
      "active": true,
      "name": [ {
        "use": "usual",
        "family": "IPFail",
        "given": [ "DelProcRelDtTm1MinB4MidnightDayB4EncStarts" ]
      } ],
      "gender": "female",
      "birthDate": "2004-01-31"
    },
    "request": {
      "method": "PUT",
      "url": "Patient/8e16ccc5-2a18-497a-916f-f7bc94aa94d1"
    }
  }, {
    "fullUrl": "https://madie.cms.gov/Encounter/b647c24a-160d-4a83-bf53-3d42b4d1796e",
    "resource": {
      "resourceType": "Encounter",
      "id": "b647c24a-160d-4a83-bf53-3d42b4d1796e",
      "meta": {
        "profile": [ "http://hl7.org/fhir/us/qicore/StructureDefinition/qicore-encounter" ]
      },
      "status": "finished",
      "class": {
        "system": "http://terminology.hl7.org/CodeSystem/v3-ActCode",
        "code": "IMP",
        "display": "inpatient encounter"
      },
      "type": [ {
        "coding": [ {
          "system": "http://snomed.info/sct",
          "code": "183452005"
        } ]
      } ],
      "subject": {
        "reference": "Patient/8e16ccc5-2a18-497a-916f-f7bc94aa94d1"
      },
      "period": {
        "start": "2025-02-01T09:00:00.000Z",
        "end": "2025-02-05T08:15:00.000Z"
      }
    },
    "request": {
      "method": "PUT",
      "url": "Encounter/b647c24a-160d-4a83-bf53-3d42b4d1796e"
    }
  }, {
    "fullUrl": "https://madie.cms.gov/Procedure/65d90e7a-dd90-4251-a853-b981d323eb31",
    "resource": {
      "resourceType": "Procedure",
      "id": "65d90e7a-dd90-4251-a853-b981d323eb31",
      "meta": {
        "profile": [ "http://hl7.org/fhir/us/qicore/StructureDefinition/qicore-procedure" ]
      },
      "extension": [ {
        "url": "http://hl7.org/fhir/us/qicore/StructureDefinition/qicore-recorded",
        "valueDateTime": "2013-04-05T09:35:00-04:00"
      } ],
      "status": "completed",
      "code": {
        "coding": [ {
          "system": "http://snomed.info/sct",
          "code": "10745001"
        } ]
      },
      "subject": {
        "reference": "Patient/8e16ccc5-2a18-497a-916f-f7bc94aa94d1"
      },
      "performedDateTime": "2025-01-31T23:59:00.000+00:00"
    },
    "request": {
      "method": "PUT",
      "url": "Procedure/65d90e7a-dd90-4251-a853-b981d323eb31"
    }
  }, {
    "fullUrl": "https://madie.cms.gov/Coverage/6de04c75-448a-4c1e-ad80-6532fd2ac47b",
    "resource": {
      "resourceType": "Coverage",
      "id": "6de04c75-448a-4c1e-ad80-6532fd2ac47b",
      "meta": {
        "profile": [ "http://hl7.org/fhir/us/qicore/StructureDefinition/qicore-coverage" ]
      },
      "status": "active",
      "beneficiary": {
        "reference": "Patient/8e16ccc5-2a18-497a-916f-f7bc94aa94d1"
      },
      "payor": [ {
        "reference": "Organization/a8a19bc4-e4fd-4493-bdaf-09bc797a1d0f"
      } ]
    },
    "request": {
      "method": "PUT",
      "url": "Coverage/6de04c75-448a-4c1e-ad80-6532fd2ac47b"
    }
  }, {
    "fullUrl": "https://madie.cms.gov/Organization/a8a19bc4-e4fd-4493-bdaf-09bc797a1d0f",
    "resource": {
      "resourceType": "Organization",
      "id": "a8a19bc4-e4fd-4493-bdaf-09bc797a1d0f",
      "meta": {
        "profile": [ "http://hl7.org/fhir/us/qicore/StructureDefinition/qicore-organization" ]
      },
      "identifier": [ {
        "use": "temp",
        "system": "urn:oid:2.16.840.1.113883.4.4",
        "value": "21-3259825"
      } ],
      "active": true,
      "type": [ {
        "coding": [ {
          "system": "http://terminology.hl7.org/CodeSystem/organization-type",
          "code": "pay",
          "display": "Payer"
        } ]
      } ],
      "name": "Blue Cross Blue Shield of Texas",
      "telecom": [ {
        "system": "phone",
        "value": "(+1) 972-766-6900"
      } ],
      "address": [ {
        "use": "billing",
        "type": "postal",
        "line": [ "P.O. Box 660044" ],
        "city": "Dallas",
        "state": "TX",
        "postalCode": "75266-0044",
        "country": "USA"
      } ]
    },
    "request": {
      "method": "PUT",
      "url": "Organization/a8a19bc4-e4fd-4493-bdaf-09bc797a1d0f"
    }
  }, {
    "fullUrl": "https://madie.cms.gov/Practitioner/bbaaab28-df97-46ea-81b5-5c059791989b",
    "resource": {
      "resourceType": "Practitioner",
      "id": "bbaaab28-df97-46ea-81b5-5c059791989b",
      "identifier": [ {
        "system": "http://hl7.org/fhir/sid/us-npi",
        "value": "123456"
      } ],
      "name": [ {
        "family": "Evil",
        "prefix": [ "Dr" ]
      } ]
    },
    "request": {
      "method": "PUT",
      "url": "Practitioner/bbaaab28-df97-46ea-81b5-5c059791989b"
    }
  }, {
    "fullUrl": "https://madie.cms.gov/MeasureReport/2ebd29fa-5eb8-48a2-89bc-dde78db2fc39",
    "resource": {
      "resourceType": "MeasureReport",
      "id": "2ebd29fa-5eb8-48a2-89bc-dde78db2fc39",
      "meta": {
        "profile": [ "http://hl7.org/fhir/us/cqfmeasures/StructureDefinition/test-case-cqfm" ]
      },
      "contained": [ {
        "resourceType": "Parameters",
        "id": "7c5033b1-e66b-4f51-bd5f-f39894c63084-parameters",
        "parameter": [ {
          "name": "subject",
          "valueString": "8e16ccc5-2a18-497a-916f-f7bc94aa94d1"
        } ]
      } ],
      "extension": [ {
        "url": "http://hl7.org/fhir/us/cqfmeasures/StructureDefinition/cqfm-inputParameters",
        "valueReference": {
          "reference": "#7c5033b1-e66b-4f51-bd5f-f39894c63084-parameters"
        }
      }, {
        "url": "http://hl7.org/fhir/us/cqfmeasures/StructureDefinition/cqfm-testCaseDescription",
        "valueMarkdown": "Delivery Procedure rel date/time = 11:59 pm day before encounter starts.\n"
      } ],
      "modifierExtension": [ {
        "url": "http://hl7.org/fhir/us/cqfmeasures/StructureDefinition/cqfm-isTestCase",
        "valueBoolean": true
      } ],
      "status": "complete",
      "type": "individual",
      "measure": "https://madie.cms.gov/Measure/CMS1028FHIRPCSevereOBComps",
      "period": {
        "start": "2025-01-01",
        "end": "2025-12-31"
      },
      "group": [ {
        "population": [ {
          "code": {
            "coding": [ {
              "system": "http://terminology.hl7.org/CodeSystem/measure-population",
              "code": "initial-population",
              "display": "Initial Population"
            } ]
          },
          "count": 0
        }, {
          "code": {
            "coding": [ {
              "system": "http://terminology.hl7.org/CodeSystem/measure-population",
              "code": "denominator",
              "display": "Denominator"
            } ]
          },
          "count": 0
        }, {
          "code": {
            "coding": [ {
              "system": "http://terminology.hl7.org/CodeSystem/measure-population",
              "code": "numerator",
              "display": "Numerator"
            } ]
          },
          "count": 0
        }, {
          "code": {
            "coding": [ {
              "system": "http://terminology.hl7.org/CodeSystem/measure-population",
              "code": "numerator-exclusion",
              "display": "Numerator Exclusion"
            } ]
          },
          "count": 0
        } ]
      } ],
      "evaluatedResource": [ {
        "reference": "Patient/8e16ccc5-2a18-497a-916f-f7bc94aa94d1"
      }, {
        "reference": "Encounter/b647c24a-160d-4a83-bf53-3d42b4d1796e"
      }, {
        "reference": "Procedure/65d90e7a-dd90-4251-a853-b981d323eb31"
      }, {
        "reference": "Coverage/6de04c75-448a-4c1e-ad80-6532fd2ac47b"
      }, {
        "reference": "Organization/a8a19bc4-e4fd-4493-bdaf-09bc797a1d0f"
      }, {
        "reference": "Practitioner/bbaaab28-df97-46ea-81b5-5c059791989b"
      } ]
    },
    "request": {
      "method": "PUT",
      "url": "MeasureReport/2ebd29fa-5eb8-48a2-89bc-dde78db2fc39"
    }
  } ]
}