{
  "resourceType": "Bundle",
  "id": "tests-NUMERPass-Num4MVduringIntervalNoInterruption-bundle",
  "type": "transaction",
  "entry": [ {
    "fullUrl": "https://madie.cms.gov/Encounter/be1d152c-acf7-40e5-a178-cf39b56aada7",
    "resource": {
      "resourceType": "Encounter",
      "id": "be1d152c-acf7-40e5-a178-cf39b56aada7",
      "meta": {
        "profile": [ "http://hl7.org/fhir/us/qicore/StructureDefinition/qicore-encounter" ]
      },
      "status": "finished",
      "class": {
        "system": "http://terminology.hl7.org/CodeSystem/v3-ActCode",
        "code": "IMP",
        "display": "inpatient encounter"
      },
      "type": [ {
        "coding": [ {
          "system": "http://snomed.info/sct",
          "code": "112689000",
          "display": "Hospital admission, elective, with complete pre-admission work-up"
        } ],
        "text": "Hospital admission, elective, with complete pre-admission work-up"
      } ],
      "priority": {
        "coding": [ {
          "system": "http://snomed.info/sct",
          "code": "103390000"
        } ]
      },
      "subject": {
        "reference": "Patient/171804b8-0f80-498e-92ea-7812b704013d"
      },
      "period": {
        "start": "2026-04-10T08:00:00+00:00",
        "end": "2026-04-18T08:15:00+00:00"
      }
    },
    "request": {
      "method": "PUT",
      "url": "Encounter/be1d152c-acf7-40e5-a178-cf39b56aada7"
    }
  }, {
    "fullUrl": "https://madie.cms.gov/Patient/171804b8-0f80-498e-92ea-7812b704013d",
    "resource": {
      "resourceType": "Patient",
      "id": "171804b8-0f80-498e-92ea-7812b704013d",
      "meta": {
        "profile": [ "http://hl7.org/fhir/us/qicore/StructureDefinition/qicore-patient" ]
      },
      "extension": [ {
        "url": "http://hl7.org/fhir/us/core/StructureDefinition/us-core-race",
        "extension": [ {
          "url": "ombCategory",
          "valueCoding": {
            "system": "urn:oid:2.16.840.1.113883.6.238",
            "code": "2054-5",
            "display": "Black or African American",
            "userSelected": true
          }
        }, {
          "url": "text",
          "valueString": "Black or African American"
        } ]
      }, {
        "url": "http://hl7.org/fhir/us/core/StructureDefinition/us-core-ethnicity",
        "extension": [ {
          "url": "ombCategory",
          "valueCoding": {
            "system": "urn:oid:2.16.840.1.113883.6.238",
            "code": "2186-5",
            "display": "Not Hispanic or Latino",
            "userSelected": true
          }
        }, {
          "url": "text",
          "valueString": "Not Hispanic or Latino"
        } ]
      } ],
      "identifier": [ {
        "type": {
          "coding": [ {
            "system": "http://terminology.hl7.org/CodeSystem/v2-0203",
            "code": "MR"
          } ]
        },
        "system": "https://bonnie-fhir.healthit.gov/",
        "value": "61152a3b98086b7a79cbd7c1"
      } ],
      "active": true,
      "name": [ {
        "use": "usual",
        "family": "NUMERPass",
        "given": [ "Num4MVduringIntervalNoInterruptionTime" ]
      } ],
      "gender": "female",
      "birthDate": "1966-07-12"
    },
    "request": {
      "method": "PUT",
      "url": "Patient/171804b8-0f80-498e-92ea-7812b704013d"
    }
  }, {
    "fullUrl": "https://madie.cms.gov/Procedure/ec3ca4ea-ff04-4e23-8b69-7e0077b679e1",
    "resource": {
      "resourceType": "Procedure",
      "id": "ec3ca4ea-ff04-4e23-8b69-7e0077b679e1",
      "meta": {
        "profile": [ "http://hl7.org/fhir/us/qicore/StructureDefinition/qicore-procedure" ]
      },
      "extension": [ {
        "url": "http://hl7.org/fhir/us/qicore/StructureDefinition/qicore-recorded",
        "valueDateTime": "2026-04-11T08:10:00+00:00"
      } ],
      "status": "completed",
      "category": {
        "coding": [ {
          "system": "http://snomed.info/sct",
          "code": "18286008",
          "display": "General or neuraxial anesthesia"
        } ]
      },
      "code": {
        "coding": [ {
          "system": "http://snomed.info/sct",
          "code": "112943005",
          "display": "Epidural injection of anesthetic substance, diagnostic, caudal, continuous"
        } ]
      },
      "subject": {
        "reference": "Patient/171804b8-0f80-498e-92ea-7812b704013d"
      },
      "performedPeriod": {
        "start": "2026-04-11T08:00:00+00:00",
        "end": "2026-04-11T10:15:00+00:00"
      }
    },
    "request": {
      "method": "PUT",
      "url": "Procedure/ec3ca4ea-ff04-4e23-8b69-7e0077b679e1"
    }
  }, {
    "fullUrl": "https://madie.cms.gov/Procedure/30b5dea3-3e70-4cc4-b3c3-f1a64901acc6",
    "resource": {
      "resourceType": "Procedure",
      "id": "30b5dea3-3e70-4cc4-b3c3-f1a64901acc6",
      "meta": {
        "profile": [ "http://hl7.org/fhir/us/qicore/StructureDefinition/qicore-procedure" ]
      },
      "extension": [ {
        "url": "http://hl7.org/fhir/us/qicore/StructureDefinition/qicore-recorded",
        "valueDateTime": "2026-04-11T07:10:30+00:00"
      } ],
      "status": "completed",
      "code": {
        "coding": [ {
          "system": "http://snomed.info/sct",
          "code": "243141005",
          "display": "Mechanically assisted spontaneous ventilation"
        } ],
        "text": "Mechanically assisted spontaneous ventilation"
      },
      "subject": {
        "reference": "Patient/171804b8-0f80-498e-92ea-7812b704013d"
      },
      "performedPeriod": {
        "start": "2026-04-13T11:00:00+00:00",
        "end": "2026-04-13T14:15:00+00:00"
      }
    },
    "request": {
      "method": "PUT",
      "url": "Procedure/30b5dea3-3e70-4cc4-b3c3-f1a64901acc6"
    }
  }, {
    "fullUrl": "https://madie.cms.gov/MeasureReport/186a5256-2366-4745-b62b-9210db4a6e8a",
    "resource": {
      "resourceType": "MeasureReport",
      "id": "186a5256-2366-4745-b62b-9210db4a6e8a",
      "meta": {
        "profile": [ "http://hl7.org/fhir/us/cqfmeasures/StructureDefinition/test-case-cqfm" ]
      },
      "contained": [ {
        "resourceType": "Parameters",
        "id": "1823af97-965e-47ed-9839-4c861c0190ef-parameters",
        "parameter": [ {
          "name": "subject",
          "valueString": "171804b8-0f80-498e-92ea-7812b704013d"
        } ]
      } ],
      "extension": [ {
        "url": "http://hl7.org/fhir/us/cqfmeasures/StructureDefinition/cqfm-inputParameters",
        "valueReference": {
          "reference": "#1823af97-965e-47ed-9839-4c861c0190ef-parameters"
        }
      }, {
        "url": "http://hl7.org/fhir/us/cqfmeasures/StructureDefinition/cqfm-testCaseDescription",
        "valueMarkdown": "Elective hospitalization with procedure, MV documented during interval end of proc + 48 hrs and end of proc + 72 hrs, no interruption. Meets Num"
      } ],
      "modifierExtension": [ {
        "url": "http://hl7.org/fhir/us/cqfmeasures/StructureDefinition/cqfm-isTestCase",
        "valueBoolean": true
      } ],
      "status": "complete",
      "type": "individual",
      "measure": "https://madie.cms.gov/Measure/CMS1218HHRFFHIR",
      "period": {
        "start": "2026-01-01",
        "end": "2026-12-31"
      },
      "group": [ {
        "population": [ {
          "code": {
            "coding": [ {
              "system": "http://terminology.hl7.org/CodeSystem/measure-population",
              "code": "initial-population",
              "display": "Initial Population"
            } ]
          },
          "count": 1
        }, {
          "code": {
            "coding": [ {
              "system": "http://terminology.hl7.org/CodeSystem/measure-population",
              "code": "denominator",
              "display": "Denominator"
            } ]
          },
          "count": 1
        }, {
          "code": {
            "coding": [ {
              "system": "http://terminology.hl7.org/CodeSystem/measure-population",
              "code": "denominator-exclusion",
              "display": "Denominator Exclusion"
            } ]
          },
          "count": 0
        }, {
          "code": {
            "coding": [ {
              "system": "http://terminology.hl7.org/CodeSystem/measure-population",
              "code": "numerator",
              "display": "Numerator"
            } ]
          },
          "count": 1
        } ]
      } ],
      "evaluatedResource": [ {
        "reference": "Encounter/be1d152c-acf7-40e5-a178-cf39b56aada7"
      }, {
        "reference": "Patient/171804b8-0f80-498e-92ea-7812b704013d"
      }, {
        "reference": "Procedure/ec3ca4ea-ff04-4e23-8b69-7e0077b679e1"
      }, {
        "reference": "Procedure/30b5dea3-3e70-4cc4-b3c3-f1a64901acc6"
      } ]
    },
    "request": {
      "method": "PUT",
      "url": "MeasureReport/186a5256-2366-4745-b62b-9210db4a6e8a"
    }
  } ]
}