{
  "resourceType": "Bundle",
  "id": "DENEXFail-66yoWAIFrailEncOnDec31B4Interval",
  "type": "transaction",
  "entry": [ {
    "fullUrl": "https://madie.cms.gov/Patient/5abeef9c-1fa6-43de-b4db-19112612bbc2",
    "resource": {
      "resourceType": "Patient",
      "id": "5abeef9c-1fa6-43de-b4db-19112612bbc2",
      "meta": {
        "profile": [ "http://hl7.org/fhir/us/qicore/StructureDefinition/qicore-patient" ]
      },
      "extension": [ {
        "url": "http://hl7.org/fhir/us/core/StructureDefinition/us-core-race",
        "extension": [ {
          "url": "ombCategory",
          "valueCoding": {
            "system": "urn:oid:2.16.840.1.113883.6.238",
            "code": "2028-9",
            "display": "Asian"
          }
        }, {
          "url": "text",
          "valueString": "Asian"
        } ]
      }, {
        "url": "http://hl7.org/fhir/us/core/StructureDefinition/us-core-ethnicity",
        "extension": [ {
          "url": "ombCategory",
          "valueCoding": {
            "system": "urn:oid:2.16.840.1.113883.6.238",
            "code": "2135-2",
            "display": "Hispanic or Latino"
          }
        }, {
          "url": "text",
          "valueString": "Hispanic or Latino"
        } ]
      } ],
      "identifier": [ {
        "system": "http://hospital.smarthealthit.org",
        "value": "999999995"
      } ],
      "name": [ {
        "family": "Bertha",
        "given": [ "Betty" ]
      } ],
      "gender": "female",
      "birthDate": "1959-12-31"
    },
    "request": {
      "method": "PUT",
      "url": "Patient/5abeef9c-1fa6-43de-b4db-19112612bbc2"
    }
  }, {
    "fullUrl": "https://madie.cms.gov/Encounter/Encounter-18",
    "resource": {
      "resourceType": "Encounter",
      "id": "Encounter-18",
      "meta": {
        "profile": [ "http://hl7.org/fhir/us/qicore/StructureDefinition/qicore-encounter" ]
      },
      "status": "finished",
      "class": {
        "system": "http://terminology.hl7.org/CodeSystem/v3-ActCode",
        "code": "AMB",
        "display": "ambulatory"
      },
      "type": [ {
        "coding": [ {
          "system": "http://snomed.info/sct",
          "code": "185463005",
          "display": "Visit out of hours (procedure)"
        } ]
      } ],
      "subject": {
        "reference": "Patient/5abeef9c-1fa6-43de-b4db-19112612bbc2"
      },
      "period": {
        "start": "2025-01-01T00:00:00.000Z",
        "end": "2025-01-01T00:00:00.000Z"
      }
    },
    "request": {
      "method": "PUT",
      "url": "Encounter/Encounter-18"
    }
  }, {
    "fullUrl": "https://madie.cms.gov/Condition/Condition-18",
    "resource": {
      "resourceType": "Condition",
      "id": "Condition-18",
      "meta": {
        "profile": [ "http://hl7.org/fhir/us/qicore/StructureDefinition/qicore-condition" ]
      },
      "clinicalStatus": {
        "coding": [ {
          "system": "http://terminology.hl7.org/CodeSystem/condition-clinical",
          "code": "active"
        } ]
      },
      "category": [ {
        "coding": [ {
          "system": "http://terminology.hl7.org/CodeSystem/condition-category",
          "code": "problem-list-item",
          "display": "Problem List Item"
        } ]
      } ],
      "code": {
        "coding": [ {
          "system": "http://snomed.info/sct",
          "code": "102781000119107",
          "display": "Sensory neuropathy due to type 1 diabetes mellitus (disorder)"
        } ]
      },
      "subject": {
        "reference": "Patient/5abeef9c-1fa6-43de-b4db-19112612bbc2"
      },
      "onsetDateTime": "2025-01-01T00:00:00.000Z"
    },
    "request": {
      "method": "PUT",
      "url": "Condition/Condition-18"
    }
  }, {
    "fullUrl": "https://madie.cms.gov/Encounter/Encounter-18.1",
    "resource": {
      "resourceType": "Encounter",
      "id": "Encounter-18.1",
      "meta": {
        "profile": [ "http://hl7.org/fhir/us/qicore/StructureDefinition/qicore-encounter" ]
      },
      "status": "finished",
      "class": {
        "system": "http://terminology.hl7.org/CodeSystem/v3-ActCode",
        "code": "AMB",
        "display": "ambulatory"
      },
      "type": [ {
        "coding": [ {
          "system": "http://snomed.info/sct",
          "code": "10378005",
          "display": "Hospital admission, emergency, from emergency room, accidental injury (procedure)"
        } ]
      } ],
      "subject": {
        "reference": "Patient/5abeef9c-1fa6-43de-b4db-19112612bbc2"
      },
      "period": {
        "start": "2023-12-31T23:59:59.000Z",
        "end": "2023-12-31T23:59:59.000Z"
      },
      "diagnosis": [ {
        "condition": {
          "reference": "Condition/18.1"
        }
      } ]
    },
    "request": {
      "method": "PUT",
      "url": "Encounter/Encounter-18.1"
    }
  }, {
    "fullUrl": "https://madie.cms.gov/Condition/18.1",
    "resource": {
      "resourceType": "Condition",
      "id": "18.1",
      "meta": {
        "profile": [ "http://hl7.org/fhir/us/qicore/StructureDefinition/qicore-condition" ]
      },
      "clinicalStatus": {
        "coding": [ {
          "system": "http://terminology.hl7.org/CodeSystem/condition-clinical",
          "code": "active"
        } ]
      },
      "category": [ {
        "coding": [ {
          "system": "http://terminology.hl7.org/CodeSystem/condition-category",
          "code": "problem-list-item",
          "display": "Problem List Item"
        } ]
      } ],
      "code": {
        "coding": [ {
          "system": "http://snomed.info/sct",
          "code": "100721000119109",
          "display": "High grade astrocytoma of brain (disorder)"
        } ]
      },
      "subject": {
        "reference": "Patient/5abeef9c-1fa6-43de-b4db-19112612bbc2"
      },
      "onsetDateTime": "2025-01-01T00:00:00.000Z"
    },
    "request": {
      "method": "PUT",
      "url": "Condition/18.1"
    }
  }, {
    "fullUrl": "https://madie.cms.gov/DeviceRequest/DeviceRequest-18",
    "resource": {
      "resourceType": "DeviceRequest",
      "id": "DeviceRequest-18",
      "meta": {
        "profile": [ "http://hl7.org/fhir/us/qicore/StructureDefinition/qicore-devicerequest" ]
      },
      "modifierExtension": [ {
        "url": "http://hl7.org/fhir/us/qicore/StructureDefinition/qicore-doNotPeform",
        "valueBoolean": false
      } ],
      "status": "completed",
      "intent": "order",
      "codeCodeableConcept": {
        "coding": [ {
          "system": "http://snomed.info/sct",
          "code": "183240000",
          "display": "Self-propelled wheelchair (physical object)"
        } ]
      },
      "subject": {
        "reference": "Patient/5abeef9c-1fa6-43de-b4db-19112612bbc2"
      },
      "authoredOn": "2025-01-01T00:00:00.000Z"
    },
    "request": {
      "method": "PUT",
      "url": "DeviceRequest/DeviceRequest-18"
    }
  }, {
    "fullUrl": "https://madie.cms.gov/MeasureReport/db5d92fe-5571-4d3f-bc27-d1c290edd9e3",
    "resource": {
      "resourceType": "MeasureReport",
      "id": "db5d92fe-5571-4d3f-bc27-d1c290edd9e3",
      "meta": {
        "profile": [ "http://hl7.org/fhir/us/cqfmeasures/StructureDefinition/test-case-cqfm" ]
      },
      "contained": [ {
        "resourceType": "Parameters",
        "id": "5620dd4c-5337-4ef4-9a5a-bea9d9a97b21-parameters",
        "parameter": [ {
          "name": "subject",
          "valueString": "5abeef9c-1fa6-43de-b4db-19112612bbc2"
        } ]
      } ],
      "extension": [ {
        "url": "http://hl7.org/fhir/us/cqfmeasures/StructureDefinition/cqfm-inputParameters",
        "valueReference": {
          "reference": "#5620dd4c-5337-4ef4-9a5a-bea9d9a97b21-parameters"
        }
      }, {
        "url": "http://hl7.org/fhir/us/cqfmeasures/StructureDefinition/cqfm-testCaseDescription",
        "valueMarkdown": "Patient 66yo w/ an Office Visit  Encounter 1/1 of the MP, & Diabetes Condition ending 1/1 during the MP, & an Advanced Illness & Frailty Encounter that starts on 12/31 before the procedure interval."
      } ],
      "modifierExtension": [ {
        "url": "http://hl7.org/fhir/us/cqfmeasures/StructureDefinition/cqfm-isTestCase",
        "valueBoolean": true
      } ],
      "status": "complete",
      "type": "individual",
      "measure": "https://madie.cms.gov/Measure/DiabetesEyeExamFHIR",
      "period": {
        "start": "2025-01-01",
        "end": "2025-12-31"
      },
      "group": [ {
        "population": [ {
          "code": {
            "coding": [ {
              "system": "http://terminology.hl7.org/CodeSystem/measure-population",
              "code": "initial-population",
              "display": "Initial Population"
            } ]
          },
          "count": 1
        }, {
          "code": {
            "coding": [ {
              "system": "http://terminology.hl7.org/CodeSystem/measure-population",
              "code": "denominator",
              "display": "Denominator"
            } ]
          },
          "count": 1
        }, {
          "code": {
            "coding": [ {
              "system": "http://terminology.hl7.org/CodeSystem/measure-population",
              "code": "denominator-exclusion",
              "display": "Denominator Exclusion"
            } ]
          },
          "count": 0
        }, {
          "code": {
            "coding": [ {
              "system": "http://terminology.hl7.org/CodeSystem/measure-population",
              "code": "numerator",
              "display": "Numerator"
            } ]
          },
          "count": 0
        } ]
      } ],
      "evaluatedResource": [ {
        "reference": "Patient/5abeef9c-1fa6-43de-b4db-19112612bbc2"
      }, {
        "reference": "Encounter/Encounter-18"
      }, {
        "reference": "Condition/Condition-18"
      }, {
        "reference": "Encounter/Encounter-18.1"
      }, {
        "reference": "Condition/18.1"
      }, {
        "reference": "DeviceRequest/DeviceRequest-18"
      } ]
    },
    "request": {
      "method": "PUT",
      "url": "MeasureReport/db5d92fe-5571-4d3f-bc27-d1c290edd9e3"
    }
  } ]
}