{
  "resourceType": "Bundle",
  "id": "612e6b4402c62a011f2ed1e1",
  "type": "transaction",
  "entry": [ {
    "fullUrl": "https://madie.cms.gov/Patient/8961c16d-d6a2-4da2-bbe0-d66f7ed6d85a",
    "resource": {
      "resourceType": "Patient",
      "id": "8961c16d-d6a2-4da2-bbe0-d66f7ed6d85a",
      "meta": {
        "profile": [ "http://hl7.org/fhir/us/qicore/StructureDefinition/qicore-patient" ]
      },
      "text": {
        "status": "generated",
        "div": "<div xmlns=\"http://www.w3.org/1999/xhtml\"><div class=\"hapiHeaderText\">CMPerfGT1DayAfterIPEnc <b>DENEXFAIL </b></div><table class=\"hapiPropertyTable\"><tbody><tr><td>Identifier</td><td>dcec2fd8df342b0e963fde01bb96af93</td></tr><tr><td>Date of birth</td><td><span>02 January 1974</span></td></tr></tbody></table></div>"
      },
      "extension": [ {
        "url": "http://hl7.org/fhir/us/core/StructureDefinition/us-core-race",
        "extension": [ {
          "url": "ombCategory",
          "valueCoding": {
            "system": "urn:oid:2.16.840.1.113883.6.238",
            "code": "1002-5",
            "display": "American Indian or Alaska Native",
            "userSelected": true
          }
        }, {
          "url": "text",
          "valueString": "American Indian or Alaska Native"
        } ]
      }, {
        "url": "http://hl7.org/fhir/us/core/StructureDefinition/us-core-ethnicity",
        "extension": [ {
          "url": "ombCategory",
          "valueCoding": {
            "system": "urn:oid:2.16.840.1.113883.6.238",
            "code": "2135-2",
            "display": "Hispanic or Latino",
            "userSelected": true
          }
        }, {
          "url": "text",
          "valueString": "Hispanic or Latino"
        } ]
      } ],
      "identifier": [ {
        "type": {
          "coding": [ {
            "system": "http://terminology.hl7.org/CodeSystem/v2-0203",
            "code": "MR"
          } ]
        },
        "system": "https://bonnie-fhir.healthit.gov/",
        "value": "612e6b4402c62a011f2ed1e1"
      } ],
      "active": true,
      "name": [ {
        "use": "usual",
        "family": "DENEXFail",
        "given": [ "CMPerfGT1DayAfterIPEnc" ]
      } ],
      "gender": "male",
      "birthDate": "1975-01-02"
    },
    "request": {
      "method": "PUT",
      "url": "Patient/8961c16d-d6a2-4da2-bbe0-d66f7ed6d85a"
    }
  }, {
    "fullUrl": "https://madie.cms.gov/Encounter/81357ef4-dd47-4bd8-89f0-47fc5ac715d3",
    "resource": {
      "resourceType": "Encounter",
      "id": "81357ef4-dd47-4bd8-89f0-47fc5ac715d3",
      "meta": {
        "profile": [ "http://hl7.org/fhir/us/qicore/StructureDefinition/qicore-encounter" ]
      },
      "status": "finished",
      "class": {
        "system": "http://terminology.hl7.org/CodeSystem/v3-ActCode",
        "code": "IMP",
        "display": "inpatient encounter"
      },
      "type": [ {
        "coding": [ {
          "system": "http://snomed.info/sct",
          "code": "8715000"
        } ]
      } ],
      "subject": {
        "reference": "Patient/8961c16d-d6a2-4da2-bbe0-d66f7ed6d85a"
      },
      "period": {
        "start": "2026-11-01T08:00:00+00:00",
        "end": "2026-11-26T08:15:00+00:00"
      },
      "length": {
        "value": 25.0,
        "unit": "days"
      }
    },
    "request": {
      "method": "PUT",
      "url": "Encounter/81357ef4-dd47-4bd8-89f0-47fc5ac715d3"
    }
  }, {
    "fullUrl": "https://madie.cms.gov/Procedure/745dfec6-4561-4741-9d94-05f47d56db72",
    "resource": {
      "resourceType": "Procedure",
      "id": "745dfec6-4561-4741-9d94-05f47d56db72",
      "meta": {
        "profile": [ "http://hl7.org/fhir/us/qicore/StructureDefinition/qicore-procedure" ]
      },
      "extension": [ {
        "url": "http://hl7.org/fhir/us/qicore/StructureDefinition/qicore-recorded",
        "valueDateTime": "2013-12-04T09:35:00-04:00"
      } ],
      "status": "completed",
      "code": {
        "coding": [ {
          "system": "http://snomed.info/sct",
          "code": "133918004"
        } ]
      },
      "subject": {
        "reference": "Patient/8961c16d-d6a2-4da2-bbe0-d66f7ed6d85a"
      },
      "performedPeriod": {
        "start": "2026-11-05T11:00:00+00:00"
      }
    },
    "request": {
      "method": "PUT",
      "url": "Procedure/745dfec6-4561-4741-9d94-05f47d56db72"
    }
  }, {
    "fullUrl": "https://madie.cms.gov/Coverage/93b779ae-0975-4166-9992-1119c77cc7c7",
    "resource": {
      "resourceType": "Coverage",
      "id": "93b779ae-0975-4166-9992-1119c77cc7c7",
      "status": "active",
      "beneficiary": {
        "reference": "Patient/8961c16d-d6a2-4da2-bbe0-d66f7ed6d85a"
      },
      "period": {
        "start": "1975-01-02T08:00:00+00:00"
      },
      "payor": [ {
        "reference": "Organization/bdb167c0-e207-4718-9c5e-e9ebfb85e380"
      } ]
    },
    "request": {
      "method": "PUT",
      "url": "Coverage/93b779ae-0975-4166-9992-1119c77cc7c7"
    }
  }, {
    "fullUrl": "https://madie.cms.gov/Procedure/f950d75d-47a4-4416-b0cf-eb2036064609",
    "resource": {
      "resourceType": "Procedure",
      "id": "f950d75d-47a4-4416-b0cf-eb2036064609",
      "meta": {
        "profile": [ "http://hl7.org/fhir/us/qicore/StructureDefinition/qicore-procedure" ]
      },
      "extension": [ {
        "url": "http://hl7.org/fhir/us/qicore/StructureDefinition/qicore-recorded",
        "valueDateTime": "2013-12-04T09:35:00-04:00"
      } ],
      "status": "completed",
      "code": {
        "coding": [ {
          "system": "http://www.icd10data.com/icd10pcs",
          "code": "3E030FZ"
        }, {
          "system": "http://snomed.info/sct",
          "code": "18946005"
        } ]
      },
      "subject": {
        "reference": "Patient/8961c16d-d6a2-4da2-bbe0-d66f7ed6d85a"
      },
      "performedPeriod": {
        "start": "2026-11-01T09:00:00+00:00",
        "end": "2026-12-02T09:15:00+00:00"
      }
    },
    "request": {
      "method": "PUT",
      "url": "Procedure/f950d75d-47a4-4416-b0cf-eb2036064609"
    }
  }, {
    "fullUrl": "https://madie.cms.gov/Organization/bdb167c0-e207-4718-9c5e-e9ebfb85e380",
    "resource": {
      "resourceType": "Organization",
      "id": "bdb167c0-e207-4718-9c5e-e9ebfb85e380",
      "meta": {
        "profile": [ "http://hl7.org/fhir/us/qicore/StructureDefinition/qicore-organization" ]
      },
      "identifier": [ {
        "use": "temp",
        "system": "urn:oid:2.16.840.1.113883.4.4",
        "value": "21-3259825"
      } ],
      "active": true,
      "type": [ {
        "coding": [ {
          "system": "http://terminology.hl7.org/CodeSystem/organization-type",
          "code": "pay",
          "display": "Payer"
        } ]
      } ],
      "name": "Blue Cross Blue Shield of Texas",
      "telecom": [ {
        "system": "phone",
        "value": "(+1) 972-766-6900"
      } ],
      "address": [ {
        "use": "billing",
        "type": "postal",
        "line": [ "P.O. Box 660044" ],
        "city": "Dallas",
        "state": "TX",
        "postalCode": "75266-0044",
        "country": "USA"
      } ]
    },
    "request": {
      "method": "PUT",
      "url": "Organization/bdb167c0-e207-4718-9c5e-e9ebfb85e380"
    }
  }, {
    "fullUrl": "https://madie.cms.gov/Practitioner/da4a493d-8899-40e8-a230-4aa3f1d084bb",
    "resource": {
      "resourceType": "Practitioner",
      "id": "da4a493d-8899-40e8-a230-4aa3f1d084bb",
      "identifier": [ {
        "system": "http://hl7.org/fhir/sid/us-npi",
        "value": "123456"
      } ],
      "name": [ {
        "family": "Evil",
        "prefix": [ "Dr" ]
      } ]
    },
    "request": {
      "method": "PUT",
      "url": "Practitioner/da4a493d-8899-40e8-a230-4aa3f1d084bb"
    }
  }, {
    "fullUrl": "https://madie.cms.gov/MeasureReport/02c37365-624f-455e-b0fc-b6048bd763de",
    "resource": {
      "resourceType": "MeasureReport",
      "id": "02c37365-624f-455e-b0fc-b6048bd763de",
      "meta": {
        "profile": [ "http://hl7.org/fhir/us/cqfmeasures/StructureDefinition/test-case-cqfm" ]
      },
      "contained": [ {
        "resourceType": "Parameters",
        "id": "0a79e774-8f30-484c-ae7c-d8097c9d77d0-parameters",
        "parameter": [ {
          "name": "subject",
          "valueString": "8961c16d-d6a2-4da2-bbe0-d66f7ed6d85a"
        } ]
      } ],
      "extension": [ {
        "url": "http://hl7.org/fhir/us/cqfmeasures/StructureDefinition/cqfm-inputParameters",
        "valueReference": {
          "reference": "#0a79e774-8f30-484c-ae7c-d8097c9d77d0-parameters"
        }
      }, {
        "url": "http://hl7.org/fhir/us/cqfmeasures/StructureDefinition/cqfm-testCaseDescription",
        "valueMarkdown": "comfort measures > 1 day after IP encounter starts\n"
      } ],
      "modifierExtension": [ {
        "url": "http://hl7.org/fhir/us/cqfmeasures/StructureDefinition/cqfm-isTestCase",
        "valueBoolean": true
      } ],
      "status": "complete",
      "type": "individual",
      "measure": "https://madie.cms.gov/Measure/CMS108VTEProphylaxisFHIR",
      "period": {
        "start": "2026-01-01",
        "end": "2026-12-31"
      },
      "group": [ {
        "population": [ {
          "code": {
            "coding": [ {
              "system": "http://terminology.hl7.org/CodeSystem/measure-population",
              "code": "initial-population",
              "display": "Initial Population"
            } ]
          },
          "count": 1
        }, {
          "code": {
            "coding": [ {
              "system": "http://terminology.hl7.org/CodeSystem/measure-population",
              "code": "denominator",
              "display": "Denominator"
            } ]
          },
          "count": 1
        }, {
          "code": {
            "coding": [ {
              "system": "http://terminology.hl7.org/CodeSystem/measure-population",
              "code": "denominator-exclusion",
              "display": "Denominator Exclusion"
            } ]
          },
          "count": 0
        }, {
          "code": {
            "coding": [ {
              "system": "http://terminology.hl7.org/CodeSystem/measure-population",
              "code": "numerator",
              "display": "Numerator"
            } ]
          },
          "count": 0
        } ]
      } ],
      "evaluatedResource": [ {
        "reference": "Patient/8961c16d-d6a2-4da2-bbe0-d66f7ed6d85a"
      }, {
        "reference": "Encounter/81357ef4-dd47-4bd8-89f0-47fc5ac715d3"
      }, {
        "reference": "Procedure/745dfec6-4561-4741-9d94-05f47d56db72"
      }, {
        "reference": "Coverage/93b779ae-0975-4166-9992-1119c77cc7c7"
      }, {
        "reference": "Procedure/f950d75d-47a4-4416-b0cf-eb2036064609"
      }, {
        "reference": "Organization/bdb167c0-e207-4718-9c5e-e9ebfb85e380"
      }, {
        "reference": "Practitioner/da4a493d-8899-40e8-a230-4aa3f1d084bb"
      } ]
    },
    "request": {
      "method": "PUT",
      "url": "MeasureReport/02c37365-624f-455e-b0fc-b6048bd763de"
    }
  } ]
}