{"resourceType":"Bundle","id":"tests-01959faf-5ea5-41cb-b960-b74da18cca85-bundle","type":"transaction","entry":[{"fullUrl":"https://madie.cms.gov/Patient/01959faf-5ea5-41cb-b960-b74da18cca85","resource":{"resourceType":"Patient","id":"01959faf-5ea5-41cb-b960-b74da18cca85","meta":{"profile":["http://hl7.org/fhir/us/qicore/StructureDefinition/qicore-patient"]},"extension":[{"url":"http://hl7.org/fhir/us/core/StructureDefinition/us-core-race","extension":[{"url":"ombCategory","valueCoding":{"system":"urn:oid:2.16.840.1.113883.6.238","code":"1002-5","display":"American Indian or Alaska Native","userSelected":true}},{"url":"text","valueString":"American Indian or Alaska Native"}]},{"url":"http://hl7.org/fhir/us/core/StructureDefinition/us-core-ethnicity","extension":[{"url":"ombCategory","valueCoding":{"system":"urn:oid:2.16.840.1.113883.6.238","code":"2135-2","display":"Hispanic or Latino","userSelected":true}},{"url":"text","valueString":"Hispanic or Latino"}]}],"identifier":[{"type":{"coding":[{"system":"http://terminology.hl7.org/CodeSystem/v2-0203","code":"MR"}]},"system":"https://bonnie-fhir.healthit.gov/","value":"6617e30316793f5a4fae16fe"}],"name":[{"family":"NUMERStrat3Pass","given":["DecisionToAdmitUsingAssessmentBoarded241m"]}],"gender":"male","birthDate":"2009-01-01"},"request":{"method":"PUT","url":"Patient/01959faf-5ea5-41cb-b960-b74da18cca85"}},{"fullUrl":"https://madie.cms.gov/Encounter/6d93d63e-8221-496a-85e1-0ab47f708031","resource":{"resourceType":"Encounter","id":"6d93d63e-8221-496a-85e1-0ab47f708031","meta":{"profile":["http://hl7.org/fhir/us/qicore/StructureDefinition/qicore-encounter"]},"status":"finished","class":{"system":"http://terminology.hl7.org/CodeSystem/v3-ActCode","code":"EMER","display":"emergency"},"type":[{"coding":[{"system":"http://snomed.info/sct","version":"2023-09","code":"4525004","display":"Emergency department patient visit (procedure)","userSelected":true}]}],"subject":{"reference":"Patient/01959faf-5ea5-41cb-b960-b74da18cca85"},"period":{"start":"2026-01-01T00:00:00.000+00:00","end":"2026-01-01T06:00:00.000+00:00"},"diagnosis":[{"condition":{"reference":"Condition/ab59a646-7652-4afb-93f0-548d0b20c9ad"},"use":{"coding":[{"system":"http://terminology.hl7.org/CodeSystem/diagnosis-role","code":"billing"}]},"rank":1}],"location":[{"location":{"reference":"Location/817884e7-95d6-4f94-9fc8-aa3f72ec992c"},"period":{"start":"2026-01-01T00:00:00.000+00:00","end":"2026-01-01T06:01:00.000+00:00"}}]},"request":{"method":"PUT","url":"Encounter/6d93d63e-8221-496a-85e1-0ab47f708031"}},{"fullUrl":"https://madie.cms.gov/Encounter/2d599158-cd83-494e-93e4-b4d7147c68f1","resource":{"resourceType":"Encounter","id":"2d599158-cd83-494e-93e4-b4d7147c68f1","meta":{"profile":["http://hl7.org/fhir/us/qicore/StructureDefinition/qicore-encounter"]},"status":"finished","class":{"system":"http://terminology.hl7.org/CodeSystem/v3-ActCode","code":"IMP","display":"inpatient"},"type":[{"coding":[{"system":"http://snomed.info/sct","version":"2023-09","code":"183452005","display":"Emergency hospital admission (procedure)","userSelected":true}]}],"subject":{"reference":"Patient/01959faf-5ea5-41cb-b960-b74da18cca85"},"period":{"start":"2026-01-01T06:00:00.000+00:00","end":"2026-01-03T07:00:00.000+00:00"}},"request":{"method":"PUT","url":"Encounter/2d599158-cd83-494e-93e4-b4d7147c68f1"}},{"fullUrl":"https://madie.cms.gov/Location/817884e7-95d6-4f94-9fc8-aa3f72ec992c","resource":{"resourceType":"Location","id":"817884e7-95d6-4f94-9fc8-aa3f72ec992c","meta":{"profile":["http://hl7.org/fhir/us/qicore/StructureDefinition/qicore-location"]},"identifier":[{"use":"usual","system":"http://exampleoflocation.com","value":"B1-S.F2"}],"name":"Local ED","type":[{"coding":[{"system":"https://www.cdc.gov/nhsn/cdaportal/terminology/codesystem/hsloc.html","version":"2022","code":"1108-0","display":"Emergency Department","userSelected":true}]}]},"request":{"method":"PUT","url":"Location/817884e7-95d6-4f94-9fc8-aa3f72ec992c"}},{"fullUrl":"https://madie.cms.gov/Observation/41be49ec-c1e7-4bdd-8f20-0f34b1d84d70","resource":{"resourceType":"Observation","id":"41be49ec-c1e7-4bdd-8f20-0f34b1d84d70","meta":{"profile":["http://hl7.org/fhir/us/qicore/StructureDefinition/qicore-observation"]},"status":"final","category":[{"coding":[{"system":"http://terminology.hl7.org/CodeSystem/observation-category","code":"procedure","display":"Procedure"}]}],"code":{"coding":[{"system":"http://loinc.org","version":"2.76","code":"28568-4","display":"Physician Emergency department Note","userSelected":true}]},"subject":{"reference":"Patient/01959faf-5ea5-41cb-b960-b74da18cca85"},"effectiveDateTime":"2026-01-01T01:00:00.000+00:00","valueCodeableConcept":{"coding":[{"system":"http://snomed.info/sct","code":"434081000124108","display":"Patient requires hospitalization (finding)","userSelected":true}]}},"request":{"method":"PUT","url":"Observation/41be49ec-c1e7-4bdd-8f20-0f34b1d84d70"}},{"fullUrl":"https://madie.cms.gov/Condition/ab59a646-7652-4afb-93f0-548d0b20c9ad","resource":{"resourceType":"Condition","id":"ab59a646-7652-4afb-93f0-548d0b20c9ad","meta":{"profile":["http://hl7.org/fhir/us/qicore/StructureDefinition/qicore-condition"]},"category":[{"coding":[{"system":"http://terminology.hl7.org/CodeSystem/condition-category","code":"encounter-diagnosis","display":"Encounter Diagnosis"}]}],"code":{"coding":[{"system":"http://snomed.info/sct","version":"2023-09","code":"10349009","display":"Multi-infarct dementia with delirium (disorder)","userSelected":true}]},"subject":{"reference":"Patient/01959faf-5ea5-41cb-b960-b74da18cca85"},"recordedDate":"2025-12-31T23:59:00.000+00:00"},"request":{"method":"PUT","url":"Condition/ab59a646-7652-4afb-93f0-548d0b20c9ad"}},{"fullUrl":"https://madie.cms.gov/Coverage/faac7fc3-e081-4f10-a8ef-4c0f7126a603","resource":{"resourceType":"Coverage","id":"faac7fc3-e081-4f10-a8ef-4c0f7126a603","meta":{"profile":["http://hl7.org/fhir/us/qicore/StructureDefinition/qicore-coverage"]},"status":"active","beneficiary":{"reference":"Patient/01959faf-5ea5-41cb-b960-b74da18cca85"},"payor":[{"reference":"Organization/18ca435c-cae6-4c34-8033-af717477f9fc"}]},"request":{"method":"PUT","url":"Coverage/faac7fc3-e081-4f10-a8ef-4c0f7126a603"}},{"fullUrl":"https://madie.cms.gov/Organization/18ccd054-1f09-4248-a79f-eece810b61ae","resource":{"resourceType":"Organization","id":"18ca435c-cae6-4c34-8033-af717477f9fc","meta":{"profile":["http://hl7.org/fhir/us/qicore/StructureDefinition/qicore-organization"]},"identifier":[{"use":"temp","system":"urn:oid:2.16.840.1.113883.4.4","value":"21-3259825"}],"active":true,"type":[{"coding":[{"system":"http://terminology.hl7.org/CodeSystem/organization-type","code":"pay","display":"Payer"}]}],"name":"Blue Cross Blue Shield of Texas","telecom":[{"system":"phone","value":"(+1) 972-766-6900"}],"address":[{"use":"billing","type":"postal","line":["P.O. Box 660044"],"city":"Dallas","state":"TX","postalCode":"75266-0044","country":"USA"}]},"request":{"method":"PUT","url":"Organization/18ca435c-cae6-4c34-8033-af717477f9fc"}},{"fullUrl":"https://madie.cms.gov/Practitioner/4a690104-b035-4a73-ad83-3b914acd0f6e","resource":{"resourceType":"Practitioner","id":"4a690104-b035-4a73-ad83-3b914acd0f6e","meta":{"profile":["http://hl7.org/fhir/us/qicore/StructureDefinition/qicore-practitioner"]},"identifier":[{"system":"http://hl7.org/fhir/sid/us-npi","value":"123456"}],"name":[{"family":"Evil","prefix":["Dr"]}]},"request":{"method":"PUT","url":"Practitioner/4a690104-b035-4a73-ad83-3b914acd0f6e"}},{"fullUrl":"https://madie.cms.gov/MeasureReport/6a92fc7e-71b1-4ae2-aee2-1751034fdf74","resource":{"resourceType":"MeasureReport","id":"6a92fc7e-71b1-4ae2-aee2-1751034fdf74","meta":{"profile":["http://hl7.org/fhir/us/cqfmeasures/StructureDefinition/test-case-cqfm"]},"contained":[{"resourceType":"Parameters","id":"7c980fae-b3a6-4716-84ca-f0bbad13e16f-parameters","parameter":[{"name":"subject","valueString":"01959faf-5ea5-41cb-b960-b74da18cca85"}]}],"extension":[{"url":"http://hl7.org/fhir/us/cqfmeasures/StructureDefinition/cqfm-inputParameters","valueReference":{"reference":"#7c980fae-b3a6-4716-84ca-f0bbad13e16f-parameters"}},{"url":"http://hl7.org/fhir/us/cqfmeasures/StructureDefinition/cqfm-testCaseDescription","valueMarkdown":"ED enc first minute of MP, 6 hrs (start to end), (arrival to departure 6 hrs, 1 min)  inpt enc starts at 0600 same day, 2 day stay, assessment effective 0200, results: to admit,  behavioral health dx last day of last MP"}],"modifierExtension":[{"url":"http://hl7.org/fhir/us/cqfmeasures/StructureDefinition/cqfm-isTestCase","valueBoolean":true}],"status":"complete","type":"individual","measure":"https://madie.cms.gov/Measure/CMS1244ECCQHOQRFHIR","period":{"start":"2026-01-01","end":"2026-12-31"},"group":[{"population":[{"code":{"coding":[{"system":"http://terminology.hl7.org/CodeSystem/measure-population","code":"initial-population","display":"Initial Population"}]},"count":1},{"code":{"coding":[{"system":"http://terminology.hl7.org/CodeSystem/measure-population","code":"denominator","display":"Denominator"}]},"count":1},{"code":{"coding":[{"system":"http://terminology.hl7.org/CodeSystem/measure-population","code":"numerator","display":"Numerator"}]},"count":1}]}]},"request":{"method":"PUT","url":"MeasureReport/6a92fc7e-71b1-4ae2-aee2-1751034fdf74"}}]}