{"resourceType":"Bundle","id":"tests-9fe769bc-bd23-4799-9bc6-9945eda0d0cf-bundle","type":"transaction","entry":[{"fullUrl":"https://madie.cms.gov/Patient/9fe769bc-bd23-4799-9bc6-9945eda0d0cf","resource":{"resourceType":"Patient","id":"9fe769bc-bd23-4799-9bc6-9945eda0d0cf","meta":{"profile":["http://hl7.org/fhir/us/qicore/StructureDefinition/qicore-patient"]},"extension":[{"url":"http://hl7.org/fhir/us/core/StructureDefinition/us-core-race","extension":[{"url":"ombCategory","valueCoding":{"system":"urn:oid:2.16.840.1.113883.6.238","code":"1002-5","display":"American Indian or Alaska Native","userSelected":true}},{"url":"text","valueString":"American Indian or Alaska Native"}]},{"url":"http://hl7.org/fhir/us/core/StructureDefinition/us-core-ethnicity","extension":[{"url":"ombCategory","valueCoding":{"system":"urn:oid:2.16.840.1.113883.6.238","code":"2135-2","display":"Hispanic or Latino","userSelected":true}},{"url":"text","valueString":"Hispanic or Latino"}]}],"identifier":[{"type":{"coding":[{"system":"http://terminology.hl7.org/CodeSystem/v2-0203","code":"MR"}]},"system":"https://bonnie-fhir.healthit.gov/","value":"661476b015ed5841a5547ebf"}],"name":[{"family":"NUMERStrat3Pass","given":["AdmittedInpatient"]}],"gender":"male","birthDate":"2009-01-01"},"request":{"method":"PUT","url":"Patient/9fe769bc-bd23-4799-9bc6-9945eda0d0cf"}},{"fullUrl":"https://madie.cms.gov/Encounter/8dd7d11f-894f-4b3e-8f74-e03e7cc3a45a","resource":{"resourceType":"Encounter","id":"8dd7d11f-894f-4b3e-8f74-e03e7cc3a45a","meta":{"profile":["http://hl7.org/fhir/us/qicore/StructureDefinition/qicore-encounter"]},"status":"finished","class":{"system":"http://terminology.hl7.org/CodeSystem/v3-ActCode","code":"EMER","display":"emergency department"},"type":[{"coding":[{"system":"http://snomed.info/sct","version":"2023-09","code":"4525004","display":"Emergency department patient visit (procedure)","userSelected":true}]}],"subject":{"reference":"Patient/9fe769bc-bd23-4799-9bc6-9945eda0d0cf"},"period":{"start":"2026-01-01T06:00:00.000+00:00","end":"2026-01-01T13:15:00.000+00:00"},"diagnosis":[{"condition":{"reference":"Condition/b1998c0a-4a1f-4b81-a416-ebabf2dec138"},"use":{"coding":[{"system":"http://terminology.hl7.org/CodeSystem/diagnosis-role","code":"billing"}]},"rank":1}],"location":[{"location":{"reference":"Location/186b7a5b-0424-420e-91c5-ff18ba89b799"},"period":{"start":"2026-01-01T06:00:00.000+00:00","end":"2026-01-01T13:15:00.000+00:00"}}]},"request":{"method":"PUT","url":"Encounter/8dd7d11f-894f-4b3e-8f74-e03e7cc3a45a"}},{"fullUrl":"https://madie.cms.gov/Encounter/ace0adc5-811e-44c6-9caa-5abefa8ba6e7","resource":{"resourceType":"Encounter","id":"ace0adc5-811e-44c6-9caa-5abefa8ba6e7","meta":{"profile":["http://hl7.org/fhir/us/qicore/StructureDefinition/qicore-encounter"]},"status":"finished","class":{"system":"http://terminology.hl7.org/CodeSystem/v3-ActCode","code":"IMP","display":"inpatient encounter"},"type":[{"coding":[{"system":"http://snomed.info/sct","version":"2023-09","code":"183452005","display":"Emergency hospital admission (procedure)","userSelected":true}]}],"subject":{"reference":"Patient/9fe769bc-bd23-4799-9bc6-9945eda0d0cf"},"period":{"start":"2026-01-01T09:00:00.000+00:00","end":"2026-01-03T06:15:00.000+00:00"}},"request":{"method":"PUT","url":"Encounter/ace0adc5-811e-44c6-9caa-5abefa8ba6e7"}},{"fullUrl":"https://madie.cms.gov/Location/186b7a5b-0424-420e-91c5-ff18ba89b799","resource":{"resourceType":"Location","id":"186b7a5b-0424-420e-91c5-ff18ba89b799","meta":{"profile":["http://hl7.org/fhir/us/qicore/StructureDefinition/qicore-location"]},"identifier":[{"use":"usual","system":"http://exampleoflocation.com","value":"B1-S.F2"}],"name":"Medical Surgical East, first floor","type":[{"coding":[{"system":"https://www.cdc.gov/nhsn/cdaportal/terminology/codesystem/hsloc.html","version":"2022","code":"1108-0","display":"Emergency Department","userSelected":true}]}]},"request":{"method":"PUT","url":"Location/186b7a5b-0424-420e-91c5-ff18ba89b799"}},{"fullUrl":"https://madie.cms.gov/Coverage/3cb43d90-1611-45af-816d-fb86b3fe9ec5","resource":{"resourceType":"Coverage","id":"3cb43d90-1611-45af-816d-fb86b3fe9ec5","meta":{"profile":["http://hl7.org/fhir/us/qicore/StructureDefinition/qicore-coverage"]},"status":"active","beneficiary":{"reference":"Patient/9fe769bc-bd23-4799-9bc6-9945eda0d0cf"},"payor":[{"reference":"Organization/607fdef9-3983-4cef-ab1a-95434d29b463"}]},"request":{"method":"PUT","url":"Coverage/3cb43d90-1611-45af-816d-fb86b3fe9ec5"}},{"fullUrl":"https://madie.cms.gov/Condition/b1998c0a-4a1f-4b81-a416-ebabf2dec138","resource":{"resourceType":"Condition","id":"b1998c0a-4a1f-4b81-a416-ebabf2dec138","meta":{"profile":["http://hl7.org/fhir/us/qicore/StructureDefinition/qicore-condition"]},"category":[{"coding":[{"system":"http://terminology.hl7.org/CodeSystem/condition-category","code":"encounter-diagnosis","display":"Encounter Diagnosis"}]}],"code":{"coding":[{"system":"http://snomed.info/sct","version":"2023-09","code":"10349009","display":"Multi-infarct dementia with delirium (disorder)","userSelected":true}]},"subject":{"reference":"Patient/9fe769bc-bd23-4799-9bc6-9945eda0d0cf"},"recordedDate":"2026-04-09T08:00:00.000+00:00"},"request":{"method":"PUT","url":"Condition/b1998c0a-4a1f-4b81-a416-ebabf2dec138"}},{"fullUrl":"https://madie.cms.gov/Organization/900d3b01-c1d2-4c6d-bf37-4b309ba760c5","resource":{"resourceType":"Organization","id":"607fdef9-3983-4cef-ab1a-95434d29b463","meta":{"profile":["http://hl7.org/fhir/us/qicore/StructureDefinition/qicore-organization"]},"identifier":[{"use":"temp","system":"urn:oid:2.16.840.1.113883.4.4","value":"21-3259825"}],"active":true,"type":[{"coding":[{"system":"http://terminology.hl7.org/CodeSystem/organization-type","code":"pay","display":"Payer"}]}],"name":"Blue Cross Blue Shield of Texas","telecom":[{"system":"phone","value":"(+1) 972-766-6900"}],"address":[{"use":"billing","type":"postal","line":["P.O. Box 660044"],"city":"Dallas","state":"TX","postalCode":"75266-0044","country":"USA"}]},"request":{"method":"PUT","url":"Organization/607fdef9-3983-4cef-ab1a-95434d29b463"}},{"fullUrl":"https://madie.cms.gov/Practitioner/6f076b09-47d3-46bb-ba1b-97252c12ad10","resource":{"resourceType":"Practitioner","id":"6f076b09-47d3-46bb-ba1b-97252c12ad10","meta":{"profile":["http://hl7.org/fhir/us/qicore/StructureDefinition/qicore-practitioner"]},"identifier":[{"system":"http://hl7.org/fhir/sid/us-npi","value":"123456"}],"name":[{"family":"Evil","prefix":["Dr"]}]},"request":{"method":"PUT","url":"Practitioner/6f076b09-47d3-46bb-ba1b-97252c12ad10"}},{"fullUrl":"https://madie.cms.gov/MeasureReport/3eab5950-9c4b-4fe8-af4a-a03f26895b1c","resource":{"resourceType":"MeasureReport","id":"3eab5950-9c4b-4fe8-af4a-a03f26895b1c","meta":{"profile":["http://hl7.org/fhir/us/cqfmeasures/StructureDefinition/test-case-cqfm"]},"contained":[{"resourceType":"Parameters","id":"86cd6dde-b04b-4911-94d6-f018c5dfad06-parameters","parameter":[{"name":"subject","valueString":"9fe769bc-bd23-4799-9bc6-9945eda0d0cf"}]}],"extension":[{"url":"http://hl7.org/fhir/us/cqfmeasures/StructureDefinition/cqfm-inputParameters","valueReference":{"reference":"#86cd6dde-b04b-4911-94d6-f018c5dfad06-parameters"}},{"url":"http://hl7.org/fhir/us/cqfmeasures/StructureDefinition/cqfm-testCaseDescription","valueMarkdown":"Child, age 17 ED enc  admitted to inpatient with psych dx"}],"modifierExtension":[{"url":"http://hl7.org/fhir/us/cqfmeasures/StructureDefinition/cqfm-isTestCase","valueBoolean":true}],"status":"complete","type":"individual","measure":"https://madie.cms.gov/Measure/CMS1244ECCQHOQRFHIR","period":{"start":"2026-01-01","end":"2026-12-31"},"group":[{"population":[{"code":{"coding":[{"system":"http://terminology.hl7.org/CodeSystem/measure-population","code":"initial-population","display":"Initial Population"}]},"count":1},{"code":{"coding":[{"system":"http://terminology.hl7.org/CodeSystem/measure-population","code":"denominator","display":"Denominator"}]},"count":1},{"code":{"coding":[{"system":"http://terminology.hl7.org/CodeSystem/measure-population","code":"numerator","display":"Numerator"}]},"count":1}]}]},"request":{"method":"PUT","url":"MeasureReport/3eab5950-9c4b-4fe8-af4a-a03f26895b1c"}}]}