{"resourceType":"Bundle","id":"tests-7fd4f9cd-8fbb-4935-9bfd-959c538166b2-bundle","type":"transaction","entry":[{"fullUrl":"https://madie.cms.gov/Patient/7fd4f9cd-8fbb-4935-9bfd-959c538166b2","resource":{"resourceType":"Patient","id":"7fd4f9cd-8fbb-4935-9bfd-959c538166b2","meta":{"profile":["http://hl7.org/fhir/us/qicore/StructureDefinition/qicore-patient"]},"extension":[{"url":"http://hl7.org/fhir/us/core/StructureDefinition/us-core-race","extension":[{"url":"ombCategory","valueCoding":{"system":"urn:oid:2.16.840.1.113883.6.238","code":"1002-5","display":"American Indian or Alaska Native","userSelected":true}},{"url":"text","valueString":"American Indian or Alaska Native"}]},{"url":"http://hl7.org/fhir/us/core/StructureDefinition/us-core-ethnicity","extension":[{"url":"ombCategory","valueCoding":{"system":"urn:oid:2.16.840.1.113883.6.238","code":"2135-2","display":"Hispanic or Latino","userSelected":true}},{"url":"text","valueString":"Hispanic or Latino"}]}],"identifier":[{"type":{"coding":[{"system":"http://terminology.hl7.org/CodeSystem/v2-0203","code":"MR"}]},"system":"https://bonnie-fhir.healthit.gov/","value":"6615806fdb207d74c03b8a5f"}],"name":[{"family":"NUMERStrat2Fail","given":["LWBSButWrongCode"]}],"gender":"male","birthDate":"2007-01-01"},"request":{"method":"PUT","url":"Patient/7fd4f9cd-8fbb-4935-9bfd-959c538166b2"}},{"fullUrl":"https://madie.cms.gov/Encounter/a94920b0-5c40-4c71-a99a-3e2e3193378f","resource":{"resourceType":"Encounter","id":"a94920b0-5c40-4c71-a99a-3e2e3193378f","meta":{"profile":["http://hl7.org/fhir/us/qicore/StructureDefinition/qicore-encounter"]},"status":"finished","class":{"system":"http://terminology.hl7.org/CodeSystem/v3-ActCode","code":"EMER","display":"emergency"},"type":[{"coding":[{"system":"http://snomed.info/sct","version":"2023-09","code":"225390008","display":"Triage (procedure)","userSelected":true}]}],"subject":{"reference":"Patient/7fd4f9cd-8fbb-4935-9bfd-959c538166b2"},"period":{"start":"2026-12-31T08:00:00.000+00:00","end":"2026-12-31T08:15:00.000+00:00"},"hospitalization":{"dischargeDisposition":{"coding":[{"system":"http://snomed.info/sct","code":"47492008","display":"Not seen (qualifier value)","userSelected":true}]}}},"request":{"method":"PUT","url":"Encounter/a94920b0-5c40-4c71-a99a-3e2e3193378f"}},{"fullUrl":"https://madie.cms.gov/Coverage/940f3a6e-4b89-4b12-aa46-1ab041b530bf","resource":{"resourceType":"Coverage","id":"940f3a6e-4b89-4b12-aa46-1ab041b530bf","meta":{"profile":["http://hl7.org/fhir/us/qicore/StructureDefinition/qicore-coverage"]},"status":"active","beneficiary":{"reference":"Patient/7fd4f9cd-8fbb-4935-9bfd-959c538166b2"},"payor":[{"reference":"Organization/f4907415-83c5-4eae-ab0b-cb63a840880d"}]},"request":{"method":"PUT","url":"Coverage/940f3a6e-4b89-4b12-aa46-1ab041b530bf"}},{"fullUrl":"https://madie.cms.gov/Organization/63fb0818-cc02-45f8-9b81-19db62e05978","resource":{"resourceType":"Organization","id":"f4907415-83c5-4eae-ab0b-cb63a840880d","meta":{"profile":["http://hl7.org/fhir/us/qicore/StructureDefinition/qicore-organization"]},"identifier":[{"use":"temp","system":"urn:oid:2.16.840.1.113883.4.4","value":"21-3259825"}],"active":true,"type":[{"coding":[{"system":"http://terminology.hl7.org/CodeSystem/organization-type","code":"pay","display":"Payer"}]}],"name":"Blue Cross Blue Shield of Texas","telecom":[{"system":"phone","value":"(+1) 972-766-6900"}],"address":[{"use":"billing","type":"postal","line":["P.O. Box 660044"],"city":"Dallas","state":"TX","postalCode":"75266-0044","country":"USA"}]},"request":{"method":"PUT","url":"Organization/f4907415-83c5-4eae-ab0b-cb63a840880d"}},{"fullUrl":"https://madie.cms.gov/Practitioner/92a9506e-dcbb-45ea-b2ab-1cfb05658faf","resource":{"resourceType":"Practitioner","id":"92a9506e-dcbb-45ea-b2ab-1cfb05658faf","meta":{"profile":["http://hl7.org/fhir/us/qicore/StructureDefinition/qicore-practitioner"]},"identifier":[{"system":"http://hl7.org/fhir/sid/us-npi","value":"123456"}],"name":[{"family":"Evil","prefix":["Dr"]}]},"request":{"method":"PUT","url":"Practitioner/92a9506e-dcbb-45ea-b2ab-1cfb05658faf"}},{"fullUrl":"https://madie.cms.gov/MeasureReport/ba65c98b-e22a-47c8-a65a-812cf8adaf09","resource":{"resourceType":"MeasureReport","id":"ba65c98b-e22a-47c8-a65a-812cf8adaf09","meta":{"profile":["http://hl7.org/fhir/us/cqfmeasures/StructureDefinition/test-case-cqfm"]},"contained":[{"resourceType":"Parameters","id":"8f9e22a5-3e2c-462d-a15b-34d8d5c0bc92-parameters","parameter":[{"name":"subject","valueString":"7fd4f9cd-8fbb-4935-9bfd-959c538166b2"}]}],"extension":[{"url":"http://hl7.org/fhir/us/cqfmeasures/StructureDefinition/cqfm-inputParameters","valueReference":{"reference":"#8f9e22a5-3e2c-462d-a15b-34d8d5c0bc92-parameters"}},{"url":"http://hl7.org/fhir/us/cqfmeasures/StructureDefinition/cqfm-testCaseDescription","valueMarkdown":"Enc 1st day of MP, pt LWBS but is wrong code  \"Not seen (qualifier value)\""}],"modifierExtension":[{"url":"http://hl7.org/fhir/us/cqfmeasures/StructureDefinition/cqfm-isTestCase","valueBoolean":true}],"status":"complete","type":"individual","measure":"https://madie.cms.gov/Measure/CMS1244ECCQHOQRFHIR","period":{"start":"2026-01-01","end":"2026-12-31"},"group":[{"population":[{"code":{"coding":[{"system":"http://terminology.hl7.org/CodeSystem/measure-population","code":"initial-population","display":"Initial Population"}]},"count":1},{"code":{"coding":[{"system":"http://terminology.hl7.org/CodeSystem/measure-population","code":"denominator","display":"Denominator"}]},"count":1},{"code":{"coding":[{"system":"http://terminology.hl7.org/CodeSystem/measure-population","code":"numerator","display":"Numerator"}]},"count":0}]}]},"request":{"method":"PUT","url":"MeasureReport/ba65c98b-e22a-47c8-a65a-812cf8adaf09"}}]}