{"resourceType":"Bundle","id":"tests-aeb81393-d181-487a-9bc5-923c7082104e-bundle","type":"transaction","entry":[{"fullUrl":"https://madie.cms.gov/Patient/aeb81393-d181-487a-9bc5-923c7082104e","resource":{"resourceType":"Patient","id":"aeb81393-d181-487a-9bc5-923c7082104e","meta":{"profile":["http://hl7.org/fhir/us/qicore/StructureDefinition/qicore-patient"]},"extension":[{"url":"http://hl7.org/fhir/us/core/StructureDefinition/us-core-race","extension":[{"url":"ombCategory","valueCoding":{"system":"urn:oid:2.16.840.1.113883.6.238","code":"1002-5","display":"American Indian or Alaska Native","userSelected":true}},{"url":"text","valueString":"American Indian or Alaska Native"}]},{"url":"http://hl7.org/fhir/us/core/StructureDefinition/us-core-ethnicity","extension":[{"url":"ombCategory","valueCoding":{"system":"urn:oid:2.16.840.1.113883.6.238","code":"2135-2","display":"Hispanic or Latino","userSelected":true}},{"url":"text","valueString":"Hispanic or Latino"}]}],"identifier":[{"type":{"coding":[{"system":"http://terminology.hl7.org/CodeSystem/v2-0203","code":"MR"}]},"system":"https://bonnie-fhir.healthit.gov/","value":"6617e30316793f5a4fae16fe"}],"name":[{"family":"NUMERStrat1Pass","given":["BedAssigment"]}],"gender":"male","birthDate":"2010-01-01"},"request":{"method":"PUT","url":"Patient/aeb81393-d181-487a-9bc5-923c7082104e"}},{"fullUrl":"https://madie.cms.gov/Encounter/ec8e38c1-676f-4f4f-b288-ca45facb0604","resource":{"resourceType":"Encounter","id":"ec8e38c1-676f-4f4f-b288-ca45facb0604","meta":{"profile":["http://hl7.org/fhir/us/qicore/StructureDefinition/qicore-encounter"]},"status":"finished","class":{"system":"http://terminology.hl7.org/CodeSystem/v3-ActCode","code":"AMB","display":"ambulatory"},"type":[{"coding":[{"system":"http://snomed.info/sct","version":"2023-09","code":"4525004","display":"Emergency department patient visit (procedure)","userSelected":true}]}],"subject":{"reference":"Patient/aeb81393-d181-487a-9bc5-923c7082104e"},"period":{"start":"2026-01-01T00:00:00.000+00:00","end":"2026-01-01T04:00:00.000+00:00"},"diagnosis":[{"condition":{"reference":"Condition/0ee33f41-fba5-47e0-8e1d-f3e6ed0b0337"},"use":{"coding":[{"system":"http://terminology.hl7.org/CodeSystem/diagnosis-role","code":"billing"}]},"rank":1}],"location":[{"location":{"reference":"Location/f4f92f06-a7d7-43e8-af7d-e652f09db4c5"},"period":{"start":"2026-01-01T00:00:00.000+00:00","end":"2026-01-01T05:01:00.000+00:00"}}]},"request":{"method":"PUT","url":"Encounter/ec8e38c1-676f-4f4f-b288-ca45facb0604"}},{"fullUrl":"https://madie.cms.gov/Location/f4f92f06-a7d7-43e8-af7d-e652f09db4c5","resource":{"resourceType":"Location","id":"f4f92f06-a7d7-43e8-af7d-e652f09db4c5","meta":{"profile":["http://hl7.org/fhir/us/qicore/StructureDefinition/qicore-location"]},"identifier":[{"use":"usual","system":"http://exampleoflocation.com","value":"B1-S.F2"}],"name":"Medical Surgical East, first floor","type":[{"coding":[{"system":"https://www.cdc.gov/nhsn/cdaportal/terminology/codesystem/hsloc.html","version":"2022","code":"1108-0","display":"Emergency Department","userSelected":true}]}]},"request":{"method":"PUT","url":"Location/f4f92f06-a7d7-43e8-af7d-e652f09db4c5"}},{"fullUrl":"https://madie.cms.gov/ServiceRequest/b201b5e8-7ba4-4b2c-831d-0c8bb9a5e3b2","resource":{"resourceType":"ServiceRequest","id":"b201b5e8-7ba4-4b2c-831d-0c8bb9a5e3b2","meta":{"profile":["http://hl7.org/fhir/us/qicore/StructureDefinition/qicore-servicerequest"]},"status":"active","intent":"order","code":{"coding":[{"system":"http://snomed.info/sct","code":"5751000175101","display":"Patient bed assigned (finding)","userSelected":true}]},"subject":{"reference":"Patient/aeb81393-d181-487a-9bc5-923c7082104e"},"authoredOn":"2026-01-01T01:00:00.000+00:00"},"request":{"method":"PUT","url":"ServiceRequest/b201b5e8-7ba4-4b2c-831d-0c8bb9a5e3b2"}},{"fullUrl":"https://madie.cms.gov/Condition/0ee33f41-fba5-47e0-8e1d-f3e6ed0b0337","resource":{"resourceType":"Condition","id":"0ee33f41-fba5-47e0-8e1d-f3e6ed0b0337","meta":{"profile":["http://hl7.org/fhir/us/qicore/StructureDefinition/qicore-condition"]},"category":[{"coding":[{"system":"http://terminology.hl7.org/CodeSystem/condition-category","code":"encounter-diagnosis","display":"Encounter Diagnosis"}]}],"code":{"coding":[{"system":"http://snomed.info/sct","version":"2023-09","code":"10660471000119109","display":"Ulcer of left foot due to type 2 diabetes mellitus (disorder)","userSelected":true}]},"subject":{"reference":"Patient/aeb81393-d181-487a-9bc5-923c7082104e"},"recordedDate":"2026-01-01T08:00:00.000+00:00"},"request":{"method":"PUT","url":"Condition/0ee33f41-fba5-47e0-8e1d-f3e6ed0b0337"}},{"fullUrl":"https://madie.cms.gov/ServiceRequest/2ad0ca25-5953-444a-8f60-1c89e5ade80d","resource":{"resourceType":"ServiceRequest","id":"2ad0ca25-5953-444a-8f60-1c89e5ade80d","meta":{"profile":["http://hl7.org/fhir/us/qicore/StructureDefinition/qicore-servicerequest"]},"status":"active","intent":"order","code":{"coding":[{"system":"http://snomed.info/sct","version":"2023-09","code":"183452005","display":"Emergency hospital admission (procedure)","userSelected":true}]},"subject":{"reference":"Patient/aeb81393-d181-487a-9bc5-923c7082104e"},"authoredOn":"2026-01-01T01:00:00.000+00:00"},"request":{"method":"PUT","url":"ServiceRequest/2ad0ca25-5953-444a-8f60-1c89e5ade80d"}},{"fullUrl":"https://madie.cms.gov/Coverage/235df491-c756-4f32-a24d-c998573b7c46","resource":{"resourceType":"Coverage","id":"235df491-c756-4f32-a24d-c998573b7c46","meta":{"profile":["http://hl7.org/fhir/us/qicore/StructureDefinition/qicore-coverage"]},"status":"active","beneficiary":{"reference":"Patient/aeb81393-d181-487a-9bc5-923c7082104e"},"payor":[{"reference":"Organization/3778262e-e084-4bb5-9a47-1a144735f786"}]},"request":{"method":"PUT","url":"Coverage/235df491-c756-4f32-a24d-c998573b7c46"}},{"fullUrl":"https://madie.cms.gov/Encounter/90ff82d2-3b77-4129-ba76-fe7976c709e7","resource":{"resourceType":"Encounter","id":"90ff82d2-3b77-4129-ba76-fe7976c709e7","meta":{"profile":["http://hl7.org/fhir/us/qicore/StructureDefinition/qicore-encounter"]},"status":"finished","class":{"system":"http://terminology.hl7.org/CodeSystem/v3-ActCode","code":"IMP","display":"inpatient encounter"},"type":[{"coding":[{"system":"http://snomed.info/sct","version":"2023-09","code":"183452005","display":"Emergency hospital admission (procedure)","userSelected":true}]}],"subject":{"reference":"Patient/aeb81393-d181-487a-9bc5-923c7082104e"},"period":{"start":"2026-01-01T05:00:00.000+00:00","end":"2026-01-03T06:15:00.000+00:00"}},"request":{"method":"PUT","url":"Encounter/90ff82d2-3b77-4129-ba76-fe7976c709e7"}},{"fullUrl":"https://madie.cms.gov/Organization/dad7ecb8-abac-4b35-8d6d-c36fd2a828ba","resource":{"resourceType":"Organization","id":"3778262e-e084-4bb5-9a47-1a144735f786","meta":{"profile":["http://hl7.org/fhir/us/qicore/StructureDefinition/qicore-organization"]},"identifier":[{"use":"temp","system":"urn:oid:2.16.840.1.113883.4.4","value":"21-3259825"}],"active":true,"type":[{"coding":[{"system":"http://terminology.hl7.org/CodeSystem/organization-type","code":"pay","display":"Payer"}]}],"name":"Blue Cross Blue Shield of Texas","telecom":[{"system":"phone","value":"(+1) 972-766-6900"}],"address":[{"use":"billing","type":"postal","line":["P.O. Box 660044"],"city":"Dallas","state":"TX","postalCode":"75266-0044","country":"USA"}]},"request":{"method":"PUT","url":"Organization/3778262e-e084-4bb5-9a47-1a144735f786"}},{"fullUrl":"https://madie.cms.gov/Practitioner/85951244-7cd5-4dd4-99ac-ff1b68ab9be9","resource":{"resourceType":"Practitioner","id":"85951244-7cd5-4dd4-99ac-ff1b68ab9be9","meta":{"profile":["http://hl7.org/fhir/us/qicore/StructureDefinition/qicore-practitioner"]},"identifier":[{"system":"http://hl7.org/fhir/sid/us-npi","value":"123456"}],"name":[{"family":"Evil","prefix":["Dr"]}]},"request":{"method":"PUT","url":"Practitioner/85951244-7cd5-4dd4-99ac-ff1b68ab9be9"}},{"fullUrl":"https://madie.cms.gov/MeasureReport/2227f10b-bd3e-4138-8acf-36b6138c14be","resource":{"resourceType":"MeasureReport","id":"2227f10b-bd3e-4138-8acf-36b6138c14be","meta":{"profile":["http://hl7.org/fhir/us/cqfmeasures/StructureDefinition/test-case-cqfm"]},"contained":[{"resourceType":"Parameters","id":"50cc4cbd-4530-4938-af2a-a865c3004568-parameters","parameter":[{"name":"subject","valueString":"aeb81393-d181-487a-9bc5-923c7082104e"}]}],"extension":[{"url":"http://hl7.org/fhir/us/cqfmeasures/StructureDefinition/cqfm-inputParameters","valueReference":{"reference":"#50cc4cbd-4530-4938-af2a-a865c3004568-parameters"}},{"url":"http://hl7.org/fhir/us/cqfmeasures/StructureDefinition/cqfm-testCaseDescription","valueMarkdown":"Child ED, order to admit inpt and inpatient  encounter,  bed assignment 241 mins before ED departure with psych "}],"modifierExtension":[{"url":"http://hl7.org/fhir/us/cqfmeasures/StructureDefinition/cqfm-isTestCase","valueBoolean":true}],"status":"complete","type":"individual","measure":"https://madie.cms.gov/Measure/CMS1244ECCQHOQRFHIR","period":{"start":"2026-01-01","end":"2026-12-31"},"group":[{"population":[{"code":{"coding":[{"system":"http://terminology.hl7.org/CodeSystem/measure-population","code":"initial-population","display":"Initial Population"}]},"count":1},{"code":{"coding":[{"system":"http://terminology.hl7.org/CodeSystem/measure-population","code":"denominator","display":"Denominator"}]},"count":1},{"code":{"coding":[{"system":"http://terminology.hl7.org/CodeSystem/measure-population","code":"numerator","display":"Numerator"}]},"count":1}]}]},"request":{"method":"PUT","url":"MeasureReport/2227f10b-bd3e-4138-8acf-36b6138c14be"}}]}