{"resourceType":"Bundle","id":"tests-9b2d612d-b677-4559-870d-b36cc6404ece-bundle","type":"transaction","entry":[{"fullUrl":"https://madie.cms.gov/Patient/9b2d612d-b677-4559-870d-b36cc6404ece","resource":{"resourceType":"Patient","id":"9b2d612d-b677-4559-870d-b36cc6404ece","meta":{"profile":["http://hl7.org/fhir/us/qicore/StructureDefinition/qicore-patient"]},"extension":[{"url":"http://hl7.org/fhir/us/core/StructureDefinition/us-core-race","extension":[{"url":"ombCategory","valueCoding":{"system":"urn:oid:2.16.840.1.113883.6.238","code":"1002-5","display":"American Indian or Alaska Native","userSelected":true}},{"url":"text","valueString":"American Indian or Alaska Native"}]},{"url":"http://hl7.org/fhir/us/core/StructureDefinition/us-core-ethnicity","extension":[{"url":"ombCategory","valueCoding":{"system":"urn:oid:2.16.840.1.113883.6.238","code":"2135-2","display":"Hispanic or Latino","userSelected":true}},{"url":"text","valueString":"Hispanic or Latino"}]}],"identifier":[{"type":{"coding":[{"system":"http://terminology.hl7.org/CodeSystem/v2-0203","code":"MR"}]},"system":"https://bonnie-fhir.healthit.gov/","value":"661476b015ed5841a5547ebf"}],"name":[{"family":"NUMERStrat1Pass","given":["AdmittedInpatient"]}],"gender":"male","birthDate":"2010-01-01"},"request":{"method":"PUT","url":"Patient/9b2d612d-b677-4559-870d-b36cc6404ece"}},{"fullUrl":"https://madie.cms.gov/Encounter/36e93ec4-0f7a-441d-936b-4bd34e8b0d3c","resource":{"resourceType":"Encounter","id":"36e93ec4-0f7a-441d-936b-4bd34e8b0d3c","meta":{"profile":["http://hl7.org/fhir/us/qicore/StructureDefinition/qicore-encounter"]},"status":"finished","class":{"system":"http://terminology.hl7.org/CodeSystem/v3-ActCode","code":"EMER","display":"emergency department"},"type":[{"coding":[{"system":"http://snomed.info/sct","version":"2023-09","code":"4525004","display":"Emergency department patient visit (procedure)","userSelected":true}]}],"subject":{"reference":"Patient/9b2d612d-b677-4559-870d-b36cc6404ece"},"period":{"start":"2026-01-01T06:00:00.000+00:00","end":"2026-01-01T13:15:00.000+00:00"},"diagnosis":[{"condition":{"reference":"Condition/9e02ee3f-ba7c-4774-92ea-e2ac670f03f1"},"use":{"coding":[{"system":"http://terminology.hl7.org/CodeSystem/diagnosis-role","code":"billing"}]},"rank":1}],"location":[{"location":{"reference":"Location/7bc3ce78-0b69-4bae-85db-970c01059aad"},"period":{"start":"2026-01-01T06:00:00.000+00:00","end":"2026-01-01T13:15:00.000+00:00"}}]},"request":{"method":"PUT","url":"Encounter/36e93ec4-0f7a-441d-936b-4bd34e8b0d3c"}},{"fullUrl":"https://madie.cms.gov/Condition/9e02ee3f-ba7c-4774-92ea-e2ac670f03f1","resource":{"resourceType":"Condition","id":"9e02ee3f-ba7c-4774-92ea-e2ac670f03f1","meta":{"profile":["http://hl7.org/fhir/us/qicore/StructureDefinition/qicore-condition"]},"category":[{"coding":[{"system":"http://terminology.hl7.org/CodeSystem/condition-category","code":"encounter-diagnosis","display":"Encounter Diagnosis"}]}],"code":{"coding":[{"system":"http://snomed.info/sct","version":"2023-09","code":"10660471000119109","display":"Ulcer of left foot due to type 2 diabetes mellitus (disorder)","userSelected":true}]},"subject":{"reference":"Patient/9b2d612d-b677-4559-870d-b36cc6404ece"},"recordedDate":"2026-01-01T08:00:00.000+00:00"},"request":{"method":"PUT","url":"Condition/9e02ee3f-ba7c-4774-92ea-e2ac670f03f1"}},{"fullUrl":"https://madie.cms.gov/Encounter/27d56364-7c7c-4442-a06e-5600aa9eb7bf","resource":{"resourceType":"Encounter","id":"27d56364-7c7c-4442-a06e-5600aa9eb7bf","meta":{"profile":["http://hl7.org/fhir/us/qicore/StructureDefinition/qicore-encounter"]},"status":"finished","class":{"system":"http://terminology.hl7.org/CodeSystem/v3-ActCode","code":"IMP","display":"inpatient encounter"},"type":[{"coding":[{"system":"http://snomed.info/sct","version":"2023-09","code":"183452005","display":"Emergency hospital admission (procedure)","userSelected":true}]}],"subject":{"reference":"Patient/9b2d612d-b677-4559-870d-b36cc6404ece"},"period":{"start":"2026-01-01T09:00:00.000+00:00","end":"2026-01-03T06:15:00.000+00:00"}},"request":{"method":"PUT","url":"Encounter/27d56364-7c7c-4442-a06e-5600aa9eb7bf"}},{"fullUrl":"https://madie.cms.gov/Location/7bc3ce78-0b69-4bae-85db-970c01059aad","resource":{"resourceType":"Location","id":"7bc3ce78-0b69-4bae-85db-970c01059aad","meta":{"profile":["http://hl7.org/fhir/us/qicore/StructureDefinition/qicore-location"]},"identifier":[{"use":"usual","system":"http://exampleoflocation.com","value":"B1-S.F2"}],"name":"Medical Surgical East, first floor","type":[{"coding":[{"system":"https://www.cdc.gov/nhsn/cdaportal/terminology/codesystem/hsloc.html","version":"2022","code":"1108-0","display":"Emergency Department","userSelected":true}]}]},"request":{"method":"PUT","url":"Location/7bc3ce78-0b69-4bae-85db-970c01059aad"}},{"fullUrl":"https://madie.cms.gov/Coverage/0ea988af-5424-4996-af05-b0cf015ed3cf","resource":{"resourceType":"Coverage","id":"0ea988af-5424-4996-af05-b0cf015ed3cf","meta":{"profile":["http://hl7.org/fhir/us/qicore/StructureDefinition/qicore-coverage"]},"status":"active","beneficiary":{"reference":"Patient/9b2d612d-b677-4559-870d-b36cc6404ece"},"payor":[{"reference":"Organization/3e899f33-84eb-4634-a770-a5a0bd7a80e7"}]},"request":{"method":"PUT","url":"Coverage/0ea988af-5424-4996-af05-b0cf015ed3cf"}},{"fullUrl":"https://madie.cms.gov/Organization/1502bed4-8136-4911-b612-965af5d70cf6","resource":{"resourceType":"Organization","id":"3e899f33-84eb-4634-a770-a5a0bd7a80e7","meta":{"profile":["http://hl7.org/fhir/us/qicore/StructureDefinition/qicore-organization"]},"identifier":[{"use":"temp","system":"urn:oid:2.16.840.1.113883.4.4","value":"21-3259825"}],"active":true,"type":[{"coding":[{"system":"http://terminology.hl7.org/CodeSystem/organization-type","code":"pay","display":"Payer"}]}],"name":"Blue Cross Blue Shield of Texas","telecom":[{"system":"phone","value":"(+1) 972-766-6900"}],"address":[{"use":"billing","type":"postal","line":["P.O. Box 660044"],"city":"Dallas","state":"TX","postalCode":"75266-0044","country":"USA"}]},"request":{"method":"PUT","url":"Organization/3e899f33-84eb-4634-a770-a5a0bd7a80e7"}},{"fullUrl":"https://madie.cms.gov/Practitioner/30b9cfce-8ac2-4a16-96c0-4f827b60b0f7","resource":{"resourceType":"Practitioner","id":"30b9cfce-8ac2-4a16-96c0-4f827b60b0f7","meta":{"profile":["http://hl7.org/fhir/us/qicore/StructureDefinition/qicore-practitioner"]},"identifier":[{"system":"http://hl7.org/fhir/sid/us-npi","value":"123456"}],"name":[{"family":"Evil","prefix":["Dr"]}]},"request":{"method":"PUT","url":"Practitioner/30b9cfce-8ac2-4a16-96c0-4f827b60b0f7"}},{"fullUrl":"https://madie.cms.gov/MeasureReport/8c2d6a2d-cd80-4a74-a1ad-7b6267e1bde6","resource":{"resourceType":"MeasureReport","id":"8c2d6a2d-cd80-4a74-a1ad-7b6267e1bde6","meta":{"profile":["http://hl7.org/fhir/us/cqfmeasures/StructureDefinition/test-case-cqfm"]},"contained":[{"resourceType":"Parameters","id":"4ddfdb1e-e72d-40eb-9071-cf61ad3cc03e-parameters","parameter":[{"name":"subject","valueString":"9b2d612d-b677-4559-870d-b36cc6404ece"}]}],"extension":[{"url":"http://hl7.org/fhir/us/cqfmeasures/StructureDefinition/cqfm-inputParameters","valueReference":{"reference":"#4ddfdb1e-e72d-40eb-9071-cf61ad3cc03e-parameters"}},{"url":"http://hl7.org/fhir/us/cqfmeasures/StructureDefinition/cqfm-testCaseDescription","valueMarkdown":"Child, age 17 ED enc, first day of MP,  admitted to inpatient  (resource: encounter) without psych dx"}],"modifierExtension":[{"url":"http://hl7.org/fhir/us/cqfmeasures/StructureDefinition/cqfm-isTestCase","valueBoolean":true}],"status":"complete","type":"individual","measure":"https://madie.cms.gov/Measure/CMS1244ECCQHOQRFHIR","period":{"start":"2026-01-01","end":"2026-12-31"},"group":[{"population":[{"code":{"coding":[{"system":"http://terminology.hl7.org/CodeSystem/measure-population","code":"initial-population","display":"Initial Population"}]},"count":1},{"code":{"coding":[{"system":"http://terminology.hl7.org/CodeSystem/measure-population","code":"denominator","display":"Denominator"}]},"count":1},{"code":{"coding":[{"system":"http://terminology.hl7.org/CodeSystem/measure-population","code":"numerator","display":"Numerator"}]},"count":1}]}]},"request":{"method":"PUT","url":"MeasureReport/8c2d6a2d-cd80-4a74-a1ad-7b6267e1bde6"}}]}