{"resourceType":"Bundle","id":"tests-dad5b672-1e5b-437c-91fe-1f69b5d58c70-bundle","type":"transaction","entry":[{"fullUrl":"https://madie.cms.gov/Patient/dad5b672-1e5b-437c-91fe-1f69b5d58c70","resource":{"resourceType":"Patient","id":"dad5b672-1e5b-437c-91fe-1f69b5d58c70","meta":{"profile":["http://hl7.org/fhir/us/qicore/StructureDefinition/qicore-patient"]},"extension":[{"url":"http://hl7.org/fhir/us/core/StructureDefinition/us-core-race","extension":[{"url":"ombCategory","valueCoding":{"system":"urn:oid:2.16.840.1.113883.6.238","code":"1002-5","display":"American Indian or Alaska Native","userSelected":true}},{"url":"text","valueString":"American Indian or Alaska Native"}]},{"url":"http://hl7.org/fhir/us/core/StructureDefinition/us-core-ethnicity","extension":[{"url":"ombCategory","valueCoding":{"system":"urn:oid:2.16.840.1.113883.6.238","code":"2135-2","display":"Hispanic or Latino","userSelected":true}},{"url":"text","valueString":"Hispanic or Latino"}]}],"identifier":[{"type":{"coding":[{"system":"http://terminology.hl7.org/CodeSystem/v2-0203","code":"MR"}]},"system":"https://bonnie-fhir.healthit.gov/","value":"661476b015ed5841a5547ebf"}],"name":[{"family":"NUMEXStrat2Fail","given":["BoardedAfterEDEncEnds"]}],"gender":"male","birthDate":"2008-01-01"},"request":{"method":"PUT","url":"Patient/dad5b672-1e5b-437c-91fe-1f69b5d58c70"}},{"fullUrl":"https://madie.cms.gov/Encounter/067988f3-42ae-4490-a585-281232976c04","resource":{"resourceType":"Encounter","id":"067988f3-42ae-4490-a585-281232976c04","meta":{"profile":["http://hl7.org/fhir/us/qicore/StructureDefinition/qicore-encounter"]},"status":"finished","class":{"system":"http://terminology.hl7.org/CodeSystem/v3-ActCode","code":"EMER","display":"emergency department"},"type":[{"coding":[{"system":"http://snomed.info/sct","version":"2023-09","code":"4525004","display":"Emergency department patient visit (procedure)","userSelected":true}]}],"subject":{"reference":"Patient/dad5b672-1e5b-437c-91fe-1f69b5d58c70"},"period":{"start":"2026-01-01T00:00:00.000+00:00","end":"2026-01-01T06:00:00.000+00:00"},"diagnosis":[{"condition":{"reference":"Condition/non-behavioral-health-diagnosis-without-substance-use-disorders-8a64"},"use":{"coding":[{"system":"http://terminology.hl7.org/CodeSystem/diagnosis-role","code":"billing"}]},"rank":1}],"location":[{"location":{"reference":"Location/996fa862-c3da-4b07-a197-d55a5680e950"},"period":{"start":"2026-01-01T00:00:00.000+00:00","end":"2026-01-01T06:01:00.000+00:00"}}]},"request":{"method":"PUT","url":"Encounter/067988f3-42ae-4490-a585-281232976c04"}},{"fullUrl":"https://madie.cms.gov/Encounter/efc96de8-ae6f-4cf4-9f44-4509a07178e9","resource":{"resourceType":"Encounter","id":"efc96de8-ae6f-4cf4-9f44-4509a07178e9","meta":{"profile":["http://hl7.org/fhir/us/qicore/StructureDefinition/qicore-encounter"]},"status":"finished","class":{"system":"http://terminology.hl7.org/CodeSystem/v3-ActCode","code":"IMP","display":"inpatient encounter"},"type":[{"coding":[{"system":"http://snomed.info/sct","version":"2023-09","code":"183452005","display":"Emergency hospital admission (procedure)","userSelected":true}]}],"subject":{"reference":"Patient/dad5b672-1e5b-437c-91fe-1f69b5d58c70"},"period":{"start":"2026-01-01T05:00:00.000+00:00","end":"2026-01-03T06:15:00.000+00:00"}},"request":{"method":"PUT","url":"Encounter/efc96de8-ae6f-4cf4-9f44-4509a07178e9"}},{"fullUrl":"https://madie.cms.gov/ServiceRequest/06ac2868-602c-4edf-9550-514014ff1c73","resource":{"resourceType":"ServiceRequest","id":"06ac2868-602c-4edf-9550-514014ff1c73","meta":{"profile":["http://hl7.org/fhir/us/qicore/StructureDefinition/qicore-servicerequest"]},"status":"active","intent":"order","code":{"coding":[{"system":"http://snomed.info/sct","code":"5751000175101","display":"Patient bed assigned (finding)","userSelected":true}]},"subject":{"reference":"Patient/dad5b672-1e5b-437c-91fe-1f69b5d58c70"},"authoredOn":"2026-01-01T02:00:00.000+00:00"},"request":{"method":"PUT","url":"ServiceRequest/06ac2868-602c-4edf-9550-514014ff1c73"}},{"fullUrl":"https://madie.cms.gov/Location/996fa862-c3da-4b07-a197-d55a5680e950","resource":{"resourceType":"Location","id":"996fa862-c3da-4b07-a197-d55a5680e950","meta":{"profile":["http://hl7.org/fhir/us/qicore/StructureDefinition/qicore-location"]},"identifier":[{"use":"usual","system":"http://exampleoflocation.com","value":"B1-S.F2"}],"name":"Medical Surgical East, first floor","type":[{"coding":[{"system":"https://www.cdc.gov/nhsn/cdaportal/terminology/codesystem/hsloc.html","version":"2022","code":"1108-0","display":"Emergency Department","userSelected":true}]}]},"request":{"method":"PUT","url":"Location/996fa862-c3da-4b07-a197-d55a5680e950"}},{"fullUrl":"https://madie.cms.gov/Coverage/da6d8046-04ff-40d4-bd50-e122a1cee690","resource":{"resourceType":"Coverage","id":"da6d8046-04ff-40d4-bd50-e122a1cee690","meta":{"profile":["http://hl7.org/fhir/us/qicore/StructureDefinition/qicore-coverage"]},"status":"active","beneficiary":{"reference":"Patient/dad5b672-1e5b-437c-91fe-1f69b5d58c70"},"payor":[{"reference":"Organization/3e899f33-84eb-4634-a770-a5a0bd7a80e7"}]},"request":{"method":"PUT","url":"Coverage/da6d8046-04ff-40d4-bd50-e122a1cee690"}},{"fullUrl":"https://madie.cms.gov/Condition/3b35107c-77db-4eb3-8452-2b03ce9c14c2","resource":{"resourceType":"Condition","id":"3b35107c-77db-4eb3-8452-2b03ce9c14c2","meta":{"profile":["http://hl7.org/fhir/us/qicore/StructureDefinition/qicore-condition"]},"category":[{"coding":[{"system":"http://terminology.hl7.org/CodeSystem/condition-category","code":"encounter-diagnosis","display":"Encounter Diagnosis"}]}],"code":{"coding":[{"system":"http://snomed.info/sct","version":"2023-09","code":"10674711000119105","display":"Acute severe exacerbation of asthma co-occurrent with allergic rhinitis (disorder)","userSelected":true}]},"subject":{"reference":"Patient/dad5b672-1e5b-437c-91fe-1f69b5d58c70"},"recordedDate":"2026-01-01T08:00:00.000+00:00"},"request":{"method":"PUT","url":"Condition/3b35107c-77db-4eb3-8452-2b03ce9c14c2"}},{"fullUrl":"https://madie.cms.gov/ServiceRequest/a167ba31-2874-4227-b97d-ff7209b9aaed","resource":{"resourceType":"ServiceRequest","id":"a167ba31-2874-4227-b97d-ff7209b9aaed","meta":{"profile":["http://hl7.org/fhir/us/qicore/StructureDefinition/qicore-servicerequest"]},"status":"active","intent":"order","code":{"coding":[{"system":"http://www.ama-assn.org/go/cpt","version":"2024","code":"99221","display":"Initial hospital inpatient or observation care, per day, for the evaluation and management of a patient, which requires a medically appropriate history and/or examination and straightforward or low level medical decision making. When using total time on the date of the encounter for code selection, 40 minutes must be met or exceeded.","userSelected":true}]},"subject":{"reference":"Patient/dad5b672-1e5b-437c-91fe-1f69b5d58c70"},"authoredOn":"2026-01-01T06:02:00.000+00:00"},"request":{"method":"PUT","url":"ServiceRequest/a167ba31-2874-4227-b97d-ff7209b9aaed"}},{"fullUrl":"https://madie.cms.gov/Organization/09a77a47-3b63-4bb8-b18a-f7ef3ad3d05f","resource":{"resourceType":"Organization","id":"3e899f33-84eb-4634-a770-a5a0bd7a80e7","meta":{"profile":["http://hl7.org/fhir/us/qicore/StructureDefinition/qicore-organization"]},"identifier":[{"use":"temp","system":"urn:oid:2.16.840.1.113883.4.4","value":"21-3259825"}],"active":true,"type":[{"coding":[{"system":"http://terminology.hl7.org/CodeSystem/organization-type","code":"pay","display":"Payer"}]}],"name":"Blue Cross Blue Shield of Texas","telecom":[{"system":"phone","value":"(+1) 972-766-6900"}],"address":[{"use":"billing","type":"postal","line":["P.O. Box 660044"],"city":"Dallas","state":"TX","postalCode":"75266-0044","country":"USA"}]},"request":{"method":"PUT","url":"Organization/3e899f33-84eb-4634-a770-a5a0bd7a80e7"}},{"fullUrl":"https://madie.cms.gov/Practitioner/f3f626f7-0097-4f4e-97b1-164a751ea6df","resource":{"resourceType":"Practitioner","id":"f3f626f7-0097-4f4e-97b1-164a751ea6df","meta":{"profile":["http://hl7.org/fhir/us/qicore/StructureDefinition/qicore-practitioner"]},"identifier":[{"system":"http://hl7.org/fhir/sid/us-npi","value":"123456"}],"name":[{"family":"Evil","prefix":["Dr"]}]},"request":{"method":"PUT","url":"Practitioner/f3f626f7-0097-4f4e-97b1-164a751ea6df"}},{"fullUrl":"https://madie.cms.gov/MeasureReport/4154d66f-29c1-4adb-907f-432a221a2e85","resource":{"resourceType":"MeasureReport","id":"4154d66f-29c1-4adb-907f-432a221a2e85","meta":{"profile":["http://hl7.org/fhir/us/cqfmeasures/StructureDefinition/test-case-cqfm"]},"contained":[{"resourceType":"Parameters","id":"258459ec-324e-47dd-9544-566f7c0552d9-parameters","parameter":[{"name":"subject","valueString":"dad5b672-1e5b-437c-91fe-1f69b5d58c70"}]}],"extension":[{"url":"http://hl7.org/fhir/us/cqfmeasures/StructureDefinition/cqfm-inputParameters","valueReference":{"reference":"#258459ec-324e-47dd-9544-566f7c0552d9-parameters"}},{"url":"http://hl7.org/fhir/us/cqfmeasures/StructureDefinition/cqfm-testCaseDescription","valueMarkdown":"Adult, ED observation order AFTER ED enc where patient was boarded 6 hrs 1 min; Enc 8 hrs, enc departure 8 hrs 1 min. dx asthma "}],"modifierExtension":[{"url":"http://hl7.org/fhir/us/cqfmeasures/StructureDefinition/cqfm-isTestCase","valueBoolean":true}],"status":"complete","type":"individual","measure":"https://madie.cms.gov/Measure/CMS1244ECCQHOQRFHIR","period":{"start":"2026-01-01","end":"2026-12-31"},"group":[{"population":[{"code":{"coding":[{"system":"http://terminology.hl7.org/CodeSystem/measure-population","code":"initial-population","display":"Initial Population"}]},"count":1},{"code":{"coding":[{"system":"http://terminology.hl7.org/CodeSystem/measure-population","code":"denominator","display":"Denominator"}]},"count":1},{"code":{"coding":[{"system":"http://terminology.hl7.org/CodeSystem/measure-population","code":"numerator","display":"Numerator"}]},"count":1}]}]},"request":{"method":"PUT","url":"MeasureReport/4154d66f-29c1-4adb-907f-432a221a2e85"}}]}