{"resourceType":"Bundle","id":"tests-ae6b86ec-3d29-4e35-88dc-57f997814f47-bundle","type":"transaction","entry":[{"fullUrl":"https://madie.cms.gov/Patient/ae6b86ec-3d29-4e35-88dc-57f997814f47","resource":{"resourceType":"Patient","id":"ae6b86ec-3d29-4e35-88dc-57f997814f47","meta":{"profile":["http://hl7.org/fhir/us/qicore/StructureDefinition/qicore-patient"]},"extension":[{"url":"http://hl7.org/fhir/us/core/StructureDefinition/us-core-race","extension":[{"url":"ombCategory","valueCoding":{"system":"urn:oid:2.16.840.1.113883.6.238","code":"2076-8","display":"Native Hawaiian or Other Pacific Islander","userSelected":true}},{"url":"text","valueString":"Native Hawaiian or Other Pacific Islander"}]},{"url":"http://hl7.org/fhir/us/core/StructureDefinition/us-core-ethnicity","extension":[{"url":"ombCategory","valueCoding":{"system":"urn:oid:2.16.840.1.113883.6.238","code":"2186-5","display":"Not Hispanic or Latino","userSelected":true}},{"url":"text","valueString":"Not Hispanic or Latino"}]}],"identifier":[{"type":{"coding":[{"system":"http://terminology.hl7.org/CodeSystem/v2-0203","code":"MR"}]},"system":"https://bonnie-fhir.healthit.gov/","value":"661579e3db207d74c03b8a54"}],"name":[{"family":"NUMERStrat4Pass","given":["EncStartsB4MP"]}],"gender":"female","birthDate":"2007-12-31"},"request":{"method":"PUT","url":"Patient/ae6b86ec-3d29-4e35-88dc-57f997814f47"}},{"fullUrl":"https://madie.cms.gov/Encounter/09e414ae-a94a-4d33-b9f4-d88a2c582e0f","resource":{"resourceType":"Encounter","id":"09e414ae-a94a-4d33-b9f4-d88a2c582e0f","meta":{"profile":["http://hl7.org/fhir/us/qicore/StructureDefinition/qicore-encounter"]},"status":"finished","class":{"system":"http://terminology.hl7.org/CodeSystem/v3-ActCode","code":"EMER","display":"emergency"},"type":[{"coding":[{"system":"http://snomed.info/sct","version":"2023-09","code":"4525004","display":"Emergency department patient visit (procedure)","userSelected":true}]}],"subject":{"reference":"Patient/ae6b86ec-3d29-4e35-88dc-57f997814f47"},"period":{"start":"2026-12-31T08:00:00.000+00:00","end":"2027-01-01T12:15:00.000+00:00"},"diagnosis":[{"condition":{"reference":"Condition/1526d74e-2367-4734-8f6f-09fffcce5b70"},"use":{"coding":[{"system":"http://terminology.hl7.org/CodeSystem/diagnosis-role","code":"billing"}]},"rank":1}],"location":[{"location":{"reference":"Location/9ffb5356-4359-4328-ab39-bca52c9a6c5c"},"period":{"start":"2026-01-01T07:45:00.000+00:00","end":"2026-01-01T12:15:00.000+00:00"}},{"location":{"reference":"Location/d18ccead-5201-4699-a794-4bc7900e5e8e"},"period":{"start":"2026-01-01T09:01:00.000+00:00","end":"2026-01-01T12:15:00.000+00:00"}}]},"request":{"method":"PUT","url":"Encounter/09e414ae-a94a-4d33-b9f4-d88a2c582e0f"}},{"fullUrl":"https://madie.cms.gov/Location/9ffb5356-4359-4328-ab39-bca52c9a6c5c","resource":{"resourceType":"Location","id":"9ffb5356-4359-4328-ab39-bca52c9a6c5c","meta":{"profile":["http://hl7.org/fhir/us/qicore/StructureDefinition/qicore-location"]},"identifier":[{"use":"usual","system":"http://exampleoflocation.com","value":"B1-S.F1"}],"name":"Medical Surgical East, first floor","type":[{"coding":[{"system":"https://www.cdc.gov/nhsn/cdaportal/terminology/codesystem/hsloc.html","version":"2022","code":"1108-0","display":"Emergency Department","userSelected":true}]}]},"request":{"method":"PUT","url":"Location/9ffb5356-4359-4328-ab39-bca52c9a6c5c"}},{"fullUrl":"https://madie.cms.gov/Location/d18ccead-5201-4699-a794-4bc7900e5e8e","resource":{"resourceType":"Location","id":"d18ccead-5201-4699-a794-4bc7900e5e8e","meta":{"profile":["http://hl7.org/fhir/us/qicore/StructureDefinition/qicore-location"]},"identifier":[{"use":"usual","system":"http://exampleoflocation.com","value":"B1-S.F2"}],"name":"Medical Surgical East, first floor","type":[{"coding":[{"system":"https://www.cdc.gov/nhsn/cdaportal/terminology/codesystem/hsloc.html","version":"2022","code":"1209-6","display":"Treatment Room","userSelected":true}]}]},"request":{"method":"PUT","url":"Location/d18ccead-5201-4699-a794-4bc7900e5e8e"}},{"fullUrl":"https://madie.cms.gov/Condition/1526d74e-2367-4734-8f6f-09fffcce5b70","resource":{"resourceType":"Condition","id":"1526d74e-2367-4734-8f6f-09fffcce5b70","meta":{"profile":["http://hl7.org/fhir/us/qicore/StructureDefinition/qicore-condition"]},"category":[{"coding":[{"system":"http://terminology.hl7.org/CodeSystem/condition-category","code":"encounter-diagnosis","display":"Encounter Diagnosis"}]}],"code":{"coding":[{"system":"http://snomed.info/sct","version":"2023-09","code":"10349009","display":"Multi-infarct dementia with delirium (disorder)","userSelected":true}]},"subject":{"reference":"Patient/ae6b86ec-3d29-4e35-88dc-57f997814f47"},"recordedDate":"2026-04-09T08:00:00.000+00:00"},"request":{"method":"PUT","url":"Condition/1526d74e-2367-4734-8f6f-09fffcce5b70"}},{"fullUrl":"https://madie.cms.gov/Location/86a01aa7-b4a8-4c8c-ac7d-fd7edbe360cd","resource":{"resourceType":"Location","id":"86a01aa7-b4a8-4c8c-ac7d-fd7edbe360cd","meta":{"profile":["http://hl7.org/fhir/us/qicore/StructureDefinition/qicore-location"]},"identifier":[{"use":"usual","system":"http://exampleoflocation.com","value":"B1-S.F2"}],"name":"Medical Surgical East, first floor","type":[{"coding":[{"system":"https://www.cdc.gov/nhsn/cdaportal/terminology/codesystem/hsloc.html","version":"2022","code":"1108-0","display":"Emergency Department","userSelected":true}]}]},"request":{"method":"PUT","url":"Location/86a01aa7-b4a8-4c8c-ac7d-fd7edbe360cd"}},{"fullUrl":"https://madie.cms.gov/Location/e1e7a8f9-b9c6-4c00-a7b2-848ca53d0d18","resource":{"resourceType":"Location","id":"e1e7a8f9-b9c6-4c00-a7b2-848ca53d0d18","meta":{"profile":["http://hl7.org/fhir/us/qicore/StructureDefinition/qicore-location"]},"identifier":[{"use":"usual","system":"http://exampleoflocation.com","value":"B1-S.F2"}],"name":"Medical Surgical East, first floor","type":[{"coding":[{"system":"https://www.cdc.gov/nhsn/cdaportal/terminology/codesystem/hsloc.html","version":"2022","code":"1209-6","display":"Treatment Room"}]}]},"request":{"method":"PUT","url":"Location/e1e7a8f9-b9c6-4c00-a7b2-848ca53d0d18"}},{"fullUrl":"https://madie.cms.gov/Coverage/3bf4542b-519b-44aa-a842-140ee1a351b9","resource":{"resourceType":"Coverage","id":"3bf4542b-519b-44aa-a842-140ee1a351b9","meta":{"profile":["http://hl7.org/fhir/us/qicore/StructureDefinition/qicore-coverage"]},"status":"active","beneficiary":{"reference":"Patient/ae6b86ec-3d29-4e35-88dc-57f997814f47"},"payor":[{"reference":"Organization/3e899f33-84eb-4634-a770-a5a0bd7a80e7"}]},"request":{"method":"PUT","url":"Coverage/3bf4542b-519b-44aa-a842-140ee1a351b9"}},{"fullUrl":"https://madie.cms.gov/Organization/1d3ab349-27a1-44a1-b50c-e37f518f7680","resource":{"resourceType":"Organization","id":"3e899f33-84eb-4634-a770-a5a0bd7a80e7","meta":{"profile":["http://hl7.org/fhir/us/qicore/StructureDefinition/qicore-organization"]},"identifier":[{"use":"temp","system":"urn:oid:2.16.840.1.113883.4.4","value":"21-3259825"}],"active":true,"type":[{"coding":[{"system":"http://terminology.hl7.org/CodeSystem/organization-type","code":"pay","display":"Payer"}]}],"name":"Blue Cross Blue Shield of Texas","telecom":[{"system":"phone","value":"(+1) 972-766-6900"}],"address":[{"use":"billing","type":"postal","line":["P.O. Box 660044"],"city":"Dallas","state":"TX","postalCode":"75266-0044","country":"USA"}]},"request":{"method":"PUT","url":"Organization/3e899f33-84eb-4634-a770-a5a0bd7a80e7"}},{"fullUrl":"https://madie.cms.gov/Practitioner/a3e744e4-c1e1-4608-81e8-17c7656b5fcf","resource":{"resourceType":"Practitioner","id":"a3e744e4-c1e1-4608-81e8-17c7656b5fcf","meta":{"profile":["http://hl7.org/fhir/us/qicore/StructureDefinition/qicore-practitioner"]},"identifier":[{"system":"http://hl7.org/fhir/sid/us-npi","value":"123456"}],"name":[{"family":"Evil","prefix":["Dr"]}]},"request":{"method":"PUT","url":"Practitioner/a3e744e4-c1e1-4608-81e8-17c7656b5fcf"}},{"fullUrl":"https://madie.cms.gov/MeasureReport/afb84f89-673d-4112-a887-a9c95e630b16","resource":{"resourceType":"MeasureReport","id":"afb84f89-673d-4112-a887-a9c95e630b16","meta":{"profile":["http://hl7.org/fhir/us/cqfmeasures/StructureDefinition/test-case-cqfm"]},"contained":[{"resourceType":"Parameters","id":"a02a057b-3b40-409c-ac6f-3bfc10527268-parameters","parameter":[{"name":"subject","valueString":"ae6b86ec-3d29-4e35-88dc-57f997814f47"}]}],"extension":[{"url":"http://hl7.org/fhir/us/cqfmeasures/StructureDefinition/cqfm-inputParameters","valueReference":{"reference":"#a02a057b-3b40-409c-ac6f-3bfc10527268-parameters"}},{"url":"http://hl7.org/fhir/us/cqfmeasures/StructureDefinition/cqfm-testCaseDescription","valueMarkdown":"Enc starts last day of MP but ends first day of following year. "}],"modifierExtension":[{"url":"http://hl7.org/fhir/us/cqfmeasures/StructureDefinition/cqfm-isTestCase","valueBoolean":true}],"status":"complete","type":"individual","measure":"https://madie.cms.gov/Measure/CMS1244ECCQHOQRFHIR","period":{"start":"2026-01-01","end":"2026-12-31"},"group":[{"population":[{"code":{"coding":[{"system":"http://terminology.hl7.org/CodeSystem/measure-population","code":"initial-population","display":"Initial Population"}]},"count":0},{"code":{"coding":[{"system":"http://terminology.hl7.org/CodeSystem/measure-population","code":"denominator","display":"Denominator"}]},"count":0},{"code":{"coding":[{"system":"http://terminology.hl7.org/CodeSystem/measure-population","code":"numerator","display":"Numerator"}]},"count":0}]}]},"request":{"method":"PUT","url":"MeasureReport/afb84f89-673d-4112-a887-a9c95e630b16"}}]}