{"resourceType":"Bundle","id":"tests-35fd427f-1233-4f3c-b8b3-9e400755da8f-bundle","type":"transaction","entry":[{"fullUrl":"https://madie.cms.gov/Patient/35fd427f-1233-4f3c-b8b3-9e400755da8f","resource":{"resourceType":"Patient","id":"35fd427f-1233-4f3c-b8b3-9e400755da8f","meta":{"profile":["http://hl7.org/fhir/us/qicore/StructureDefinition/qicore-patient"]},"extension":[{"url":"http://hl7.org/fhir/us/core/StructureDefinition/us-core-race","extension":[{"url":"ombCategory","valueCoding":{"system":"urn:oid:2.16.840.1.113883.6.238","code":"1002-5","display":"American Indian or Alaska Native","userSelected":true}},{"url":"text","valueString":"American Indian or Alaska Native"}]},{"url":"http://hl7.org/fhir/us/core/StructureDefinition/us-core-ethnicity","extension":[{"url":"ombCategory","valueCoding":{"system":"urn:oid:2.16.840.1.113883.6.238","code":"2135-2","display":"Hispanic or Latino","userSelected":true}},{"url":"text","valueString":"Hispanic or Latino"}]}],"identifier":[{"type":{"coding":[{"system":"http://terminology.hl7.org/CodeSystem/v2-0203","code":"MR"}]},"system":"https://bonnie-fhir.healthit.gov/","value":"661476b015ed5841a5547ebf"}],"name":[{"family":"NUMERStrat3Pass","given":["EDLOS481Minutes"]}],"gender":"male","birthDate":"2009-01-01"},"request":{"method":"PUT","url":"Patient/35fd427f-1233-4f3c-b8b3-9e400755da8f"}},{"fullUrl":"https://madie.cms.gov/Encounter/3690cb89-f028-47a7-b766-065e6730b53a","resource":{"resourceType":"Encounter","id":"3690cb89-f028-47a7-b766-065e6730b53a","meta":{"profile":["http://hl7.org/fhir/us/qicore/StructureDefinition/qicore-encounter"]},"status":"finished","class":{"system":"http://terminology.hl7.org/CodeSystem/v3-ActCode","code":"EMER","display":"emergency department"},"type":[{"coding":[{"system":"http://snomed.info/sct","version":"2023-09","code":"4525004","display":"Emergency department patient visit (procedure)","userSelected":true}]}],"subject":{"reference":"Patient/35fd427f-1233-4f3c-b8b3-9e400755da8f"},"period":{"start":"2026-01-01T00:00:00.000+00:00","end":"2026-01-01T08:00:00.000+00:00"},"diagnosis":[{"condition":{"reference":"Condition/a150a5cc-a8dd-4837-97f1-d0a2c1f27a1c"},"use":{"coding":[{"system":"http://terminology.hl7.org/CodeSystem/diagnosis-role","code":"billing"}]},"rank":1}],"location":[{"location":{"reference":"Location/8b3dc3de-37bc-4a42-8ca1-ca6dd764ea8e"},"period":{"start":"2026-01-01T00:00:00.000+00:00","end":"2026-01-01T08:01:00.000+00:00"}}]},"request":{"method":"PUT","url":"Encounter/3690cb89-f028-47a7-b766-065e6730b53a"}},{"fullUrl":"https://madie.cms.gov/Location/8b3dc3de-37bc-4a42-8ca1-ca6dd764ea8e","resource":{"resourceType":"Location","id":"8b3dc3de-37bc-4a42-8ca1-ca6dd764ea8e","meta":{"profile":["http://hl7.org/fhir/us/qicore/StructureDefinition/qicore-location"]},"identifier":[{"use":"usual","system":"http://exampleoflocation.com","value":"B1-S.F2"}],"name":"Medical Surgical East, first floor","type":[{"coding":[{"system":"https://www.cdc.gov/nhsn/cdaportal/terminology/codesystem/hsloc.html","version":"2022","code":"1108-0","display":"Emergency Department","userSelected":true}]}]},"request":{"method":"PUT","url":"Location/8b3dc3de-37bc-4a42-8ca1-ca6dd764ea8e"}},{"fullUrl":"https://madie.cms.gov/Coverage/ed2adff1-0c1f-468f-8da6-ae4b82e91021","resource":{"resourceType":"Coverage","id":"ed2adff1-0c1f-468f-8da6-ae4b82e91021","meta":{"profile":["http://hl7.org/fhir/us/qicore/StructureDefinition/qicore-coverage"]},"status":"active","beneficiary":{"reference":"Patient/35fd427f-1233-4f3c-b8b3-9e400755da8f"},"payor":[{"reference":"Organization/607fdef9-3983-4cef-ab1a-95434d29b463"}]},"request":{"method":"PUT","url":"Coverage/ed2adff1-0c1f-468f-8da6-ae4b82e91021"}},{"fullUrl":"https://madie.cms.gov/Condition/a150a5cc-a8dd-4837-97f1-d0a2c1f27a1c","resource":{"resourceType":"Condition","id":"a150a5cc-a8dd-4837-97f1-d0a2c1f27a1c","meta":{"profile":["http://hl7.org/fhir/us/qicore/StructureDefinition/qicore-condition"]},"category":[{"coding":[{"system":"http://terminology.hl7.org/CodeSystem/condition-category","code":"encounter-diagnosis","display":"Encounter Diagnosis"}]}],"code":{"coding":[{"system":"http://snomed.info/sct","version":"2023-09","code":"10349009","display":"Multi-infarct dementia with delirium (disorder)","userSelected":true}]},"subject":{"reference":"Patient/35fd427f-1233-4f3c-b8b3-9e400755da8f"},"recordedDate":"2026-04-09T08:00:00.000+00:00"},"request":{"method":"PUT","url":"Condition/a150a5cc-a8dd-4837-97f1-d0a2c1f27a1c"}},{"fullUrl":"https://madie.cms.gov/Organization/bf54567a-d8d8-42a1-b8bc-b823002cf3fc","resource":{"resourceType":"Organization","id":"607fdef9-3983-4cef-ab1a-95434d29b463","meta":{"profile":["http://hl7.org/fhir/us/qicore/StructureDefinition/qicore-organization"]},"identifier":[{"use":"temp","system":"urn:oid:2.16.840.1.113883.4.4","value":"21-3259825"}],"active":true,"type":[{"coding":[{"system":"http://terminology.hl7.org/CodeSystem/organization-type","code":"pay","display":"Payer"}]}],"name":"Blue Cross Blue Shield of Texas","telecom":[{"system":"phone","value":"(+1) 972-766-6900"}],"address":[{"use":"billing","type":"postal","line":["P.O. Box 660044"],"city":"Dallas","state":"TX","postalCode":"75266-0044","country":"USA"}]},"request":{"method":"PUT","url":"Organization/607fdef9-3983-4cef-ab1a-95434d29b463"}},{"fullUrl":"https://madie.cms.gov/Practitioner/a17157a6-12f5-4963-ac9e-dc3de1e5ad99","resource":{"resourceType":"Practitioner","id":"a17157a6-12f5-4963-ac9e-dc3de1e5ad99","meta":{"profile":["http://hl7.org/fhir/us/qicore/StructureDefinition/qicore-practitioner"]},"identifier":[{"system":"http://hl7.org/fhir/sid/us-npi","value":"123456"}],"name":[{"family":"Evil","prefix":["Dr"]}]},"request":{"method":"PUT","url":"Practitioner/a17157a6-12f5-4963-ac9e-dc3de1e5ad99"}},{"fullUrl":"https://madie.cms.gov/MeasureReport/9a97040b-5a52-489e-8ec7-7b6bf67b3857","resource":{"resourceType":"MeasureReport","id":"9a97040b-5a52-489e-8ec7-7b6bf67b3857","meta":{"profile":["http://hl7.org/fhir/us/cqfmeasures/StructureDefinition/test-case-cqfm"]},"contained":[{"resourceType":"Parameters","id":"5c87d5dd-3d80-4b27-9f8a-4e068c18fa71-parameters","parameter":[{"name":"subject","valueString":"35fd427f-1233-4f3c-b8b3-9e400755da8f"}]}],"extension":[{"url":"http://hl7.org/fhir/us/cqfmeasures/StructureDefinition/cqfm-inputParameters","valueReference":{"reference":"#5c87d5dd-3d80-4b27-9f8a-4e068c18fa71-parameters"}},{"url":"http://hl7.org/fhir/us/cqfmeasures/StructureDefinition/cqfm-testCaseDescription","valueMarkdown":"Child, age 17, ED enc first min of MP, has mental illness dx"}],"modifierExtension":[{"url":"http://hl7.org/fhir/us/cqfmeasures/StructureDefinition/cqfm-isTestCase","valueBoolean":true}],"status":"complete","type":"individual","measure":"https://madie.cms.gov/Measure/CMS1244ECCQHOQRFHIR","period":{"start":"2026-01-01","end":"2026-12-31"},"group":[{"population":[{"code":{"coding":[{"system":"http://terminology.hl7.org/CodeSystem/measure-population","code":"initial-population","display":"Initial Population"}]},"count":1},{"code":{"coding":[{"system":"http://terminology.hl7.org/CodeSystem/measure-population","code":"denominator","display":"Denominator"}]},"count":1},{"code":{"coding":[{"system":"http://terminology.hl7.org/CodeSystem/measure-population","code":"numerator","display":"Numerator"}]},"count":1}]}]},"request":{"method":"PUT","url":"MeasureReport/9a97040b-5a52-489e-8ec7-7b6bf67b3857"}}]}