{"resourceType":"Bundle","id":"tests-7bcd79b7-7898-437d-b563-cfb9068df210-bundle","type":"transaction","entry":[{"fullUrl":"https://madie.cms.gov/Patient/7bcd79b7-7898-437d-b563-cfb9068df210","resource":{"resourceType":"Patient","id":"7bcd79b7-7898-437d-b563-cfb9068df210","meta":{"profile":["http://hl7.org/fhir/us/qicore/StructureDefinition/qicore-patient"]},"extension":[{"url":"http://hl7.org/fhir/us/core/StructureDefinition/us-core-race","extension":[{"url":"ombCategory","valueCoding":{"system":"urn:oid:2.16.840.1.113883.6.238","code":"1002-5","display":"American Indian or Alaska Native","userSelected":true}},{"url":"text","valueString":"American Indian or Alaska Native"}]},{"url":"http://hl7.org/fhir/us/core/StructureDefinition/us-core-ethnicity","extension":[{"url":"ombCategory","valueCoding":{"system":"urn:oid:2.16.840.1.113883.6.238","code":"2135-2","display":"Hispanic or Latino","userSelected":true}},{"url":"text","valueString":"Hispanic or Latino"}]}],"identifier":[{"type":{"coding":[{"system":"http://terminology.hl7.org/CodeSystem/v2-0203","code":"MR"}]},"system":"https://bonnie-fhir.healthit.gov/","value":"6615806fdb207d74c03b8a5f"}],"name":[{"family":"NUMERStrat1Pass","given":["LWBS"]}],"gender":"male","birthDate":"2010-01-01"},"request":{"method":"PUT","url":"Patient/7bcd79b7-7898-437d-b563-cfb9068df210"}},{"fullUrl":"https://madie.cms.gov/Encounter/5254b414-dcd9-4c56-b8c4-a19093c27d1b","resource":{"resourceType":"Encounter","id":"5254b414-dcd9-4c56-b8c4-a19093c27d1b","meta":{"profile":["http://hl7.org/fhir/us/qicore/StructureDefinition/qicore-encounter"]},"status":"finished","class":{"system":"http://terminology.hl7.org/CodeSystem/v3-ActCode","code":"EMER","display":"emergency"},"type":[{"coding":[{"system":"http://snomed.info/sct","version":"2023-09","code":"225390008","display":"Triage (procedure)","userSelected":true}]}],"subject":{"reference":"Patient/7bcd79b7-7898-437d-b563-cfb9068df210"},"period":{"start":"2026-12-31T08:00:00.000+00:00","end":"2026-12-31T08:15:00.000+00:00"},"hospitalization":{"dischargeDisposition":{"coding":[{"system":"http://snomed.info/sct","code":"21541000119102","display":"Patient left without being seen (finding)","userSelected":true}]}}},"request":{"method":"PUT","url":"Encounter/5254b414-dcd9-4c56-b8c4-a19093c27d1b"}},{"fullUrl":"https://madie.cms.gov/Coverage/50053183-c7ed-42da-80e7-64cf79928636","resource":{"resourceType":"Coverage","id":"50053183-c7ed-42da-80e7-64cf79928636","meta":{"profile":["http://hl7.org/fhir/us/qicore/StructureDefinition/qicore-coverage"]},"status":"active","beneficiary":{"reference":"Patient/7bcd79b7-7898-437d-b563-cfb9068df210"},"payor":[{"reference":"Organization/f4907415-83c5-4eae-ab0b-cb63a840880d"}]},"request":{"method":"PUT","url":"Coverage/50053183-c7ed-42da-80e7-64cf79928636"}},{"fullUrl":"https://madie.cms.gov/Organization/7452fdce-5901-4e35-b61b-ed8030180d7b","resource":{"resourceType":"Organization","id":"f4907415-83c5-4eae-ab0b-cb63a840880d","meta":{"profile":["http://hl7.org/fhir/us/qicore/StructureDefinition/qicore-organization"]},"identifier":[{"use":"temp","system":"urn:oid:2.16.840.1.113883.4.4","value":"21-3259825"}],"active":true,"type":[{"coding":[{"system":"http://terminology.hl7.org/CodeSystem/organization-type","code":"pay","display":"Payer"}]}],"name":"Blue Cross Blue Shield of Texas","telecom":[{"system":"phone","value":"(+1) 972-766-6900"}],"address":[{"use":"billing","type":"postal","line":["P.O. Box 660044"],"city":"Dallas","state":"TX","postalCode":"75266-0044","country":"USA"}]},"request":{"method":"PUT","url":"Organization/f4907415-83c5-4eae-ab0b-cb63a840880d"}},{"fullUrl":"https://madie.cms.gov/Practitioner/837b9297-5392-4d27-b8e1-002756160df7","resource":{"resourceType":"Practitioner","id":"837b9297-5392-4d27-b8e1-002756160df7","meta":{"profile":["http://hl7.org/fhir/us/qicore/StructureDefinition/qicore-practitioner"]},"identifier":[{"system":"http://hl7.org/fhir/sid/us-npi","value":"123456"}],"name":[{"family":"Evil","prefix":["Dr"]}]},"request":{"method":"PUT","url":"Practitioner/837b9297-5392-4d27-b8e1-002756160df7"}},{"fullUrl":"https://madie.cms.gov/MeasureReport/c070a2cb-bae8-44b0-9dbf-aa3ab4617045","resource":{"resourceType":"MeasureReport","id":"c070a2cb-bae8-44b0-9dbf-aa3ab4617045","meta":{"profile":["http://hl7.org/fhir/us/cqfmeasures/StructureDefinition/test-case-cqfm"]},"contained":[{"resourceType":"Parameters","id":"b5b15e88-ff20-4770-b081-001dbd49fcbf-parameters","parameter":[{"name":"subject","valueString":"7bcd79b7-7898-437d-b563-cfb9068df210"}]}],"extension":[{"url":"http://hl7.org/fhir/us/cqfmeasures/StructureDefinition/cqfm-inputParameters","valueReference":{"reference":"#b5b15e88-ff20-4770-b081-001dbd49fcbf-parameters"}},{"url":"http://hl7.org/fhir/us/cqfmeasures/StructureDefinition/cqfm-testCaseDescription","valueMarkdown":"Child, age 17, ED enc last day of MP, LWBS,   no mental illness"}],"modifierExtension":[{"url":"http://hl7.org/fhir/us/cqfmeasures/StructureDefinition/cqfm-isTestCase","valueBoolean":true}],"status":"complete","type":"individual","measure":"https://madie.cms.gov/Measure/CMS1244ECCQHOQRFHIR","period":{"start":"2026-01-01","end":"2026-12-31"},"group":[{"population":[{"code":{"coding":[{"system":"http://terminology.hl7.org/CodeSystem/measure-population","code":"initial-population","display":"Initial Population"}]},"count":1},{"code":{"coding":[{"system":"http://terminology.hl7.org/CodeSystem/measure-population","code":"denominator","display":"Denominator"}]},"count":1},{"code":{"coding":[{"system":"http://terminology.hl7.org/CodeSystem/measure-population","code":"numerator","display":"Numerator"}]},"count":1}]}]},"request":{"method":"PUT","url":"MeasureReport/c070a2cb-bae8-44b0-9dbf-aa3ab4617045"}}]}