{"resourceType":"Bundle","id":"tests-37016a05-807e-44a9-83cd-fad3ff37cb07-bundle","type":"transaction","entry":[{"fullUrl":"https://madie.cms.gov/Patient/37016a05-807e-44a9-83cd-fad3ff37cb07","resource":{"resourceType":"Patient","id":"37016a05-807e-44a9-83cd-fad3ff37cb07","meta":{"profile":["http://hl7.org/fhir/us/qicore/StructureDefinition/qicore-patient"]},"extension":[{"url":"http://hl7.org/fhir/us/core/StructureDefinition/us-core-race","extension":[{"url":"ombCategory","valueCoding":{"system":"urn:oid:2.16.840.1.113883.6.238","code":"1002-5","display":"American Indian or Alaska Native","userSelected":true}},{"url":"text","valueString":"American Indian or Alaska Native"}]},{"url":"http://hl7.org/fhir/us/core/StructureDefinition/us-core-ethnicity","extension":[{"url":"ombCategory","valueCoding":{"system":"urn:oid:2.16.840.1.113883.6.238","code":"2135-2","display":"Hispanic or Latino","userSelected":true}},{"url":"text","valueString":"Hispanic or Latino"}]}],"identifier":[{"type":{"coding":[{"system":"http://terminology.hl7.org/CodeSystem/v2-0203","code":"MR"}]},"system":"https://bonnie-fhir.healthit.gov/","value":"6617e30316793f5a4fae16fe"}],"name":[{"family":"NUMERStrat1Pass","given":["DecisionToAdmitAssessment"]}],"gender":"male","birthDate":"2009-01-01"},"request":{"method":"PUT","url":"Patient/37016a05-807e-44a9-83cd-fad3ff37cb07"}},{"fullUrl":"https://madie.cms.gov/Encounter/1cf2e4f3-4f84-4623-859b-7ca7d0bd7fee","resource":{"resourceType":"Encounter","id":"1cf2e4f3-4f84-4623-859b-7ca7d0bd7fee","meta":{"profile":["http://hl7.org/fhir/us/qicore/StructureDefinition/qicore-encounter"]},"status":"finished","class":{"system":"http://terminology.hl7.org/CodeSystem/v3-ActCode","code":"EMER","display":"emergency"},"type":[{"coding":[{"system":"http://snomed.info/sct","version":"2023-09","code":"4525004","display":"Emergency department patient visit (procedure)","userSelected":true}]}],"subject":{"reference":"Patient/37016a05-807e-44a9-83cd-fad3ff37cb07"},"period":{"start":"2026-01-01T00:00:00.000+00:00","end":"2026-01-01T06:00:00.000+00:00"},"diagnosis":[{"condition":{"reference":"Condition/behavioral-health-diagnosis-without-substance-use-disorders-9d16"},"use":{"coding":[{"system":"http://terminology.hl7.org/CodeSystem/diagnosis-role","code":"billing"}]},"rank":1}],"location":[{"location":{"reference":"Location/8033e6f5-a675-4c39-bf6f-8ca57d8253b3"},"period":{"start":"2026-01-01T00:00:00.000+00:00","end":"2026-01-01T06:01:00.000+00:00"}}]},"request":{"method":"PUT","url":"Encounter/1cf2e4f3-4f84-4623-859b-7ca7d0bd7fee"}},{"fullUrl":"https://madie.cms.gov/Encounter/c654e25a-cf86-4334-b213-7ffb8ece3c28","resource":{"resourceType":"Encounter","id":"c654e25a-cf86-4334-b213-7ffb8ece3c28","meta":{"profile":["http://hl7.org/fhir/us/qicore/StructureDefinition/qicore-encounter"]},"status":"finished","class":{"system":"http://terminology.hl7.org/CodeSystem/v3-ActCode","code":"IMP","display":"inpatient"},"type":[{"coding":[{"system":"http://snomed.info/sct","version":"2023-09","code":"183452005","display":"Emergency hospital admission (procedure)","userSelected":true}]}],"subject":{"reference":"Patient/37016a05-807e-44a9-83cd-fad3ff37cb07"},"period":{"start":"2026-01-01T06:00:00.000+00:00","end":"2026-01-03T06:15:00.000+00:00"}},"request":{"method":"PUT","url":"Encounter/c654e25a-cf86-4334-b213-7ffb8ece3c28"}},{"fullUrl":"https://madie.cms.gov/Location/8033e6f5-a675-4c39-bf6f-8ca57d8253b3","resource":{"resourceType":"Location","id":"8033e6f5-a675-4c39-bf6f-8ca57d8253b3","meta":{"profile":["http://hl7.org/fhir/us/qicore/StructureDefinition/qicore-location"]},"identifier":[{"use":"usual","system":"http://exampleoflocation.com","value":"B1-S.F2"}],"name":"Local ED","type":[{"coding":[{"system":"https://www.cdc.gov/nhsn/cdaportal/terminology/codesystem/hsloc.html","version":"2022","code":"1108-0","display":"Emergency Department","userSelected":true}]}]},"request":{"method":"PUT","url":"Location/8033e6f5-a675-4c39-bf6f-8ca57d8253b3"}},{"fullUrl":"https://madie.cms.gov/Observation/64cc5630-fd41-4eb1-b7c9-4f1e6f4a13d0","resource":{"resourceType":"Observation","id":"64cc5630-fd41-4eb1-b7c9-4f1e6f4a13d0","meta":{"profile":["http://hl7.org/fhir/us/qicore/StructureDefinition/qicore-observation"]},"status":"final","category":[{"coding":[{"system":"http://terminology.hl7.org/CodeSystem/observation-category","code":"survey","display":"Survey"}]}],"code":{"coding":[{"system":"http://loinc.org","version":"2.76","code":"28568-4","display":"Physician Emergency department Note","userSelected":true}]},"subject":{"reference":"Patient/37016a05-807e-44a9-83cd-fad3ff37cb07"},"effectiveDateTime":"2026-01-01T01:00:00.000+00:00","valueCodeableConcept":{"coding":[{"system":"http://snomed.info/sct","code":"434081000124108","display":"Patient requires hospitalization (finding)","userSelected":true}]}},"request":{"method":"PUT","url":"Observation/64cc5630-fd41-4eb1-b7c9-4f1e6f4a13d0"}},{"fullUrl":"https://madie.cms.gov/Condition/e568f36f-ed9b-418a-8b72-aa00179ae07d","resource":{"resourceType":"Condition","id":"e568f36f-ed9b-418a-8b72-aa00179ae07d","meta":{"profile":["http://hl7.org/fhir/us/qicore/StructureDefinition/qicore-condition"]},"category":[{"coding":[{"system":"http://terminology.hl7.org/CodeSystem/condition-category","code":"encounter-diagnosis","display":"Encounter Diagnosis"}]}],"code":{"coding":[{"system":"http://snomed.info/sct","version":"2023-09","code":"10674711000119105","display":"Acute severe exacerbation of asthma co-occurrent with allergic rhinitis (disorder)","userSelected":true}]},"subject":{"reference":"Patient/37016a05-807e-44a9-83cd-fad3ff37cb07"},"recordedDate":"2025-04-18T08:00:00.000+00:00"},"request":{"method":"PUT","url":"Condition/e568f36f-ed9b-418a-8b72-aa00179ae07d"}},{"fullUrl":"https://madie.cms.gov/Coverage/5a17ec85-7ace-4299-9146-da28369115a2","resource":{"resourceType":"Coverage","id":"5a17ec85-7ace-4299-9146-da28369115a2","meta":{"profile":["http://hl7.org/fhir/us/qicore/StructureDefinition/qicore-coverage"]},"status":"active","beneficiary":{"reference":"Patient/37016a05-807e-44a9-83cd-fad3ff37cb07"},"payor":[{"reference":"Organization/18ca435c-cae6-4c34-8033-af717477f9fc"}]},"request":{"method":"PUT","url":"Coverage/5a17ec85-7ace-4299-9146-da28369115a2"}},{"fullUrl":"https://madie.cms.gov/Organization/15464f55-faa4-44a3-a1e1-41ce28138798","resource":{"resourceType":"Organization","id":"18ca435c-cae6-4c34-8033-af717477f9fc","meta":{"profile":["http://hl7.org/fhir/us/qicore/StructureDefinition/qicore-organization"]},"identifier":[{"use":"temp","system":"urn:oid:2.16.840.1.113883.4.4","value":"21-3259825"}],"active":true,"type":[{"coding":[{"system":"http://terminology.hl7.org/CodeSystem/organization-type","code":"pay","display":"Payer"}]}],"name":"Blue Cross Blue Shield of Texas","telecom":[{"system":"phone","value":"(+1) 972-766-6900"}],"address":[{"use":"billing","type":"postal","line":["P.O. Box 660044"],"city":"Dallas","state":"TX","postalCode":"75266-0044","country":"USA"}]},"request":{"method":"PUT","url":"Organization/18ca435c-cae6-4c34-8033-af717477f9fc"}},{"fullUrl":"https://madie.cms.gov/Practitioner/6766714e-1b48-494c-a6d2-35fa69ec2b61","resource":{"resourceType":"Practitioner","id":"6766714e-1b48-494c-a6d2-35fa69ec2b61","meta":{"profile":["http://hl7.org/fhir/us/qicore/StructureDefinition/qicore-practitioner"]},"identifier":[{"system":"http://hl7.org/fhir/sid/us-npi","value":"123456"}],"name":[{"family":"Evil","prefix":["Dr"]}]},"request":{"method":"PUT","url":"Practitioner/6766714e-1b48-494c-a6d2-35fa69ec2b61"}},{"fullUrl":"https://madie.cms.gov/MeasureReport/e4336ee1-fa7f-4b8b-bcb3-e1da668cdfbc","resource":{"resourceType":"MeasureReport","id":"e4336ee1-fa7f-4b8b-bcb3-e1da668cdfbc","meta":{"profile":["http://hl7.org/fhir/us/cqfmeasures/StructureDefinition/test-case-cqfm"]},"contained":[{"resourceType":"Parameters","id":"8de1abce-4216-4452-a5d3-1921f62d02fe-parameters","parameter":[{"name":"subject","valueString":"37016a05-807e-44a9-83cd-fad3ff37cb07"}]}],"extension":[{"url":"http://hl7.org/fhir/us/cqfmeasures/StructureDefinition/cqfm-inputParameters","valueReference":{"reference":"#8de1abce-4216-4452-a5d3-1921f62d02fe-parameters"}},{"url":"http://hl7.org/fhir/us/cqfmeasures/StructureDefinition/cqfm-testCaseDescription","valueMarkdown":"Enc 1st day of MP, asthma, arrived at midnight of 01/01, 241 minutes decision to admit and departure"}],"modifierExtension":[{"url":"http://hl7.org/fhir/us/cqfmeasures/StructureDefinition/cqfm-isTestCase","valueBoolean":true}],"status":"complete","type":"individual","measure":"https://madie.cms.gov/Measure/CMS1244ECCQHOQRFHIR","period":{"start":"2026-01-01","end":"2026-12-31"},"group":[{"population":[{"code":{"coding":[{"system":"http://terminology.hl7.org/CodeSystem/measure-population","code":"initial-population","display":"Initial Population"}]},"count":1},{"code":{"coding":[{"system":"http://terminology.hl7.org/CodeSystem/measure-population","code":"denominator","display":"Denominator"}]},"count":1},{"code":{"coding":[{"system":"http://terminology.hl7.org/CodeSystem/measure-population","code":"numerator","display":"Numerator"}]},"count":1}]}]},"request":{"method":"PUT","url":"MeasureReport/e4336ee1-fa7f-4b8b-bcb3-e1da668cdfbc"}}]}