{"resourceType":"Bundle","id":"tests-ed5fa616-8b70-4016-b40d-6f87983e2776-bundle","type":"transaction","entry":[{"fullUrl":"https://madie.cms.gov/Patient/ed5fa616-8b70-4016-b40d-6f87983e2776","resource":{"resourceType":"Patient","id":"ed5fa616-8b70-4016-b40d-6f87983e2776","meta":{"profile":["http://hl7.org/fhir/us/qicore/StructureDefinition/qicore-patient"]},"extension":[{"url":"http://hl7.org/fhir/us/core/StructureDefinition/us-core-race","extension":[{"url":"ombCategory","valueCoding":{"system":"urn:oid:2.16.840.1.113883.6.238","code":"1002-5","display":"American Indian or Alaska Native","userSelected":true}},{"url":"text","valueString":"American Indian or Alaska Native"}]},{"url":"http://hl7.org/fhir/us/core/StructureDefinition/us-core-ethnicity","extension":[{"url":"ombCategory","valueCoding":{"system":"urn:oid:2.16.840.1.113883.6.238","code":"2135-2","display":"Hispanic or Latino","userSelected":true}},{"url":"text","valueString":"Hispanic or Latino"}]}],"identifier":[{"type":{"coding":[{"system":"http://terminology.hl7.org/CodeSystem/v2-0203","code":"MR"}]},"system":"https://bonnie-fhir.healthit.gov/","value":"661476b015ed5841a5547ebf"}],"name":[{"family":"NUMERStrat2Pass","given":["EDLOS481Minutes"]}],"gender":"male","birthDate":"2008-01-01"},"request":{"method":"PUT","url":"Patient/ed5fa616-8b70-4016-b40d-6f87983e2776"}},{"fullUrl":"https://madie.cms.gov/Encounter/05d2f83f-1e80-4c57-808f-54270f6847a1","resource":{"resourceType":"Encounter","id":"05d2f83f-1e80-4c57-808f-54270f6847a1","meta":{"profile":["http://hl7.org/fhir/us/qicore/StructureDefinition/qicore-encounter"]},"status":"finished","class":{"system":"http://terminology.hl7.org/CodeSystem/v3-ActCode","code":"EMER","display":"emergency department"},"type":[{"coding":[{"system":"http://snomed.info/sct","version":"2023-09","code":"4525004","display":"Emergency department patient visit (procedure)","userSelected":true}]}],"subject":{"reference":"Patient/ed5fa616-8b70-4016-b40d-6f87983e2776"},"period":{"start":"2026-01-01T06:00:00.000+00:00","end":"2026-01-01T14:01:00.000+00:00"},"diagnosis":[{"condition":{"reference":"Condition/b53dc853-f390-49f1-8e6e-c38d554fa115"},"use":{"coding":[{"system":"http://terminology.hl7.org/CodeSystem/diagnosis-role","code":"billing"}]},"rank":1}],"location":[{"location":{"reference":"Location/9b22e5c4-9576-45fb-9ab4-1bd3977c5819"},"period":{"start":"2026-01-01T06:00:00.000+00:00","end":"2026-01-01T14:01:00.000+00:00"}}]},"request":{"method":"PUT","url":"Encounter/05d2f83f-1e80-4c57-808f-54270f6847a1"}},{"fullUrl":"https://madie.cms.gov/Condition/b53dc853-f390-49f1-8e6e-c38d554fa115","resource":{"resourceType":"Condition","id":"b53dc853-f390-49f1-8e6e-c38d554fa115","meta":{"profile":["http://hl7.org/fhir/us/qicore/StructureDefinition/qicore-condition"]},"category":[{"coding":[{"system":"http://terminology.hl7.org/CodeSystem/condition-category","code":"encounter-diagnosis","display":"Encounter Diagnosis"}]}],"code":{"coding":[{"system":"http://snomed.info/sct","version":"2023-09","code":"10660471000119109","display":"Ulcer of left foot due to type 2 diabetes mellitus (disorder)","userSelected":true}]},"subject":{"reference":"Patient/ed5fa616-8b70-4016-b40d-6f87983e2776"},"recordedDate":"2026-01-01T08:00:00.000+00:00"},"request":{"method":"PUT","url":"Condition/b53dc853-f390-49f1-8e6e-c38d554fa115"}},{"fullUrl":"https://madie.cms.gov/Location/9b22e5c4-9576-45fb-9ab4-1bd3977c5819","resource":{"resourceType":"Location","id":"9b22e5c4-9576-45fb-9ab4-1bd3977c5819","meta":{"profile":["http://hl7.org/fhir/us/qicore/StructureDefinition/qicore-location"]},"identifier":[{"use":"usual","system":"http://exampleoflocation.com","value":"B1-S.F2"}],"name":"Medical Surgical East, first floor","type":[{"coding":[{"system":"https://www.cdc.gov/nhsn/cdaportal/terminology/codesystem/hsloc.html","version":"2022","code":"1108-0","display":"Emergency Department","userSelected":true}]}]},"request":{"method":"PUT","url":"Location/9b22e5c4-9576-45fb-9ab4-1bd3977c5819"}},{"fullUrl":"https://madie.cms.gov/Coverage/55f8303f-0ad4-43ff-b472-61ecc61cf459","resource":{"resourceType":"Coverage","id":"55f8303f-0ad4-43ff-b472-61ecc61cf459","meta":{"profile":["http://hl7.org/fhir/us/qicore/StructureDefinition/qicore-coverage"]},"status":"active","beneficiary":{"reference":"Patient/ed5fa616-8b70-4016-b40d-6f87983e2776"},"payor":[{"reference":"Organization/18ca435c-cae6-4c34-8033-af717477f9fc"}]},"request":{"method":"PUT","url":"Coverage/55f8303f-0ad4-43ff-b472-61ecc61cf459"}},{"fullUrl":"https://madie.cms.gov/Organization/84ed16a7-03d4-415d-affe-db60bbd1f4c6","resource":{"resourceType":"Organization","id":"18ca435c-cae6-4c34-8033-af717477f9fc","meta":{"profile":["http://hl7.org/fhir/us/qicore/StructureDefinition/qicore-organization"]},"identifier":[{"use":"temp","system":"urn:oid:2.16.840.1.113883.4.4","value":"21-3259825"}],"active":true,"type":[{"coding":[{"system":"http://terminology.hl7.org/CodeSystem/organization-type","code":"pay","display":"Payer"}]}],"name":"Blue Cross Blue Shield of Texas","telecom":[{"system":"phone","value":"(+1) 972-766-6900"}],"address":[{"use":"billing","type":"postal","line":["P.O. Box 660044"],"city":"Dallas","state":"TX","postalCode":"75266-0044","country":"USA"}]},"request":{"method":"PUT","url":"Organization/18ca435c-cae6-4c34-8033-af717477f9fc"}},{"fullUrl":"https://madie.cms.gov/Practitioner/3777bb3e-5a9f-42c3-b175-3d278acde6ef","resource":{"resourceType":"Practitioner","id":"3777bb3e-5a9f-42c3-b175-3d278acde6ef","meta":{"profile":["http://hl7.org/fhir/us/qicore/StructureDefinition/qicore-practitioner"]},"identifier":[{"system":"http://hl7.org/fhir/sid/us-npi","value":"123456"}],"name":[{"family":"Evil","prefix":["Dr"]}]},"request":{"method":"PUT","url":"Practitioner/3777bb3e-5a9f-42c3-b175-3d278acde6ef"}},{"fullUrl":"https://madie.cms.gov/MeasureReport/26e2cd94-9d3d-4c2c-92c9-ccab850ad830","resource":{"resourceType":"MeasureReport","id":"26e2cd94-9d3d-4c2c-92c9-ccab850ad830","meta":{"profile":["http://hl7.org/fhir/us/cqfmeasures/StructureDefinition/test-case-cqfm"]},"contained":[{"resourceType":"Parameters","id":"a3a5fe22-1d09-478b-b435-77b905468b5b-parameters","parameter":[{"name":"subject","valueString":"ed5fa616-8b70-4016-b40d-6f87983e2776"}]}],"extension":[{"url":"http://hl7.org/fhir/us/cqfmeasures/StructureDefinition/cqfm-inputParameters","valueReference":{"reference":"#a3a5fe22-1d09-478b-b435-77b905468b5b-parameters"}},{"url":"http://hl7.org/fhir/us/cqfmeasures/StructureDefinition/cqfm-testCaseDescription","valueMarkdown":"Adult, age 18, ED enc, first day of MP,  LOS 481 minutes"}],"modifierExtension":[{"url":"http://hl7.org/fhir/us/cqfmeasures/StructureDefinition/cqfm-isTestCase","valueBoolean":true}],"status":"complete","type":"individual","measure":"https://madie.cms.gov/Measure/CMS1244ECCQHOQRFHIR","period":{"start":"2026-01-01","end":"2026-12-31"},"group":[{"population":[{"code":{"coding":[{"system":"http://terminology.hl7.org/CodeSystem/measure-population","code":"initial-population","display":"Initial Population"}]},"count":1},{"code":{"coding":[{"system":"http://terminology.hl7.org/CodeSystem/measure-population","code":"denominator","display":"Denominator"}]},"count":1},{"code":{"coding":[{"system":"http://terminology.hl7.org/CodeSystem/measure-population","code":"numerator","display":"Numerator"}]},"count":1}]}]},"request":{"method":"PUT","url":"MeasureReport/26e2cd94-9d3d-4c2c-92c9-ccab850ad830"}}]}