{"resourceType":"Bundle","id":"tests-5fb0b78c-ffd3-47c3-91a3-252bc4a70177-bundle","type":"transaction","entry":[{"fullUrl":"https://madie.cms.gov/Patient/5fb0b78c-ffd3-47c3-91a3-252bc4a70177","resource":{"resourceType":"Patient","id":"5fb0b78c-ffd3-47c3-91a3-252bc4a70177","meta":{"profile":["http://hl7.org/fhir/us/qicore/StructureDefinition/qicore-patient"]},"extension":[{"url":"http://hl7.org/fhir/us/core/StructureDefinition/us-core-race","extension":[{"url":"ombCategory","valueCoding":{"system":"urn:oid:2.16.840.1.113883.6.238","code":"1002-5","display":"American Indian or Alaska Native","userSelected":true}},{"url":"text","valueString":"American Indian or Alaska Native"}]},{"url":"http://hl7.org/fhir/us/core/StructureDefinition/us-core-ethnicity","extension":[{"url":"ombCategory","valueCoding":{"system":"urn:oid:2.16.840.1.113883.6.238","code":"2135-2","display":"Hispanic or Latino","userSelected":true}},{"url":"text","valueString":"Hispanic or Latino"}]}],"identifier":[{"type":{"coding":[{"system":"http://terminology.hl7.org/CodeSystem/v2-0203","code":"MR"}]},"system":"https://bonnie-fhir.healthit.gov/","value":"661476b015ed5841a5547ebf"}],"name":[{"family":"NUMERStrat2Pass","given":["EDObsBoarded"]}],"gender":"male","birthDate":"2008-01-01"},"request":{"method":"PUT","url":"Patient/5fb0b78c-ffd3-47c3-91a3-252bc4a70177"}},{"fullUrl":"https://madie.cms.gov/Encounter/fd47eb09-8350-4d8e-9a81-7172176f7cb0","resource":{"resourceType":"Encounter","id":"fd47eb09-8350-4d8e-9a81-7172176f7cb0","meta":{"profile":["http://hl7.org/fhir/us/qicore/StructureDefinition/qicore-encounter"]},"status":"finished","class":{"system":"http://terminology.hl7.org/CodeSystem/v3-ActCode","code":"EMER","display":"emergency department"},"type":[{"coding":[{"system":"http://snomed.info/sct","version":"2023-09","code":"4525004","display":"Emergency department patient visit (procedure)","userSelected":true}]}],"subject":{"reference":"Patient/5fb0b78c-ffd3-47c3-91a3-252bc4a70177"},"period":{"start":"2026-01-01T00:00:00.000+00:00","end":"2026-01-01T06:00:00.000+00:00"},"diagnosis":[{"condition":{"reference":"Condition/non-behavioral-health-diagnosis-without-substance-use-disorders-8a64"},"use":{"coding":[{"system":"http://terminology.hl7.org/CodeSystem/diagnosis-role","code":"billing"}]},"rank":1}],"location":[{"location":{"reference":"Location/fb639f7d-ddd8-4e0d-8c9b-18c817c787c9"},"period":{"start":"2026-01-01T00:00:00.000+00:00","end":"2026-01-01T06:01:00.000+00:00"}}]},"request":{"method":"PUT","url":"Encounter/fd47eb09-8350-4d8e-9a81-7172176f7cb0"}},{"fullUrl":"https://madie.cms.gov/Encounter/524c3925-507f-410c-8007-36758a12a1c6","resource":{"resourceType":"Encounter","id":"524c3925-507f-410c-8007-36758a12a1c6","meta":{"profile":["http://hl7.org/fhir/us/qicore/StructureDefinition/qicore-encounter"]},"status":"finished","class":{"system":"http://terminology.hl7.org/CodeSystem/v3-ActCode","code":"IMP","display":"inpatient encounter"},"type":[{"coding":[{"system":"http://snomed.info/sct","version":"2023-09","code":"183452005","display":"Emergency hospital admission (procedure)","userSelected":true}]}],"subject":{"reference":"Patient/5fb0b78c-ffd3-47c3-91a3-252bc4a70177"},"period":{"start":"2026-01-01T05:00:00.000+00:00","end":"2026-01-03T06:15:00.000+00:00"}},"request":{"method":"PUT","url":"Encounter/524c3925-507f-410c-8007-36758a12a1c6"}},{"fullUrl":"https://madie.cms.gov/ServiceRequest/94ce8468-0574-47d4-8a69-f2a83f825361","resource":{"resourceType":"ServiceRequest","id":"94ce8468-0574-47d4-8a69-f2a83f825361","meta":{"profile":["http://hl7.org/fhir/us/qicore/StructureDefinition/qicore-servicerequest"]},"status":"active","intent":"order","code":{"coding":[{"system":"http://snomed.info/sct","code":"5751000175101","display":"Patient bed assigned (finding)","userSelected":true}]},"subject":{"reference":"Patient/5fb0b78c-ffd3-47c3-91a3-252bc4a70177"},"authoredOn":"2026-01-01T02:00:00.000+00:00"},"request":{"method":"PUT","url":"ServiceRequest/94ce8468-0574-47d4-8a69-f2a83f825361"}},{"fullUrl":"https://madie.cms.gov/Location/fb639f7d-ddd8-4e0d-8c9b-18c817c787c9","resource":{"resourceType":"Location","id":"fb639f7d-ddd8-4e0d-8c9b-18c817c787c9","meta":{"profile":["http://hl7.org/fhir/us/qicore/StructureDefinition/qicore-location"]},"identifier":[{"use":"usual","system":"http://exampleoflocation.com","value":"B1-S.F2"}],"name":"Medical Surgical East, first floor","type":[{"coding":[{"system":"https://www.cdc.gov/nhsn/cdaportal/terminology/codesystem/hsloc.html","version":"2022","code":"1108-0","display":"Emergency Department","userSelected":true}]}]},"request":{"method":"PUT","url":"Location/fb639f7d-ddd8-4e0d-8c9b-18c817c787c9"}},{"fullUrl":"https://madie.cms.gov/Coverage/f42431f5-2055-44d3-8a95-4261e17672f9","resource":{"resourceType":"Coverage","id":"f42431f5-2055-44d3-8a95-4261e17672f9","meta":{"profile":["http://hl7.org/fhir/us/qicore/StructureDefinition/qicore-coverage"]},"status":"active","beneficiary":{"reference":"Patient/5fb0b78c-ffd3-47c3-91a3-252bc4a70177"},"payor":[{"reference":"Organization/db141f66-a1cc-407b-9e95-adac27adee14"}]},"request":{"method":"PUT","url":"Coverage/f42431f5-2055-44d3-8a95-4261e17672f9"}},{"fullUrl":"https://madie.cms.gov/Condition/bde60b82-197e-4f8f-aa5b-29471cbebddf","resource":{"resourceType":"Condition","id":"bde60b82-197e-4f8f-aa5b-29471cbebddf","meta":{"profile":["http://hl7.org/fhir/us/qicore/StructureDefinition/qicore-condition"]},"category":[{"coding":[{"system":"http://terminology.hl7.org/CodeSystem/condition-category","code":"encounter-diagnosis","display":"Encounter Diagnosis"}]}],"code":{"coding":[{"system":"http://snomed.info/sct","version":"2023-09","code":"10674711000119105","display":"Acute severe exacerbation of asthma co-occurrent with allergic rhinitis (disorder)","userSelected":true}]},"subject":{"reference":"Patient/5fb0b78c-ffd3-47c3-91a3-252bc4a70177"},"recordedDate":"2026-01-01T08:00:00.000+00:00"},"request":{"method":"PUT","url":"Condition/bde60b82-197e-4f8f-aa5b-29471cbebddf"}},{"fullUrl":"https://madie.cms.gov/Encounter/041e785d-3610-450f-94e1-7f7b82c516fd","resource":{"resourceType":"Encounter","id":"041e785d-3610-450f-94e1-7f7b82c516fd","meta":{"profile":["http://hl7.org/fhir/us/qicore/StructureDefinition/qicore-encounter"]},"status":"finished","class":{"system":"http://terminology.hl7.org/CodeSystem/v3-ActCode","code":"EMER","display":"emergency"},"type":[{"coding":[{"system":"http://www.ama-assn.org/go/cpt","version":"2024","code":"99221","display":"Initial hospital inpatient or observation care, per day, for the evaluation and management of a patient, which requires a medically appropriate history and/or examination and straightforward or low level medical decision making. When using total time on the date of the encounter for code selection, 40 minutes must be met or exceeded.","userSelected":true}]}],"subject":{"reference":"Patient/5fb0b78c-ffd3-47c3-91a3-252bc4a70177"},"period":{"start":"2026-01-01T00:01:00.000+00:00","end":"2026-01-01T05:59:00.000+00:00"}},"request":{"method":"PUT","url":"Encounter/041e785d-3610-450f-94e1-7f7b82c516fd"}},{"fullUrl":"https://madie.cms.gov/Organization/199fd713-3cf5-42f4-a442-73c94c637cdf","resource":{"resourceType":"Organization","id":"db141f66-a1cc-407b-9e95-adac27adee14","meta":{"profile":["http://hl7.org/fhir/us/qicore/StructureDefinition/qicore-organization"]},"identifier":[{"use":"temp","system":"urn:oid:2.16.840.1.113883.4.4","value":"21-3259825"}],"active":true,"type":[{"coding":[{"system":"http://terminology.hl7.org/CodeSystem/organization-type","code":"pay","display":"Payer"}]}],"name":"Blue Cross Blue Shield of Texas","telecom":[{"system":"phone","value":"(+1) 972-766-6900"}],"address":[{"use":"billing","type":"postal","line":["P.O. Box 660044"],"city":"Dallas","state":"TX","postalCode":"75266-0044","country":"USA"}]},"request":{"method":"PUT","url":"Organization/db141f66-a1cc-407b-9e95-adac27adee14"}},{"fullUrl":"https://madie.cms.gov/Practitioner/f2e3dd79-e70a-4f17-98aa-48cb3d79f3ef","resource":{"resourceType":"Practitioner","id":"f2e3dd79-e70a-4f17-98aa-48cb3d79f3ef","meta":{"profile":["http://hl7.org/fhir/us/qicore/StructureDefinition/qicore-practitioner"]},"identifier":[{"system":"http://hl7.org/fhir/sid/us-npi","value":"123456"}],"name":[{"family":"Evil","prefix":["Dr"]}]},"request":{"method":"PUT","url":"Practitioner/f2e3dd79-e70a-4f17-98aa-48cb3d79f3ef"}},{"fullUrl":"https://madie.cms.gov/MeasureReport/ca15a789-1632-4992-9c2d-21963867023c","resource":{"resourceType":"MeasureReport","id":"ca15a789-1632-4992-9c2d-21963867023c","meta":{"profile":["http://hl7.org/fhir/us/cqfmeasures/StructureDefinition/test-case-cqfm"]},"contained":[{"resourceType":"Parameters","id":"b94a719a-8b01-420f-94cd-91a74e757842-parameters","parameter":[{"name":"subject","valueString":"5fb0b78c-ffd3-47c3-91a3-252bc4a70177"}]}],"extension":[{"url":"http://hl7.org/fhir/us/cqfmeasures/StructureDefinition/cqfm-inputParameters","valueReference":{"reference":"#b94a719a-8b01-420f-94cd-91a74e757842-parameters"}},{"url":"http://hl7.org/fhir/us/cqfmeasures/StructureDefinition/cqfm-testCaseDescription","valueMarkdown":"Adult, ED observation during ED enc where patient was boarded 6 hrs 1 min; Enc 8 hrs, enc departure 8 hrs 1 min, asthma"}],"modifierExtension":[{"url":"http://hl7.org/fhir/us/cqfmeasures/StructureDefinition/cqfm-isTestCase","valueBoolean":true}],"status":"complete","type":"individual","measure":"https://madie.cms.gov/Measure/CMS1244ECCQHOQRFHIR","period":{"start":"2026-01-01","end":"2026-12-31"},"group":[{"population":[{"code":{"coding":[{"system":"http://terminology.hl7.org/CodeSystem/measure-population","code":"initial-population","display":"Initial Population"}]},"count":1},{"code":{"coding":[{"system":"http://terminology.hl7.org/CodeSystem/measure-population","code":"denominator","display":"Denominator"}]},"count":1},{"code":{"coding":[{"system":"http://terminology.hl7.org/CodeSystem/measure-population","code":"numerator","display":"Numerator"}]},"count":0}]}]},"request":{"method":"PUT","url":"MeasureReport/ca15a789-1632-4992-9c2d-21963867023c"}}]}