{"resourceType":"Bundle","id":"tests-8e43bc64-4242-494d-b47f-fdbbd3372bbe-bundle","type":"transaction","entry":[{"fullUrl":"https://madie.cms.gov/Patient/8e43bc64-4242-494d-b47f-fdbbd3372bbe","resource":{"resourceType":"Patient","id":"8e43bc64-4242-494d-b47f-fdbbd3372bbe","meta":{"profile":["http://hl7.org/fhir/us/qicore/StructureDefinition/qicore-patient"]},"extension":[{"url":"http://hl7.org/fhir/us/core/StructureDefinition/us-core-race","extension":[{"url":"ombCategory","valueCoding":{"system":"urn:oid:2.16.840.1.113883.6.238","code":"1002-5","display":"American Indian or Alaska Native","userSelected":true}},{"url":"text","valueString":"American Indian or Alaska Native"}]},{"url":"http://hl7.org/fhir/us/core/StructureDefinition/us-core-ethnicity","extension":[{"url":"ombCategory","valueCoding":{"system":"urn:oid:2.16.840.1.113883.6.238","code":"2135-2","display":"Hispanic or Latino","userSelected":true}},{"url":"text","valueString":"Hispanic or Latino"}]}],"identifier":[{"type":{"coding":[{"system":"http://terminology.hl7.org/CodeSystem/v2-0203","code":"MR"}]},"system":"https://bonnie-fhir.healthit.gov/","value":"661476b015ed5841a5547ebf"}],"name":[{"family":"NUMERStrat3Pass","given":["Boarded241MinOrderAdmit"]}],"gender":"male","birthDate":"2010-01-01"},"request":{"method":"PUT","url":"Patient/8e43bc64-4242-494d-b47f-fdbbd3372bbe"}},{"fullUrl":"https://madie.cms.gov/Encounter/a9638fca-24f2-4839-a4a0-618c61412a6c","resource":{"resourceType":"Encounter","id":"a9638fca-24f2-4839-a4a0-618c61412a6c","meta":{"profile":["http://hl7.org/fhir/us/qicore/StructureDefinition/qicore-encounter"]},"status":"finished","class":{"system":"http://terminology.hl7.org/CodeSystem/v3-ActCode","code":"EMER","display":"emergency department"},"type":[{"coding":[{"system":"http://snomed.info/sct","version":"2023-09","code":"4525004","display":"Emergency department patient visit (procedure)","userSelected":true}]}],"subject":{"reference":"Patient/8e43bc64-4242-494d-b47f-fdbbd3372bbe"},"period":{"start":"2026-01-01T19:58:00.000+00:00","end":"2026-01-01T23:59:00.000+00:00"},"diagnosis":[{"condition":{"reference":"Condition/fd0a625c-b850-4551-a471-11683eb1581c"},"use":{"coding":[{"system":"http://terminology.hl7.org/CodeSystem/diagnosis-role","code":"billing"}]},"rank":1}],"location":[{"location":{"reference":"Location/1ad6dfb4-9c06-481a-b8d7-f2a5a5f466aa"},"period":{"start":"2026-01-01T19:58:00.000+00:00","end":"2026-01-01T23:59:00.000+00:00"}}]},"request":{"method":"PUT","url":"Encounter/a9638fca-24f2-4839-a4a0-618c61412a6c"}},{"fullUrl":"https://madie.cms.gov/ServiceRequest/b5a3c02a-72e5-46c9-a55f-b2d7e8ea9d5a","resource":{"resourceType":"ServiceRequest","id":"b5a3c02a-72e5-46c9-a55f-b2d7e8ea9d5a","meta":{"profile":["http://hl7.org/fhir/us/qicore/StructureDefinition/qicore-servicerequest"]},"status":"active","intent":"order","code":{"coding":[{"system":"http://snomed.info/sct","version":"2023-09","code":"19951005","display":"Hospital admission, emergency, from emergency room, medical nature (procedure)","userSelected":true}]},"subject":{"reference":"Patient/8e43bc64-4242-494d-b47f-fdbbd3372bbe"},"authoredOn":"2026-01-01T19:58:00.000+00:00"},"request":{"method":"PUT","url":"ServiceRequest/b5a3c02a-72e5-46c9-a55f-b2d7e8ea9d5a"}},{"fullUrl":"https://madie.cms.gov/Location/1ad6dfb4-9c06-481a-b8d7-f2a5a5f466aa","resource":{"resourceType":"Location","id":"1ad6dfb4-9c06-481a-b8d7-f2a5a5f466aa","meta":{"profile":["http://hl7.org/fhir/us/qicore/StructureDefinition/qicore-location"]},"identifier":[{"use":"usual","system":"http://exampleoflocation.com","value":"B1-S.F2"}],"name":"Medical Surgical East, first floor","type":[{"coding":[{"system":"https://www.cdc.gov/nhsn/cdaportal/terminology/codesystem/hsloc.html","version":"2022","code":"1108-0","display":"Emergency Department","userSelected":true}]}]},"request":{"method":"PUT","url":"Location/1ad6dfb4-9c06-481a-b8d7-f2a5a5f466aa"}},{"fullUrl":"https://madie.cms.gov/Coverage/7a5ae0fe-ef7b-4728-8512-811d62263466","resource":{"resourceType":"Coverage","id":"7a5ae0fe-ef7b-4728-8512-811d62263466","meta":{"profile":["http://hl7.org/fhir/us/qicore/StructureDefinition/qicore-coverage"]},"status":"active","beneficiary":{"reference":"Patient/8e43bc64-4242-494d-b47f-fdbbd3372bbe"},"payor":[{"reference":"Organization/db141f66-a1cc-407b-9e95-adac27adee14"}]},"request":{"method":"PUT","url":"Coverage/7a5ae0fe-ef7b-4728-8512-811d62263466"}},{"fullUrl":"https://madie.cms.gov/Condition/fd0a625c-b850-4551-a471-11683eb1581c","resource":{"resourceType":"Condition","id":"fd0a625c-b850-4551-a471-11683eb1581c","meta":{"profile":["http://hl7.org/fhir/us/qicore/StructureDefinition/qicore-condition"]},"category":[{"coding":[{"system":"http://terminology.hl7.org/CodeSystem/condition-category","code":"encounter-diagnosis","display":"Encounter Diagnosis"}]}],"code":{"coding":[{"system":"http://snomed.info/sct","version":"2023-09","code":"10349009","display":"Multi-infarct dementia with delirium (disorder)","userSelected":true}]},"subject":{"reference":"Patient/8e43bc64-4242-494d-b47f-fdbbd3372bbe"},"recordedDate":"2026-04-09T08:00:00.000+00:00"},"request":{"method":"PUT","url":"Condition/fd0a625c-b850-4551-a471-11683eb1581c"}},{"fullUrl":"https://madie.cms.gov/Encounter/0b1f25c1-a695-4f42-93fc-05dec4c945d2","resource":{"resourceType":"Encounter","id":"0b1f25c1-a695-4f42-93fc-05dec4c945d2","meta":{"profile":["http://hl7.org/fhir/us/qicore/StructureDefinition/qicore-encounter"]},"status":"finished","class":{"system":"http://terminology.hl7.org/CodeSystem/v3-ActCode","code":"IMP","display":"inpatient"},"type":[{"coding":[{"system":"http://snomed.info/sct","version":"2023-09","code":"8715000","display":"Hospital admission, elective (procedure)","userSelected":true}]}],"subject":{"reference":"Patient/8e43bc64-4242-494d-b47f-fdbbd3372bbe"},"period":{"start":"2026-01-01T23:59:00.000+00:00","end":"2026-01-03T08:00:00.000+00:00"}},"request":{"method":"PUT","url":"Encounter/0b1f25c1-a695-4f42-93fc-05dec4c945d2"}},{"fullUrl":"https://madie.cms.gov/Organization/5938f401-0c96-4e13-b425-8432ada7363c","resource":{"resourceType":"Organization","id":"db141f66-a1cc-407b-9e95-adac27adee14","meta":{"profile":["http://hl7.org/fhir/us/qicore/StructureDefinition/qicore-organization"]},"identifier":[{"use":"temp","system":"urn:oid:2.16.840.1.113883.4.4","value":"21-3259825"}],"active":true,"type":[{"coding":[{"system":"http://terminology.hl7.org/CodeSystem/organization-type","code":"pay","display":"Payer"}]}],"name":"Blue Cross Blue Shield of Texas","telecom":[{"system":"phone","value":"(+1) 972-766-6900"}],"address":[{"use":"billing","type":"postal","line":["P.O. Box 660044"],"city":"Dallas","state":"TX","postalCode":"75266-0044","country":"USA"}]},"request":{"method":"PUT","url":"Organization/db141f66-a1cc-407b-9e95-adac27adee14"}},{"fullUrl":"https://madie.cms.gov/Practitioner/2f777de1-301f-4bca-a62b-7ef73936c682","resource":{"resourceType":"Practitioner","id":"2f777de1-301f-4bca-a62b-7ef73936c682","meta":{"profile":["http://hl7.org/fhir/us/qicore/StructureDefinition/qicore-practitioner"]},"identifier":[{"system":"http://hl7.org/fhir/sid/us-npi","value":"123456"}],"name":[{"family":"Evil","prefix":["Dr"]}]},"request":{"method":"PUT","url":"Practitioner/2f777de1-301f-4bca-a62b-7ef73936c682"}},{"fullUrl":"https://madie.cms.gov/MeasureReport/b3a36fd7-69ce-45d9-8da2-fb5605d63c33","resource":{"resourceType":"MeasureReport","id":"b3a36fd7-69ce-45d9-8da2-fb5605d63c33","meta":{"profile":["http://hl7.org/fhir/us/cqfmeasures/StructureDefinition/test-case-cqfm"]},"contained":[{"resourceType":"Parameters","id":"2d49f978-013a-4beb-acd0-5588759d65b9-parameters","parameter":[{"name":"subject","valueString":"8e43bc64-4242-494d-b47f-fdbbd3372bbe"}]}],"extension":[{"url":"http://hl7.org/fhir/us/cqfmeasures/StructureDefinition/cqfm-inputParameters","valueReference":{"reference":"#2d49f978-013a-4beb-acd0-5588759d65b9-parameters"}},{"url":"http://hl7.org/fhir/us/cqfmeasures/StructureDefinition/cqfm-testCaseDescription","valueMarkdown":"Child, age 17, ED enc, inpatient admit order same time as start of ED, boarded 241 minutes (time from decision to admit to departure)  boarded until last minute of day, mental illness"}],"modifierExtension":[{"url":"http://hl7.org/fhir/us/cqfmeasures/StructureDefinition/cqfm-isTestCase","valueBoolean":true}],"status":"complete","type":"individual","measure":"https://madie.cms.gov/Measure/CMS1244ECCQHOQRFHIR","period":{"start":"2026-01-01","end":"2026-12-31"},"group":[{"population":[{"code":{"coding":[{"system":"http://terminology.hl7.org/CodeSystem/measure-population","code":"initial-population","display":"Initial Population"}]},"count":1},{"code":{"coding":[{"system":"http://terminology.hl7.org/CodeSystem/measure-population","code":"denominator","display":"Denominator"}]},"count":1},{"code":{"coding":[{"system":"http://terminology.hl7.org/CodeSystem/measure-population","code":"numerator","display":"Numerator"}]},"count":1}]}]},"request":{"method":"PUT","url":"MeasureReport/b3a36fd7-69ce-45d9-8da2-fb5605d63c33"}}]}