{"resourceType":"Bundle","id":"tests-7dd19e80-23c6-4e31-86a9-bb833cfc676b-bundle","type":"transaction","entry":[{"fullUrl":"https://madie.cms.gov/Patient/7dd19e80-23c6-4e31-86a9-bb833cfc676b","resource":{"resourceType":"Patient","id":"7dd19e80-23c6-4e31-86a9-bb833cfc676b","meta":{"profile":["http://hl7.org/fhir/us/qicore/StructureDefinition/qicore-patient"]},"extension":[{"url":"http://hl7.org/fhir/us/core/StructureDefinition/us-core-race","extension":[{"url":"ombCategory","valueCoding":{"system":"urn:oid:2.16.840.1.113883.6.238","code":"1002-5","display":"American Indian or Alaska Native","userSelected":true}},{"url":"text","valueString":"American Indian or Alaska Native"}]},{"url":"http://hl7.org/fhir/us/core/StructureDefinition/us-core-ethnicity","extension":[{"url":"ombCategory","valueCoding":{"system":"urn:oid:2.16.840.1.113883.6.238","code":"2135-2","display":"Hispanic or Latino","userSelected":true}},{"url":"text","valueString":"Hispanic or Latino"}]}],"identifier":[{"type":{"coding":[{"system":"http://terminology.hl7.org/CodeSystem/v2-0203","code":"MR"}]},"system":"https://bonnie-fhir.healthit.gov/","value":"661476b015ed5841a5547ebf"}],"name":[{"family":"NUMERStrat2Fail","given":["EDLOS480Minutes"]}],"gender":"male","birthDate":"2008-01-01"},"request":{"method":"PUT","url":"Patient/7dd19e80-23c6-4e31-86a9-bb833cfc676b"}},{"fullUrl":"https://madie.cms.gov/Encounter/7af208c9-fce3-4e75-ad57-c63d947d0ef1","resource":{"resourceType":"Encounter","id":"7af208c9-fce3-4e75-ad57-c63d947d0ef1","meta":{"profile":["http://hl7.org/fhir/us/qicore/StructureDefinition/qicore-encounter"]},"status":"finished","class":{"system":"http://terminology.hl7.org/CodeSystem/v3-ActCode","code":"EMER","display":"emergency department"},"type":[{"coding":[{"system":"http://snomed.info/sct","version":"2023-09","code":"4525004","display":"Emergency department patient visit (procedure)","userSelected":true}]}],"subject":{"reference":"Patient/7dd19e80-23c6-4e31-86a9-bb833cfc676b"},"period":{"start":"2026-01-01T06:00:00.000+00:00","end":"2026-01-01T14:01:00.000+00:00"},"diagnosis":[{"condition":{"reference":"Condition/af566dab-08cb-4cae-b473-c305483a69cb"},"use":{"coding":[{"system":"http://terminology.hl7.org/CodeSystem/diagnosis-role","code":"billing"}]},"rank":1}],"location":[{"location":{"reference":"Location/0cd4898f-8719-402d-ad13-b5bcc12345d3"},"period":{"start":"2026-01-01T06:00:00.000+00:00","end":"2026-01-01T14:00:00.000+00:00"}}]},"request":{"method":"PUT","url":"Encounter/7af208c9-fce3-4e75-ad57-c63d947d0ef1"}},{"fullUrl":"https://madie.cms.gov/Location/0cd4898f-8719-402d-ad13-b5bcc12345d3","resource":{"resourceType":"Location","id":"0cd4898f-8719-402d-ad13-b5bcc12345d3","meta":{"profile":["http://hl7.org/fhir/us/qicore/StructureDefinition/qicore-location"]},"identifier":[{"use":"usual","system":"http://exampleoflocation.com","value":"B1-S.F2"}],"name":"Medical Surgical East, first floor","type":[{"coding":[{"system":"https://www.cdc.gov/nhsn/cdaportal/terminology/codesystem/hsloc.html","version":"2022","code":"1108-0","display":"Emergency Department","userSelected":true}]}]},"request":{"method":"PUT","url":"Location/0cd4898f-8719-402d-ad13-b5bcc12345d3"}},{"fullUrl":"https://madie.cms.gov/Condition/af566dab-08cb-4cae-b473-c305483a69cb","resource":{"resourceType":"Condition","id":"af566dab-08cb-4cae-b473-c305483a69cb","meta":{"profile":["http://hl7.org/fhir/us/qicore/StructureDefinition/qicore-condition"]},"category":[{"coding":[{"system":"http://terminology.hl7.org/CodeSystem/condition-category","code":"encounter-diagnosis","display":"Encounter Diagnosis"}]}],"code":{"coding":[{"system":"http://snomed.info/sct","version":"2023-09","code":"10660471000119109","display":"Ulcer of left foot due to type 2 diabetes mellitus (disorder)","userSelected":true}]},"subject":{"reference":"Patient/7dd19e80-23c6-4e31-86a9-bb833cfc676b"},"recordedDate":"2026-01-01T08:00:00.000+00:00"},"request":{"method":"PUT","url":"Condition/af566dab-08cb-4cae-b473-c305483a69cb"}},{"fullUrl":"https://madie.cms.gov/Coverage/a9af7953-e643-4776-bbf2-c414f2bdc294","resource":{"resourceType":"Coverage","id":"a9af7953-e643-4776-bbf2-c414f2bdc294","meta":{"profile":["http://hl7.org/fhir/us/qicore/StructureDefinition/qicore-coverage"]},"status":"active","beneficiary":{"reference":"Patient/7dd19e80-23c6-4e31-86a9-bb833cfc676b"},"payor":[{"reference":"Organization/18ca435c-cae6-4c34-8033-af717477f9fc"}]},"request":{"method":"PUT","url":"Coverage/a9af7953-e643-4776-bbf2-c414f2bdc294"}},{"fullUrl":"https://madie.cms.gov/Organization/454fae70-b13b-45a3-b27e-9e6a70f39023","resource":{"resourceType":"Organization","id":"18ca435c-cae6-4c34-8033-af717477f9fc","meta":{"profile":["http://hl7.org/fhir/us/qicore/StructureDefinition/qicore-organization"]},"identifier":[{"use":"temp","system":"urn:oid:2.16.840.1.113883.4.4","value":"21-3259825"}],"active":true,"type":[{"coding":[{"system":"http://terminology.hl7.org/CodeSystem/organization-type","code":"pay","display":"Payer"}]}],"name":"Blue Cross Blue Shield of Texas","telecom":[{"system":"phone","value":"(+1) 972-766-6900"}],"address":[{"use":"billing","type":"postal","line":["P.O. Box 660044"],"city":"Dallas","state":"TX","postalCode":"75266-0044","country":"USA"}]},"request":{"method":"PUT","url":"Organization/18ca435c-cae6-4c34-8033-af717477f9fc"}},{"fullUrl":"https://madie.cms.gov/Practitioner/e96f4c7f-9b9f-4be4-a695-f3ff9b9e4392","resource":{"resourceType":"Practitioner","id":"e96f4c7f-9b9f-4be4-a695-f3ff9b9e4392","meta":{"profile":["http://hl7.org/fhir/us/qicore/StructureDefinition/qicore-practitioner"]},"identifier":[{"system":"http://hl7.org/fhir/sid/us-npi","value":"123456"}],"name":[{"family":"Evil","prefix":["Dr"]}]},"request":{"method":"PUT","url":"Practitioner/e96f4c7f-9b9f-4be4-a695-f3ff9b9e4392"}},{"fullUrl":"https://madie.cms.gov/MeasureReport/f3cce13a-3b21-4e9c-b664-507e04694f49","resource":{"resourceType":"MeasureReport","id":"f3cce13a-3b21-4e9c-b664-507e04694f49","meta":{"profile":["http://hl7.org/fhir/us/cqfmeasures/StructureDefinition/test-case-cqfm"]},"contained":[{"resourceType":"Parameters","id":"110764ef-0e45-4c9a-b30c-6e586359724f-parameters","parameter":[{"name":"subject","valueString":"7dd19e80-23c6-4e31-86a9-bb833cfc676b"}]}],"extension":[{"url":"http://hl7.org/fhir/us/cqfmeasures/StructureDefinition/cqfm-inputParameters","valueReference":{"reference":"#110764ef-0e45-4c9a-b30c-6e586359724f-parameters"}},{"url":"http://hl7.org/fhir/us/cqfmeasures/StructureDefinition/cqfm-testCaseDescription","valueMarkdown":"ED enc first day of MP lasting 481 minutes (start to end) but ED LOS 480 (arrival to departure)"}],"modifierExtension":[{"url":"http://hl7.org/fhir/us/cqfmeasures/StructureDefinition/cqfm-isTestCase","valueBoolean":true}],"status":"complete","type":"individual","measure":"https://madie.cms.gov/Measure/CMS1244ECCQHOQRFHIR","period":{"start":"2026-01-01","end":"2026-12-31"},"group":[{"population":[{"code":{"coding":[{"system":"http://terminology.hl7.org/CodeSystem/measure-population","code":"initial-population","display":"Initial Population"}]},"count":1},{"code":{"coding":[{"system":"http://terminology.hl7.org/CodeSystem/measure-population","code":"denominator","display":"Denominator"}]},"count":1},{"code":{"coding":[{"system":"http://terminology.hl7.org/CodeSystem/measure-population","code":"numerator","display":"Numerator"}]},"count":0}]}]},"request":{"method":"PUT","url":"MeasureReport/f3cce13a-3b21-4e9c-b664-507e04694f49"}}]}