{"resourceType":"Bundle","id":"tests-4c95d881-2e7e-4e81-bb4c-b1ae680ff286-bundle","type":"transaction","entry":[{"fullUrl":"https://madie.cms.gov/Patient/4c95d881-2e7e-4e81-bb4c-b1ae680ff286","resource":{"resourceType":"Patient","id":"4c95d881-2e7e-4e81-bb4c-b1ae680ff286","meta":{"profile":["http://hl7.org/fhir/us/qicore/StructureDefinition/qicore-patient"]},"extension":[{"url":"http://hl7.org/fhir/us/core/StructureDefinition/us-core-race","extension":[{"url":"ombCategory","valueCoding":{"system":"urn:oid:2.16.840.1.113883.6.238","code":"1002-5","display":"American Indian or Alaska Native","userSelected":true}},{"url":"text","valueString":"American Indian or Alaska Native"},{"url":"detailed","valueCoding":{"system":"urn:oid:2.16.840.1.113883.6.238","code":"1653-5","display":"Tohono O'Odham"}}]},{"url":"http://hl7.org/fhir/us/core/StructureDefinition/us-core-ethnicity","extension":[{"url":"ombCategory","valueCoding":{"system":"urn:oid:2.16.840.1.113883.6.238","code":"2186-5","display":"Not Hispanic or Latino","userSelected":true}},{"url":"text","valueString":"Not Hispanic or Latino"},{"url":"detailed","valueCoding":{"system":"urn:oid:2.16.840.1.113883.6.238","code":"2153-5","display":"Mexican American Indian"}}]}],"identifier":[{"type":{"coding":[{"system":"http://terminology.hl7.org/CodeSystem/v2-0203","code":"MR"}]},"system":"https://bonnie-fhir.healthit.gov/","value":"62aa60bdc4be4c506d4a534b"}],"name":[{"family":"NUMERStrat3Pass","given":["TimeToTx61Min"]}],"gender":"female","birthDate":"2010-12-31"},"request":{"method":"PUT","url":"Patient/4c95d881-2e7e-4e81-bb4c-b1ae680ff286"}},{"fullUrl":"https://madie.cms.gov/Encounter/fefec030-6174-4ce1-ab9e-fe8b4e7d1b4a","resource":{"resourceType":"Encounter","id":"fefec030-6174-4ce1-ab9e-fe8b4e7d1b4a","meta":{"profile":["http://hl7.org/fhir/us/qicore/StructureDefinition/qicore-encounter"]},"status":"finished","class":{"system":"http://terminology.hl7.org/CodeSystem/v3-ActCode","code":"EMER","display":"emergency"},"type":[{"coding":[{"system":"http://snomed.info/sct","version":"2023-09","code":"4525004","display":"Emergency department patient visit (procedure)","userSelected":true}]}],"subject":{"reference":"Patient/4c95d881-2e7e-4e81-bb4c-b1ae680ff286"},"period":{"start":"2026-01-01T08:00:00.000+00:00","end":"2026-01-01T12:15:00.000+00:00"},"diagnosis":[{"condition":{"reference":"Condition/6142cfc7-88ad-4dc0-9839-0a74890e3c62"},"use":{"coding":[{"system":"http://terminology.hl7.org/CodeSystem/diagnosis-role","code":"billing"}]},"rank":1}],"location":[{"location":{"reference":"Location/fb4447a5-5fdf-4a01-8d4e-78bc2ba2460c"},"period":{"start":"2026-01-01T07:45:00.000+00:00","end":"2026-01-01T12:15:00.000+00:00"}},{"location":{"reference":"Location/e73f4ba7-9325-41dc-addf-05f2acab2b25"},"period":{"start":"2026-01-01T09:01:00.000+00:00","end":"2026-01-01T12:15:00.000+00:00"}}]},"request":{"method":"PUT","url":"Encounter/fefec030-6174-4ce1-ab9e-fe8b4e7d1b4a"}},{"fullUrl":"https://madie.cms.gov/Location/fb4447a5-5fdf-4a01-8d4e-78bc2ba2460c","resource":{"resourceType":"Location","id":"fb4447a5-5fdf-4a01-8d4e-78bc2ba2460c","meta":{"profile":["http://hl7.org/fhir/us/qicore/StructureDefinition/qicore-location"]},"identifier":[{"use":"usual","system":"http://exampleoflocation.com","value":"B1-S.F1"}],"name":"Medical Surgical East, first floor","type":[{"coding":[{"system":"https://www.cdc.gov/nhsn/cdaportal/terminology/codesystem/hsloc.html","version":"2022","code":"1108-0","display":"Emergency Department","userSelected":true}]}]},"request":{"method":"PUT","url":"Location/fb4447a5-5fdf-4a01-8d4e-78bc2ba2460c"}},{"fullUrl":"https://madie.cms.gov/Location/e73f4ba7-9325-41dc-addf-05f2acab2b25","resource":{"resourceType":"Location","id":"e73f4ba7-9325-41dc-addf-05f2acab2b25","meta":{"profile":["http://hl7.org/fhir/us/qicore/StructureDefinition/qicore-location"]},"identifier":[{"use":"usual","system":"http://exampleoflocation.com","value":"B1-S.F2"}],"name":"Medical Surgical East, first floor","type":[{"coding":[{"system":"https://www.cdc.gov/nhsn/cdaportal/terminology/codesystem/hsloc.html","version":"2022","code":"1209-6","display":"Treatment Room","userSelected":true}]}]},"request":{"method":"PUT","url":"Location/e73f4ba7-9325-41dc-addf-05f2acab2b25"}},{"fullUrl":"https://madie.cms.gov/Condition/6142cfc7-88ad-4dc0-9839-0a74890e3c62","resource":{"resourceType":"Condition","id":"6142cfc7-88ad-4dc0-9839-0a74890e3c62","meta":{"profile":["http://hl7.org/fhir/us/qicore/StructureDefinition/qicore-condition"]},"category":[{"coding":[{"system":"http://terminology.hl7.org/CodeSystem/condition-category","code":"encounter-diagnosis","display":"Encounter Diagnosis"}]}],"code":{"coding":[{"system":"http://snomed.info/sct","version":"2023-09","code":"10349009","display":"Multi-infarct dementia with delirium (disorder)","userSelected":true}]},"subject":{"reference":"Patient/4c95d881-2e7e-4e81-bb4c-b1ae680ff286"},"recordedDate":"2026-04-09T08:00:00.000+00:00"},"request":{"method":"PUT","url":"Condition/6142cfc7-88ad-4dc0-9839-0a74890e3c62"}},{"fullUrl":"https://madie.cms.gov/Location/0cd25f42-286e-422a-9cde-db219dc70e9b","resource":{"resourceType":"Location","id":"0cd25f42-286e-422a-9cde-db219dc70e9b","meta":{"profile":["http://hl7.org/fhir/us/qicore/StructureDefinition/qicore-location"]},"identifier":[{"use":"usual","system":"http://exampleoflocation.com","value":"B1-S.F2"}],"name":"Medical Surgical East, first floor","type":[{"coding":[{"system":"https://www.cdc.gov/nhsn/cdaportal/terminology/codesystem/hsloc.html","version":"2022","code":"1108-0","display":"Emergency Department","userSelected":true}]}]},"request":{"method":"PUT","url":"Location/0cd25f42-286e-422a-9cde-db219dc70e9b"}},{"fullUrl":"https://madie.cms.gov/Location/59fd7125-f6dd-4c85-b39d-a3a13cf1200b","resource":{"resourceType":"Location","id":"59fd7125-f6dd-4c85-b39d-a3a13cf1200b","meta":{"profile":["http://hl7.org/fhir/us/qicore/StructureDefinition/qicore-location"]},"identifier":[{"use":"usual","system":"http://exampleoflocation.com","value":"B1-S.F2"}],"name":"Medical Surgical East, first floor","type":[{"coding":[{"system":"https://www.cdc.gov/nhsn/cdaportal/terminology/codesystem/hsloc.html","version":"2022","code":"1209-6","display":"Treatment Room"}]}]},"request":{"method":"PUT","url":"Location/59fd7125-f6dd-4c85-b39d-a3a13cf1200b"}},{"fullUrl":"https://madie.cms.gov/Coverage/2ebdda92-443b-4e08-8fb5-f1dc3f7a35b8","resource":{"resourceType":"Coverage","id":"2ebdda92-443b-4e08-8fb5-f1dc3f7a35b8","meta":{"profile":["http://hl7.org/fhir/us/qicore/StructureDefinition/qicore-coverage"]},"status":"active","type":{"coding":[{"system":"https://nahdo.org/sopt","code":"1","display":"MEDICARE"}]},"beneficiary":{"reference":"Patient/4c95d881-2e7e-4e81-bb4c-b1ae680ff286"},"period":{"start":"2023-12-31T00:00:00+00:00"},"payor":[{"reference":"Organization/5ad6ea38-07e9-4482-9e1b-c09eee595be9"}]},"request":{"method":"PUT","url":"Coverage/2ebdda92-443b-4e08-8fb5-f1dc3f7a35b8"}},{"fullUrl":"https://madie.cms.gov/Organization/e130ea4d-6878-4ef3-9c44-0bd6f8a60a30","resource":{"resourceType":"Organization","id":"5ad6ea38-07e9-4482-9e1b-c09eee595be9","meta":{"profile":["http://hl7.org/fhir/us/qicore/StructureDefinition/qicore-organization"]},"identifier":[{"use":"temp","system":"urn:oid:2.16.840.1.113883.4.4","value":"21-3259825"}],"active":true,"type":[{"coding":[{"system":"http://terminology.hl7.org/CodeSystem/organization-type","code":"pay","display":"Payer"}]}],"name":"Blue Cross Blue Shield of Texas","telecom":[{"system":"phone","value":"(+1) 972-766-6900"}],"address":[{"use":"billing","type":"postal","line":["P.O. Box 660044"],"city":"Dallas","state":"TX","postalCode":"75266-0044","country":"USA"}]},"request":{"method":"PUT","url":"Organization/5ad6ea38-07e9-4482-9e1b-c09eee595be9"}},{"fullUrl":"https://madie.cms.gov/Practitioner/0a65111e-6e42-4713-9108-052fd0f5d12f","resource":{"resourceType":"Practitioner","id":"0a65111e-6e42-4713-9108-052fd0f5d12f","meta":{"profile":["http://hl7.org/fhir/us/qicore/StructureDefinition/qicore-practitioner"]},"identifier":[{"system":"http://hl7.org/fhir/sid/us-npi","value":"123456"}],"name":[{"family":"Evil","prefix":["Dr"]}]},"request":{"method":"PUT","url":"Practitioner/0a65111e-6e42-4713-9108-052fd0f5d12f"}},{"fullUrl":"https://madie.cms.gov/MeasureReport/ca2274d4-4ad1-44b9-a9b3-7f1f976544e6","resource":{"resourceType":"MeasureReport","id":"ca2274d4-4ad1-44b9-a9b3-7f1f976544e6","meta":{"profile":["http://hl7.org/fhir/us/cqfmeasures/StructureDefinition/test-case-cqfm"]},"contained":[{"resourceType":"Parameters","id":"6f4d2188-9489-490b-bdb7-57883fb4c026-parameters","parameter":[{"name":"subject","valueString":"4c95d881-2e7e-4e81-bb4c-b1ae680ff286"}]}],"extension":[{"url":"http://hl7.org/fhir/us/cqfmeasures/StructureDefinition/cqfm-inputParameters","valueReference":{"reference":"#6f4d2188-9489-490b-bdb7-57883fb4c026-parameters"}},{"url":"http://hl7.org/fhir/us/cqfmeasures/StructureDefinition/cqfm-testCaseDescription","valueMarkdown":"Child, age 17 Encounter  end first day of MP, time to treatment 61 minutes  has  mental illness"}],"modifierExtension":[{"url":"http://hl7.org/fhir/us/cqfmeasures/StructureDefinition/cqfm-isTestCase","valueBoolean":true}],"status":"complete","type":"individual","measure":"https://madie.cms.gov/Measure/CMS1244ECCQHOQRFHIR","period":{"start":"2026-01-01","end":"2026-12-31"},"group":[{"population":[{"code":{"coding":[{"system":"http://terminology.hl7.org/CodeSystem/measure-population","code":"initial-population","display":"Initial Population"}]},"count":1},{"code":{"coding":[{"system":"http://terminology.hl7.org/CodeSystem/measure-population","code":"denominator","display":"Denominator"}]},"count":1},{"code":{"coding":[{"system":"http://terminology.hl7.org/CodeSystem/measure-population","code":"numerator","display":"Numerator"}]},"count":1}]}]},"request":{"method":"PUT","url":"MeasureReport/ca2274d4-4ad1-44b9-a9b3-7f1f976544e6"}}]}