{"resourceType":"Bundle","id":"tests-16f81b70-aabb-4ef8-9f5c-5c484aa1fa40-bundle","type":"transaction","entry":[{"fullUrl":"https://madie.cms.gov/Patient/16f81b70-aabb-4ef8-9f5c-5c484aa1fa40","resource":{"resourceType":"Patient","id":"16f81b70-aabb-4ef8-9f5c-5c484aa1fa40","meta":{"profile":["http://hl7.org/fhir/us/qicore/StructureDefinition/qicore-patient"]},"extension":[{"url":"http://hl7.org/fhir/us/core/StructureDefinition/us-core-race","extension":[{"url":"ombCategory","valueCoding":{"system":"urn:oid:2.16.840.1.113883.6.238","code":"1002-5","display":"American Indian or Alaska Native","userSelected":true}},{"url":"text","valueString":"American Indian or Alaska Native"}]},{"url":"http://hl7.org/fhir/us/core/StructureDefinition/us-core-ethnicity","extension":[{"url":"ombCategory","valueCoding":{"system":"urn:oid:2.16.840.1.113883.6.238","code":"2135-2","display":"Hispanic or Latino","userSelected":true}},{"url":"text","valueString":"Hispanic or Latino"}]}],"identifier":[{"type":{"coding":[{"system":"http://terminology.hl7.org/CodeSystem/v2-0203","code":"MR"}]},"system":"https://bonnie-fhir.healthit.gov/","value":"6617e30316793f5a4fae16fe"}],"name":[{"family":"NUMERStrat3Pass","given":["DecisionToAdmitAssessment"]}],"gender":"male","birthDate":"2008-01-01"},"request":{"method":"PUT","url":"Patient/16f81b70-aabb-4ef8-9f5c-5c484aa1fa40"}},{"fullUrl":"https://madie.cms.gov/Encounter/89b4c5d1-a578-4295-9ba2-ca58045ee911","resource":{"resourceType":"Encounter","id":"89b4c5d1-a578-4295-9ba2-ca58045ee911","meta":{"profile":["http://hl7.org/fhir/us/qicore/StructureDefinition/qicore-encounter"]},"status":"finished","class":{"system":"http://terminology.hl7.org/CodeSystem/v3-ActCode","code":"EMER","display":"emergency"},"type":[{"coding":[{"system":"http://snomed.info/sct","version":"2023-09","code":"4525004","display":"Emergency department patient visit (procedure)","userSelected":true}]}],"subject":{"reference":"Patient/16f81b70-aabb-4ef8-9f5c-5c484aa1fa40"},"period":{"start":"2026-01-01T00:00:00.000+00:00","end":"2026-01-01T06:00:00.000+00:00"},"diagnosis":[{"condition":{"reference":"Condition/997c5e68-13f0-41a5-8d16-36c2fb4c876f"},"use":{"coding":[{"system":"http://terminology.hl7.org/CodeSystem/diagnosis-role","code":"billing"}]},"rank":1}],"location":[{"location":{"reference":"Location/88f0982f-131f-4d47-8390-ebf0dd5029ed"},"period":{"start":"2026-01-01T00:00:00.000+00:00","end":"2026-01-01T06:01:00.000+00:00"}}]},"request":{"method":"PUT","url":"Encounter/89b4c5d1-a578-4295-9ba2-ca58045ee911"}},{"fullUrl":"https://madie.cms.gov/Encounter/997c1ec2-6dde-4134-9711-05449280a421","resource":{"resourceType":"Encounter","id":"997c1ec2-6dde-4134-9711-05449280a421","meta":{"profile":["http://hl7.org/fhir/us/qicore/StructureDefinition/qicore-encounter"]},"status":"finished","class":{"system":"http://terminology.hl7.org/CodeSystem/v3-ActCode","code":"IMP","display":"inpatient"},"type":[{"coding":[{"system":"http://snomed.info/sct","version":"2023-09","code":"183452005","display":"Emergency hospital admission (procedure)","userSelected":true}]}],"subject":{"reference":"Patient/16f81b70-aabb-4ef8-9f5c-5c484aa1fa40"},"period":{"start":"2026-01-01T06:00:00.000+00:00","end":"2026-01-03T06:15:00.000+00:00"}},"request":{"method":"PUT","url":"Encounter/997c1ec2-6dde-4134-9711-05449280a421"}},{"fullUrl":"https://madie.cms.gov/Location/88f0982f-131f-4d47-8390-ebf0dd5029ed","resource":{"resourceType":"Location","id":"88f0982f-131f-4d47-8390-ebf0dd5029ed","meta":{"profile":["http://hl7.org/fhir/us/qicore/StructureDefinition/qicore-location"]},"identifier":[{"use":"usual","system":"http://exampleoflocation.com","value":"B1-S.F2"}],"name":"Local ED","type":[{"coding":[{"system":"https://www.cdc.gov/nhsn/cdaportal/terminology/codesystem/hsloc.html","version":"2022","code":"1108-0","display":"Emergency Department","userSelected":true}]}]},"request":{"method":"PUT","url":"Location/88f0982f-131f-4d47-8390-ebf0dd5029ed"}},{"fullUrl":"https://madie.cms.gov/Observation/02c1ef98-2c6f-463d-a7de-cf6c9f84cd2c","resource":{"resourceType":"Observation","id":"02c1ef98-2c6f-463d-a7de-cf6c9f84cd2c","meta":{"profile":["http://hl7.org/fhir/us/qicore/StructureDefinition/qicore-observation"]},"status":"final","category":[{"coding":[{"system":"http://terminology.hl7.org/CodeSystem/observation-category","code":"survey","display":"Survey"}]}],"code":{"coding":[{"system":"http://loinc.org","version":"2.76","code":"28568-4","display":"Physician Emergency department Note","userSelected":true}]},"subject":{"reference":"Patient/16f81b70-aabb-4ef8-9f5c-5c484aa1fa40"},"effectiveDateTime":"2026-01-01T01:00:00.000+00:00","valueCodeableConcept":{"coding":[{"system":"http://snomed.info/sct","code":"434081000124108","display":"Patient requires hospitalization (finding)","userSelected":true}]}},"request":{"method":"PUT","url":"Observation/02c1ef98-2c6f-463d-a7de-cf6c9f84cd2c"}},{"fullUrl":"https://madie.cms.gov/Condition/997c5e68-13f0-41a5-8d16-36c2fb4c876f","resource":{"resourceType":"Condition","id":"997c5e68-13f0-41a5-8d16-36c2fb4c876f","meta":{"profile":["http://hl7.org/fhir/us/qicore/StructureDefinition/qicore-condition"]},"category":[{"coding":[{"system":"http://terminology.hl7.org/CodeSystem/condition-category","code":"encounter-diagnosis","display":"Encounter Diagnosis"}]}],"code":{"coding":[{"system":"http://snomed.info/sct","version":"2023-09","code":"10349009","display":"Multi-infarct dementia with delirium (disorder)","userSelected":true}]},"subject":{"reference":"Patient/16f81b70-aabb-4ef8-9f5c-5c484aa1fa40"},"recordedDate":"2025-04-18T08:00:00.000+00:00"},"request":{"method":"PUT","url":"Condition/997c5e68-13f0-41a5-8d16-36c2fb4c876f"}},{"fullUrl":"https://madie.cms.gov/Coverage/1e4f969d-b28a-4bfc-b9f0-fe3ded5d8b73","resource":{"resourceType":"Coverage","id":"1e4f969d-b28a-4bfc-b9f0-fe3ded5d8b73","meta":{"profile":["http://hl7.org/fhir/us/qicore/StructureDefinition/qicore-coverage"]},"status":"active","beneficiary":{"reference":"Patient/16f81b70-aabb-4ef8-9f5c-5c484aa1fa40"},"payor":[{"reference":"Organization/db141f66-a1cc-407b-9e95-adac27adee14"}]},"request":{"method":"PUT","url":"Coverage/1e4f969d-b28a-4bfc-b9f0-fe3ded5d8b73"}},{"fullUrl":"https://madie.cms.gov/Organization/fd9d748d-4075-49a8-8d15-e94f0759a8d5","resource":{"resourceType":"Organization","id":"db141f66-a1cc-407b-9e95-adac27adee14","meta":{"profile":["http://hl7.org/fhir/us/qicore/StructureDefinition/qicore-organization"]},"identifier":[{"use":"temp","system":"urn:oid:2.16.840.1.113883.4.4","value":"21-3259825"}],"active":true,"type":[{"coding":[{"system":"http://terminology.hl7.org/CodeSystem/organization-type","code":"pay","display":"Payer"}]}],"name":"Blue Cross Blue Shield of Texas","telecom":[{"system":"phone","value":"(+1) 972-766-6900"}],"address":[{"use":"billing","type":"postal","line":["P.O. Box 660044"],"city":"Dallas","state":"TX","postalCode":"75266-0044","country":"USA"}]},"request":{"method":"PUT","url":"Organization/db141f66-a1cc-407b-9e95-adac27adee14"}},{"fullUrl":"https://madie.cms.gov/Practitioner/afc3cc85-a738-417b-b5f8-afd551fc779b","resource":{"resourceType":"Practitioner","id":"afc3cc85-a738-417b-b5f8-afd551fc779b","meta":{"profile":["http://hl7.org/fhir/us/qicore/StructureDefinition/qicore-practitioner"]},"identifier":[{"system":"http://hl7.org/fhir/sid/us-npi","value":"123456"}],"name":[{"family":"Evil","prefix":["Dr"]}]},"request":{"method":"PUT","url":"Practitioner/afc3cc85-a738-417b-b5f8-afd551fc779b"}},{"fullUrl":"https://madie.cms.gov/MeasureReport/53335805-b75f-485e-962a-03088b2bd087","resource":{"resourceType":"MeasureReport","id":"53335805-b75f-485e-962a-03088b2bd087","meta":{"profile":["http://hl7.org/fhir/us/cqfmeasures/StructureDefinition/test-case-cqfm"]},"contained":[{"resourceType":"Parameters","id":"86a5be23-598d-4fd4-8a9e-b4b3392f2815-parameters","parameter":[{"name":"subject","valueString":"16f81b70-aabb-4ef8-9f5c-5c484aa1fa40"}]}],"extension":[{"url":"http://hl7.org/fhir/us/cqfmeasures/StructureDefinition/cqfm-inputParameters","valueReference":{"reference":"#86a5be23-598d-4fd4-8a9e-b4b3392f2815-parameters"}},{"url":"http://hl7.org/fhir/us/cqfmeasures/StructureDefinition/cqfm-testCaseDescription","valueMarkdown":"Enc 1st day of MP, dementia dx and diabetic foot ulcer, arrived at midnight of 01/01, 241 minutes decision to admit and departure"}],"modifierExtension":[{"url":"http://hl7.org/fhir/us/cqfmeasures/StructureDefinition/cqfm-isTestCase","valueBoolean":true}],"status":"complete","type":"individual","measure":"https://madie.cms.gov/Measure/CMS1244ECCQHOQRFHIR","period":{"start":"2026-01-01","end":"2026-12-31"},"group":[{"population":[{"code":{"coding":[{"system":"http://terminology.hl7.org/CodeSystem/measure-population","code":"initial-population","display":"Initial Population"}]},"count":1},{"code":{"coding":[{"system":"http://terminology.hl7.org/CodeSystem/measure-population","code":"denominator","display":"Denominator"}]},"count":1},{"code":{"coding":[{"system":"http://terminology.hl7.org/CodeSystem/measure-population","code":"numerator","display":"Numerator"}]},"count":1}]}]},"request":{"method":"PUT","url":"MeasureReport/53335805-b75f-485e-962a-03088b2bd087"}}]}