{"resourceType":"Bundle","id":"tests-11703274-1218-440d-bb98-08502a794179-bundle","type":"transaction","entry":[{"fullUrl":"https://madie.cms.gov/Patient/11703274-1218-440d-bb98-08502a794179","resource":{"resourceType":"Patient","id":"11703274-1218-440d-bb98-08502a794179","meta":{"profile":["http://hl7.org/fhir/us/qicore/StructureDefinition/qicore-patient"]},"extension":[{"url":"http://hl7.org/fhir/us/core/StructureDefinition/us-core-race","extension":[{"url":"ombCategory","valueCoding":{"system":"urn:oid:2.16.840.1.113883.6.238","code":"1002-5","display":"American Indian or Alaska Native","userSelected":true}},{"url":"text","valueString":"American Indian or Alaska Native"}]},{"url":"http://hl7.org/fhir/us/core/StructureDefinition/us-core-ethnicity","extension":[{"url":"ombCategory","valueCoding":{"system":"urn:oid:2.16.840.1.113883.6.238","code":"2135-2","display":"Hispanic or Latino","userSelected":true}},{"url":"text","valueString":"Hispanic or Latino"}]}],"identifier":[{"type":{"coding":[{"system":"http://terminology.hl7.org/CodeSystem/v2-0203","code":"MR"}]},"system":"https://bonnie-fhir.healthit.gov/","value":"6617e30316793f5a4fae16fe"}],"name":[{"family":"NUMERStrat2Pass","given":["BedAssigment"]}],"gender":"male","birthDate":"2008-01-01"},"request":{"method":"PUT","url":"Patient/11703274-1218-440d-bb98-08502a794179"}},{"fullUrl":"https://madie.cms.gov/Encounter/7fc6f2d5-a267-48ba-8c6d-f22ecb53d505","resource":{"resourceType":"Encounter","id":"7fc6f2d5-a267-48ba-8c6d-f22ecb53d505","meta":{"profile":["http://hl7.org/fhir/us/qicore/StructureDefinition/qicore-encounter"]},"status":"finished","class":{"system":"http://terminology.hl7.org/CodeSystem/v3-ActCode","code":"AMB","display":"ambulatory"},"type":[{"coding":[{"system":"http://snomed.info/sct","version":"2023-09","code":"4525004","display":"Emergency department patient visit (procedure)","userSelected":true}]}],"subject":{"reference":"Patient/11703274-1218-440d-bb98-08502a794179"},"period":{"start":"2026-01-01T00:00:00.000+00:00","end":"2026-01-01T04:00:00.000+00:00"},"diagnosis":[{"condition":{"reference":"Condition/293497e7-765d-4298-afcc-32c058567f48"},"use":{"coding":[{"system":"http://terminology.hl7.org/CodeSystem/diagnosis-role","code":"billing"}]},"rank":1}],"location":[{"location":{"reference":"Location/a4d1b47f-71da-4117-90b6-14e06c027aee"},"period":{"start":"2026-01-01T00:00:00.000+00:00","end":"2026-01-01T05:01:00.000+00:00"}}]},"request":{"method":"PUT","url":"Encounter/7fc6f2d5-a267-48ba-8c6d-f22ecb53d505"}},{"fullUrl":"https://madie.cms.gov/Location/a4d1b47f-71da-4117-90b6-14e06c027aee","resource":{"resourceType":"Location","id":"a4d1b47f-71da-4117-90b6-14e06c027aee","meta":{"profile":["http://hl7.org/fhir/us/qicore/StructureDefinition/qicore-location"]},"identifier":[{"use":"usual","system":"http://exampleoflocation.com","value":"B1-S.F2"}],"name":"Medical Surgical East, first floor","type":[{"coding":[{"system":"https://www.cdc.gov/nhsn/cdaportal/terminology/codesystem/hsloc.html","version":"2022","code":"1108-0","display":"Emergency Department","userSelected":true}]}]},"request":{"method":"PUT","url":"Location/a4d1b47f-71da-4117-90b6-14e06c027aee"}},{"fullUrl":"https://madie.cms.gov/ServiceRequest/fd72752b-ce91-40b4-993e-78c7944aa194","resource":{"resourceType":"ServiceRequest","id":"fd72752b-ce91-40b4-993e-78c7944aa194","meta":{"profile":["http://hl7.org/fhir/us/qicore/StructureDefinition/qicore-servicerequest"]},"status":"active","intent":"order","code":{"coding":[{"system":"http://snomed.info/sct","code":"5751000175101","display":"Patient bed assigned (finding)","userSelected":true}]},"subject":{"reference":"Patient/11703274-1218-440d-bb98-08502a794179"},"authoredOn":"2026-01-01T01:00:00.000+00:00"},"request":{"method":"PUT","url":"ServiceRequest/fd72752b-ce91-40b4-993e-78c7944aa194"}},{"fullUrl":"https://madie.cms.gov/Condition/293497e7-765d-4298-afcc-32c058567f48","resource":{"resourceType":"Condition","id":"293497e7-765d-4298-afcc-32c058567f48","meta":{"profile":["http://hl7.org/fhir/us/qicore/StructureDefinition/qicore-condition"]},"category":[{"coding":[{"system":"http://terminology.hl7.org/CodeSystem/condition-category","code":"encounter-diagnosis","display":"Encounter Diagnosis"}]}],"code":{"coding":[{"system":"http://snomed.info/sct","version":"2023-09","code":"10660471000119109","display":"Ulcer of left foot due to type 2 diabetes mellitus (disorder)","userSelected":true}]},"subject":{"reference":"Patient/11703274-1218-440d-bb98-08502a794179"},"recordedDate":"2026-01-01T08:00:00.000+00:00"},"request":{"method":"PUT","url":"Condition/293497e7-765d-4298-afcc-32c058567f48"}},{"fullUrl":"https://madie.cms.gov/ServiceRequest/4d72281f-e35a-4a9f-b791-a60f34e4f2dd","resource":{"resourceType":"ServiceRequest","id":"4d72281f-e35a-4a9f-b791-a60f34e4f2dd","meta":{"profile":["http://hl7.org/fhir/us/qicore/StructureDefinition/qicore-servicerequest"]},"status":"active","intent":"order","code":{"coding":[{"system":"http://snomed.info/sct","version":"2023-09","code":"183452005","display":"Emergency hospital admission (procedure)","userSelected":true}]},"subject":{"reference":"Patient/11703274-1218-440d-bb98-08502a794179"},"authoredOn":"2026-01-01T01:00:00.000+00:00"},"request":{"method":"PUT","url":"ServiceRequest/4d72281f-e35a-4a9f-b791-a60f34e4f2dd"}},{"fullUrl":"https://madie.cms.gov/Coverage/fbe4059e-9d58-4fc6-aa63-cde763f6009b","resource":{"resourceType":"Coverage","id":"fbe4059e-9d58-4fc6-aa63-cde763f6009b","meta":{"profile":["http://hl7.org/fhir/us/qicore/StructureDefinition/qicore-coverage"]},"status":"active","beneficiary":{"reference":"Patient/11703274-1218-440d-bb98-08502a794179"},"payor":[{"reference":"Organization/607fdef9-3983-4cef-ab1a-95434d29b463"}]},"request":{"method":"PUT","url":"Coverage/fbe4059e-9d58-4fc6-aa63-cde763f6009b"}},{"fullUrl":"https://madie.cms.gov/Encounter/91e205a7-9d89-4169-86b0-065677dfac53","resource":{"resourceType":"Encounter","id":"91e205a7-9d89-4169-86b0-065677dfac53","meta":{"profile":["http://hl7.org/fhir/us/qicore/StructureDefinition/qicore-encounter"]},"status":"finished","class":{"system":"http://terminology.hl7.org/CodeSystem/v3-ActCode","code":"IMP","display":"inpatient encounter"},"type":[{"coding":[{"system":"http://snomed.info/sct","version":"2023-09","code":"183452005","display":"Emergency hospital admission (procedure)","userSelected":true}]}],"subject":{"reference":"Patient/11703274-1218-440d-bb98-08502a794179"},"period":{"start":"2026-01-01T05:00:00.000+00:00","end":"2026-01-03T06:15:00.000+00:00"}},"request":{"method":"PUT","url":"Encounter/91e205a7-9d89-4169-86b0-065677dfac53"}},{"fullUrl":"https://madie.cms.gov/Organization/21d38a93-2b7c-4a08-8f08-124088720d78","resource":{"resourceType":"Organization","id":"607fdef9-3983-4cef-ab1a-95434d29b463","meta":{"profile":["http://hl7.org/fhir/us/qicore/StructureDefinition/qicore-organization"]},"identifier":[{"use":"temp","system":"urn:oid:2.16.840.1.113883.4.4","value":"21-3259825"}],"active":true,"type":[{"coding":[{"system":"http://terminology.hl7.org/CodeSystem/organization-type","code":"pay","display":"Payer"}]}],"name":"Blue Cross Blue Shield of Texas","telecom":[{"system":"phone","value":"(+1) 972-766-6900"}],"address":[{"use":"billing","type":"postal","line":["P.O. Box 660044"],"city":"Dallas","state":"TX","postalCode":"75266-0044","country":"USA"}]},"request":{"method":"PUT","url":"Organization/607fdef9-3983-4cef-ab1a-95434d29b463"}},{"fullUrl":"https://madie.cms.gov/Practitioner/5d9591c9-c881-468e-9551-b132de8f2bdd","resource":{"resourceType":"Practitioner","id":"5d9591c9-c881-468e-9551-b132de8f2bdd","meta":{"profile":["http://hl7.org/fhir/us/qicore/StructureDefinition/qicore-practitioner"]},"identifier":[{"system":"http://hl7.org/fhir/sid/us-npi","value":"123456"}],"name":[{"family":"Evil","prefix":["Dr"]}]},"request":{"method":"PUT","url":"Practitioner/5d9591c9-c881-468e-9551-b132de8f2bdd"}},{"fullUrl":"https://madie.cms.gov/MeasureReport/aacabeab-4536-4b33-a5b0-9b288865b3b0","resource":{"resourceType":"MeasureReport","id":"aacabeab-4536-4b33-a5b0-9b288865b3b0","meta":{"profile":["http://hl7.org/fhir/us/cqfmeasures/StructureDefinition/test-case-cqfm"]},"contained":[{"resourceType":"Parameters","id":"57c9c0e7-3639-4ac5-8749-a239a7f042e5-parameters","parameter":[{"name":"subject","valueString":"11703274-1218-440d-bb98-08502a794179"}]}],"extension":[{"url":"http://hl7.org/fhir/us/cqfmeasures/StructureDefinition/cqfm-inputParameters","valueReference":{"reference":"#57c9c0e7-3639-4ac5-8749-a239a7f042e5-parameters"}},{"url":"http://hl7.org/fhir/us/cqfmeasures/StructureDefinition/cqfm-testCaseDescription","valueMarkdown":"Adult, age 18 ED first minute of MP,  bed assignment 241 mins before ED departure without psych "}],"modifierExtension":[{"url":"http://hl7.org/fhir/us/cqfmeasures/StructureDefinition/cqfm-isTestCase","valueBoolean":true}],"status":"complete","type":"individual","measure":"https://madie.cms.gov/Measure/CMS1244ECCQHOQRFHIR","period":{"start":"2026-01-01","end":"2026-12-31"},"group":[{"population":[{"code":{"coding":[{"system":"http://terminology.hl7.org/CodeSystem/measure-population","code":"initial-population","display":"Initial Population"}]},"count":1},{"code":{"coding":[{"system":"http://terminology.hl7.org/CodeSystem/measure-population","code":"denominator","display":"Denominator"}]},"count":1},{"code":{"coding":[{"system":"http://terminology.hl7.org/CodeSystem/measure-population","code":"numerator","display":"Numerator"}]},"count":1}]}]},"request":{"method":"PUT","url":"MeasureReport/aacabeab-4536-4b33-a5b0-9b288865b3b0"}}]}