{"resourceType":"Bundle","id":"tests-8f5243aa-b111-4019-b5d0-d6889315af38-bundle","type":"transaction","entry":[{"fullUrl":"https://madie.cms.gov/Patient/8f5243aa-b111-4019-b5d0-d6889315af38","resource":{"resourceType":"Patient","id":"8f5243aa-b111-4019-b5d0-d6889315af38","meta":{"profile":["http://hl7.org/fhir/us/qicore/StructureDefinition/qicore-patient"]},"extension":[{"url":"http://hl7.org/fhir/us/core/StructureDefinition/us-core-race","extension":[{"url":"ombCategory","valueCoding":{"system":"urn:oid:2.16.840.1.113883.6.238","code":"1002-5","display":"American Indian or Alaska Native","userSelected":true}},{"url":"text","valueString":"American Indian or Alaska Native"}]},{"url":"http://hl7.org/fhir/us/core/StructureDefinition/us-core-ethnicity","extension":[{"url":"ombCategory","valueCoding":{"system":"urn:oid:2.16.840.1.113883.6.238","code":"2135-2","display":"Hispanic or Latino","userSelected":true}},{"url":"text","valueString":"Hispanic or Latino"}]}],"identifier":[{"type":{"coding":[{"system":"http://terminology.hl7.org/CodeSystem/v2-0203","code":"MR"}]},"system":"https://bonnie-fhir.healthit.gov/","value":"6617e30316793f5a4fae16fe"}],"name":[{"family":"NUMERStrat2Pass","given":["DecisionToAdmitAssessment"]}],"gender":"male","birthDate":"2008-01-01"},"request":{"method":"PUT","url":"Patient/8f5243aa-b111-4019-b5d0-d6889315af38"}},{"fullUrl":"https://madie.cms.gov/Encounter/09f4ba9f-e3ee-45cb-ad30-9303629d9ffb","resource":{"resourceType":"Encounter","id":"09f4ba9f-e3ee-45cb-ad30-9303629d9ffb","meta":{"profile":["http://hl7.org/fhir/us/qicore/StructureDefinition/qicore-encounter"]},"status":"finished","class":{"system":"http://terminology.hl7.org/CodeSystem/v3-ActCode","code":"EMER","display":"emergency"},"type":[{"coding":[{"system":"http://snomed.info/sct","version":"2023-09","code":"4525004","display":"Emergency department patient visit (procedure)","userSelected":true}]}],"subject":{"reference":"Patient/8f5243aa-b111-4019-b5d0-d6889315af38"},"period":{"start":"2026-01-01T00:00:00.000+00:00","end":"2026-01-01T06:00:00.000+00:00"},"diagnosis":[{"condition":{"reference":"Condition/behavioral-health-diagnosis-without-substance-use-disorders-9d16"},"use":{"coding":[{"system":"http://terminology.hl7.org/CodeSystem/diagnosis-role","code":"billing"}]},"rank":1}],"location":[{"location":{"reference":"Location/2a6b1e51-d509-465d-bb71-18c661145b59"},"period":{"start":"2026-01-01T00:00:00.000+00:00","end":"2026-01-01T06:01:00.000+00:00"}}]},"request":{"method":"PUT","url":"Encounter/09f4ba9f-e3ee-45cb-ad30-9303629d9ffb"}},{"fullUrl":"https://madie.cms.gov/Encounter/d43fa245-6ade-416a-abaa-35349b9d1148","resource":{"resourceType":"Encounter","id":"d43fa245-6ade-416a-abaa-35349b9d1148","meta":{"profile":["http://hl7.org/fhir/us/qicore/StructureDefinition/qicore-encounter"]},"status":"finished","class":{"system":"http://terminology.hl7.org/CodeSystem/v3-ActCode","code":"IMP","display":"inpatient"},"type":[{"coding":[{"system":"http://snomed.info/sct","version":"2023-09","code":"183452005","display":"Emergency hospital admission (procedure)","userSelected":true}]}],"subject":{"reference":"Patient/8f5243aa-b111-4019-b5d0-d6889315af38"},"period":{"start":"2026-01-01T06:00:00.000+00:00","end":"2026-01-03T06:15:00.000+00:00"}},"request":{"method":"PUT","url":"Encounter/d43fa245-6ade-416a-abaa-35349b9d1148"}},{"fullUrl":"https://madie.cms.gov/Location/2a6b1e51-d509-465d-bb71-18c661145b59","resource":{"resourceType":"Location","id":"2a6b1e51-d509-465d-bb71-18c661145b59","meta":{"profile":["http://hl7.org/fhir/us/qicore/StructureDefinition/qicore-location"]},"identifier":[{"use":"usual","system":"http://exampleoflocation.com","value":"B1-S.F2"}],"name":"Local ED","type":[{"coding":[{"system":"https://www.cdc.gov/nhsn/cdaportal/terminology/codesystem/hsloc.html","version":"2022","code":"1108-0","display":"Emergency Department","userSelected":true}]}]},"request":{"method":"PUT","url":"Location/2a6b1e51-d509-465d-bb71-18c661145b59"}},{"fullUrl":"https://madie.cms.gov/Observation/933c66b7-e3a9-4dfb-85b4-0bee61c023ef","resource":{"resourceType":"Observation","id":"933c66b7-e3a9-4dfb-85b4-0bee61c023ef","meta":{"profile":["http://hl7.org/fhir/us/qicore/StructureDefinition/qicore-observation"]},"status":"final","category":[{"coding":[{"system":"http://terminology.hl7.org/CodeSystem/observation-category","code":"survey","display":"Survey"}]}],"code":{"coding":[{"system":"http://loinc.org","version":"2.76","code":"28568-4","display":"Physician Emergency department Note","userSelected":true}]},"subject":{"reference":"Patient/8f5243aa-b111-4019-b5d0-d6889315af38"},"effectiveDateTime":"2026-01-01T01:00:00.000+00:00","valueCodeableConcept":{"coding":[{"system":"http://snomed.info/sct","code":"434081000124108","display":"Patient requires hospitalization (finding)","userSelected":true}]}},"request":{"method":"PUT","url":"Observation/933c66b7-e3a9-4dfb-85b4-0bee61c023ef"}},{"fullUrl":"https://madie.cms.gov/Condition/deed1774-a6dc-4296-a4c5-c060936eeee1","resource":{"resourceType":"Condition","id":"deed1774-a6dc-4296-a4c5-c060936eeee1","meta":{"profile":["http://hl7.org/fhir/us/qicore/StructureDefinition/qicore-condition"]},"category":[{"coding":[{"system":"http://terminology.hl7.org/CodeSystem/condition-category","code":"encounter-diagnosis","display":"Encounter Diagnosis"}]}],"code":{"coding":[{"system":"http://snomed.info/sct","version":"2023-09","code":"10674711000119105","display":"Acute severe exacerbation of asthma co-occurrent with allergic rhinitis (disorder)","userSelected":true}]},"subject":{"reference":"Patient/8f5243aa-b111-4019-b5d0-d6889315af38"},"recordedDate":"2025-04-18T08:00:00.000+00:00"},"request":{"method":"PUT","url":"Condition/deed1774-a6dc-4296-a4c5-c060936eeee1"}},{"fullUrl":"https://madie.cms.gov/Coverage/4d94c65a-27ce-43ab-a1ee-3e8ed3fd3c03","resource":{"resourceType":"Coverage","id":"4d94c65a-27ce-43ab-a1ee-3e8ed3fd3c03","meta":{"profile":["http://hl7.org/fhir/us/qicore/StructureDefinition/qicore-coverage"]},"status":"active","beneficiary":{"reference":"Patient/8f5243aa-b111-4019-b5d0-d6889315af38"},"payor":[{"reference":"Organization/4da248b0-6e59-49b7-b80e-338aa21d299f"}]},"request":{"method":"PUT","url":"Coverage/4d94c65a-27ce-43ab-a1ee-3e8ed3fd3c03"}},{"fullUrl":"https://madie.cms.gov/Organization/55f28b41-153e-409d-b074-91f17e223597","resource":{"resourceType":"Organization","id":"4da248b0-6e59-49b7-b80e-338aa21d299f","meta":{"profile":["http://hl7.org/fhir/us/qicore/StructureDefinition/qicore-organization"]},"identifier":[{"use":"temp","system":"urn:oid:2.16.840.1.113883.4.4","value":"21-3259825"}],"active":true,"type":[{"coding":[{"system":"http://terminology.hl7.org/CodeSystem/organization-type","code":"pay","display":"Payer"}]}],"name":"Blue Cross Blue Shield of Texas","telecom":[{"system":"phone","value":"(+1) 972-766-6900"}],"address":[{"use":"billing","type":"postal","line":["P.O. Box 660044"],"city":"Dallas","state":"TX","postalCode":"75266-0044","country":"USA"}]},"request":{"method":"PUT","url":"Organization/4da248b0-6e59-49b7-b80e-338aa21d299f"}},{"fullUrl":"https://madie.cms.gov/Practitioner/125f1162-3b09-454e-bad7-82e19f4e5622","resource":{"resourceType":"Practitioner","id":"125f1162-3b09-454e-bad7-82e19f4e5622","meta":{"profile":["http://hl7.org/fhir/us/qicore/StructureDefinition/qicore-practitioner"]},"identifier":[{"system":"http://hl7.org/fhir/sid/us-npi","value":"123456"}],"name":[{"family":"Evil","prefix":["Dr"]}]},"request":{"method":"PUT","url":"Practitioner/125f1162-3b09-454e-bad7-82e19f4e5622"}},{"fullUrl":"https://madie.cms.gov/MeasureReport/e3b32bc3-e438-46db-bb71-7b5ee0ccce23","resource":{"resourceType":"MeasureReport","id":"e3b32bc3-e438-46db-bb71-7b5ee0ccce23","meta":{"profile":["http://hl7.org/fhir/us/cqfmeasures/StructureDefinition/test-case-cqfm"]},"contained":[{"resourceType":"Parameters","id":"50ea9576-43ed-4576-b1c5-6bc4397091a0-parameters","parameter":[{"name":"subject","valueString":"8f5243aa-b111-4019-b5d0-d6889315af38"}]}],"extension":[{"url":"http://hl7.org/fhir/us/cqfmeasures/StructureDefinition/cqfm-inputParameters","valueReference":{"reference":"#50ea9576-43ed-4576-b1c5-6bc4397091a0-parameters"}},{"url":"http://hl7.org/fhir/us/cqfmeasures/StructureDefinition/cqfm-testCaseDescription","valueMarkdown":"Adult, Enc 1st day of MP, asthma, arrived at midnight of 01/01, 241 minutes decision to admit and departure"}],"modifierExtension":[{"url":"http://hl7.org/fhir/us/cqfmeasures/StructureDefinition/cqfm-isTestCase","valueBoolean":true}],"status":"complete","type":"individual","measure":"https://madie.cms.gov/Measure/CMS1244ECCQHOQRFHIR","period":{"start":"2026-01-01","end":"2026-12-31"},"group":[{"population":[{"code":{"coding":[{"system":"http://terminology.hl7.org/CodeSystem/measure-population","code":"initial-population","display":"Initial Population"}]},"count":1},{"code":{"coding":[{"system":"http://terminology.hl7.org/CodeSystem/measure-population","code":"denominator","display":"Denominator"}]},"count":1},{"code":{"coding":[{"system":"http://terminology.hl7.org/CodeSystem/measure-population","code":"numerator","display":"Numerator"}]},"count":1}]}]},"request":{"method":"PUT","url":"MeasureReport/e3b32bc3-e438-46db-bb71-7b5ee0ccce23"}}]}