{"resourceType":"Bundle","id":"tests-ee13a2d8-61d9-4d2f-8f13-1423bd271950-bundle","type":"transaction","entry":[{"fullUrl":"https://madie.cms.gov/Patient/ee13a2d8-61d9-4d2f-8f13-1423bd271950","resource":{"resourceType":"Patient","id":"ee13a2d8-61d9-4d2f-8f13-1423bd271950","meta":{"profile":["http://hl7.org/fhir/us/qicore/StructureDefinition/qicore-patient"]},"extension":[{"url":"http://hl7.org/fhir/us/core/StructureDefinition/us-core-race","extension":[{"url":"ombCategory","valueCoding":{"system":"urn:oid:2.16.840.1.113883.6.238","code":"1002-5","display":"American Indian or Alaska Native","userSelected":true}},{"url":"text","valueString":"American Indian or Alaska Native"}]},{"url":"http://hl7.org/fhir/us/core/StructureDefinition/us-core-ethnicity","extension":[{"url":"ombCategory","valueCoding":{"system":"urn:oid:2.16.840.1.113883.6.238","code":"2135-2","display":"Hispanic or Latino","userSelected":true}},{"url":"text","valueString":"Hispanic or Latino"}]}],"identifier":[{"type":{"coding":[{"system":"http://terminology.hl7.org/CodeSystem/v2-0203","code":"MR"}]},"system":"https://bonnie-fhir.healthit.gov/","value":"661476b015ed5841a5547ebf"}],"name":[{"family":"DENOMFail","given":["Boarded241MinOrderAdmit"]}],"gender":"male","birthDate":"2007-01-01"},"request":{"method":"PUT","url":"Patient/ee13a2d8-61d9-4d2f-8f13-1423bd271950"}},{"fullUrl":"https://madie.cms.gov/Encounter/731f1e1c-6762-4335-a561-983b6fd630b0","resource":{"resourceType":"Encounter","id":"731f1e1c-6762-4335-a561-983b6fd630b0","meta":{"profile":["http://hl7.org/fhir/us/qicore/StructureDefinition/qicore-encounter"]},"status":"finished","class":{"system":"http://terminology.hl7.org/CodeSystem/v3-ActCode","code":"EMER","display":"emergency department"},"type":[{"coding":[{"system":"http://snomed.info/sct","version":"2023-09","code":"4525004","display":"Emergency department patient visit (procedure)","userSelected":true}]}],"subject":{"reference":"Patient/ee13a2d8-61d9-4d2f-8f13-1423bd271950"},"period":{"start":"2026-01-01T19:58:00.000+00:00","end":"2026-01-01T23:59:00.000+00:00"},"diagnosis":[{"condition":{"reference":"Condition/1d824d0f-e8f3-4755-8207-03795cf3d2fa"},"use":{"coding":[{"system":"http://terminology.hl7.org/CodeSystem/diagnosis-role","code":"billing"}]},"rank":1}],"location":[{"location":{"reference":"Location/67bd71f2-c0f1-4866-8837-75a51119c111"},"period":{"start":"2026-01-01T19:58:00.000+00:00","end":"2026-01-01T23:59:00.000+00:00"}}]},"request":{"method":"PUT","url":"Encounter/731f1e1c-6762-4335-a561-983b6fd630b0"}},{"fullUrl":"https://madie.cms.gov/ServiceRequest/f5c09953-bca6-4a4b-b879-adcef2cef8cd","resource":{"resourceType":"ServiceRequest","id":"f5c09953-bca6-4a4b-b879-adcef2cef8cd","meta":{"profile":["http://hl7.org/fhir/us/qicore/StructureDefinition/qicore-servicerequest"]},"status":"revoked","intent":"order","code":{"coding":[{"system":"http://snomed.info/sct","version":"2023-09","code":"19951005","display":"Hospital admission, emergency, from emergency room, medical nature (procedure)","userSelected":true}]},"subject":{"reference":"Patient/ee13a2d8-61d9-4d2f-8f13-1423bd271950"},"authoredOn":"2026-01-01T19:58:00.000+00:00"},"request":{"method":"PUT","url":"ServiceRequest/f5c09953-bca6-4a4b-b879-adcef2cef8cd"}},{"fullUrl":"https://madie.cms.gov/Location/67bd71f2-c0f1-4866-8837-75a51119c111","resource":{"resourceType":"Location","id":"67bd71f2-c0f1-4866-8837-75a51119c111","meta":{"profile":["http://hl7.org/fhir/us/qicore/StructureDefinition/qicore-location"]},"identifier":[{"use":"usual","system":"http://exampleoflocation.com","value":"B1-S.F2"}],"name":"Medical Surgical East, first floor","type":[{"coding":[{"system":"https://www.cdc.gov/nhsn/cdaportal/terminology/codesystem/hsloc.html","version":"2022","code":"1108-0","display":"Emergency Department","userSelected":true}]}]},"request":{"method":"PUT","url":"Location/67bd71f2-c0f1-4866-8837-75a51119c111"}},{"fullUrl":"https://madie.cms.gov/Coverage/d5d6f8fd-f0f2-4c8f-b8d3-7456f8c70f74","resource":{"resourceType":"Coverage","id":"d5d6f8fd-f0f2-4c8f-b8d3-7456f8c70f74","meta":{"profile":["http://hl7.org/fhir/us/qicore/StructureDefinition/qicore-coverage"]},"status":"active","beneficiary":{"reference":"Patient/ee13a2d8-61d9-4d2f-8f13-1423bd271950"},"payor":[{"reference":"Organization/db141f66-a1cc-407b-9e95-adac27adee14"}]},"request":{"method":"PUT","url":"Coverage/d5d6f8fd-f0f2-4c8f-b8d3-7456f8c70f74"}},{"fullUrl":"https://madie.cms.gov/Condition/1d824d0f-e8f3-4755-8207-03795cf3d2fa","resource":{"resourceType":"Condition","id":"1d824d0f-e8f3-4755-8207-03795cf3d2fa","meta":{"profile":["http://hl7.org/fhir/us/qicore/StructureDefinition/qicore-condition"]},"category":[{"coding":[{"system":"http://terminology.hl7.org/CodeSystem/condition-category","code":"encounter-diagnosis","display":"Encounter Diagnosis"}]}],"code":{"coding":[{"system":"http://snomed.info/sct","version":"2023-09","code":"10349009","display":"Multi-infarct dementia with delirium (disorder)","userSelected":true}]},"subject":{"reference":"Patient/ee13a2d8-61d9-4d2f-8f13-1423bd271950"},"recordedDate":"2026-04-09T08:00:00.000+00:00"},"request":{"method":"PUT","url":"Condition/1d824d0f-e8f3-4755-8207-03795cf3d2fa"}},{"fullUrl":"https://madie.cms.gov/Encounter/0d90cc3a-844a-4710-94e0-499a6267cc89","resource":{"resourceType":"Encounter","id":"0d90cc3a-844a-4710-94e0-499a6267cc89","meta":{"profile":["http://hl7.org/fhir/us/qicore/StructureDefinition/qicore-encounter"]},"status":"finished","class":{"system":"http://terminology.hl7.org/CodeSystem/v3-ActCode","code":"IMP","display":"inpatient"},"type":[{"coding":[{"system":"http://snomed.info/sct","version":"2023-09","code":"8715000","display":"Hospital admission, elective (procedure)","userSelected":true}]}],"subject":{"reference":"Patient/ee13a2d8-61d9-4d2f-8f13-1423bd271950"},"period":{"start":"2026-01-01T23:59:00.000+00:00","end":"2026-01-03T08:00:00.000+00:00"}},"request":{"method":"PUT","url":"Encounter/0d90cc3a-844a-4710-94e0-499a6267cc89"}},{"fullUrl":"https://madie.cms.gov/Organization/f06be608-4aae-47bf-aa4d-c328471ac003","resource":{"resourceType":"Organization","id":"db141f66-a1cc-407b-9e95-adac27adee14","meta":{"profile":["http://hl7.org/fhir/us/qicore/StructureDefinition/qicore-organization"]},"identifier":[{"use":"temp","system":"urn:oid:2.16.840.1.113883.4.4","value":"21-3259825"}],"active":true,"type":[{"coding":[{"system":"http://terminology.hl7.org/CodeSystem/organization-type","code":"pay","display":"Payer"}]}],"name":"Blue Cross Blue Shield of Texas","telecom":[{"system":"phone","value":"(+1) 972-766-6900"}],"address":[{"use":"billing","type":"postal","line":["P.O. Box 660044"],"city":"Dallas","state":"TX","postalCode":"75266-0044","country":"USA"}]},"request":{"method":"PUT","url":"Organization/db141f66-a1cc-407b-9e95-adac27adee14"}},{"fullUrl":"https://madie.cms.gov/Practitioner/436cc976-4e48-42b2-8dc7-9e1c9c38769f","resource":{"resourceType":"Practitioner","id":"436cc976-4e48-42b2-8dc7-9e1c9c38769f","meta":{"profile":["http://hl7.org/fhir/us/qicore/StructureDefinition/qicore-practitioner"]},"identifier":[{"system":"http://hl7.org/fhir/sid/us-npi","value":"123456"}],"name":[{"family":"Evil","prefix":["Dr"]}]},"request":{"method":"PUT","url":"Practitioner/436cc976-4e48-42b2-8dc7-9e1c9c38769f"}},{"fullUrl":"https://madie.cms.gov/MeasureReport/9afc17db-69eb-4c56-b4aa-47892d6c5fb9","resource":{"resourceType":"MeasureReport","id":"9afc17db-69eb-4c56-b4aa-47892d6c5fb9","meta":{"profile":["http://hl7.org/fhir/us/cqfmeasures/StructureDefinition/test-case-cqfm"]},"contained":[{"resourceType":"Parameters","id":"93e7b01a-a264-42f5-ac05-16ec20e9371d-parameters","parameter":[{"name":"subject","valueString":"ee13a2d8-61d9-4d2f-8f13-1423bd271950"}]}],"extension":[{"url":"http://hl7.org/fhir/us/cqfmeasures/StructureDefinition/cqfm-inputParameters","valueReference":{"reference":"#93e7b01a-a264-42f5-ac05-16ec20e9371d-parameters"}},{"url":"http://hl7.org/fhir/us/cqfmeasures/StructureDefinition/cqfm-testCaseDescription","valueMarkdown":"Enc first day of MP, ends 1 min before midnight, decision to admit order, decision to admit order status is inactive"}],"modifierExtension":[{"url":"http://hl7.org/fhir/us/cqfmeasures/StructureDefinition/cqfm-isTestCase","valueBoolean":true}],"status":"complete","type":"individual","measure":"https://madie.cms.gov/Measure/CMS1244ECCQHOQRFHIR","period":{"start":"2026-01-01","end":"2026-12-31"},"group":[{"population":[{"code":{"coding":[{"system":"http://terminology.hl7.org/CodeSystem/measure-population","code":"initial-population","display":"Initial Population"}]},"count":1},{"code":{"coding":[{"system":"http://terminology.hl7.org/CodeSystem/measure-population","code":"denominator","display":"Denominator"}]},"count":1},{"code":{"coding":[{"system":"http://terminology.hl7.org/CodeSystem/measure-population","code":"numerator","display":"Numerator"}]},"count":0}]}]},"request":{"method":"PUT","url":"MeasureReport/9afc17db-69eb-4c56-b4aa-47892d6c5fb9"}}]}