{"resourceType":"Bundle","id":"tests-9dc75857-bf5a-492d-81b5-edd5aee29a66-bundle","type":"transaction","entry":[{"fullUrl":"https://madie.cms.gov/Patient/9dc75857-bf5a-492d-81b5-edd5aee29a66","resource":{"resourceType":"Patient","id":"9dc75857-bf5a-492d-81b5-edd5aee29a66","meta":{"profile":["http://hl7.org/fhir/us/qicore/StructureDefinition/qicore-patient"]},"extension":[{"url":"http://hl7.org/fhir/us/core/StructureDefinition/us-core-race","extension":[{"url":"ombCategory","valueCoding":{"system":"urn:oid:2.16.840.1.113883.6.238","code":"1002-5","display":"American Indian or Alaska Native","userSelected":true}},{"url":"text","valueString":"American Indian or Alaska Native"}]},{"url":"http://hl7.org/fhir/us/core/StructureDefinition/us-core-ethnicity","extension":[{"url":"ombCategory","valueCoding":{"system":"urn:oid:2.16.840.1.113883.6.238","code":"2135-2","display":"Hispanic or Latino","userSelected":true}},{"url":"text","valueString":"Hispanic or Latino"}]}],"identifier":[{"type":{"coding":[{"system":"http://terminology.hl7.org/CodeSystem/v2-0203","code":"MR"}]},"system":"https://bonnie-fhir.healthit.gov/","value":"6617e30316793f5a4fae16fe"}],"name":[{"family":"NUMERStrat3Pass","given":["DecisionToAdmitBoarded241m"]}],"gender":"male","birthDate":"2009-01-01"},"request":{"method":"PUT","url":"Patient/9dc75857-bf5a-492d-81b5-edd5aee29a66"}},{"fullUrl":"https://madie.cms.gov/Encounter/8f9bb05d-9dfb-42d8-9351-4aeb554cf5ed","resource":{"resourceType":"Encounter","id":"8f9bb05d-9dfb-42d8-9351-4aeb554cf5ed","meta":{"profile":["http://hl7.org/fhir/us/qicore/StructureDefinition/qicore-encounter"]},"status":"finished","class":{"system":"http://terminology.hl7.org/CodeSystem/v3-ActCode","code":"EMER","display":"emergency"},"type":[{"coding":[{"system":"http://snomed.info/sct","version":"2023-09","code":"4525004","display":"Emergency department patient visit (procedure)","userSelected":true}]}],"subject":{"reference":"Patient/9dc75857-bf5a-492d-81b5-edd5aee29a66"},"period":{"start":"2026-01-01T00:00:00.000+00:00","end":"2026-01-01T06:00:00.000+00:00"},"diagnosis":[{"condition":{"reference":"Condition/e9e02977-4836-4c21-a931-161425afe037"},"use":{"coding":[{"system":"http://terminology.hl7.org/CodeSystem/diagnosis-role","code":"billing"}]},"rank":1}],"location":[{"location":{"reference":"Location/226324a8-f3e7-476b-a80a-c75a7e15d048"},"period":{"start":"2026-01-01T00:00:00.000+00:00","end":"2026-01-01T06:01:00.000+00:00"}}]},"request":{"method":"PUT","url":"Encounter/8f9bb05d-9dfb-42d8-9351-4aeb554cf5ed"}},{"fullUrl":"https://madie.cms.gov/Encounter/09bf5b76-b68f-4374-aee3-2b35717115fe","resource":{"resourceType":"Encounter","id":"09bf5b76-b68f-4374-aee3-2b35717115fe","meta":{"profile":["http://hl7.org/fhir/us/qicore/StructureDefinition/qicore-encounter"]},"status":"finished","class":{"system":"http://terminology.hl7.org/CodeSystem/v3-ActCode","code":"IMP","display":"inpatient"},"type":[{"coding":[{"system":"http://snomed.info/sct","version":"2023-09","code":"183452005","display":"Emergency hospital admission (procedure)","userSelected":true}]}],"subject":{"reference":"Patient/9dc75857-bf5a-492d-81b5-edd5aee29a66"},"period":{"start":"2026-01-01T06:00:00.000+00:00","end":"2026-01-03T06:15:00.000+00:00"}},"request":{"method":"PUT","url":"Encounter/09bf5b76-b68f-4374-aee3-2b35717115fe"}},{"fullUrl":"https://madie.cms.gov/Location/226324a8-f3e7-476b-a80a-c75a7e15d048","resource":{"resourceType":"Location","id":"226324a8-f3e7-476b-a80a-c75a7e15d048","meta":{"profile":["http://hl7.org/fhir/us/qicore/StructureDefinition/qicore-location"]},"identifier":[{"use":"usual","system":"http://exampleoflocation.com","value":"B1-S.F2"}],"name":"Local ED","type":[{"coding":[{"system":"https://www.cdc.gov/nhsn/cdaportal/terminology/codesystem/hsloc.html","version":"2022","code":"1108-0","display":"Emergency Department","userSelected":true}]}]},"request":{"method":"PUT","url":"Location/226324a8-f3e7-476b-a80a-c75a7e15d048"}},{"fullUrl":"https://madie.cms.gov/ServiceRequest/cf31bed8-dc25-4634-8729-86e191f73cf7","resource":{"resourceType":"ServiceRequest","id":"cf31bed8-dc25-4634-8729-86e191f73cf7","meta":{"profile":["http://hl7.org/fhir/us/qicore/StructureDefinition/qicore-servicerequest"]},"status":"active","intent":"order","code":{"coding":[{"system":"http://snomed.info/sct","version":"2023-09","code":"10378005","display":"Hospital admission, emergency, from emergency room, accidental injury (procedure)","userSelected":true}]},"subject":{"reference":"Patient/9dc75857-bf5a-492d-81b5-edd5aee29a66"},"authoredOn":"2026-01-01T02:00:00.000+00:00"},"request":{"method":"PUT","url":"ServiceRequest/cf31bed8-dc25-4634-8729-86e191f73cf7"}},{"fullUrl":"https://madie.cms.gov/Condition/e9e02977-4836-4c21-a931-161425afe037","resource":{"resourceType":"Condition","id":"e9e02977-4836-4c21-a931-161425afe037","meta":{"profile":["http://hl7.org/fhir/us/qicore/StructureDefinition/qicore-condition"]},"category":[{"coding":[{"system":"http://terminology.hl7.org/CodeSystem/condition-category","code":"encounter-diagnosis","display":"Encounter Diagnosis"}]}],"code":{"coding":[{"system":"http://snomed.info/sct","version":"2023-09","code":"10349009","display":"Multi-infarct dementia with delirium (disorder)","userSelected":true}]},"subject":{"reference":"Patient/9dc75857-bf5a-492d-81b5-edd5aee29a66"},"recordedDate":"2025-04-18T08:00:00.000+00:00"},"request":{"method":"PUT","url":"Condition/e9e02977-4836-4c21-a931-161425afe037"}},{"fullUrl":"https://madie.cms.gov/Coverage/1996b792-a887-4ca9-9bd3-16a340fd34fc","resource":{"resourceType":"Coverage","id":"1996b792-a887-4ca9-9bd3-16a340fd34fc","meta":{"profile":["http://hl7.org/fhir/us/qicore/StructureDefinition/qicore-coverage"]},"status":"active","beneficiary":{"reference":"Patient/9dc75857-bf5a-492d-81b5-edd5aee29a66"},"payor":[{"reference":"Organization/f4907415-83c5-4eae-ab0b-cb63a840880d"}]},"request":{"method":"PUT","url":"Coverage/1996b792-a887-4ca9-9bd3-16a340fd34fc"}},{"fullUrl":"https://madie.cms.gov/Organization/673f03dd-8081-4b63-aec5-1422a621a5f5","resource":{"resourceType":"Organization","id":"f4907415-83c5-4eae-ab0b-cb63a840880d","meta":{"profile":["http://hl7.org/fhir/us/qicore/StructureDefinition/qicore-organization"]},"identifier":[{"use":"temp","system":"urn:oid:2.16.840.1.113883.4.4","value":"21-3259825"}],"active":true,"type":[{"coding":[{"system":"http://terminology.hl7.org/CodeSystem/organization-type","code":"pay","display":"Payer"}]}],"name":"Blue Cross Blue Shield of Texas","telecom":[{"system":"phone","value":"(+1) 972-766-6900"}],"address":[{"use":"billing","type":"postal","line":["P.O. Box 660044"],"city":"Dallas","state":"TX","postalCode":"75266-0044","country":"USA"}]},"request":{"method":"PUT","url":"Organization/f4907415-83c5-4eae-ab0b-cb63a840880d"}},{"fullUrl":"https://madie.cms.gov/Practitioner/103ff450-5008-4634-b68a-4ccc1093ba73","resource":{"resourceType":"Practitioner","id":"103ff450-5008-4634-b68a-4ccc1093ba73","meta":{"profile":["http://hl7.org/fhir/us/qicore/StructureDefinition/qicore-practitioner"]},"identifier":[{"system":"http://hl7.org/fhir/sid/us-npi","value":"123456"}],"name":[{"family":"Evil","prefix":["Dr"]}]},"request":{"method":"PUT","url":"Practitioner/103ff450-5008-4634-b68a-4ccc1093ba73"}},{"fullUrl":"https://madie.cms.gov/MeasureReport/9f83c765-7a2a-4f10-984e-5fc5904a3797","resource":{"resourceType":"MeasureReport","id":"9f83c765-7a2a-4f10-984e-5fc5904a3797","meta":{"profile":["http://hl7.org/fhir/us/cqfmeasures/StructureDefinition/test-case-cqfm"]},"contained":[{"resourceType":"Parameters","id":"5664cb56-9624-4ec5-af7d-6aebdee52648-parameters","parameter":[{"name":"subject","valueString":"9dc75857-bf5a-492d-81b5-edd5aee29a66"}]}],"extension":[{"url":"http://hl7.org/fhir/us/cqfmeasures/StructureDefinition/cqfm-inputParameters","valueReference":{"reference":"#5664cb56-9624-4ec5-af7d-6aebdee52648-parameters"}},{"url":"http://hl7.org/fhir/us/cqfmeasures/StructureDefinition/cqfm-testCaseDescription","valueMarkdown":"ED enc first minute of MP, 6 hrs (start to end), behavioral health dx, "}],"modifierExtension":[{"url":"http://hl7.org/fhir/us/cqfmeasures/StructureDefinition/cqfm-isTestCase","valueBoolean":true}],"status":"complete","type":"individual","measure":"https://madie.cms.gov/Measure/CMS1244ECCQHOQRFHIR","period":{"start":"2026-01-01","end":"2026-12-31"},"group":[{"population":[{"code":{"coding":[{"system":"http://terminology.hl7.org/CodeSystem/measure-population","code":"initial-population","display":"Initial Population"}]},"count":1},{"code":{"coding":[{"system":"http://terminology.hl7.org/CodeSystem/measure-population","code":"denominator","display":"Denominator"}]},"count":1},{"code":{"coding":[{"system":"http://terminology.hl7.org/CodeSystem/measure-population","code":"numerator","display":"Numerator"}]},"count":1}]}]},"request":{"method":"PUT","url":"MeasureReport/9f83c765-7a2a-4f10-984e-5fc5904a3797"}}]}