{"resourceType":"Bundle","id":"tests-7bee402e-2687-4813-9b39-37d723663d18-bundle","type":"transaction","entry":[{"fullUrl":"https://madie.cms.gov/Patient/7bee402e-2687-4813-9b39-37d723663d18","resource":{"resourceType":"Patient","id":"7bee402e-2687-4813-9b39-37d723663d18","meta":{"profile":["http://hl7.org/fhir/us/qicore/StructureDefinition/qicore-patient"]},"extension":[{"url":"http://hl7.org/fhir/us/core/StructureDefinition/us-core-race","extension":[{"url":"ombCategory","valueCoding":{"system":"urn:oid:2.16.840.1.113883.6.238","code":"1002-5","display":"American Indian or Alaska Native","userSelected":true}},{"url":"text","valueString":"American Indian or Alaska Native"}]},{"url":"http://hl7.org/fhir/us/core/StructureDefinition/us-core-ethnicity","extension":[{"url":"ombCategory","valueCoding":{"system":"urn:oid:2.16.840.1.113883.6.238","code":"2135-2","display":"Hispanic or Latino","userSelected":true}},{"url":"text","valueString":"Hispanic or Latino"}]}],"identifier":[{"type":{"coding":[{"system":"http://terminology.hl7.org/CodeSystem/v2-0203","code":"MR"}]},"system":"https://bonnie-fhir.healthit.gov/","value":"661476b015ed5841a5547ebf"}],"name":[{"family":"NUMERStrat1Fail","given":["EDLOS480Minutes"]}],"gender":"male","birthDate":"2010-01-01"},"request":{"method":"PUT","url":"Patient/7bee402e-2687-4813-9b39-37d723663d18"}},{"fullUrl":"https://madie.cms.gov/Encounter/7af55929-a3a6-4ce0-9de3-c37c405cdb32","resource":{"resourceType":"Encounter","id":"7af55929-a3a6-4ce0-9de3-c37c405cdb32","meta":{"profile":["http://hl7.org/fhir/us/qicore/StructureDefinition/qicore-encounter"]},"status":"finished","class":{"system":"http://terminology.hl7.org/CodeSystem/v3-ActCode","code":"EMER","display":"emergency department"},"type":[{"coding":[{"system":"http://snomed.info/sct","version":"2023-09","code":"4525004","display":"Emergency department patient visit (procedure)","userSelected":true}]}],"subject":{"reference":"Patient/7bee402e-2687-4813-9b39-37d723663d18"},"period":{"start":"2026-01-01T06:00:00.000+00:00","end":"2026-01-01T14:00:00.000+00:00"},"diagnosis":[{"condition":{"reference":"Condition/2aa0f91b-804e-45bd-9626-d7dc18c370b8"},"use":{"coding":[{"system":"http://terminology.hl7.org/CodeSystem/diagnosis-role","code":"billing"}]},"rank":1}],"location":[{"location":{"reference":"Location/f2f03077-7d2a-44d5-9a0e-61b970058dd7"},"period":{"start":"2026-01-01T06:00:00.000+00:00","end":"2026-01-01T14:00:00.000+00:00"}}]},"request":{"method":"PUT","url":"Encounter/7af55929-a3a6-4ce0-9de3-c37c405cdb32"}},{"fullUrl":"https://madie.cms.gov/Location/f2f03077-7d2a-44d5-9a0e-61b970058dd7","resource":{"resourceType":"Location","id":"f2f03077-7d2a-44d5-9a0e-61b970058dd7","meta":{"profile":["http://hl7.org/fhir/us/qicore/StructureDefinition/qicore-location"]},"identifier":[{"use":"usual","system":"http://exampleoflocation.com","value":"B1-S.F2"}],"name":"Medical Surgical East, first floor","type":[{"coding":[{"system":"https://www.cdc.gov/nhsn/cdaportal/terminology/codesystem/hsloc.html","version":"2022","code":"1108-0","display":"Emergency Department","userSelected":true}]}]},"request":{"method":"PUT","url":"Location/f2f03077-7d2a-44d5-9a0e-61b970058dd7"}},{"fullUrl":"https://madie.cms.gov/Condition/2aa0f91b-804e-45bd-9626-d7dc18c370b8","resource":{"resourceType":"Condition","id":"2aa0f91b-804e-45bd-9626-d7dc18c370b8","meta":{"profile":["http://hl7.org/fhir/us/qicore/StructureDefinition/qicore-condition"]},"category":[{"coding":[{"system":"http://terminology.hl7.org/CodeSystem/condition-category","code":"encounter-diagnosis","display":"Encounter Diagnosis"}]}],"code":{"coding":[{"system":"http://snomed.info/sct","version":"2023-09","code":"10660471000119109","display":"Ulcer of left foot due to type 2 diabetes mellitus (disorder)","userSelected":true}]},"subject":{"reference":"Patient/7bee402e-2687-4813-9b39-37d723663d18"},"recordedDate":"2026-01-01T08:00:00.000+00:00"},"request":{"method":"PUT","url":"Condition/2aa0f91b-804e-45bd-9626-d7dc18c370b8"}},{"fullUrl":"https://madie.cms.gov/Coverage/fbef80f5-d6b3-49fb-8fc7-17007f44a419","resource":{"resourceType":"Coverage","id":"fbef80f5-d6b3-49fb-8fc7-17007f44a419","meta":{"profile":["http://hl7.org/fhir/us/qicore/StructureDefinition/qicore-coverage"]},"status":"active","beneficiary":{"reference":"Patient/7bee402e-2687-4813-9b39-37d723663d18"},"payor":[{"reference":"Organization/607fdef9-3983-4cef-ab1a-95434d29b463"}]},"request":{"method":"PUT","url":"Coverage/fbef80f5-d6b3-49fb-8fc7-17007f44a419"}},{"fullUrl":"https://madie.cms.gov/Organization/0bfa7d35-4b97-4bf7-9d4d-4394df1baf12","resource":{"resourceType":"Organization","id":"607fdef9-3983-4cef-ab1a-95434d29b463","meta":{"profile":["http://hl7.org/fhir/us/qicore/StructureDefinition/qicore-organization"]},"identifier":[{"use":"temp","system":"urn:oid:2.16.840.1.113883.4.4","value":"21-3259825"}],"active":true,"type":[{"coding":[{"system":"http://terminology.hl7.org/CodeSystem/organization-type","code":"pay","display":"Payer"}]}],"name":"Blue Cross Blue Shield of Texas","telecom":[{"system":"phone","value":"(+1) 972-766-6900"}],"address":[{"use":"billing","type":"postal","line":["P.O. Box 660044"],"city":"Dallas","state":"TX","postalCode":"75266-0044","country":"USA"}]},"request":{"method":"PUT","url":"Organization/607fdef9-3983-4cef-ab1a-95434d29b463"}},{"fullUrl":"https://madie.cms.gov/Practitioner/adc0644a-201a-4070-9295-838339ee331c","resource":{"resourceType":"Practitioner","id":"adc0644a-201a-4070-9295-838339ee331c","meta":{"profile":["http://hl7.org/fhir/us/qicore/StructureDefinition/qicore-practitioner"]},"identifier":[{"system":"http://hl7.org/fhir/sid/us-npi","value":"123456"}],"name":[{"family":"Evil","prefix":["Dr"]}]},"request":{"method":"PUT","url":"Practitioner/adc0644a-201a-4070-9295-838339ee331c"}},{"fullUrl":"https://madie.cms.gov/MeasureReport/c58298b7-5964-4601-b316-aee99200b52e","resource":{"resourceType":"MeasureReport","id":"c58298b7-5964-4601-b316-aee99200b52e","meta":{"profile":["http://hl7.org/fhir/us/cqfmeasures/StructureDefinition/test-case-cqfm"]},"contained":[{"resourceType":"Parameters","id":"ec60caf4-d701-422c-bad3-737b9f7c1133-parameters","parameter":[{"name":"subject","valueString":"7bee402e-2687-4813-9b39-37d723663d18"}]}],"extension":[{"url":"http://hl7.org/fhir/us/cqfmeasures/StructureDefinition/cqfm-inputParameters","valueReference":{"reference":"#ec60caf4-d701-422c-bad3-737b9f7c1133-parameters"}},{"url":"http://hl7.org/fhir/us/cqfmeasures/StructureDefinition/cqfm-testCaseDescription","valueMarkdown":"ED enc first day of MP, EDLOS 480 minutes"}],"modifierExtension":[{"url":"http://hl7.org/fhir/us/cqfmeasures/StructureDefinition/cqfm-isTestCase","valueBoolean":true}],"status":"complete","type":"individual","measure":"https://madie.cms.gov/Measure/CMS1244ECCQHOQRFHIR","period":{"start":"2026-01-01","end":"2026-12-31"},"group":[{"population":[{"code":{"coding":[{"system":"http://terminology.hl7.org/CodeSystem/measure-population","code":"initial-population","display":"Initial Population"}]},"count":1},{"code":{"coding":[{"system":"http://terminology.hl7.org/CodeSystem/measure-population","code":"denominator","display":"Denominator"}]},"count":1},{"code":{"coding":[{"system":"http://terminology.hl7.org/CodeSystem/measure-population","code":"numerator","display":"Numerator"}]},"count":0}]}]},"request":{"method":"PUT","url":"MeasureReport/c58298b7-5964-4601-b316-aee99200b52e"}}]}