{"resourceType":"Bundle","id":"tests-dfd5dc6b-3299-4e4f-ae02-45f251e1f75b-bundle","type":"transaction","entry":[{"fullUrl":"https://madie.cms.gov/Patient/dfd5dc6b-3299-4e4f-ae02-45f251e1f75b","resource":{"resourceType":"Patient","id":"dfd5dc6b-3299-4e4f-ae02-45f251e1f75b","meta":{"profile":["http://hl7.org/fhir/us/qicore/StructureDefinition/qicore-patient"]},"extension":[{"url":"http://hl7.org/fhir/us/core/StructureDefinition/us-core-race","extension":[{"url":"ombCategory","valueCoding":{"system":"urn:oid:2.16.840.1.113883.6.238","code":"1002-5","display":"American Indian or Alaska Native","userSelected":true}},{"url":"text","valueString":"American Indian or Alaska Native"}]},{"url":"http://hl7.org/fhir/us/core/StructureDefinition/us-core-ethnicity","extension":[{"url":"ombCategory","valueCoding":{"system":"urn:oid:2.16.840.1.113883.6.238","code":"2135-2","display":"Hispanic or Latino","userSelected":true}},{"url":"text","valueString":"Hispanic or Latino"}]}],"identifier":[{"type":{"coding":[{"system":"http://terminology.hl7.org/CodeSystem/v2-0203","code":"MR"}]},"system":"https://bonnie-fhir.healthit.gov/","value":"661476b015ed5841a5547ebf"}],"name":[{"family":"NUMEXStrat4Pass","given":["EDOBSOrderBoarded"]}],"gender":"male","birthDate":"2008-01-01"},"request":{"method":"PUT","url":"Patient/dfd5dc6b-3299-4e4f-ae02-45f251e1f75b"}},{"fullUrl":"https://madie.cms.gov/Encounter/f6793dfc-936d-431f-ada8-6f3606205795","resource":{"resourceType":"Encounter","id":"f6793dfc-936d-431f-ada8-6f3606205795","meta":{"profile":["http://hl7.org/fhir/us/qicore/StructureDefinition/qicore-encounter"]},"status":"finished","class":{"system":"http://terminology.hl7.org/CodeSystem/v3-ActCode","code":"EMER","display":"emergency department"},"type":[{"coding":[{"system":"http://snomed.info/sct","version":"2023-09","code":"4525004","display":"Emergency department patient visit (procedure)","userSelected":true}]}],"subject":{"reference":"Patient/dfd5dc6b-3299-4e4f-ae02-45f251e1f75b"},"period":{"start":"2026-01-01T00:00:00.000+00:00","end":"2026-01-01T06:00:00.000+00:00"},"diagnosis":[{"condition":{"reference":"Condition/61b9a1f0-de72-4b98-aa3a-4ab5887e92ec"},"use":{"coding":[{"system":"http://terminology.hl7.org/CodeSystem/diagnosis-role","code":"billing"}]},"rank":1}],"location":[{"location":{"reference":"Location/8aa071f3-9a45-4c8c-8688-40e7f6ec26d1"},"period":{"start":"2026-01-01T00:00:00.000+00:00","end":"2026-01-01T06:01:00.000+00:00"}}]},"request":{"method":"PUT","url":"Encounter/f6793dfc-936d-431f-ada8-6f3606205795"}},{"fullUrl":"https://madie.cms.gov/Encounter/9c86cacf-89c1-49f8-b59c-7bcb1a5960e3","resource":{"resourceType":"Encounter","id":"9c86cacf-89c1-49f8-b59c-7bcb1a5960e3","meta":{"profile":["http://hl7.org/fhir/us/qicore/StructureDefinition/qicore-encounter"]},"status":"finished","class":{"system":"http://terminology.hl7.org/CodeSystem/v3-ActCode","code":"IMP","display":"inpatient encounter"},"type":[{"coding":[{"system":"http://snomed.info/sct","version":"2023-09","code":"183452005","display":"Emergency hospital admission (procedure)","userSelected":true}]}],"subject":{"reference":"Patient/dfd5dc6b-3299-4e4f-ae02-45f251e1f75b"},"period":{"start":"2026-01-01T05:00:00.000+00:00","end":"2026-01-03T06:15:00.000+00:00"}},"request":{"method":"PUT","url":"Encounter/9c86cacf-89c1-49f8-b59c-7bcb1a5960e3"}},{"fullUrl":"https://madie.cms.gov/ServiceRequest/e404efa5-2e08-4906-888e-974933e39564","resource":{"resourceType":"ServiceRequest","id":"e404efa5-2e08-4906-888e-974933e39564","meta":{"profile":["http://hl7.org/fhir/us/qicore/StructureDefinition/qicore-servicerequest"]},"status":"active","intent":"order","code":{"coding":[{"system":"http://snomed.info/sct","code":"5751000175101","display":"Patient bed assigned (finding)","userSelected":true}]},"subject":{"reference":"Patient/dfd5dc6b-3299-4e4f-ae02-45f251e1f75b"},"authoredOn":"2026-01-01T02:00:00.000+00:00"},"request":{"method":"PUT","url":"ServiceRequest/e404efa5-2e08-4906-888e-974933e39564"}},{"fullUrl":"https://madie.cms.gov/Location/8aa071f3-9a45-4c8c-8688-40e7f6ec26d1","resource":{"resourceType":"Location","id":"8aa071f3-9a45-4c8c-8688-40e7f6ec26d1","meta":{"profile":["http://hl7.org/fhir/us/qicore/StructureDefinition/qicore-location"]},"identifier":[{"use":"usual","system":"http://exampleoflocation.com","value":"B1-S.F2"}],"name":"Medical Surgical East, first floor","type":[{"coding":[{"system":"https://www.cdc.gov/nhsn/cdaportal/terminology/codesystem/hsloc.html","version":"2022","code":"1108-0","display":"Emergency Department","userSelected":true}]}]},"request":{"method":"PUT","url":"Location/8aa071f3-9a45-4c8c-8688-40e7f6ec26d1"}},{"fullUrl":"https://madie.cms.gov/Coverage/5fd56dbf-a4b0-4ca6-9de2-82e9cdb9e9c9","resource":{"resourceType":"Coverage","id":"5fd56dbf-a4b0-4ca6-9de2-82e9cdb9e9c9","meta":{"profile":["http://hl7.org/fhir/us/qicore/StructureDefinition/qicore-coverage"]},"status":"active","beneficiary":{"reference":"Patient/dfd5dc6b-3299-4e4f-ae02-45f251e1f75b"},"payor":[{"reference":"Organization/3e899f33-84eb-4634-a770-a5a0bd7a80e7"}]},"request":{"method":"PUT","url":"Coverage/5fd56dbf-a4b0-4ca6-9de2-82e9cdb9e9c9"}},{"fullUrl":"https://madie.cms.gov/Condition/61b9a1f0-de72-4b98-aa3a-4ab5887e92ec","resource":{"resourceType":"Condition","id":"61b9a1f0-de72-4b98-aa3a-4ab5887e92ec","meta":{"profile":["http://hl7.org/fhir/us/qicore/StructureDefinition/qicore-condition"]},"category":[{"coding":[{"system":"http://terminology.hl7.org/CodeSystem/condition-category","code":"encounter-diagnosis","display":"Encounter Diagnosis"}]}],"code":{"coding":[{"system":"http://snomed.info/sct","version":"2023-09","code":"66344007","display":"Recurrent major depression (disorder)","userSelected":true}]},"subject":{"reference":"Patient/dfd5dc6b-3299-4e4f-ae02-45f251e1f75b"},"recordedDate":"2025-04-18T08:00:00.000+00:00"},"request":{"method":"PUT","url":"Condition/61b9a1f0-de72-4b98-aa3a-4ab5887e92ec"}},{"fullUrl":"https://madie.cms.gov/Coverage/a0d3fe63-43d8-4247-b78e-844446b65803","resource":{"resourceType":"Coverage","id":"a0d3fe63-43d8-4247-b78e-844446b65803","meta":{"profile":["http://hl7.org/fhir/us/qicore/StructureDefinition/qicore-coverage"]},"status":"active","beneficiary":{"reference":"Patient/dfd5dc6b-3299-4e4f-ae02-45f251e1f75b"},"payor":[{"reference":"Organization/3e899f33-84eb-4634-a770-a5a0bd7a80e7"}]},"request":{"method":"PUT","url":"Coverage/a0d3fe63-43d8-4247-b78e-844446b65803"}},{"fullUrl":"https://madie.cms.gov/ServiceRequest/fd5e232d-3884-4218-bbb3-0080fe7bf567","resource":{"resourceType":"ServiceRequest","id":"fd5e232d-3884-4218-bbb3-0080fe7bf567","meta":{"profile":["http://hl7.org/fhir/us/qicore/StructureDefinition/qicore-servicerequest"]},"status":"active","intent":"order","code":{"coding":[{"system":"http://www.ama-assn.org/go/cpt","version":"2024","code":"99221","display":"Initial hospital inpatient or observation care, per day, for the evaluation and management of a patient, which requires a medically appropriate history and/or examination and straightforward or low level medical decision making. When using total time on the date of the encounter for code selection, 40 minutes must be met or exceeded.","userSelected":true}]},"subject":{"reference":"Patient/dfd5dc6b-3299-4e4f-ae02-45f251e1f75b"},"authoredOn":"2026-01-01T02:00:00.000+00:00"},"request":{"method":"PUT","url":"ServiceRequest/fd5e232d-3884-4218-bbb3-0080fe7bf567"}},{"fullUrl":"https://madie.cms.gov/Organization/687e45b6-d704-49a9-8a68-f62d1be74d36","resource":{"resourceType":"Organization","id":"3e899f33-84eb-4634-a770-a5a0bd7a80e7","meta":{"profile":["http://hl7.org/fhir/us/qicore/StructureDefinition/qicore-organization"]},"identifier":[{"use":"temp","system":"urn:oid:2.16.840.1.113883.4.4","value":"21-3259825"}],"active":true,"type":[{"coding":[{"system":"http://terminology.hl7.org/CodeSystem/organization-type","code":"pay","display":"Payer"}]}],"name":"Blue Cross Blue Shield of Texas","telecom":[{"system":"phone","value":"(+1) 972-766-6900"}],"address":[{"use":"billing","type":"postal","line":["P.O. Box 660044"],"city":"Dallas","state":"TX","postalCode":"75266-0044","country":"USA"}]},"request":{"method":"PUT","url":"Organization/3e899f33-84eb-4634-a770-a5a0bd7a80e7"}},{"fullUrl":"https://madie.cms.gov/Practitioner/d9cba89b-833f-4b93-bf9a-0679ef04777e","resource":{"resourceType":"Practitioner","id":"d9cba89b-833f-4b93-bf9a-0679ef04777e","meta":{"profile":["http://hl7.org/fhir/us/qicore/StructureDefinition/qicore-practitioner"]},"identifier":[{"system":"http://hl7.org/fhir/sid/us-npi","value":"123456"}],"name":[{"family":"Evil","prefix":["Dr"]}]},"request":{"method":"PUT","url":"Practitioner/d9cba89b-833f-4b93-bf9a-0679ef04777e"}},{"fullUrl":"https://madie.cms.gov/MeasureReport/92218399-5601-46f3-b1b0-dc35b29f2dfc","resource":{"resourceType":"MeasureReport","id":"92218399-5601-46f3-b1b0-dc35b29f2dfc","meta":{"profile":["http://hl7.org/fhir/us/cqfmeasures/StructureDefinition/test-case-cqfm"]},"contained":[{"resourceType":"Parameters","id":"fb6e87c2-3adb-4884-9159-93ac07959367-parameters","parameter":[{"name":"subject","valueString":"dfd5dc6b-3299-4e4f-ae02-45f251e1f75b"}]}],"extension":[{"url":"http://hl7.org/fhir/us/cqfmeasures/StructureDefinition/cqfm-inputParameters","valueReference":{"reference":"#fb6e87c2-3adb-4884-9159-93ac07959367-parameters"}},{"url":"http://hl7.org/fhir/us/cqfmeasures/StructureDefinition/cqfm-testCaseDescription","valueMarkdown":"Adult, ED observation order during ED enc where patient was boarded 6 hrs 1 min; Enc 8 hrs, enc departure 8 hrs 1 min. dx recurrent major depression"}],"modifierExtension":[{"url":"http://hl7.org/fhir/us/cqfmeasures/StructureDefinition/cqfm-isTestCase","valueBoolean":true}],"status":"complete","type":"individual","measure":"https://madie.cms.gov/Measure/CMS1244ECCQHOQRFHIR","period":{"start":"2026-01-01","end":"2026-12-31"},"group":[{"population":[{"code":{"coding":[{"system":"http://terminology.hl7.org/CodeSystem/measure-population","code":"initial-population","display":"Initial Population"}]},"count":1},{"code":{"coding":[{"system":"http://terminology.hl7.org/CodeSystem/measure-population","code":"denominator","display":"Denominator"}]},"count":1},{"code":{"coding":[{"system":"http://terminology.hl7.org/CodeSystem/measure-population","code":"numerator","display":"Numerator"}]},"count":0}]}]},"request":{"method":"PUT","url":"MeasureReport/92218399-5601-46f3-b1b0-dc35b29f2dfc"}}]}