{"resourceType":"Bundle","id":"tests-404c928b-a752-4792-91c4-8a1fd0656759-bundle","type":"transaction","entry":[{"fullUrl":"https://madie.cms.gov/Patient/404c928b-a752-4792-91c4-8a1fd0656759","resource":{"resourceType":"Patient","id":"404c928b-a752-4792-91c4-8a1fd0656759","meta":{"profile":["http://hl7.org/fhir/us/qicore/StructureDefinition/qicore-patient"]},"extension":[{"url":"http://hl7.org/fhir/us/core/StructureDefinition/us-core-race","extension":[{"url":"ombCategory","valueCoding":{"system":"urn:oid:2.16.840.1.113883.6.238","code":"2076-8","display":"Native Hawaiian or Other Pacific Islander","userSelected":true}},{"url":"text","valueString":"Native Hawaiian or Other Pacific Islander"}]},{"url":"http://hl7.org/fhir/us/core/StructureDefinition/us-core-ethnicity","extension":[{"url":"ombCategory","valueCoding":{"system":"urn:oid:2.16.840.1.113883.6.238","code":"2186-5","display":"Not Hispanic or Latino","userSelected":true}},{"url":"text","valueString":"Not Hispanic or Latino"}]}],"identifier":[{"type":{"coding":[{"system":"http://terminology.hl7.org/CodeSystem/v2-0203","code":"MR"}]},"system":"https://bonnie-fhir.healthit.gov/","value":"661579e3db207d74c03b8a54"}],"name":[{"family":"NUMERStrat4Pass","given":["EncStartsB4MP"]}],"gender":"female","birthDate":"2007-12-31"},"request":{"method":"PUT","url":"Patient/404c928b-a752-4792-91c4-8a1fd0656759"}},{"fullUrl":"https://madie.cms.gov/Encounter/304a9710-5e35-4eeb-be40-ea2317207d56","resource":{"resourceType":"Encounter","id":"304a9710-5e35-4eeb-be40-ea2317207d56","meta":{"profile":["http://hl7.org/fhir/us/qicore/StructureDefinition/qicore-encounter"]},"status":"finished","class":{"system":"http://terminology.hl7.org/CodeSystem/v3-ActCode","code":"EMER","display":"emergency"},"type":[{"coding":[{"system":"http://snomed.info/sct","version":"2023-09","code":"4525004","display":"Emergency department patient visit (procedure)","userSelected":true}]}],"subject":{"reference":"Patient/404c928b-a752-4792-91c4-8a1fd0656759"},"period":{"start":"2026-01-01T08:00:00.000+00:00","end":"2026-01-01T10:15:00.000+00:00"},"diagnosis":[{"condition":{"reference":"Condition/79826ea7-0273-49ed-ac57-59e7b914abcb"},"use":{"coding":[{"system":"http://terminology.hl7.org/CodeSystem/diagnosis-role","code":"billing"}]},"rank":1}],"location":[{"location":{"reference":"Location/d7c71469-aa1a-4d43-9bf9-f4d34e607057"},"period":{"start":"2026-01-01T07:45:00.000+00:00","end":"2026-01-01T08:15:00.000+00:00"}},{"location":{"reference":"Location/6dea4894-6dd5-4071-a1df-fd2d43c71669"},"period":{"start":"2026-01-01T08:30:00.000+00:00","end":"2026-01-01T08:40:00.000+00:00"}}]},"request":{"method":"PUT","url":"Encounter/304a9710-5e35-4eeb-be40-ea2317207d56"}},{"fullUrl":"https://madie.cms.gov/Location/d7c71469-aa1a-4d43-9bf9-f4d34e607057","resource":{"resourceType":"Location","id":"d7c71469-aa1a-4d43-9bf9-f4d34e607057","meta":{"profile":["http://hl7.org/fhir/us/qicore/StructureDefinition/qicore-location"]},"identifier":[{"use":"usual","system":"http://exampleoflocation.com","value":"B1-S.F1"}],"name":"Medical Surgical East, first floor","type":[{"coding":[{"system":"https://www.cdc.gov/nhsn/cdaportal/terminology/codesystem/hsloc.html","version":"2022","code":"1108-0","display":"Emergency Department","userSelected":true}]}]},"request":{"method":"PUT","url":"Location/d7c71469-aa1a-4d43-9bf9-f4d34e607057"}},{"fullUrl":"https://madie.cms.gov/Location/6dea4894-6dd5-4071-a1df-fd2d43c71669","resource":{"resourceType":"Location","id":"6dea4894-6dd5-4071-a1df-fd2d43c71669","meta":{"profile":["http://hl7.org/fhir/us/qicore/StructureDefinition/qicore-location"]},"identifier":[{"use":"usual","system":"http://exampleoflocation.com","value":"B1-S.F2"}],"name":"Medical Surgical East, first floor","type":[{"coding":[{"system":"https://www.cdc.gov/nhsn/cdaportal/terminology/codesystem/hsloc.html","version":"2022","code":"1209-6","display":"Treatment Room","userSelected":true}]}]},"request":{"method":"PUT","url":"Location/6dea4894-6dd5-4071-a1df-fd2d43c71669"}},{"fullUrl":"https://madie.cms.gov/Condition/79826ea7-0273-49ed-ac57-59e7b914abcb","resource":{"resourceType":"Condition","id":"79826ea7-0273-49ed-ac57-59e7b914abcb","meta":{"profile":["http://hl7.org/fhir/us/qicore/StructureDefinition/qicore-condition"]},"category":[{"coding":[{"system":"http://terminology.hl7.org/CodeSystem/condition-category","code":"encounter-diagnosis","display":"Encounter Diagnosis"}]}],"code":{"coding":[{"system":"http://snomed.info/sct","version":"2023-09","code":"10349009","display":"Multi-infarct dementia with delirium (disorder)","userSelected":true}]},"subject":{"reference":"Patient/404c928b-a752-4792-91c4-8a1fd0656759"},"recordedDate":"2026-04-09T08:00:00.000+00:00"},"request":{"method":"PUT","url":"Condition/79826ea7-0273-49ed-ac57-59e7b914abcb"}},{"fullUrl":"https://madie.cms.gov/Location/d7ecc15e-703a-42fb-b44a-28ae954c68c4","resource":{"resourceType":"Location","id":"d7ecc15e-703a-42fb-b44a-28ae954c68c4","meta":{"profile":["http://hl7.org/fhir/us/qicore/StructureDefinition/qicore-location"]},"identifier":[{"use":"usual","system":"http://exampleoflocation.com","value":"B1-S.F2"}],"name":"Medical Surgical East, first floor","type":[{"coding":[{"system":"https://www.cdc.gov/nhsn/cdaportal/terminology/codesystem/hsloc.html","version":"2022","code":"1108-0","display":"Emergency Department","userSelected":true}]}]},"request":{"method":"PUT","url":"Location/d7ecc15e-703a-42fb-b44a-28ae954c68c4"}},{"fullUrl":"https://madie.cms.gov/Location/7354b969-1213-4294-8ae5-7b10685c3e0d","resource":{"resourceType":"Location","id":"7354b969-1213-4294-8ae5-7b10685c3e0d","meta":{"profile":["http://hl7.org/fhir/us/qicore/StructureDefinition/qicore-location"]},"identifier":[{"use":"usual","system":"http://exampleoflocation.com","value":"B1-S.F2"}],"name":"Medical Surgical East, first floor","type":[{"coding":[{"system":"https://www.cdc.gov/nhsn/cdaportal/terminology/codesystem/hsloc.html","version":"2022","code":"1209-6","display":"Treatment Room"}]}]},"request":{"method":"PUT","url":"Location/7354b969-1213-4294-8ae5-7b10685c3e0d"}},{"fullUrl":"https://madie.cms.gov/Coverage/153649f9-dc6b-4d2a-985b-6da1e6e34f71","resource":{"resourceType":"Coverage","id":"153649f9-dc6b-4d2a-985b-6da1e6e34f71","meta":{"profile":["http://hl7.org/fhir/us/qicore/StructureDefinition/qicore-coverage"]},"status":"active","beneficiary":{"reference":"Patient/404c928b-a752-4792-91c4-8a1fd0656759"},"payor":[{"reference":"Organization/607fdef9-3983-4cef-ab1a-95434d29b463"}]},"request":{"method":"PUT","url":"Coverage/153649f9-dc6b-4d2a-985b-6da1e6e34f71"}},{"fullUrl":"https://madie.cms.gov/Organization/ddee71c4-fad2-43f4-8f9f-87a9d8027341","resource":{"resourceType":"Organization","id":"607fdef9-3983-4cef-ab1a-95434d29b463","meta":{"profile":["http://hl7.org/fhir/us/qicore/StructureDefinition/qicore-organization"]},"identifier":[{"use":"temp","system":"urn:oid:2.16.840.1.113883.4.4","value":"21-3259825"}],"active":true,"type":[{"coding":[{"system":"http://terminology.hl7.org/CodeSystem/organization-type","code":"pay","display":"Payer"}]}],"name":"Blue Cross Blue Shield of Texas","telecom":[{"system":"phone","value":"(+1) 972-766-6900"}],"address":[{"use":"billing","type":"postal","line":["P.O. Box 660044"],"city":"Dallas","state":"TX","postalCode":"75266-0044","country":"USA"}]},"request":{"method":"PUT","url":"Organization/607fdef9-3983-4cef-ab1a-95434d29b463"}},{"fullUrl":"https://madie.cms.gov/Practitioner/63beb98c-9243-4687-a12f-cca18a184752","resource":{"resourceType":"Practitioner","id":"63beb98c-9243-4687-a12f-cca18a184752","meta":{"profile":["http://hl7.org/fhir/us/qicore/StructureDefinition/qicore-practitioner"]},"identifier":[{"system":"http://hl7.org/fhir/sid/us-npi","value":"123456"}],"name":[{"family":"Evil","prefix":["Dr"]}]},"request":{"method":"PUT","url":"Practitioner/63beb98c-9243-4687-a12f-cca18a184752"}},{"fullUrl":"https://madie.cms.gov/MeasureReport/a4183c0c-8f0d-4934-be5a-d3ff8ba88a0f","resource":{"resourceType":"MeasureReport","id":"a4183c0c-8f0d-4934-be5a-d3ff8ba88a0f","meta":{"profile":["http://hl7.org/fhir/us/cqfmeasures/StructureDefinition/test-case-cqfm"]},"contained":[{"resourceType":"Parameters","id":"b5b555a4-8f45-4f57-8a61-16ace2d83968-parameters","parameter":[{"name":"subject","valueString":"404c928b-a752-4792-91c4-8a1fd0656759"}]}],"extension":[{"url":"http://hl7.org/fhir/us/cqfmeasures/StructureDefinition/cqfm-inputParameters","valueReference":{"reference":"#b5b555a4-8f45-4f57-8a61-16ace2d83968-parameters"}},{"url":"http://hl7.org/fhir/us/cqfmeasures/StructureDefinition/cqfm-testCaseDescription","valueMarkdown":"Enc 1st day of MP, in ED only 40 mins. "}],"modifierExtension":[{"url":"http://hl7.org/fhir/us/cqfmeasures/StructureDefinition/cqfm-isTestCase","valueBoolean":true}],"status":"complete","type":"individual","measure":"https://madie.cms.gov/Measure/CMS1244ECCQHOQRFHIR","period":{"start":"2026-01-01","end":"2026-12-31"},"group":[{"population":[{"code":{"coding":[{"system":"http://terminology.hl7.org/CodeSystem/measure-population","code":"initial-population","display":"Initial Population"}]},"count":1},{"code":{"coding":[{"system":"http://terminology.hl7.org/CodeSystem/measure-population","code":"denominator","display":"Denominator"}]},"count":1},{"code":{"coding":[{"system":"http://terminology.hl7.org/CodeSystem/measure-population","code":"numerator","display":"Numerator"}]},"count":0}]}]},"request":{"method":"PUT","url":"MeasureReport/a4183c0c-8f0d-4934-be5a-d3ff8ba88a0f"}}]}