{"resourceType":"Bundle","id":"tests-5c0a9a55-423a-44fd-9dd1-c5437530ba9b-bundle","type":"transaction","entry":[{"fullUrl":"https://madie.cms.gov/Patient/5c0a9a55-423a-44fd-9dd1-c5437530ba9b","resource":{"resourceType":"Patient","id":"5c0a9a55-423a-44fd-9dd1-c5437530ba9b","meta":{"profile":["http://hl7.org/fhir/us/qicore/StructureDefinition/qicore-patient"]},"text":{"status":"generated","div":"<div xmlns=\"http://www.w3.org/1999/xhtml\"><div class=\"hapiHeaderText\">HematRR02Sat <b>COMBO2 </b></div><table class=\"hapiPropertyTable\"><tbody><tr><td>Identifier</td><td>55be52bc9e1426c31d8780eb824183022ec2cc324af94b315adc5b6214830281</td></tr><tr><td>Date of birth</td><td><span>15 June 1947</span></td></tr></tbody></table></div>"},"extension":[{"url":"http://hl7.org/fhir/us/core/StructureDefinition/us-core-race","extension":[{"url":"ombCategory","valueCoding":{"system":"urn:oid:2.16.840.1.113883.6.238","code":"1002-5","display":"American Indian or Alaska Native","userSelected":true}},{"url":"text","valueString":"American Indian or Alaska Native"}]},{"url":"http://hl7.org/fhir/us/core/StructureDefinition/us-core-ethnicity","extension":[{"url":"ombCategory","valueCoding":{"system":"urn:oid:2.16.840.1.113883.6.238","code":"2186-5","display":"Not Hispanic or Latino","userSelected":true}},{"url":"text","valueString":"Not Hispanic or Latino"}]}],"identifier":[{"type":{"coding":[{"system":"http://terminology.hl7.org/CodeSystem/v2-0203","code":"MR"}]},"system":"https://bonnie-fhir.healthit.gov/","value":"63ec09a4ccb3770120fea9b8"}],"active":true,"name":[{"use":"usual","family":"HematocritRespiratoryRateO2SatPass","given":["HematocritRespRateO2SatDuringMP"]}],"gender":"male","birthDate":"1947-06-15"},"request":{"method":"PUT","url":"Patient/5c0a9a55-423a-44fd-9dd1-c5437530ba9b"}},{"fullUrl":"https://madie.cms.gov/Encounter/5dc2da05831f330000d7401a","resource":{"resourceType":"Encounter","id":"6b2baa2d-12b8-4f76-a0dd-8bc6c39c523c","meta":{"profile":["http://hl7.org/fhir/us/qicore/StructureDefinition/qicore-encounter"]},"status":"finished","class":{"system":"http://terminology.hl7.org/CodeSystem/v3-ActCode","code":"IMP","display":"inpatient encounter","userSelected":true},"type":[{"coding":[{"system":"http://snomed.info/sct","code":"183452005"}]}],"subject":{"reference":"Patient/5c0a9a55-423a-44fd-9dd1-c5437530ba9b"},"period":{"start":"2025-08-21T08:00:00.000+00:00","end":"2025-08-22T08:15:00.000+00:00"}},"request":{"method":"PUT","url":"Encounter/6b2baa2d-12b8-4f76-a0dd-8bc6c39c523c"}},{"fullUrl":"https://madie.cms.gov/Encounter/5e3b0350f0ad9e0000998d96","resource":{"resourceType":"Encounter","id":"912a386d-6bd4-4b35-988d-e11cdda20a97","meta":{"profile":["http://hl7.org/fhir/us/qicore/StructureDefinition/qicore-encounter"]},"status":"finished","class":{"system":"http://terminology.hl7.org/CodeSystem/v3-ActCode","code":"ACUTE","display":"Acute","userSelected":true},"type":[{"coding":[{"system":"http://snomed.info/sct","code":"183452005"}]}],"subject":{"reference":"Patient/5c0a9a55-423a-44fd-9dd1-c5437530ba9b"},"period":{"start":"2025-08-16T08:00:00.000+00:00","end":"2025-08-16T08:15:00.000+00:00"}},"request":{"method":"PUT","url":"Encounter/912a386d-6bd4-4b35-988d-e11cdda20a97"}},{"fullUrl":"https://madie.cms.gov/Coverage/5f98f3dda916680000fb6ad1","resource":{"resourceType":"Coverage","id":"fcec5213-8b7c-4b01-8e6f-59a64db8812c","meta":{"profile":["http://hl7.org/fhir/us/qicore/StructureDefinition/qicore-coverage"]},"status":"active","type":{"coding":[{"system":"https://nahdo.org/sopt","version":"1.0.1","code":"1","display":"Medicare payer","userSelected":true}]},"beneficiary":{"reference":"Patient/5c0a9a55-423a-44fd-9dd1-c5437530ba9b"},"payor":[{"reference":"Organization/ec8cac12-7dd8-4c6e-8c44-d6c645085c80"}]},"request":{"method":"PUT","url":"Coverage/fcec5213-8b7c-4b01-8e6f-59a64db8812c"}},{"fullUrl":"https://madie.cms.gov/Observation/5b5638b6b84846558c53c407","resource":{"resourceType":"Observation","id":"b773a73e-e801-454d-b3ed-a32b7a761af2","meta":{"profile":["http://hl7.org/fhir/us/core/StructureDefinition/us-core-observation-lab"]},"status":"final","category":[{"coding":[{"system":"http://terminology.hl7.org/CodeSystem/observation-category","code":"laboratory","display":"laboratory","userSelected":true}]}],"code":{"coding":[{"system":"http://loinc.org","code":"20570-8","display":"Hematocrit [Volume Fraction] of Blood"}]},"subject":{"reference":"Patient/5c0a9a55-423a-44fd-9dd1-c5437530ba9b"},"effectiveDateTime":"2025-08-21T08:00:00.000+00:00","issued":"2025-08-21T08:00:00.000Z","valueQuantity":{"value":39,"unit":"%","system":"http://unitsofmeasure.org","code":"%"}},"request":{"method":"PUT","url":"Observation/b773a73e-e801-454d-b3ed-a32b7a761af2"}},{"fullUrl":"https://madie.cms.gov/Observation/5b5638b6b84846558c53c408","resource":{"resourceType":"Observation","id":"1d932e2f-e284-4a52-b658-9c6ab7f2f3c4","meta":{"profile":["http://hl7.org/fhir/StructureDefinition/resprate"]},"status":"final","category":[{"coding":[{"system":"http://terminology.hl7.org/CodeSystem/observation-category","code":"vital-signs","display":"Vital Signs","userSelected":true}]}],"code":{"coding":[{"system":"http://loinc.org","code":"9279-1","display":"Respiratory rate"}]},"subject":{"reference":"Patient/5c0a9a55-423a-44fd-9dd1-c5437530ba9b"},"effectiveDateTime":"2025-08-21T08:00:00.000+00:00","valueQuantity":{"value":16.0,"unit":"/min","system":"http://unitsofmeasure.org","code":"/min"}},"request":{"method":"PUT","url":"Observation/1d932e2f-e284-4a52-b658-9c6ab7f2f3c4"}},{"fullUrl":"https://madie.cms.gov/Observation/5b5638b6b84846558c53c40c","resource":{"resourceType":"Observation","id":"bccc3854-1782-4b02-af1f-484ff67d71d1","meta":{"profile":["http://hl7.org/fhir/StructureDefinition/oxygensat"]},"status":"final","category":[{"coding":[{"system":"http://terminology.hl7.org/CodeSystem/observation-category","code":"vital-signs","display":"Vital Signs","userSelected":true}]}],"code":{"coding":[{"system":"http://loinc.org","code":"2708-6","display":"Oxygen saturation in Arterial blood"}]},"subject":{"reference":"Patient/5c0a9a55-423a-44fd-9dd1-c5437530ba9b"},"effectiveDateTime":"2025-08-21T09:59:00.000+00:00","valueQuantity":{"value":100,"unit":"%","system":"http://unitsofmeasure.org","code":"%"}},"request":{"method":"PUT","url":"Observation/bccc3854-1782-4b02-af1f-484ff67d71d1"}},{"fullUrl":"https://madie.cms.gov/Organization/123456","resource":{"resourceType":"Organization","id":"ec8cac12-7dd8-4c6e-8c44-d6c645085c80","meta":{"profile":["http://hl7.org/fhir/us/qicore/StructureDefinition/qicore-organization"]},"identifier":[{"use":"temp","system":"urn:oid:2.16.840.1.113883.4.4","value":"21-3259825"}],"active":true,"type":[{"coding":[{"system":"http://terminology.hl7.org/CodeSystem/organization-type","code":"pay","display":"Payer"}]}],"name":"Blue Cross Blue Shield of Texas","telecom":[{"system":"phone","value":"(+1) 972-766-6900"}],"address":[{"use":"billing","type":"postal","line":["P.O. Box 660044"],"city":"Dallas","state":"TX","postalCode":"75266-0044","country":"USA"}]},"request":{"method":"PUT","url":"Organization/ec8cac12-7dd8-4c6e-8c44-d6c645085c80"}},{"fullUrl":"https://madie.cms.gov/Practitioner/practitioner-123456","resource":{"resourceType":"Practitioner","id":"a52d1f76-78ad-419d-a1c0-1e49c14cc865","meta":{"profile":["http://hl7.org/fhir/us/qicore/StructureDefinition/qicore-practitioner"]},"identifier":[{"system":"http://hl7.org/fhir/sid/us-npi","value":"123456"}],"name":[{"family":"Evil","prefix":["Dr"]}]},"request":{"method":"PUT","url":"Practitioner/a52d1f76-78ad-419d-a1c0-1e49c14cc865"}},{"fullUrl":"https://madie.cms.gov/MeasureReport/a1d2d9fb-3e65-4625-b1f1-51a479c6a9d9","resource":{"resourceType":"MeasureReport","id":"a1d2d9fb-3e65-4625-b1f1-51a479c6a9d9","meta":{"profile":["http://hl7.org/fhir/us/cqfmeasures/StructureDefinition/test-case-cqfm"]},"contained":[{"resourceType":"Parameters","id":"8d7ac49a-271c-4d7d-baa6-dc6e5b749018-parameters","parameter":[{"name":"subject","valueString":"5c0a9a55-423a-44fd-9dd1-c5437530ba9b"}]}],"extension":[{"url":"http://hl7.org/fhir/us/cqfmeasures/StructureDefinition/cqfm-inputParameters","valueReference":{"reference":"#8d7ac49a-271c-4d7d-baa6-dc6e5b749018-parameters"}},{"url":"http://hl7.org/fhir/us/cqfmeasures/StructureDefinition/cqfm-testCaseDescription","valueMarkdown":"2 encounter during measurement period. Hemat exam, S02 Exam, and RR exam during timing interval. "}],"modifierExtension":[{"url":"http://hl7.org/fhir/us/cqfmeasures/StructureDefinition/cqfm-isTestCase","valueBoolean":true}],"status":"complete","type":"individual","measure":"https://madie.cms.gov/Measure/HybridHospitalWideReadmissionFHIR","period":{"start":"2025-07-01","end":"2026-06-30"},"group":[{"population":[{"code":{"coding":[{"system":"http://terminology.hl7.org/CodeSystem/measure-population","code":"initial-population","display":"Initial Population"}]},"count":2}]}]},"request":{"method":"PUT","url":"MeasureReport/a1d2d9fb-3e65-4625-b1f1-51a479c6a9d9"}}]}