{"resourceType":"Bundle","id":"tests-942960c8-37da-492d-85c8-0271d7b655b2-bundle","type":"transaction","entry":[{"fullUrl":"https://madie.cms.gov/Patient/942960c8-37da-492d-85c8-0271d7b655b2","resource":{"resourceType":"Patient","id":"942960c8-37da-492d-85c8-0271d7b655b2","meta":{"profile":["http://hl7.org/fhir/us/qicore/StructureDefinition/qicore-patient"]},"text":{"status":"generated","div":"<div xmlns=\"http://www.w3.org/1999/xhtml\"><div class=\"hapiHeaderText\">GT24beforeButLT24after <b>WEIGHTPASS </b></div><table class=\"hapiPropertyTable\"><tbody><tr><td>Identifier</td><td>af4f1b60304c2dfd571a63f06371ced6a910caaabd39580cdcebe7683e429596</td></tr><tr><td>Date of birth</td><td><span>21 June 1947</span></td></tr></tbody></table></div>"},"extension":[{"url":"http://hl7.org/fhir/us/core/StructureDefinition/us-core-race","extension":[{"url":"ombCategory","valueCoding":{"system":"urn:oid:2.16.840.1.113883.6.238","code":"1002-5","display":"American Indian or Alaska Native","userSelected":true}},{"url":"text","valueString":"American Indian or Alaska Native"}]},{"url":"http://hl7.org/fhir/us/core/StructureDefinition/us-core-ethnicity","extension":[{"url":"ombCategory","valueCoding":{"system":"urn:oid:2.16.840.1.113883.6.238","code":"2186-5","display":"Not Hispanic or Latino","userSelected":true}},{"url":"text","valueString":"Not Hispanic or Latino"}]}],"identifier":[{"type":{"coding":[{"system":"http://terminology.hl7.org/CodeSystem/v2-0203","code":"MR"}]},"system":"https://bonnie-fhir.healthit.gov/","value":"63ec09a5ccb3770120feaa17"}],"active":true,"name":[{"use":"usual","family":"WeightPass","given":["Weight1MinBeforeand1MinAfterEncounterStart"]}],"gender":"male","birthDate":"1947-06-21"},"request":{"method":"PUT","url":"Patient/942960c8-37da-492d-85c8-0271d7b655b2"}},{"fullUrl":"https://madie.cms.gov/Encounter/5dc2dc91831f330000d7437b","resource":{"resourceType":"Encounter","id":"824ca8ce-1350-4409-8a85-0fe1a2f12eed","meta":{"profile":["http://hl7.org/fhir/us/qicore/StructureDefinition/qicore-encounter"]},"status":"finished","class":{"system":"http://terminology.hl7.org/CodeSystem/v3-ActCode","code":"IMP","display":"inpatient encounter","userSelected":true},"type":[{"coding":[{"system":"http://snomed.info/sct","code":"183452005"}]}],"subject":{"reference":"Patient/942960c8-37da-492d-85c8-0271d7b655b2"},"period":{"start":"2025-07-21T08:00:00.000+00:00","end":"2025-08-18T08:15:00.000+00:00"}},"request":{"method":"PUT","url":"Encounter/824ca8ce-1350-4409-8a85-0fe1a2f12eed"}},{"fullUrl":"https://madie.cms.gov/Coverage/5f98f60ba916680000fb70da","resource":{"resourceType":"Coverage","id":"d43b461b-4f64-481d-b7df-076cb568a280","meta":{"profile":["http://hl7.org/fhir/us/qicore/StructureDefinition/qicore-coverage"]},"status":"active","type":{"coding":[{"system":"https://nahdo.org/sopt","version":"1.0.1","code":"1","display":"Medicare payer","userSelected":true}]},"beneficiary":{"reference":"Patient/942960c8-37da-492d-85c8-0271d7b655b2"},"payor":[{"reference":"Organization/33ead57e-5e04-40e4-95ea-bc3cdbd58917"}]},"request":{"method":"PUT","url":"Coverage/d43b461b-4f64-481d-b7df-076cb568a280"}},{"fullUrl":"https://madie.cms.gov/Observation/5b562b10b84846558c53c18f","resource":{"resourceType":"Observation","id":"b901346c-4503-4813-b3eb-3f2ee4b49679","meta":{"profile":["http://hl7.org/fhir/StructureDefinition/bodyweight"]},"status":"final","category":[{"coding":[{"system":"http://terminology.hl7.org/CodeSystem/observation-category","code":"vital-signs","display":"Vital Signs","userSelected":true}]}],"code":{"coding":[{"system":"http://loinc.org","code":"29463-7","display":"Body weight"}]},"subject":{"reference":"Patient/942960c8-37da-492d-85c8-0271d7b655b2"},"effectiveDateTime":"2025-07-21T07:59:00.000+00:00","valueQuantity":{"value":170.0,"unit":"[lb_av]","system":"http://unitsofmeasure.org","code":"[lb_av]"}},"request":{"method":"PUT","url":"Observation/b901346c-4503-4813-b3eb-3f2ee4b49679"}},{"fullUrl":"https://madie.cms.gov/Observation/5b562b10b84846558c53c191","resource":{"resourceType":"Observation","id":"32309b0b-8ab0-4078-8368-c22107729b13","meta":{"profile":["http://hl7.org/fhir/StructureDefinition/bodyweight"]},"status":"final","category":[{"coding":[{"system":"http://terminology.hl7.org/CodeSystem/observation-category","code":"vital-signs","display":"Vital Signs","userSelected":true}]}],"code":{"coding":[{"system":"http://loinc.org","code":"29463-7","display":"Body weight"}]},"subject":{"reference":"Patient/942960c8-37da-492d-85c8-0271d7b655b2"},"effectiveDateTime":"2025-07-21T08:01:00.000+00:00","valueQuantity":{"value":165.0,"unit":"[lb_av]","system":"http://unitsofmeasure.org","code":"[lb_av]"}},"request":{"method":"PUT","url":"Observation/32309b0b-8ab0-4078-8368-c22107729b13"}},{"fullUrl":"https://madie.cms.gov/Organization/123456","resource":{"resourceType":"Organization","id":"33ead57e-5e04-40e4-95ea-bc3cdbd58917","meta":{"profile":["http://hl7.org/fhir/us/qicore/StructureDefinition/qicore-organization"]},"identifier":[{"use":"temp","system":"urn:oid:2.16.840.1.113883.4.4","value":"21-3259825"}],"active":true,"type":[{"coding":[{"system":"http://terminology.hl7.org/CodeSystem/organization-type","code":"pay","display":"Payer"}]}],"name":"Blue Cross Blue Shield of Texas","telecom":[{"system":"phone","value":"(+1) 972-766-6900"}],"address":[{"use":"billing","type":"postal","line":["P.O. Box 660044"],"city":"Dallas","state":"TX","postalCode":"75266-0044","country":"USA"}]},"request":{"method":"PUT","url":"Organization/33ead57e-5e04-40e4-95ea-bc3cdbd58917"}},{"fullUrl":"https://madie.cms.gov/Practitioner/practitioner-123456","resource":{"resourceType":"Practitioner","id":"131dcba7-4e9c-46d9-80b0-4821753740db","meta":{"profile":["http://hl7.org/fhir/us/qicore/StructureDefinition/qicore-practitioner"]},"identifier":[{"system":"http://hl7.org/fhir/sid/us-npi","value":"123456"}],"name":[{"family":"Evil","prefix":["Dr"]}]},"request":{"method":"PUT","url":"Practitioner/131dcba7-4e9c-46d9-80b0-4821753740db"}},{"fullUrl":"https://madie.cms.gov/MeasureReport/9f219314-1341-4b4f-924d-9896872903e8","resource":{"resourceType":"MeasureReport","id":"9f219314-1341-4b4f-924d-9896872903e8","meta":{"profile":["http://hl7.org/fhir/us/cqfmeasures/StructureDefinition/test-case-cqfm"]},"contained":[{"resourceType":"Parameters","id":"8ff59f01-37b9-471d-8061-46165f52916e-parameters","parameter":[{"name":"subject","valueString":"942960c8-37da-492d-85c8-0271d7b655b2"}]}],"extension":[{"url":"http://hl7.org/fhir/us/cqfmeasures/StructureDefinition/cqfm-inputParameters","valueReference":{"reference":"#8ff59f01-37b9-471d-8061-46165f52916e-parameters"}},{"url":"http://hl7.org/fhir/us/cqfmeasures/StructureDefinition/cqfm-testCaseDescription","valueMarkdown":"Patient has 2 weight exams.\nOne exam occurred 1 minute before encounter, one exam occurred 1 minute after encounter started. "}],"modifierExtension":[{"url":"http://hl7.org/fhir/us/cqfmeasures/StructureDefinition/cqfm-isTestCase","valueBoolean":true}],"status":"complete","type":"individual","measure":"https://madie.cms.gov/Measure/HybridHospitalWideReadmissionFHIR","period":{"start":"2025-07-01","end":"2026-06-30"},"group":[{"population":[{"code":{"coding":[{"system":"http://terminology.hl7.org/CodeSystem/measure-population","code":"initial-population","display":"Initial Population"}]},"count":1}]}]},"request":{"method":"PUT","url":"MeasureReport/9f219314-1341-4b4f-924d-9896872903e8"}}]}