{"resourceType":"Bundle","id":"tests-6e20f297-39e7-4043-b1ae-c9226913b6f8-bundle","type":"transaction","entry":[{"fullUrl":"https://madie.cms.gov/Patient/6e20f297-39e7-4043-b1ae-c9226913b6f8","resource":{"resourceType":"Patient","id":"6e20f297-39e7-4043-b1ae-c9226913b6f8","meta":{"profile":["http://hl7.org/fhir/us/qicore/StructureDefinition/qicore-patient"]},"text":{"status":"generated","div":"<div xmlns=\"http://www.w3.org/1999/xhtml\"><div class=\"hapiHeaderText\">OnAdmit <b>POTASSPASS </b></div><table class=\"hapiPropertyTable\"><tbody><tr><td>Identifier</td><td>b8912d1880994d076d01ffeb8d822e9a94a15a8366278c89dc05c323ce4a468a</td></tr><tr><td>Date of birth</td><td><span>01 June 1947</span></td></tr></tbody></table></div>"},"extension":[{"url":"http://hl7.org/fhir/us/core/StructureDefinition/us-core-race","extension":[{"url":"ombCategory","valueCoding":{"system":"urn:oid:2.16.840.1.113883.6.238","code":"2106-3","display":"White","userSelected":true}},{"url":"text","valueString":"White"}]},{"url":"http://hl7.org/fhir/us/core/StructureDefinition/us-core-ethnicity","extension":[{"url":"ombCategory","valueCoding":{"system":"urn:oid:2.16.840.1.113883.6.238","code":"2186-5","display":"Not Hispanic or Latino","userSelected":true}},{"url":"text","valueString":"Not Hispanic or Latino"}]}],"identifier":[{"type":{"coding":[{"system":"http://terminology.hl7.org/CodeSystem/v2-0203","code":"MR"}]},"system":"https://bonnie-fhir.healthit.gov/","value":"63ec09abccb3770120feafc8"}],"active":true,"name":[{"use":"usual","family":"PotassPass","given":["Potassium2HrsBeforeEncStartandAtTimeofEncStart"]}],"gender":"female","birthDate":"1947-06-01"},"request":{"method":"PUT","url":"Patient/6e20f297-39e7-4043-b1ae-c9226913b6f8"}},{"fullUrl":"https://madie.cms.gov/Encounter/5dc2db27831f330000d741b3","resource":{"resourceType":"Encounter","id":"ca09ef8a-5382-493d-b129-64430524fb79","meta":{"profile":["http://hl7.org/fhir/us/qicore/StructureDefinition/qicore-encounter"]},"status":"finished","class":{"system":"http://terminology.hl7.org/CodeSystem/v3-ActCode","code":"IMP","display":"inpatient encounter","userSelected":true},"type":[{"coding":[{"system":"http://snomed.info/sct","code":"183452005"}]}],"subject":{"reference":"Patient/6e20f297-39e7-4043-b1ae-c9226913b6f8"},"period":{"start":"2025-08-21T08:00:00.000+00:00","end":"2025-08-22T08:15:00.000+00:00"}},"request":{"method":"PUT","url":"Encounter/ca09ef8a-5382-493d-b129-64430524fb79"}},{"fullUrl":"https://madie.cms.gov/Coverage/5f98f54da916680000fb6e74","resource":{"resourceType":"Coverage","id":"cde93dec-4e64-42e3-854a-5a71c6247940","meta":{"profile":["http://hl7.org/fhir/us/qicore/StructureDefinition/qicore-coverage"]},"status":"active","type":{"coding":[{"system":"https://nahdo.org/sopt","version":"1.0.1","code":"1","display":"Medicare payer","userSelected":true}]},"beneficiary":{"reference":"Patient/6e20f297-39e7-4043-b1ae-c9226913b6f8"},"payor":[{"reference":"Organization/9e9b3f13-a353-4173-b29b-947d6f1f2031"}]},"request":{"method":"PUT","url":"Coverage/cde93dec-4e64-42e3-854a-5a71c6247940"}},{"fullUrl":"https://madie.cms.gov/Observation/5b55f69ab84846558c53bb5a","resource":{"resourceType":"Observation","id":"60788162-5ede-4fdb-a72b-6db99d071253","meta":{"profile":["http://hl7.org/fhir/us/core/StructureDefinition/us-core-observation-lab"]},"status":"final","category":[{"coding":[{"system":"http://terminology.hl7.org/CodeSystem/observation-category","code":"laboratory","display":"laboratory","userSelected":true}]}],"code":{"coding":[{"system":"http://loinc.org","code":"2823-3","display":"Potassium [Moles/volume] in Serum or Plasma"}]},"subject":{"reference":"Patient/6e20f297-39e7-4043-b1ae-c9226913b6f8"},"effectiveDateTime":"2025-08-21T06:00:00.000+00:00","issued":"2025-08-21T06:00:00.000+00:00","valueQuantity":{"value":5,"unit":"meq/L","system":"http://unitsofmeasure.org","code":"meq/L"}},"request":{"method":"PUT","url":"Observation/60788162-5ede-4fdb-a72b-6db99d071253"}},{"fullUrl":"https://madie.cms.gov/Observation/5b55f69ab84846558c53bb5c","resource":{"resourceType":"Observation","id":"f00d47bd-dc8c-46db-a073-7d5ed32ee6bb","meta":{"profile":["http://hl7.org/fhir/us/core/StructureDefinition/us-core-observation-lab"]},"status":"final","category":[{"coding":[{"system":"http://terminology.hl7.org/CodeSystem/observation-category","code":"laboratory","display":"laboratory","userSelected":true}]}],"code":{"coding":[{"system":"http://loinc.org","code":"2823-3","display":"Potassium [Moles/volume] in Serum or Plasma"}]},"subject":{"reference":"Patient/6e20f297-39e7-4043-b1ae-c9226913b6f8"},"effectiveDateTime":"2025-08-21T08:00:00.000+00:00","issued":"2025-08-21T08:00:00.000+00:00","valueQuantity":{"value":3,"unit":"meq/L","system":"http://unitsofmeasure.org","code":"meq/L"}},"request":{"method":"PUT","url":"Observation/f00d47bd-dc8c-46db-a073-7d5ed32ee6bb"}},{"fullUrl":"https://madie.cms.gov/Organization/123456","resource":{"resourceType":"Organization","id":"9e9b3f13-a353-4173-b29b-947d6f1f2031","meta":{"profile":["http://hl7.org/fhir/us/qicore/StructureDefinition/qicore-organization"]},"identifier":[{"use":"temp","system":"urn:oid:2.16.840.1.113883.4.4","value":"21-3259825"}],"active":true,"type":[{"coding":[{"system":"http://terminology.hl7.org/CodeSystem/organization-type","code":"pay","display":"Payer"}]}],"name":"Blue Cross Blue Shield of Texas","telecom":[{"system":"phone","value":"(+1) 972-766-6900"}],"address":[{"use":"billing","type":"postal","line":["P.O. Box 660044"],"city":"Dallas","state":"TX","postalCode":"75266-0044","country":"USA"}]},"request":{"method":"PUT","url":"Organization/9e9b3f13-a353-4173-b29b-947d6f1f2031"}},{"fullUrl":"https://madie.cms.gov/Practitioner/practitioner-123456","resource":{"resourceType":"Practitioner","id":"a668d1e2-4baa-42e1-a2aa-8d753617d888","meta":{"profile":["http://hl7.org/fhir/us/qicore/StructureDefinition/qicore-practitioner"]},"identifier":[{"system":"http://hl7.org/fhir/sid/us-npi","value":"123456"}],"name":[{"family":"Evil","prefix":["Dr"]}]},"request":{"method":"PUT","url":"Practitioner/a668d1e2-4baa-42e1-a2aa-8d753617d888"}},{"fullUrl":"https://madie.cms.gov/MeasureReport/c7e12883-7ef9-4013-8a98-f85ee27344ea","resource":{"resourceType":"MeasureReport","id":"c7e12883-7ef9-4013-8a98-f85ee27344ea","meta":{"profile":["http://hl7.org/fhir/us/cqfmeasures/StructureDefinition/test-case-cqfm"]},"contained":[{"resourceType":"Parameters","id":"848344be-92d4-4f92-8f3c-7747652dc5b1-parameters","parameter":[{"name":"subject","valueString":"6e20f297-39e7-4043-b1ae-c9226913b6f8"}]}],"extension":[{"url":"http://hl7.org/fhir/us/cqfmeasures/StructureDefinition/cqfm-inputParameters","valueReference":{"reference":"#848344be-92d4-4f92-8f3c-7747652dc5b1-parameters"}},{"url":"http://hl7.org/fhir/us/cqfmeasures/StructureDefinition/cqfm-testCaseDescription","valueMarkdown":"1 potassium 2hrs before encounter starts, 1 potassium at time of admission.\nThe lab test result that occurred earlier is in the measure results. "}],"modifierExtension":[{"url":"http://hl7.org/fhir/us/cqfmeasures/StructureDefinition/cqfm-isTestCase","valueBoolean":true}],"status":"complete","type":"individual","measure":"https://madie.cms.gov/Measure/HybridHospitalWideReadmissionFHIR","period":{"start":"2025-07-01","end":"2026-06-30"},"group":[{"population":[{"code":{"coding":[{"system":"http://terminology.hl7.org/CodeSystem/measure-population","code":"initial-population","display":"Initial Population"}]},"count":1}]}]},"request":{"method":"PUT","url":"MeasureReport/c7e12883-7ef9-4013-8a98-f85ee27344ea"}}]}