{"resourceType":"Bundle","id":"tests-569ebc6b-4bc4-4b1e-9e40-c3942190d446-bundle","type":"transaction","entry":[{"fullUrl":"https://madie.cms.gov/Patient/569ebc6b-4bc4-4b1e-9e40-c3942190d446","resource":{"resourceType":"Patient","id":"569ebc6b-4bc4-4b1e-9e40-c3942190d446","meta":{"profile":["http://hl7.org/fhir/us/qicore/StructureDefinition/qicore-patient"]},"text":{"status":"generated","div":"<div xmlns=\"http://www.w3.org/1999/xhtml\"><div class=\"hapiHeaderText\">LT24beforeAndLT2after <b>WBCPASS </b></div><table class=\"hapiPropertyTable\"><tbody><tr><td>Identifier</td><td>02a3c13b70ccf5a73b893e80582952bdd83e9cabbf053902bb5eb341874dc5ec</td></tr><tr><td>Date of birth</td><td><span>15 June 1956</span></td></tr></tbody></table></div>"},"extension":[{"url":"http://hl7.org/fhir/us/core/StructureDefinition/us-core-race","extension":[{"url":"ombCategory","valueCoding":{"system":"urn:oid:2.16.840.1.113883.6.238","code":"1002-5","display":"American Indian or Alaska Native","userSelected":true}},{"url":"text","valueString":"American Indian or Alaska Native"}]},{"url":"http://hl7.org/fhir/us/core/StructureDefinition/us-core-ethnicity","extension":[{"url":"ombCategory","valueCoding":{"system":"urn:oid:2.16.840.1.113883.6.238","code":"2186-5","display":"Not Hispanic or Latino","userSelected":true}},{"url":"text","valueString":"Not Hispanic or Latino"}]}],"identifier":[{"type":{"coding":[{"system":"http://terminology.hl7.org/CodeSystem/v2-0203","code":"MR"}]},"system":"https://bonnie-fhir.healthit.gov/","value":"63ec096accb3770120fe9fa2"}],"active":true,"name":[{"use":"usual","family":"AllLabsPass","given":["ObsIPEncountersWithLabsDuringTimeframe"]}],"gender":"male","birthDate":"1960-07-01"},"request":{"method":"PUT","url":"Patient/569ebc6b-4bc4-4b1e-9e40-c3942190d446"}},{"fullUrl":"https://madie.cms.gov/Encounter/5e064eb09350f90000fe244aX","resource":{"resourceType":"Encounter","id":"84983258-ac62-4254-8feb-d48630d66918","meta":{"profile":["http://hl7.org/fhir/us/qicore/StructureDefinition/qicore-encounter"]},"status":"finished","class":{"system":"http://terminology.hl7.org/CodeSystem/v3-ActCode","code":"OBSENC","display":"observation encounter","userSelected":true},"type":[{"coding":[{"system":"http://snomed.info/sct","code":"448951000124107","display":"Admission to observation unit (procedure)"}]}],"subject":{"reference":"Patient/569ebc6b-4bc4-4b1e-9e40-c3942190d446"},"period":{"start":"2025-07-01T08:00:00.000+00:00","end":"2025-07-02T07:15:00.000+00:00"},"length":{"value":1,"unit":"days"}},"request":{"method":"PUT","url":"Encounter/84983258-ac62-4254-8feb-d48630d66918"}},{"fullUrl":"https://madie.cms.gov/Encounter/5e0653429350f90000fe2873","resource":{"resourceType":"Encounter","id":"14211837-5bbc-4c1b-802e-c59b191d5094","meta":{"profile":["http://hl7.org/fhir/us/qicore/StructureDefinition/qicore-encounter"]},"status":"finished","class":{"system":"http://terminology.hl7.org/CodeSystem/v3-ActCode","code":"IMP","display":"inpatient encounter","userSelected":true},"type":[{"coding":[{"system":"http://snomed.info/sct","code":"183452005"}]}],"subject":{"reference":"Patient/569ebc6b-4bc4-4b1e-9e40-c3942190d446"},"period":{"start":"2025-07-02T07:15:00.000+00:00","end":"2025-07-05T23:59:00.000+00:00"},"length":{"value":3,"unit":"days"}},"request":{"method":"PUT","url":"Encounter/14211837-5bbc-4c1b-802e-c59b191d5094"}},{"fullUrl":"https://madie.cms.gov/Observation/5b55f745b84846558c53bc2b","resource":{"resourceType":"Observation","id":"16571ec4-08b5-499c-baf7-9a87d65d2515","meta":{"profile":["http://hl7.org/fhir/us/core/StructureDefinition/us-core-observation-lab"]},"status":"final","category":[{"coding":[{"system":"http://terminology.hl7.org/CodeSystem/observation-category","code":"laboratory","display":"laboratory","userSelected":true}]}],"code":{"coding":[{"system":"http://loinc.org","code":"14627-4","display":"Bicarbonate [Moles/volume] in Venous blood"}]},"subject":{"reference":"Patient/569ebc6b-4bc4-4b1e-9e40-c3942190d446"},"effectiveDateTime":"2025-07-01T08:00:00.000+00:00","issued":"2025-07-01T08:00:00.000+00:00","valueQuantity":{"value":25,"unit":"mmol/L","system":"http://unitsofmeasure.org","code":"mg/dL"}},"request":{"method":"PUT","url":"Observation/16571ec4-08b5-499c-baf7-9a87d65d2515"}},{"fullUrl":"https://madie.cms.gov/Observation/5b55f71ab84846558c53bc0b","resource":{"resourceType":"Observation","id":"75acd27d-b34e-4323-91b1-7b3dfe4d06b6","meta":{"profile":["http://hl7.org/fhir/us/core/StructureDefinition/us-core-observation-lab"]},"status":"final","category":[{"coding":[{"system":"http://terminology.hl7.org/CodeSystem/observation-category","code":"laboratory","display":"laboratory","userSelected":true}]}],"code":{"coding":[{"system":"http://loinc.org","code":"14682-9","display":"Creatinine [Moles/volume] in Serum or Plasma","userSelected":true}]},"subject":{"reference":"Patient/569ebc6b-4bc4-4b1e-9e40-c3942190d446"},"issued":"2025-07-01T10:00:00.000+00:00","valueQuantity":{"value":2,"unit":"mg/dL","system":"http://unitsofmeasure.org","code":"mg/dL"}},"request":{"method":"PUT","url":"Observation/75acd27d-b34e-4323-91b1-7b3dfe4d06b6"}},{"fullUrl":"https://madie.cms.gov/Observation/5e064efa9350f90000fe247c","resource":{"resourceType":"Observation","id":"dd8007b4-b16e-4020-a5e4-6b1f6f399409","meta":{"profile":["http://hl7.org/fhir/us/core/StructureDefinition/us-core-observation-lab"]},"status":"final","category":[{"coding":[{"system":"http://terminology.hl7.org/CodeSystem/observation-category","code":"laboratory","display":"laboratory","userSelected":true}]}],"code":{"coding":[{"system":"http://loinc.org","code":"20570-8","display":"Hematocrit [Volume Fraction] of Blood"}]},"subject":{"reference":"Patient/569ebc6b-4bc4-4b1e-9e40-c3942190d446"},"effectiveDateTime":"2025-07-02T07:15:00.000+00:00","issued":"2025-07-02T07:15:00.000+00:00","valueQuantity":{"value":50,"unit":"%","system":"http://unitsofmeasure.org","code":"%"}},"request":{"method":"PUT","url":"Observation/dd8007b4-b16e-4020-a5e4-6b1f6f399409"}},{"fullUrl":"https://madie.cms.gov/Observation/5b55f69ab84846558c53bb73","resource":{"resourceType":"Observation","id":"d8c9e432-8edf-42e3-aa6e-f79a31daf810","meta":{"profile":["http://hl7.org/fhir/us/core/StructureDefinition/us-core-observation-lab"]},"status":"final","category":[{"coding":[{"system":"http://terminology.hl7.org/CodeSystem/observation-category","code":"laboratory","display":"laboratory","userSelected":true}]}],"code":{"coding":[{"system":"http://loinc.org","code":"26464-8","display":"Leukocytes [#/volume] in Blood"}]},"subject":{"reference":"Patient/569ebc6b-4bc4-4b1e-9e40-c3942190d446"},"issued":"2025-07-03T07:15:00.000+00:00","valueQuantity":{"value":5000,"unit":"uL","system":"http://unitsofmeasure.org","code":"uL"}},"request":{"method":"PUT","url":"Observation/d8c9e432-8edf-42e3-aa6e-f79a31daf810"}},{"fullUrl":"https://madie.cms.gov/Observation/5b5f8c6eb848461e71030b29","resource":{"resourceType":"Observation","id":"93236a70-1899-421d-b80c-74a995a78024","meta":{"profile":["http://hl7.org/fhir/us/core/StructureDefinition/us-core-observation-lab"]},"status":"final","category":[{"coding":[{"system":"http://terminology.hl7.org/CodeSystem/observation-category","code":"laboratory","display":"laboratory","userSelected":true}]}],"code":{"coding":[{"system":"http://loinc.org","code":"13056-7","display":"Platelets [#/volume] in Plasma by Automated count"}]},"subject":{"reference":"Patient/569ebc6b-4bc4-4b1e-9e40-c3942190d446"},"effectiveDateTime":"2025-07-03T07:15:00.000+00:00","issued":"2025-07-03T07:15:00.000+00:00","valueQuantity":{"value":150000,"unit":"/uL","system":"http://unitsofmeasure.org","code":"/uL"}},"request":{"method":"PUT","url":"Observation/93236a70-1899-421d-b80c-74a995a78024"}},{"fullUrl":"https://madie.cms.gov/Observation/5b7c55d2b84846299c81a578","resource":{"resourceType":"Observation","id":"ae59921f-a62f-4c11-bf36-a8f291430d90","meta":{"profile":["http://hl7.org/fhir/us/core/StructureDefinition/us-core-observation-lab"]},"status":"final","category":[{"coding":[{"system":"http://terminology.hl7.org/CodeSystem/observation-category","code":"laboratory","display":"laboratory","userSelected":true}]}],"code":{"coding":[{"system":"http://loinc.org","code":"2947-0","display":"Sodium [Moles/volume] in Blood"}]},"subject":{"reference":"Patient/569ebc6b-4bc4-4b1e-9e40-c3942190d446"},"effectiveDateTime":"2024-07-03T07:15:00.000+00:00","issued":"2025-07-03T07:15:00.000+00:00","valueQuantity":{"value":5,"unit":"meq/L","system":"http://unitsofmeasure.org","code":"meq/L"}},"request":{"method":"PUT","url":"Observation/ae59921f-a62f-4c11-bf36-a8f291430d90"}},{"fullUrl":"https://madie.cms.gov/Coverage/5f996b1dc8c7dc0000c7b884","resource":{"resourceType":"Coverage","id":"f6d45a30-63ca-4c5d-a129-36e0d2037210","meta":{"profile":["http://hl7.org/fhir/us/qicore/StructureDefinition/qicore-coverage"]},"status":"active","type":{"coding":[{"system":"https://nahdo.org/sopt","version":"9.2","code":"1","display":"MEDICARE","userSelected":true}]},"beneficiary":{"reference":"Patient/569ebc6b-4bc4-4b1e-9e40-c3942190d446"},"period":{"start":"2025-01-01T00:00:00+00:00"},"payor":[{"reference":"Organization/024e2731-b045-43bf-80d2-684774c5b51c"}]},"request":{"method":"PUT","url":"Coverage/f6d45a30-63ca-4c5d-a129-36e0d2037210"}},{"fullUrl":"https://madie.cms.gov/Organization/123456","resource":{"resourceType":"Organization","id":"024e2731-b045-43bf-80d2-684774c5b51c","meta":{"profile":["http://hl7.org/fhir/us/qicore/StructureDefinition/qicore-organization"]},"identifier":[{"use":"temp","system":"urn:oid:2.16.840.1.113883.4.4","value":"21-3259825"}],"active":true,"type":[{"coding":[{"system":"http://terminology.hl7.org/CodeSystem/organization-type","code":"pay","display":"Payer"}]}],"name":"Blue Cross Blue Shield of Texas","telecom":[{"system":"phone","value":"(+1) 972-766-6900"}],"address":[{"use":"billing","type":"postal","line":["P.O. Box 660044"],"city":"Dallas","state":"TX","postalCode":"75266-0044","country":"USA"}]},"request":{"method":"PUT","url":"Organization/024e2731-b045-43bf-80d2-684774c5b51c"}},{"fullUrl":"https://madie.cms.gov/Practitioner/practitioner-123456","resource":{"resourceType":"Practitioner","id":"2d463a54-5fd5-4405-93c0-ebe1c13403b3","meta":{"profile":["http://hl7.org/fhir/us/qicore/StructureDefinition/qicore-practitioner"]},"identifier":[{"system":"http://hl7.org/fhir/sid/us-npi","value":"123456"}],"name":[{"family":"Evil","prefix":["Dr"]}]},"request":{"method":"PUT","url":"Practitioner/2d463a54-5fd5-4405-93c0-ebe1c13403b3"}},{"fullUrl":"https://madie.cms.gov/MeasureReport/b8448d07-9667-4919-972f-46f08e80e974","resource":{"resourceType":"MeasureReport","id":"b8448d07-9667-4919-972f-46f08e80e974","meta":{"profile":["http://hl7.org/fhir/us/cqfmeasures/StructureDefinition/test-case-cqfm"]},"contained":[{"resourceType":"Parameters","id":"90bba766-569e-45dd-b9dc-19a006f87dee-parameters","parameter":[{"name":"subject","valueString":"569ebc6b-4bc4-4b1e-9e40-c3942190d446"}]}],"extension":[{"url":"http://hl7.org/fhir/us/cqfmeasures/StructureDefinition/cqfm-inputParameters","valueReference":{"reference":"#90bba766-569e-45dd-b9dc-19a006f87dee-parameters"}},{"url":"http://hl7.org/fhir/us/cqfmeasures/StructureDefinition/cqfm-testCaseDescription","valueMarkdown":"Patient has Medicare and is age 65 start of Observation enc: bicarbonate lab performed at start of Obs enc; creatinine @ 2 hrs after start;  Inpatient enc: hematocrit @ admission; WBC, platelets, and sodium 24 hrs after admit; "}],"modifierExtension":[{"url":"http://hl7.org/fhir/us/cqfmeasures/StructureDefinition/cqfm-isTestCase","valueBoolean":true}],"status":"complete","type":"individual","measure":"https://madie.cms.gov/Measure/HybridHospitalWideReadmissionFHIR","period":{"start":"2025-07-01","end":"2026-06-30"},"group":[{"population":[{"code":{"coding":[{"system":"http://terminology.hl7.org/CodeSystem/measure-population","code":"initial-population","display":"Initial Population"}]},"count":1}]}]},"request":{"method":"PUT","url":"MeasureReport/b8448d07-9667-4919-972f-46f08e80e974"}}]}