{"resourceType":"Bundle","id":"tests-e4efaf8d-368e-4aff-9b5c-bbc074489b67-bundle","type":"transaction","entry":[{"fullUrl":"https://madie.cms.gov/Patient/e4efaf8d-368e-4aff-9b5c-bbc074489b67","resource":{"resourceType":"Patient","id":"e4efaf8d-368e-4aff-9b5c-bbc074489b67","meta":{"profile":["http://hl7.org/fhir/us/qicore/StructureDefinition/qicore-patient"]},"extension":[{"url":"http://hl7.org/fhir/us/core/StructureDefinition/us-core-race","extension":[{"url":"ombCategory","valueCoding":{"system":"urn:oid:2.16.840.1.113883.6.238","code":"2028-9","display":"Asian","userSelected":true}},{"url":"text","valueString":"Asian"}]},{"url":"http://hl7.org/fhir/us/core/StructureDefinition/us-core-ethnicity","extension":[{"url":"ombCategory","valueCoding":{"system":"urn:oid:2.16.840.1.113883.6.238","code":"2186-5","display":"Not Hispanic or Latino","userSelected":true}},{"url":"text","valueString":"Not Hispanic or Latino"}]}],"identifier":[{"type":{"coding":[{"system":"http://terminology.hl7.org/CodeSystem/v2-0203","code":"MR"}]},"system":"https://bonnie-fhir.healthit.gov/","value":"6109658e98086b538055b9e2"}],"active":true,"name":[{"use":"usual","family":"NUMERPass","given":["DiscExamswithResultsOV"]}],"gender":"male","birthDate":"1962-08-16"},"request":{"method":"PUT","url":"Patient/e4efaf8d-368e-4aff-9b5c-bbc074489b67"}},{"fullUrl":"https://madie.cms.gov/Condition/5c9a433bb8484623838502ba","resource":{"resourceType":"Condition","id":"38b1057a-51fd-4f30-b45f-cc9398342a60","meta":{"profile":["http://hl7.org/fhir/us/qicore/StructureDefinition/qicore-condition"]},"clinicalStatus":{"coding":[{"system":"http://terminology.hl7.org/CodeSystem/condition-clinical","code":"active","display":"active","userSelected":true}]},"category":[{"coding":[{"system":"http://terminology.hl7.org/CodeSystem/condition-category","code":"problem-list-item","display":"problem-list-item","userSelected":true}]}],"code":{"coding":[{"system":"http://hl7.org/fhir/sid/icd-10-cm","version":"2023","code":"H40.10X0"}]},"subject":{"reference":"Patient/e4efaf8d-368e-4aff-9b5c-bbc074489b67"},"onsetDateTime":"2012-09-27T12:45:00+00:00"},"request":{"method":"PUT","url":"Condition/38b1057a-51fd-4f30-b45f-cc9398342a60"}},{"fullUrl":"https://madie.cms.gov/Observation/5c9a433bb8484623838502bc","resource":{"resourceType":"Observation","id":"8b2b8815-1bc8-4c1e-84f8-6a5cbbcaa319","meta":{"profile":["http://hl7.org/fhir/us/qicore/StructureDefinition/qicore-observation"]},"status":"final","category":[{"coding":[{"system":"http://terminology.hl7.org/CodeSystem/observation-category","code":"laboratory","display":"laboratory","userSelected":true}]}],"code":{"coding":[{"system":"http://loinc.org","code":"71484-0"}]},"subject":{"reference":"Patient/e4efaf8d-368e-4aff-9b5c-bbc074489b67"},"effectivePeriod":{"start":"2025-03-09T12:40:00.000+00:00","end":"2025-03-09T13:40:00.000+00:00"},"valueQuantity":{"value":0.7}},"request":{"method":"PUT","url":"Observation/8b2b8815-1bc8-4c1e-84f8-6a5cbbcaa319"}},{"fullUrl":"https://madie.cms.gov/Observation/5c9a433bb8484623838502be","resource":{"resourceType":"Observation","id":"252eb6c9-63fa-4eef-8cef-dcb533f13ed8","meta":{"profile":["http://hl7.org/fhir/us/qicore/StructureDefinition/qicore-observation"]},"status":"final","category":[{"coding":[{"system":"http://terminology.hl7.org/CodeSystem/observation-category","code":"laboratory","display":"laboratory","userSelected":true}]}],"code":{"coding":[{"system":"http://loinc.org","version":"2.73","code":"71486-5"}]},"subject":{"reference":"Patient/e4efaf8d-368e-4aff-9b5c-bbc074489b67"},"effectivePeriod":{"start":"2025-03-09T12:40:00.000+00:00","end":"2025-03-09T13:40:00.000+00:00"},"valueCodeableConcept":{"coding":[{"system":"http://loinc.org","code":"71486-5","display":"Optic Disc Exam for Structural Abnormalities"}]}},"request":{"method":"PUT","url":"Observation/252eb6c9-63fa-4eef-8cef-dcb533f13ed8"}},{"fullUrl":"https://madie.cms.gov/Encounter/5c9a433bb8484623838502bb","resource":{"resourceType":"Encounter","id":"eb3235cd-c2ea-4004-bce6-30db63ebb02b","meta":{"profile":["http://hl7.org/fhir/us/qicore/StructureDefinition/qicore-encounter"]},"status":"finished","class":{"system":"http://terminology.hl7.org/CodeSystem/v3-ActCode","code":"AMB","display":"ambulatory","userSelected":true},"type":[{"coding":[{"system":"http://www.ama-assn.org/go/cpt","version":"2023","code":"99213"}]}],"subject":{"reference":"Patient/e4efaf8d-368e-4aff-9b5c-bbc074489b67"},"period":{"start":"2025-03-09T12:40:00.000+00:00","end":"2025-03-09T13:40:00.000+00:00"},"length":{"value":0.0,"unit":"days"}},"request":{"method":"PUT","url":"Encounter/eb3235cd-c2ea-4004-bce6-30db63ebb02b"}},{"fullUrl":"https://madie.cms.gov/Coverage/6846813516441","resource":{"resourceType":"Coverage","id":"5d6c488e-3278-4c73-901d-f3f3f24c155f","meta":{"profile":["http://hl7.org/fhir/us/qicore/StructureDefinition/qicore-coverage"]},"identifier":[{"system":"http://benefitsinc.com/certificate","value":"12345"}],"status":"active","type":{"coding":[{"system":"https://nahdo.org/sopt","version":"9.2","code":"59","display":"Other Private Insurance"}]},"beneficiary":{"reference":"Patient/e4efaf8d-368e-4aff-9b5c-bbc074489b67"},"dependent":"0","relationship":{"coding":[{"system":"http://terminology.hl7.org/CodeSystem/subscriber-relationship","code":"self"}]},"period":{"start":"2015-05-23","end":"2025-05-23"},"payor":[{"reference":"Organization/4da248b0-6e59-49b7-b80e-338aa21d299f"}],"order":9},"request":{"method":"PUT","url":"Coverage/5d6c488e-3278-4c73-901d-f3f3f24c155f"}},{"fullUrl":"https://madie.cms.gov/Organization/4654531645616","resource":{"resourceType":"Organization","id":"4da248b0-6e59-49b7-b80e-338aa21d299f","meta":{"profile":["http://hl7.org/fhir/us/qicore/StructureDefinition/qicore-organization"]},"identifier":[{"use":"temp","system":"http://terminology.hl7.org/NamingSystem/USEIN","value":"48915164351354"}],"active":true,"type":[{"coding":[{"system":"http://terminology.hl7.org/CodeSystem/organization-type","code":"team","display":"Organizational team"}]}],"name":"Good Healthcare, LLC","telecom":[{"system":"phone","value":"(+1) 901-683-7777"},{"system":"fax","value":"(+1) 901-683-6622"},{"system":"email","value":"BetterYourHealth@GoodHealthcare.com"}],"address":[{"line":["3651 Wentrow Blvd, Suite 227"],"city":"Germantown","state":"TN","postalCode":"38138","country":"USA"}]},"request":{"method":"PUT","url":"Organization/4da248b0-6e59-49b7-b80e-338aa21d299f"}},{"fullUrl":"https://madie.cms.gov/MeasureReport/b0835544-93b1-485e-b632-686afab788ec","resource":{"resourceType":"MeasureReport","id":"b0835544-93b1-485e-b632-686afab788ec","meta":{"profile":["http://hl7.org/fhir/us/cqfmeasures/StructureDefinition/test-case-cqfm"]},"contained":[{"resourceType":"Parameters","id":"5e2f2b74-6e81-417a-a171-e68d543a1aee-parameters","parameter":[{"name":"subject","valueString":"e4efaf8d-368e-4aff-9b5c-bbc074489b67"}]}],"extension":[{"url":"http://hl7.org/fhir/us/cqfmeasures/StructureDefinition/cqfm-inputParameters","valueReference":{"reference":"#5e2f2b74-6e81-417a-a171-e68d543a1aee-parameters"}},{"url":"http://hl7.org/fhir/us/cqfmeasures/StructureDefinition/cqfm-testCaseDescription","valueMarkdown":"Patient with glaucoma, office visit with both exams performed"}],"modifierExtension":[{"url":"http://hl7.org/fhir/us/cqfmeasures/StructureDefinition/cqfm-isTestCase","valueBoolean":true}],"status":"complete","type":"individual","measure":"https://madie.cms.gov/Measure/POAGOpticNerveEvaluationFHIR","period":{"start":"2025-01-01","end":"2025-12-31"},"group":[{"population":[{"code":{"coding":[{"system":"http://terminology.hl7.org/CodeSystem/measure-population","code":"initial-population","display":"Initial Population"}]},"count":1},{"code":{"coding":[{"system":"http://terminology.hl7.org/CodeSystem/measure-population","code":"denominator","display":"Denominator"}]},"count":1},{"code":{"coding":[{"system":"http://terminology.hl7.org/CodeSystem/measure-population","code":"denominator-exception","display":"Denominator Exception"}]},"count":0},{"code":{"coding":[{"system":"http://terminology.hl7.org/CodeSystem/measure-population","code":"numerator","display":"Numerator"}]},"count":1}]}]},"request":{"method":"PUT","url":"MeasureReport/b0835544-93b1-485e-b632-686afab788ec"}}]}