{"resourceType":"Bundle","id":"tests-8352db6f-c4c7-4eb1-8264-ea3db86f1c6e-bundle","type":"transaction","entry":[{"fullUrl":"https://madie.cms.gov/Patient/8352db6f-c4c7-4eb1-8264-ea3db86f1c6e","resource":{"resourceType":"Patient","id":"8352db6f-c4c7-4eb1-8264-ea3db86f1c6e","meta":{"profile":["http://hl7.org/fhir/us/qicore/StructureDefinition/qicore-patient"]},"extension":[{"url":"http://hl7.org/fhir/us/core/StructureDefinition/us-core-race","extension":[{"url":"ombCategory","valueCoding":{"system":"urn:oid:2.16.840.1.113883.6.238","code":"2054-5","display":"Black or African American","userSelected":true}},{"url":"text","valueString":"Black or African American"}]},{"url":"http://hl7.org/fhir/us/core/StructureDefinition/us-core-ethnicity","extension":[{"url":"ombCategory","valueCoding":{"system":"urn:oid:2.16.840.1.113883.6.238","code":"2135-2","display":"Hispanic or Latino","userSelected":true}},{"url":"text","valueString":"Hispanic or Latino"}]}],"identifier":[{"type":{"coding":[{"system":"http://terminology.hl7.org/CodeSystem/v2-0203","code":"MR"}]},"system":"https://bonnie-fhir.healthit.gov/","value":"6109658e98086b538055b9d0"}],"active":true,"name":[{"use":"usual","family":"IPPFail","given":["GlaucomaDXOGTEncStart"]}],"gender":"female","birthDate":"1946-09-18"},"request":{"method":"PUT","url":"Patient/8352db6f-c4c7-4eb1-8264-ea3db86f1c6e"}},{"fullUrl":"https://madie.cms.gov/Condition/5e1f9548eab2e700004583ec","resource":{"resourceType":"Condition","id":"caffda88-72f4-4231-a97c-7ed2b3e76b45","meta":{"profile":["http://hl7.org/fhir/us/qicore/StructureDefinition/qicore-condition"]},"clinicalStatus":{"coding":[{"system":"http://terminology.hl7.org/CodeSystem/condition-clinical","code":"active","display":"active","userSelected":true}]},"category":[{"coding":[{"system":"http://terminology.hl7.org/CodeSystem/condition-category","code":"problem-list-item","display":"problem-list-item","userSelected":true}]}],"code":{"coding":[{"system":"http://hl7.org/fhir/sid/icd-10-cm","code":"H40.10X0"}]},"subject":{"reference":"Patient/8352db6f-c4c7-4eb1-8264-ea3db86f1c6e"},"onsetDateTime":"2025-01-24T08:01:00+00:00"},"request":{"method":"PUT","url":"Condition/caffda88-72f4-4231-a97c-7ed2b3e76b45"}},{"fullUrl":"https://madie.cms.gov/Observation/5c9a433bb848462383850286","resource":{"resourceType":"Observation","id":"45629429-7df5-4026-ba6e-a66dcbb7f676","meta":{"profile":["http://hl7.org/fhir/us/qicore/StructureDefinition/qicore-observation"]},"status":"final","category":[{"coding":[{"system":"http://terminology.hl7.org/CodeSystem/observation-category","code":"laboratory","display":"laboratory","userSelected":true}]}],"code":{"coding":[{"system":"http://loinc.org","version":"2.73","code":"71486-5"}]},"subject":{"reference":"Patient/8352db6f-c4c7-4eb1-8264-ea3db86f1c6e"},"effectiveDateTime":"2025-01-22T08:00:00.000+00:00","valueString":"Optic disc neural rim asymmetry of the two eyes consistent with loss of neural tissue"},"request":{"method":"PUT","url":"Observation/45629429-7df5-4026-ba6e-a66dcbb7f676"}},{"fullUrl":"https://madie.cms.gov/Observation/5c9a433bb848462383850288","resource":{"resourceType":"Observation","id":"b41a26bb-4eb5-414a-82ae-3582f5a2ebb2","meta":{"profile":["http://hl7.org/fhir/us/qicore/StructureDefinition/qicore-observation"]},"status":"final","category":[{"coding":[{"system":"http://terminology.hl7.org/CodeSystem/observation-category","code":"laboratory","display":"laboratory","userSelected":true}]}],"code":{"coding":[{"system":"http://loinc.org","version":"2.73","code":"71484-0"}]},"subject":{"reference":"Patient/8352db6f-c4c7-4eb1-8264-ea3db86f1c6e"},"effectiveDateTime":"2025-01-24T09:01:00.000+00:00","valueQuantity":{"value":0.7}},"request":{"method":"PUT","url":"Observation/b41a26bb-4eb5-414a-82ae-3582f5a2ebb2"}},{"fullUrl":"https://madie.cms.gov/Encounter/5c9a433bb848462383850285","resource":{"resourceType":"Encounter","id":"ca6b003b-e3ca-4c26-9f30-2a3bb4685999","meta":{"profile":["http://hl7.org/fhir/us/qicore/StructureDefinition/qicore-encounter"]},"status":"finished","class":{"system":"http://terminology.hl7.org/CodeSystem/v3-ActCode","code":"AMB","display":"ambulatory","userSelected":true},"type":[{"coding":[{"system":"http://www.ama-assn.org/go/cpt","version":"2023","code":"92012"}]}],"subject":{"reference":"Patient/8352db6f-c4c7-4eb1-8264-ea3db86f1c6e"},"period":{"start":"2025-01-24T08:00:00.000+00:00","end":"2025-01-24T08:00:00.000+00:00"},"length":{"value":0.0,"unit":"days"}},"request":{"method":"PUT","url":"Encounter/ca6b003b-e3ca-4c26-9f30-2a3bb4685999"}},{"fullUrl":"https://madie.cms.gov/MeasureReport/60e76564-d8a3-4544-b1a6-b31cf296d26c","resource":{"resourceType":"MeasureReport","id":"60e76564-d8a3-4544-b1a6-b31cf296d26c","meta":{"profile":["http://hl7.org/fhir/us/cqfmeasures/StructureDefinition/test-case-cqfm"]},"contained":[{"resourceType":"Parameters","id":"45b0f089-f220-4bcc-b508-bf1763ce956f-parameters","parameter":[{"name":"subject","valueString":"8352db6f-c4c7-4eb1-8264-ea3db86f1c6e"}]}],"extension":[{"url":"http://hl7.org/fhir/us/cqfmeasures/StructureDefinition/cqfm-inputParameters","valueReference":{"reference":"#45b0f089-f220-4bcc-b508-bf1763ce956f-parameters"}},{"url":"http://hl7.org/fhir/us/cqfmeasures/StructureDefinition/cqfm-testCaseDescription","valueMarkdown":"Glaucoma Diagnosis onset starts 1 minute after encounter and fails overlap interval"}],"modifierExtension":[{"url":"http://hl7.org/fhir/us/cqfmeasures/StructureDefinition/cqfm-isTestCase","valueBoolean":true}],"status":"complete","type":"individual","measure":"https://madie.cms.gov/Measure/POAGOpticNerveEvaluationFHIR","period":{"start":"2025-01-01","end":"2025-12-31"},"group":[{"population":[{"code":{"coding":[{"system":"http://terminology.hl7.org/CodeSystem/measure-population","code":"initial-population","display":"Initial Population"}]},"count":0},{"code":{"coding":[{"system":"http://terminology.hl7.org/CodeSystem/measure-population","code":"denominator","display":"Denominator"}]},"count":0},{"code":{"coding":[{"system":"http://terminology.hl7.org/CodeSystem/measure-population","code":"denominator-exception","display":"Denominator Exception"}]},"count":0},{"code":{"coding":[{"system":"http://terminology.hl7.org/CodeSystem/measure-population","code":"numerator","display":"Numerator"}]},"count":0}]}]},"request":{"method":"PUT","url":"MeasureReport/60e76564-d8a3-4544-b1a6-b31cf296d26c"}}]}