{"resourceType":"Bundle","id":"tests-2cca67ad-d05c-4bd2-aa74-d5ba553b9afc-bundle","type":"transaction","entry":[{"fullUrl":"https://madie.cms.gov/Patient/2cca67ad-d05c-4bd2-aa74-d5ba553b9afc","resource":{"resourceType":"Patient","id":"2cca67ad-d05c-4bd2-aa74-d5ba553b9afc","meta":{"profile":["http://hl7.org/fhir/us/qicore/StructureDefinition/qicore-patient"]},"extension":[{"url":"http://hl7.org/fhir/us/core/StructureDefinition/us-core-race","extension":[{"url":"ombCategory","valueCoding":{"system":"urn:oid:2.16.840.1.113883.6.238","code":"2054-5","display":"Black or African American","userSelected":true}},{"url":"text","valueString":"Black or African American"}]},{"url":"http://hl7.org/fhir/us/core/StructureDefinition/us-core-ethnicity","extension":[{"url":"ombCategory","valueCoding":{"system":"urn:oid:2.16.840.1.113883.6.238","code":"2186-5","display":"Not Hispanic or Latino","userSelected":true}},{"url":"text","valueString":"Not Hispanic or Latino"}]}],"identifier":[{"type":{"coding":[{"system":"http://terminology.hl7.org/CodeSystem/v2-0203","code":"MR"}]},"system":"https://GoodHealthCare.com/","value":"6109658e98086b538055b9e2"}],"active":true,"name":[{"use":"usual","family":"NUMERFail","given":["OpticDiscExamAfterEnc"]}],"gender":"female","birthDate":"1969-07-12"},"request":{"method":"PUT","url":"Patient/2cca67ad-d05c-4bd2-aa74-d5ba553b9afc"}},{"fullUrl":"https://madie.cms.gov/Condition/5c9a433bb8484623838502ba","resource":{"resourceType":"Condition","id":"efe68d0a-0a10-41c7-8a2e-88c276683044","meta":{"profile":["http://hl7.org/fhir/us/qicore/StructureDefinition/qicore-condition"]},"clinicalStatus":{"coding":[{"system":"http://terminology.hl7.org/CodeSystem/condition-clinical","code":"active","display":"active","userSelected":true}]},"category":[{"coding":[{"system":"http://terminology.hl7.org/CodeSystem/condition-category","code":"problem-list-item","display":"problem-list-item","userSelected":true}]}],"code":{"coding":[{"system":"http://snomed.info/sct","version":"http://snomed.info/sct/731000124108/version/20230301","code":"15633321000119108","display":"Primary open angle glaucoma of left eye (disorder)"}]},"subject":{"reference":"Patient/2cca67ad-d05c-4bd2-aa74-d5ba553b9afc"},"onsetDateTime":"2021-07-27T10:30:00+00:00"},"request":{"method":"PUT","url":"Condition/efe68d0a-0a10-41c7-8a2e-88c276683044"}},{"fullUrl":"https://madie.cms.gov/Observation/5c9a433bb8484623838502bc","resource":{"resourceType":"Observation","id":"c6ab9a4e-01f0-4ce3-aa43-d959a0fccb2a","meta":{"profile":["http://hl7.org/fhir/us/qicore/StructureDefinition/qicore-observation"]},"status":"final","category":[{"coding":[{"system":"http://terminology.hl7.org/CodeSystem/observation-category","code":"laboratory","display":"laboratory","userSelected":true}]}],"code":{"coding":[{"system":"http://loinc.org","code":"71484-0"}]},"subject":{"reference":"Patient/2cca67ad-d05c-4bd2-aa74-d5ba553b9afc"},"effectivePeriod":{"start":"2025-06-01T09:10:00.000+00:00","end":"2025-06-01T09:20:00.000+00:00"},"valueQuantity":{"value":0.7}},"request":{"method":"PUT","url":"Observation/c6ab9a4e-01f0-4ce3-aa43-d959a0fccb2a"}},{"fullUrl":"https://madie.cms.gov/Observation/5c9a433bb8484623838502be","resource":{"resourceType":"Observation","id":"b528f7e7-163a-4799-86a4-3dac036e0862","meta":{"profile":["http://hl7.org/fhir/us/qicore/StructureDefinition/qicore-observation"]},"status":"final","category":[{"coding":[{"system":"http://terminology.hl7.org/CodeSystem/observation-category","code":"laboratory","display":"laboratory","userSelected":true}]}],"code":{"coding":[{"system":"http://loinc.org","version":"2.73","code":"71486-5"}]},"subject":{"reference":"Patient/2cca67ad-d05c-4bd2-aa74-d5ba553b9afc"},"effectivePeriod":{"start":"2025-07-09T12:40:00.000+00:00","end":"2025-07-09T13:40:00.000+00:00"},"valueCodeableConcept":{"coding":[{"system":"http://loinc.org","code":"71486-5","display":"Optic Disc Exam for Structural Abnormalities"}]}},"request":{"method":"PUT","url":"Observation/b528f7e7-163a-4799-86a4-3dac036e0862"}},{"fullUrl":"https://madie.cms.gov/Encounter/5c9a433bb8484623838502bb","resource":{"resourceType":"Encounter","id":"5b4d1ac5-a2f6-4abc-8851-bbd881277e35","meta":{"profile":["http://hl7.org/fhir/us/qicore/StructureDefinition/qicore-encounter"]},"status":"finished","class":{"system":"http://terminology.hl7.org/CodeSystem/v3-ActCode","code":"AMB","display":"ambulatory","userSelected":true},"type":[{"coding":[{"system":"http://snomed.info/sct","version":"http://snomed.info/sct/731000124108/version/20230301","code":"66902005","display":"Ophthalmic examination and evaluation, follow-up (procedure)"}]}],"subject":{"reference":"Patient/2cca67ad-d05c-4bd2-aa74-d5ba553b9afc"},"period":{"start":"2025-06-01T09:00:00.000+00:00","end":"2025-06-01T09:45:00.000+00:00"},"length":{"value":0.0,"unit":"days"}},"request":{"method":"PUT","url":"Encounter/5b4d1ac5-a2f6-4abc-8851-bbd881277e35"}},{"fullUrl":"https://madie.cms.gov/Coverage/6846813516441","resource":{"resourceType":"Coverage","id":"1bbaee0c-81d8-4090-8b26-f26bd756e97b","meta":{"profile":["http://hl7.org/fhir/us/qicore/StructureDefinition/qicore-coverage"]},"identifier":[{"system":"http://benefitsinc.com/certificate","value":"12345"}],"status":"active","type":{"coding":[{"system":"https://nahdo.org/sopt","version":"9.2","code":"59","display":"Other Private Insurance"}]},"beneficiary":{"reference":"Patient/2cca67ad-d05c-4bd2-aa74-d5ba553b9afc"},"dependent":"0","relationship":{"coding":[{"system":"http://terminology.hl7.org/CodeSystem/subscriber-relationship","code":"self"}]},"period":{"start":"2015-05-23","end":"2025-05-23"},"payor":[{"reference":"Organization/e75793c9-fdf6-463a-8c1d-4ee44320dc25"}],"order":9},"request":{"method":"PUT","url":"Coverage/1bbaee0c-81d8-4090-8b26-f26bd756e97b"}},{"fullUrl":"https://madie.cms.gov/Organization/4654531645616","resource":{"resourceType":"Organization","id":"e75793c9-fdf6-463a-8c1d-4ee44320dc25","meta":{"profile":["http://hl7.org/fhir/us/qicore/StructureDefinition/qicore-organization"]},"identifier":[{"use":"temp","system":"http://terminology.hl7.org/NamingSystem/USEIN","value":"48915164351354"}],"active":true,"type":[{"coding":[{"system":"http://terminology.hl7.org/CodeSystem/organization-type","code":"team","display":"Organizational team"}]}],"name":"Good Healthcare, LLC","telecom":[{"system":"phone","value":"(+1) 901-683-7777"},{"system":"fax","value":"(+1) 901-683-6622"},{"system":"email","value":"BetterYourHealth@GoodHealthcare.com"}],"address":[{"line":["3651 Wentrow Blvd, Suite 227"],"city":"Germantown","state":"TN","postalCode":"38138","country":"USA"}]},"request":{"method":"PUT","url":"Organization/e75793c9-fdf6-463a-8c1d-4ee44320dc25"}},{"fullUrl":"https://madie.cms.gov/MeasureReport/641abd4c-9ab4-4d83-8c1a-4d87d9be2b3c","resource":{"resourceType":"MeasureReport","id":"641abd4c-9ab4-4d83-8c1a-4d87d9be2b3c","meta":{"profile":["http://hl7.org/fhir/us/cqfmeasures/StructureDefinition/test-case-cqfm"]},"contained":[{"resourceType":"Parameters","id":"4f671cd2-0f75-4e29-80ed-b09d0de81fb6-parameters","parameter":[{"name":"subject","valueString":"2cca67ad-d05c-4bd2-aa74-d5ba553b9afc"}]}],"extension":[{"url":"http://hl7.org/fhir/us/cqfmeasures/StructureDefinition/cqfm-inputParameters","valueReference":{"reference":"#4f671cd2-0f75-4e29-80ed-b09d0de81fb6-parameters"}},{"url":"http://hl7.org/fhir/us/cqfmeasures/StructureDefinition/cqfm-testCaseDescription","valueMarkdown":"Patient with POAG dx, Ophthalmological Vist and with Cup to Disc Ratio and Optic Disc exam and Optic Disc exam performed outside of Encounter period."}],"modifierExtension":[{"url":"http://hl7.org/fhir/us/cqfmeasures/StructureDefinition/cqfm-isTestCase","valueBoolean":true}],"status":"complete","type":"individual","measure":"https://madie.cms.gov/Measure/POAGOpticNerveEvaluationFHIR","period":{"start":"2025-01-01","end":"2025-12-31"},"group":[{"population":[{"code":{"coding":[{"system":"http://terminology.hl7.org/CodeSystem/measure-population","code":"initial-population","display":"Initial Population"}]},"count":1},{"code":{"coding":[{"system":"http://terminology.hl7.org/CodeSystem/measure-population","code":"denominator","display":"Denominator"}]},"count":1},{"code":{"coding":[{"system":"http://terminology.hl7.org/CodeSystem/measure-population","code":"denominator-exception","display":"Denominator Exception"}]},"count":0},{"code":{"coding":[{"system":"http://terminology.hl7.org/CodeSystem/measure-population","code":"numerator","display":"Numerator"}]},"count":0}]}]},"request":{"method":"PUT","url":"MeasureReport/641abd4c-9ab4-4d83-8c1a-4d87d9be2b3c"}}]}