{"resourceType":"Bundle","id":"tests-458dd1d9-f5d6-4b5f-867c-8521f1d3330d-bundle","type":"transaction","entry":[{"fullUrl":"https://madie.cms.gov/Patient/458dd1d9-f5d6-4b5f-867c-8521f1d3330d","resource":{"resourceType":"Patient","id":"458dd1d9-f5d6-4b5f-867c-8521f1d3330d","meta":{"profile":["http://hl7.org/fhir/us/qicore/StructureDefinition/qicore-patient"]},"extension":[{"url":"http://hl7.org/fhir/us/core/StructureDefinition/us-core-race","extension":[{"url":"ombCategory","valueCoding":{"system":"urn:oid:2.16.840.1.113883.6.238","code":"2028-9","display":"Asian","userSelected":true}},{"url":"text","valueString":"Asian"}]},{"url":"http://hl7.org/fhir/us/core/StructureDefinition/us-core-ethnicity","extension":[{"url":"ombCategory","valueCoding":{"system":"urn:oid:2.16.840.1.113883.6.238","code":"2186-5","display":"Not Hispanic or Latino","userSelected":true}},{"url":"text","valueString":"Not Hispanic or Latino"}]}],"identifier":[{"type":{"coding":[{"system":"http://terminology.hl7.org/CodeSystem/v2-0203","code":"MR"}]},"system":"https://bonnie-fhir.healthit.gov/","value":"64e771aa2e9f5b621ea08696"}],"name":[{"family":"AAPracticeIPPFail","given":["SeenVirtually (1)"]}],"gender":"female","birthDate":"1991-06-01"},"request":{"method":"PUT","url":"Patient/458dd1d9-f5d6-4b5f-867c-8521f1d3330d"}},{"fullUrl":"https://madie.cms.gov/Condition/primary-open-angle-glaucoma-e64e","resource":{"resourceType":"Condition","id":"5cab9f26-fff8-4f16-af2a-55cba0836ec3","meta":{"profile":["http://hl7.org/fhir/us/qicore/StructureDefinition/qicore-condition"]},"clinicalStatus":{"coding":[{"system":"http://terminology.hl7.org/CodeSystem/condition-clinical","code":"active","display":"active","userSelected":true}]},"category":[{"coding":[{"system":"http://terminology.hl7.org/CodeSystem/condition-category","code":"problem-list-item","display":"Problem List Item"}]}],"code":{"coding":[{"system":"http://snomed.info/sct","version":"2021-09","code":"111513000","display":"Advanced open-angle glaucoma (disorder)","userSelected":true},{"system":"http://hl7.org/fhir/sid/icd-10-cm","code":"H40.10X0","userSelected":true}]},"subject":{"reference":"Patient/64e771aa2e9f5b621ea08696"},"onsetDateTime":"2012-11-09T08:00:00.000+00:00"},"request":{"method":"PUT","url":"Condition/5cab9f26-fff8-4f16-af2a-55cba0836ec3"}},{"fullUrl":"https://madie.cms.gov/Encounter/office-visit-e64f","resource":{"resourceType":"Encounter","id":"da85ba3b-b98f-4e6c-80da-d601b6a8ae6a","meta":{"profile":["http://hl7.org/fhir/us/qicore/StructureDefinition/qicore-encounter"]},"status":"finished","class":{"system":"http://terminology.hl7.org/CodeSystem/v3-ActCode","code":"VR","display":"virtual","userSelected":true},"type":[{"coding":[{"system":"http://snomed.info/sct","version":"2021-09","code":"185463005","display":"Visit out of hours (procedure)","userSelected":true}]}],"subject":{"reference":"Patient/64e771aa2e9f5b621ea08696"},"period":{"start":"2023-01-09T08:00:00.000+00:00","end":"2023-01-09T09:15:00.000+00:00"}},"request":{"method":"PUT","url":"Encounter/da85ba3b-b98f-4e6c-80da-d601b6a8ae6a"}},{"fullUrl":"https://madie.cms.gov/Observation/cup-to-disc-ratio-e650","resource":{"resourceType":"Observation","id":"349d6562-54f1-40e3-8975-2719e66134eb","meta":{"profile":["http://hl7.org/fhir/StructureDefinition/vitalsigns"]},"status":"final","category":[{"coding":[{"system":"http://terminology.hl7.org/CodeSystem/observation-category","code":"exam","display":"exam","userSelected":true}]},{"coding":[{"system":"http://terminology.hl7.org/CodeSystem/observation-category","code":"vital-signs","display":"Vital Signs","userSelected":true}]}],"code":{"coding":[{"system":"http://loinc.org","version":"2.71","code":"71484-0","display":"Left optic nerve Cup-disc ratio by Ophthalmoscopy","userSelected":true}]},"subject":{"reference":"Patient/64e771aa2e9f5b621ea08696"},"effectiveDateTime":"2023-01-09T09:00:00.000+00:00","valueBoolean":true},"request":{"method":"PUT","url":"Observation/349d6562-54f1-40e3-8975-2719e66134eb"}},{"fullUrl":"https://madie.cms.gov/Coverage/1","resource":{"resourceType":"Coverage","id":"8b10d269-3832-4286-8b84-acf530096c32","meta":{"profile":["http://hl7.org/fhir/us/qicore/StructureDefinition/qicore-coverage"]},"status":"active","beneficiary":{"reference":"Patient/64e771aa2e9f5b621ea08696"},"payor":[{"reference":"Organization/80573fa1-cf83-4e9a-8f21-86a018689678"}]},"request":{"method":"PUT","url":"Coverage/8b10d269-3832-4286-8b84-acf530096c32"}},{"fullUrl":"https://madie.cms.gov/Organization/123456","resource":{"resourceType":"Organization","id":"80573fa1-cf83-4e9a-8f21-86a018689678","meta":{"profile":["http://hl7.org/fhir/us/qicore/StructureDefinition/qicore-organization"]},"identifier":[{"use":"temp","system":"urn:oid:2.16.840.1.113883.4.4","value":"21-3259825"}],"active":true,"type":[{"coding":[{"system":"http://terminology.hl7.org/CodeSystem/organization-type","code":"pay","display":"Payer"}]}],"name":"Blue Cross Blue Shield of Texas","telecom":[{"system":"phone","value":"(+1) 972-766-6900"}],"address":[{"use":"billing","type":"postal","line":["P.O. Box 660044"],"city":"Dallas","state":"TX","postalCode":"75266-0044","country":"USA"}]},"request":{"method":"PUT","url":"Organization/80573fa1-cf83-4e9a-8f21-86a018689678"}},{"fullUrl":"https://madie.cms.gov/Practitioner/practitioner-123456","resource":{"resourceType":"Practitioner","id":"9ac7d841-de46-4782-a7d9-8d32c8a856a9","meta":{"profile":["http://hl7.org/fhir/us/qicore/StructureDefinition/qicore-practitioner"]},"identifier":[{"system":"http://hl7.org/fhir/sid/us-npi","value":"123456"}],"name":[{"family":"Evil","prefix":["Dr"]}]},"request":{"method":"PUT","url":"Practitioner/9ac7d841-de46-4782-a7d9-8d32c8a856a9"}},{"fullUrl":"https://madie.cms.gov/MeasureReport/f32a9bbc-ec56-446c-ad46-a284813c0809","resource":{"resourceType":"MeasureReport","id":"f32a9bbc-ec56-446c-ad46-a284813c0809","meta":{"profile":["http://hl7.org/fhir/us/cqfmeasures/StructureDefinition/test-case-cqfm"]},"contained":[{"resourceType":"Parameters","id":"009a7d48-c613-4a5f-b383-753ea72ca555-parameters","parameter":[{"name":"subject","valueString":"458dd1d9-f5d6-4b5f-867c-8521f1d3330d"}]}],"extension":[{"url":"http://hl7.org/fhir/us/cqfmeasures/StructureDefinition/cqfm-inputParameters","valueReference":{"reference":"#009a7d48-c613-4a5f-b383-753ea72ca555-parameters"}},{"url":"http://hl7.org/fhir/us/cqfmeasures/StructureDefinition/cqfm-testCaseDescription","valueMarkdown":"Patient has an otherwise qualifying encounter but their qualifying encounter was held virtually"}],"modifierExtension":[{"url":"http://hl7.org/fhir/us/cqfmeasures/StructureDefinition/cqfm-isTestCase","valueBoolean":true}],"status":"complete","type":"individual","measure":"https://madie.cms.gov/Measure/POAGOpticNerveEvaluationFHIR","period":{"start":"2025-01-01","end":"2025-12-31"},"group":[{"population":[{"code":{"coding":[{"system":"http://terminology.hl7.org/CodeSystem/measure-population","code":"initial-population","display":"Initial Population"}]},"count":0},{"code":{"coding":[{"system":"http://terminology.hl7.org/CodeSystem/measure-population","code":"denominator","display":"Denominator"}]},"count":0},{"code":{"coding":[{"system":"http://terminology.hl7.org/CodeSystem/measure-population","code":"denominator-exception","display":"Denominator Exception"}]},"count":0},{"code":{"coding":[{"system":"http://terminology.hl7.org/CodeSystem/measure-population","code":"numerator","display":"Numerator"}]},"count":0}]}]},"request":{"method":"PUT","url":"MeasureReport/f32a9bbc-ec56-446c-ad46-a284813c0809"}}]}