{
  "resourceType": "Bundle",
  "id": "63598dd9c35f1c19df09adbd",
  "type": "transaction",
  "entry": [ {
    "fullUrl": "https://madie.cms.gov/Patient/1e5e387c-ffdd-4b16-9202-f64021d86459",
    "resource": {
      "resourceType": "Patient",
      "id": "1e5e387c-ffdd-4b16-9202-f64021d86459",
      "meta": {
        "profile": [ "http://hl7.org/fhir/us/qicore/StructureDefinition/qicore-patient" ]
      },
      "text": {
        "status": "generated",
        "div": "<div xmlns=\"http://www.w3.org/1999/xhtml\"><div class=\"hapiHeaderText\">RISKHR24hoursB4EDOTTriageEnc  <b>RISKPass </b></div><table class=\"hapiPropertyTable\"><tbody><tr><td>Date of birth</td><td><span>01 February 2004</span></td></tr></tbody></table></div>"
      },
      "extension": [ {
        "url": "http://hl7.org/fhir/us/core/StructureDefinition/us-core-race",
        "extension": [ {
          "url": "ombCategory",
          "valueCoding": {
            "system": "urn:oid:2.16.840.1.113883.6.238",
            "code": "1002-5",
            "display": "American Indian or Alaska Native",
            "userSelected": true
          }
        }, {
          "url": "text",
          "valueString": "American Indian or Alaska Native"
        } ]
      }, {
        "url": "http://hl7.org/fhir/us/core/StructureDefinition/us-core-ethnicity",
        "extension": [ {
          "url": "ombCategory",
          "valueCoding": {
            "system": "urn:oid:2.16.840.1.113883.6.238",
            "code": "2135-2",
            "display": "Hispanic or Latino",
            "userSelected": true
          }
        }, {
          "url": "text",
          "valueString": "Hispanic or Latino"
        } ]
      } ],
      "identifier": [ {
        "type": {
          "coding": [ {
            "system": "http://terminology.hl7.org/CodeSystem/v2-0203",
            "code": "MR"
          } ]
        },
        "system": "https://bonnie-fhir.healthit.gov/",
        "value": "63598dd9c35f1c19df09adbd"
      } ],
      "active": true,
      "name": [ {
        "use": "usual",
        "family": "RiskPass",
        "given": [ "RISKHRRelDtTimeEQDelStartless1Min" ]
      } ],
      "gender": "female",
      "birthDate": "2004-02-01"
    },
    "request": {
      "method": "PUT",
      "url": "Patient/1e5e387c-ffdd-4b16-9202-f64021d86459"
    }
  }, {
    "fullUrl": "https://madie.cms.gov/Observation/d160b059-5022-499d-87f9-87473d7c6c4b",
    "resource": {
      "resourceType": "Observation",
      "id": "d160b059-5022-499d-87f9-87473d7c6c4b",
      "meta": {
        "profile": [ "http://hl7.org/fhir/us/qicore/StructureDefinition/qicore-observation" ]
      },
      "status": "final",
      "category": [ {
        "coding": [ {
          "system": "http://terminology.hl7.org/CodeSystem/observation-category",
          "code": "exam",
          "display": "exam",
          "userSelected": true
        } ]
      } ],
      "code": {
        "coding": [ {
          "system": "http://loinc.org",
          "code": "93857-1"
        } ]
      },
      "subject": {
        "reference": "Patient/1e5e387c-ffdd-4b16-9202-f64021d86459"
      },
      "effectiveDateTime": "2025-02-01T08:00:00.000+00:00",
      "valueDateTime": "2025-02-01T08:00:00+00:00"
    },
    "request": {
      "method": "PUT",
      "url": "Observation/d160b059-5022-499d-87f9-87473d7c6c4b"
    }
  }, {
    "fullUrl": "https://madie.cms.gov/Observation/25426350-8f3d-4906-aee2-79c31851eaa9",
    "resource": {
      "resourceType": "Observation",
      "id": "25426350-8f3d-4906-aee2-79c31851eaa9",
      "meta": {
        "profile": [ "http://hl7.org/fhir/us/qicore/StructureDefinition/qicore-observation" ]
      },
      "status": "final",
      "category": [ {
        "coding": [ {
          "system": "http://terminology.hl7.org/CodeSystem/observation-category",
          "code": "exam",
          "display": "exam",
          "userSelected": true
        } ]
      } ],
      "code": {
        "coding": [ {
          "system": "http://loinc.org",
          "code": "11884-4"
        } ]
      },
      "subject": {
        "reference": "Patient/1e5e387c-ffdd-4b16-9202-f64021d86459"
      },
      "effectiveDateTime": "2025-02-01T08:00:00.000+00:00",
      "valueQuantity": {
        "value": 21,
        "system": "http://unitsofmeasure.org",
        "code": "wk"
      }
    },
    "request": {
      "method": "PUT",
      "url": "Observation/25426350-8f3d-4906-aee2-79c31851eaa9"
    }
  }, {
    "fullUrl": "https://madie.cms.gov/Encounter/46b25611-229b-43f9-9bb0-36e40a709617",
    "resource": {
      "resourceType": "Encounter",
      "id": "46b25611-229b-43f9-9bb0-36e40a709617",
      "meta": {
        "profile": [ "http://hl7.org/fhir/us/qicore/StructureDefinition/qicore-encounter" ]
      },
      "status": "finished",
      "class": {
        "system": "http://terminology.hl7.org/CodeSystem/v3-ActCode",
        "code": "IMP",
        "display": "inpatient encounter"
      },
      "type": [ {
        "coding": [ {
          "system": "http://snomed.info/sct",
          "code": "183452005"
        } ]
      } ],
      "subject": {
        "reference": "Patient/1e5e387c-ffdd-4b16-9202-f64021d86459"
      },
      "period": {
        "start": "2025-02-01T08:00:00.000+00:00",
        "end": "2025-02-05T08:15:00.000+00:00"
      }
    },
    "request": {
      "method": "PUT",
      "url": "Encounter/46b25611-229b-43f9-9bb0-36e40a709617"
    }
  }, {
    "fullUrl": "https://madie.cms.gov/Encounter/68cd5b3d-c319-45ca-b572-9bc36e3c76b3",
    "resource": {
      "resourceType": "Encounter",
      "id": "68cd5b3d-c319-45ca-b572-9bc36e3c76b3",
      "meta": {
        "profile": [ "http://hl7.org/fhir/us/qicore/StructureDefinition/qicore-encounter" ]
      },
      "status": "finished",
      "class": {
        "system": "http://terminology.hl7.org/CodeSystem/v3-ActCode",
        "code": "EMER",
        "display": "emergency"
      },
      "type": [ {
        "coding": [ {
          "system": "http://snomed.info/sct",
          "code": "4525004"
        } ]
      } ],
      "subject": {
        "reference": "Patient/1e5e387c-ffdd-4b16-9202-f64021d86459"
      },
      "period": {
        "start": "2025-02-01T07:00:00.000+00:00",
        "end": "2025-02-01T07:59:00.000+00:00"
      }
    },
    "request": {
      "method": "PUT",
      "url": "Encounter/68cd5b3d-c319-45ca-b572-9bc36e3c76b3"
    }
  }, {
    "fullUrl": "https://madie.cms.gov/Procedure/7cab3633-40a8-465a-afbe-2443c627a7ea",
    "resource": {
      "resourceType": "Procedure",
      "id": "7cab3633-40a8-465a-afbe-2443c627a7ea",
      "meta": {
        "profile": [ "http://hl7.org/fhir/us/qicore/StructureDefinition/qicore-procedure" ]
      },
      "extension": [ {
        "url": "http://hl7.org/fhir/us/qicore/StructureDefinition/qicore-recorded",
        "valueDateTime": "2025-02-04T09:35:00-04:00"
      } ],
      "status": "completed",
      "code": {
        "coding": [ {
          "system": "http://snomed.info/sct",
          "code": "10745001"
        } ]
      },
      "subject": {
        "reference": "Patient/1e5e387c-ffdd-4b16-9202-f64021d86459"
      },
      "performedPeriod": {
        "start": "2025-02-01T08:00:00.000+00:00",
        "end": "2025-02-05T08:15:00.000+00:00"
      }
    },
    "request": {
      "method": "PUT",
      "url": "Procedure/7cab3633-40a8-465a-afbe-2443c627a7ea"
    }
  }, {
    "fullUrl": "https://madie.cms.gov/Observation/428284b5-cc30-4af0-b60a-37b50249f86c",
    "resource": {
      "resourceType": "Observation",
      "id": "428284b5-cc30-4af0-b60a-37b50249f86c",
      "meta": {
        "profile": [ "http://hl7.org/fhir/StructureDefinition/heartrate" ]
      },
      "status": "final",
      "category": [ {
        "coding": [ {
          "system": "http://terminology.hl7.org/CodeSystem/observation-category",
          "code": "vital-signs",
          "display": "vital-signs",
          "userSelected": true
        } ]
      } ],
      "code": {
        "coding": [ {
          "system": "http://loinc.org",
          "version": "2.73",
          "code": "8867-4",
          "display": "Heart Rate"
        } ]
      },
      "subject": {
        "reference": "Patient/1e5e387c-ffdd-4b16-9202-f64021d86459"
      },
      "effectiveDateTime": "2025-01-31T07:00:00.000+00:00",
      "valueQuantity": {
        "value": 85,
        "unit": "/min",
        "system": "http://unitsofmeasure.org",
        "code": "/min"
      }
    },
    "request": {
      "method": "PUT",
      "url": "Observation/428284b5-cc30-4af0-b60a-37b50249f86c"
    }
  }, {
    "fullUrl": "https://madie.cms.gov/MeasureReport/bd28dc6a-9039-4d2c-945e-db6ce740cbf1",
    "resource": {
      "resourceType": "MeasureReport",
      "id": "bd28dc6a-9039-4d2c-945e-db6ce740cbf1",
      "meta": {
        "profile": [ "http://hl7.org/fhir/us/cqfmeasures/StructureDefinition/test-case-cqfm" ]
      },
      "contained": [ {
        "resourceType": "Parameters",
        "id": "2b290371-81a5-4756-9d5b-41dfa19ec365-parameters",
        "parameter": [ {
          "name": "subject",
          "valueString": "1e5e387c-ffdd-4b16-9202-f64021d86459"
        } ]
      } ],
      "extension": [ {
        "url": "http://hl7.org/fhir/us/cqfmeasures/StructureDefinition/cqfm-inputParameters",
        "valueReference": {
          "reference": "#2b290371-81a5-4756-9d5b-41dfa19ec365-parameters"
        }
      }, {
        "url": "http://hl7.org/fhir/us/cqfmeasures/StructureDefinition/cqfm-testCaseDescription",
        "valueMarkdown": "Patient with heart rate that starts 24 hours before ED OB Triage encounter.  \n"
      } ],
      "modifierExtension": [ {
        "url": "http://hl7.org/fhir/us/cqfmeasures/StructureDefinition/cqfm-isTestCase",
        "valueBoolean": true
      } ],
      "status": "complete",
      "type": "individual",
      "measure": "https://madie.cms.gov/Measure/CMS1028FHIRPCSevereOBComps",
      "period": {
        "start": "2025-01-01",
        "end": "2025-12-31"
      },
      "group": [ {
        "population": [ {
          "code": {
            "coding": [ {
              "system": "http://terminology.hl7.org/CodeSystem/measure-population",
              "code": "initial-population",
              "display": "Initial Population"
            } ]
          },
          "count": 1
        }, {
          "code": {
            "coding": [ {
              "system": "http://terminology.hl7.org/CodeSystem/measure-population",
              "code": "denominator",
              "display": "Denominator"
            } ]
          },
          "count": 1
        }, {
          "code": {
            "coding": [ {
              "system": "http://terminology.hl7.org/CodeSystem/measure-population",
              "code": "numerator",
              "display": "Numerator"
            } ]
          },
          "count": 0
        }, {
          "code": {
            "coding": [ {
              "system": "http://terminology.hl7.org/CodeSystem/measure-population",
              "code": "numerator-exclusion",
              "display": "Numerator Exclusion"
            } ]
          },
          "count": 0
        } ]
      }, {
        "population": [ {
          "code": {
            "coding": [ {
              "system": "http://terminology.hl7.org/CodeSystem/measure-population",
              "code": "initial-population",
              "display": "Initial Population"
            } ]
          },
          "count": 1
        }, {
          "code": {
            "coding": [ {
              "system": "http://terminology.hl7.org/CodeSystem/measure-population",
              "code": "denominator",
              "display": "Denominator"
            } ]
          },
          "count": 1
        }, {
          "code": {
            "coding": [ {
              "system": "http://terminology.hl7.org/CodeSystem/measure-population",
              "code": "numerator",
              "display": "Numerator"
            } ]
          },
          "count": 0
        }, {
          "code": {
            "coding": [ {
              "system": "http://terminology.hl7.org/CodeSystem/measure-population",
              "code": "numerator-exclusion",
              "display": "Numerator Exclusion"
            } ]
          },
          "count": 0
        } ]
      } ],
      "evaluatedResource": [ {
        "reference": "Patient/1e5e387c-ffdd-4b16-9202-f64021d86459"
      }, {
        "reference": "Observation/d160b059-5022-499d-87f9-87473d7c6c4b"
      }, {
        "reference": "Observation/25426350-8f3d-4906-aee2-79c31851eaa9"
      }, {
        "reference": "Encounter/46b25611-229b-43f9-9bb0-36e40a709617"
      }, {
        "reference": "Encounter/68cd5b3d-c319-45ca-b572-9bc36e3c76b3"
      }, {
        "reference": "Procedure/7cab3633-40a8-465a-afbe-2443c627a7ea"
      }, {
        "reference": "Observation/428284b5-cc30-4af0-b60a-37b50249f86c"
      } ]
    },
    "request": {
      "method": "PUT",
      "url": "MeasureReport/bd28dc6a-9039-4d2c-945e-db6ce740cbf1"
    }
  } ]
}