{
  "resourceType": "Bundle",
  "id": "363b28a9-e77d-4fee-aaaf-73ebb35bc57c",
  "type": "transaction",
  "entry": [ {
    "fullUrl": "https://madie.cms.gov/Patient/7637e69b-5481-4edf-b186-334d4367f740",
    "resource": {
      "resourceType": "Patient",
      "id": "7637e69b-5481-4edf-b186-334d4367f740",
      "meta": {
        "profile": [ "http://hl7.org/fhir/us/qicore/StructureDefinition/qicore-patient" ]
      },
      "extension": [ {
        "url": "http://hl7.org/fhir/us/core/StructureDefinition/us-core-race",
        "extension": [ {
          "url": "ombCategory",
          "valueCoding": {
            "system": "urn:oid:2.16.840.1.113883.6.238",
            "code": "2106-3",
            "display": "White"
          }
        }, {
          "url": "text",
          "valueString": "White"
        } ]
      }, {
        "url": "http://hl7.org/fhir/us/core/StructureDefinition/us-core-ethnicity",
        "extension": [ {
          "url": "ombCategory",
          "valueCoding": {
            "system": "urn:oid:2.16.840.1.113883.6.238",
            "code": "2135-2",
            "display": "Hispanic or Latino"
          }
        }, {
          "url": "text",
          "valueString": "Hispanic or Latino"
        } ]
      } ],
      "identifier": [ {
        "system": "http://hospital.smarthealthit.org",
        "value": "999999999"
      } ],
      "name": [ {
        "family": "Example",
        "given": [ "Patient" ]
      } ],
      "gender": "male",
      "birthDate": "1956-01-01"
    },
    "request": {
      "method": "PUT",
      "url": "Patient/7637e69b-5481-4edf-b186-334d4367f740"
    }
  }, {
    "fullUrl": "https://madie.cms.gov/Encounter/fb4bb44c-618c-4a4c-a827-c863fc01911d",
    "resource": {
      "resourceType": "Encounter",
      "id": "fb4bb44c-618c-4a4c-a827-c863fc01911d",
      "meta": {
        "profile": [ "http://hl7.org/fhir/us/qicore/StructureDefinition/qicore-encounter" ]
      },
      "status": "finished",
      "class": {
        "system": "http://terminology.hl7.org/CodeSystem/v3-ActCode",
        "code": "IMP",
        "display": "inpatient encounter"
      },
      "type": [ {
        "coding": [ {
          "system": "http://snomed.info/sct",
          "code": "183452005"
        } ]
      } ],
      "subject": {
        "reference": "Patient/7637e69b-5481-4edf-b186-334d4367f740"
      },
      "period": {
        "start": "2026-04-07T08:00:00.000Z",
        "end": "2026-04-11T08:15:00.000Z"
      }
    },
    "request": {
      "method": "PUT",
      "url": "Encounter/fb4bb44c-618c-4a4c-a827-c863fc01911d"
    }
  }, {
    "fullUrl": "https://madie.cms.gov/Observation/2714b3cb-e350-449f-bd2d-ba5b1b060d9c",
    "resource": {
      "resourceType": "Observation",
      "id": "2714b3cb-e350-449f-bd2d-ba5b1b060d9c",
      "meta": {
        "profile": [ "http://hl7.org/fhir/us/qicore/StructureDefinition/qicore-observation" ]
      },
      "status": "final",
      "category": [ {
        "coding": [ {
          "system": "http://terminology.hl7.org/CodeSystem/observation-category",
          "code": "laboratory",
          "display": "Laboratory"
        } ]
      } ],
      "code": {
        "coding": [ {
          "system": "http://loinc.org",
          "version": "2.72",
          "code": "1556-0",
          "display": "Fasting glucose [Mass/volume] in Capillary blood",
          "userSelected": true
        } ]
      },
      "subject": {
        "reference": "Patient/7637e69b-5481-4edf-b186-334d4367f740"
      },
      "effectiveDateTime": "2026-04-08T07:00:00.000+00:00",
      "valueQuantity": {
        "value": 210.0,
        "unit": "mg/dL"
      }
    },
    "request": {
      "method": "PUT",
      "url": "Observation/2714b3cb-e350-449f-bd2d-ba5b1b060d9c"
    }
  }, {
    "fullUrl": "https://madie.cms.gov/MeasureReport/3ab52d77-f2af-4ac9-9610-a1997a151f3c",
    "resource": {
      "resourceType": "MeasureReport",
      "id": "3ab52d77-f2af-4ac9-9610-a1997a151f3c",
      "meta": {
        "profile": [ "http://hl7.org/fhir/us/cqfmeasures/StructureDefinition/test-case-cqfm" ]
      },
      "contained": [ {
        "resourceType": "Parameters",
        "id": "6b970b81-2715-470b-b8a9-4dffc46379f4-parameters",
        "parameter": [ {
          "name": "subject",
          "valueString": "7637e69b-5481-4edf-b186-334d4367f740"
        } ]
      } ],
      "extension": [ {
        "url": "http://hl7.org/fhir/us/cqfmeasures/StructureDefinition/cqfm-inputParameters",
        "valueReference": {
          "reference": "#6b970b81-2715-470b-b8a9-4dffc46379f4-parameters"
        }
      }, {
        "url": "http://hl7.org/fhir/us/cqfmeasures/StructureDefinition/cqfm-testCaseDescription",
        "valueMarkdown": "Inpatient hospitalization where patient has glucose 210 mg/dL on day 3 of stay. Meets denominator criteria"
      } ],
      "modifierExtension": [ {
        "url": "http://hl7.org/fhir/us/cqfmeasures/StructureDefinition/cqfm-isTestCase",
        "valueBoolean": true
      } ],
      "status": "complete",
      "type": "individual",
      "measure": "https://madie.cms.gov/Measure/HospitalHarmHyperglycemiainHospitalizedPatientsFHIR",
      "period": {
        "start": "2026-01-01",
        "end": "2026-12-31"
      },
      "group": [ {
        "population": [ {
          "code": {
            "coding": [ {
              "system": "http://terminology.hl7.org/CodeSystem/measure-population",
              "code": "initial-population",
              "display": "Initial Population"
            } ]
          },
          "count": 1
        }, {
          "code": {
            "coding": [ {
              "system": "http://terminology.hl7.org/CodeSystem/measure-population",
              "code": "denominator",
              "display": "Denominator"
            } ]
          },
          "count": 1
        }, {
          "code": {
            "coding": [ {
              "system": "http://terminology.hl7.org/CodeSystem/measure-population",
              "code": "denominator-exclusion",
              "display": "Denominator Exclusion"
            } ]
          },
          "count": 0
        }, {
          "code": {
            "coding": [ {
              "system": "http://terminology.hl7.org/CodeSystem/measure-population",
              "code": "numerator",
              "display": "Numerator"
            } ]
          },
          "count": 0
        }, {
          "code": {
            "coding": [ {
              "system": "http://terminology.hl7.org/CodeSystem/measure-population",
              "code": "denominator-observation",
              "display": "DenominatorObservation"
            } ]
          },
          "count": 3
        } ]
      } ],
      "evaluatedResource": [ {
        "reference": "Patient/7637e69b-5481-4edf-b186-334d4367f740"
      }, {
        "reference": "Encounter/fb4bb44c-618c-4a4c-a827-c863fc01911d"
      }, {
        "reference": "Observation/2714b3cb-e350-449f-bd2d-ba5b1b060d9c"
      } ]
    },
    "request": {
      "method": "PUT",
      "url": "MeasureReport/3ab52d77-f2af-4ac9-9610-a1997a151f3c"
    }
  } ]
}