{
  "resourceType": "Bundle",
  "id": "Patient-9-DENEXPass-FrailtyDeviceRequestNoPerformedModExt",
  "type": "transaction",
  "entry": [ {
    "fullUrl": "https://madie.cms.gov/Patient/7e69124d-ff34-4daf-b626-08d1283f71ba",
    "resource": {
      "resourceType": "Patient",
      "id": "7e69124d-ff34-4daf-b626-08d1283f71ba",
      "meta": {
        "profile": [ "http://hl7.org/fhir/us/qicore/StructureDefinition/qicore-patient" ]
      },
      "extension": [ {
        "url": "http://hl7.org/fhir/us/core/StructureDefinition/us-core-race",
        "extension": [ {
          "url": "ombCategory",
          "valueCoding": {
            "system": "urn:oid:2.16.840.1.113883.6.238",
            "code": "2028-9",
            "display": "Asian"
          }
        }, {
          "url": "text",
          "valueString": "Asian"
        } ]
      }, {
        "url": "http://hl7.org/fhir/us/core/StructureDefinition/us-core-ethnicity",
        "extension": [ {
          "url": "ombCategory",
          "valueCoding": {
            "system": "urn:oid:2.16.840.1.113883.6.238",
            "code": "2135-2",
            "display": "Hispanic or Latino"
          }
        }, {
          "url": "text",
          "valueString": "Hispanic or Latino"
        } ]
      } ],
      "identifier": [ {
        "system": "http://hospital.smarthealthit.org",
        "value": "999999995"
      } ],
      "name": [ {
        "family": "Bertha",
        "given": [ "Betty" ]
      } ],
      "gender": "female",
      "birthDate": "1958-12-31"
    },
    "request": {
      "method": "PUT",
      "url": "Patient/7e69124d-ff34-4daf-b626-08d1283f71ba"
    }
  }, {
    "fullUrl": "https://madie.cms.gov/Encounter/Encounter-12",
    "resource": {
      "resourceType": "Encounter",
      "id": "Encounter-12",
      "meta": {
        "profile": [ "http://hl7.org/fhir/us/qicore/StructureDefinition/qicore-encounter" ]
      },
      "status": "finished",
      "class": {
        "system": "http://terminology.hl7.org/CodeSystem/v3-ActCode",
        "code": "AMB",
        "display": "ambulatory"
      },
      "type": [ {
        "coding": [ {
          "system": "http://snomed.info/sct",
          "code": "185460008",
          "display": "Home visit request by patient (procedure)"
        } ]
      } ],
      "subject": {
        "reference": "Patient/7e69124d-ff34-4daf-b626-08d1283f71ba"
      },
      "period": {
        "start": "2025-01-01T00:00:00.000Z",
        "end": "2025-01-01T00:15:00.000Z"
      }
    },
    "request": {
      "method": "PUT",
      "url": "Encounter/Encounter-12"
    }
  }, {
    "fullUrl": "https://madie.cms.gov/Condition/Condition-10",
    "resource": {
      "resourceType": "Condition",
      "id": "Condition-10",
      "meta": {
        "profile": [ "http://hl7.org/fhir/us/qicore/StructureDefinition/qicore-condition" ]
      },
      "clinicalStatus": {
        "coding": [ {
          "system": "http://terminology.hl7.org/CodeSystem/condition-clinical",
          "code": "active"
        } ]
      },
      "category": [ {
        "coding": [ {
          "system": "http://terminology.hl7.org/CodeSystem/condition-category",
          "code": "problem-list-item",
          "display": "Problem List Item"
        } ]
      } ],
      "code": {
        "coding": [ {
          "system": "http://snomed.info/sct",
          "code": "102781000119107",
          "display": "Sensory neuropathy due to type 1 diabetes mellitus (disorder)"
        } ]
      },
      "subject": {
        "reference": "Patient/7e69124d-ff34-4daf-b626-08d1283f71ba"
      },
      "onsetDateTime": "2025-01-01T23:59:00.000Z"
    },
    "request": {
      "method": "PUT",
      "url": "Condition/Condition-10"
    }
  }, {
    "fullUrl": "https://madie.cms.gov/Condition/Condition-11",
    "resource": {
      "resourceType": "Condition",
      "id": "Condition-11",
      "meta": {
        "profile": [ "http://hl7.org/fhir/us/qicore/StructureDefinition/qicore-condition" ]
      },
      "clinicalStatus": {
        "coding": [ {
          "system": "http://terminology.hl7.org/CodeSystem/condition-clinical",
          "code": "active"
        } ]
      },
      "category": [ {
        "coding": [ {
          "system": "http://terminology.hl7.org/CodeSystem/condition-category",
          "code": "problem-list-item",
          "display": "Problem List Item"
        } ]
      } ],
      "code": {
        "coding": [ {
          "system": "http://snomed.info/sct",
          "code": "101421000119107",
          "display": "Dementia due to Parkinson's disease (disorder)"
        } ]
      },
      "subject": {
        "reference": "Patient/7e69124d-ff34-4daf-b626-08d1283f71ba"
      },
      "onsetDateTime": "2024-12-31T23:59:00.000Z"
    },
    "request": {
      "method": "PUT",
      "url": "Condition/Condition-11"
    }
  }, {
    "fullUrl": "https://madie.cms.gov/Encounter/Encounter-13",
    "resource": {
      "resourceType": "Encounter",
      "id": "Encounter-13",
      "meta": {
        "profile": [ "http://hl7.org/fhir/us/qicore/StructureDefinition/qicore-encounter" ]
      },
      "status": "finished",
      "class": {
        "system": "http://terminology.hl7.org/CodeSystem/v3-ActCode",
        "code": "AMB",
        "display": "ambulatory"
      },
      "type": [ {
        "coding": [ {
          "system": "http://snomed.info/sct",
          "code": "4525004",
          "display": "Emergency department patient visit (procedure)"
        } ]
      } ],
      "subject": {
        "reference": "Patient/7e69124d-ff34-4daf-b626-08d1283f71ba"
      },
      "period": {
        "start": "2024-12-31T00:00:00.000Z",
        "end": "2025-01-01T01:00:00.000Z"
      },
      "diagnosis": [ {
        "condition": {
          "reference": "Condition/Condition-11"
        }
      } ]
    },
    "request": {
      "method": "PUT",
      "url": "Encounter/Encounter-13"
    }
  }, {
    "fullUrl": "https://madie.cms.gov/Encounter/Encounter-14",
    "resource": {
      "resourceType": "Encounter",
      "id": "Encounter-14",
      "meta": {
        "profile": [ "http://hl7.org/fhir/us/qicore/StructureDefinition/qicore-encounter" ]
      },
      "status": "finished",
      "class": {
        "system": "http://terminology.hl7.org/CodeSystem/v3-ActCode",
        "code": "AMB",
        "display": "ambulatory"
      },
      "type": [ {
        "coding": [ {
          "system": "http://snomed.info/sct",
          "code": "4525004",
          "display": "Emergency department patient visit (procedure)"
        } ]
      } ],
      "subject": {
        "reference": "Patient/7e69124d-ff34-4daf-b626-08d1283f71ba"
      },
      "period": {
        "start": "2025-05-01T00:00:00.000Z",
        "end": "2025-05-01T01:00:00.000Z"
      },
      "diagnosis": [ {
        "condition": {
          "reference": "Condition/Condition-11"
        }
      } ]
    },
    "request": {
      "method": "PUT",
      "url": "Encounter/Encounter-14"
    }
  }, {
    "fullUrl": "https://madie.cms.gov/DeviceRequest/DeviceRequest-3",
    "resource": {
      "resourceType": "DeviceRequest",
      "id": "DeviceRequest-3",
      "meta": {
        "profile": [ "http://hl7.org/fhir/us/qicore/StructureDefinition/qicore-devicerequest" ]
      },
      "status": "completed",
      "intent": "order",
      "codeCodeableConcept": {
        "coding": [ {
          "system": "http://snomed.info/sct",
          "code": "183240000",
          "display": "Self-propelled wheelchair (physical object)"
        } ]
      },
      "subject": {
        "reference": "Patient/7e69124d-ff34-4daf-b626-08d1283f71ba"
      },
      "authoredOn": "2025-11-01T23:59:00.000Z"
    },
    "request": {
      "method": "PUT",
      "url": "DeviceRequest/DeviceRequest-3"
    }
  }, {
    "fullUrl": "https://madie.cms.gov/MeasureReport/3735f7e2-48ad-4551-93fb-502aaff439dd",
    "resource": {
      "resourceType": "MeasureReport",
      "id": "3735f7e2-48ad-4551-93fb-502aaff439dd",
      "meta": {
        "profile": [ "http://hl7.org/fhir/us/cqfmeasures/StructureDefinition/test-case-cqfm" ]
      },
      "contained": [ {
        "resourceType": "Parameters",
        "id": "407d5720-832c-446f-bbea-51ed5a006502-parameters",
        "parameter": [ {
          "name": "subject",
          "valueString": "7e69124d-ff34-4daf-b626-08d1283f71ba"
        } ]
      } ],
      "extension": [ {
        "url": "http://hl7.org/fhir/us/cqfmeasures/StructureDefinition/cqfm-inputParameters",
        "valueReference": {
          "reference": "#407d5720-832c-446f-bbea-51ed5a006502-parameters"
        }
      }, {
        "url": "http://hl7.org/fhir/us/cqfmeasures/StructureDefinition/cqfm-testCaseDescription",
        "valueMarkdown": "Frailty device request and mod ext not performed"
      } ],
      "modifierExtension": [ {
        "url": "http://hl7.org/fhir/us/cqfmeasures/StructureDefinition/cqfm-isTestCase",
        "valueBoolean": true
      } ],
      "status": "complete",
      "type": "individual",
      "measure": "https://madie.cms.gov/Measure/DiabetesHemoglobinA1cHbA1cPoorControl9FHIR",
      "period": {
        "start": "2025-01-01",
        "end": "2025-12-31"
      },
      "group": [ {
        "population": [ {
          "code": {
            "coding": [ {
              "system": "http://terminology.hl7.org/CodeSystem/measure-population",
              "code": "initial-population",
              "display": "Initial Population"
            } ]
          },
          "count": 1
        }, {
          "code": {
            "coding": [ {
              "system": "http://terminology.hl7.org/CodeSystem/measure-population",
              "code": "denominator",
              "display": "Denominator"
            } ]
          },
          "count": 1
        }, {
          "code": {
            "coding": [ {
              "system": "http://terminology.hl7.org/CodeSystem/measure-population",
              "code": "denominator-exclusion",
              "display": "Denominator Exclusion"
            } ]
          },
          "count": 1
        }, {
          "code": {
            "coding": [ {
              "system": "http://terminology.hl7.org/CodeSystem/measure-population",
              "code": "numerator",
              "display": "Numerator"
            } ]
          },
          "count": 0
        } ]
      } ],
      "evaluatedResource": [ {
        "reference": "Patient/7e69124d-ff34-4daf-b626-08d1283f71ba"
      }, {
        "reference": "Encounter/Encounter-12"
      }, {
        "reference": "Condition/Condition-10"
      }, {
        "reference": "Condition/Condition-11"
      }, {
        "reference": "Encounter/Encounter-13"
      }, {
        "reference": "Encounter/Encounter-14"
      }, {
        "reference": "DeviceRequest/DeviceRequest-3"
      } ]
    },
    "request": {
      "method": "PUT",
      "url": "MeasureReport/3735f7e2-48ad-4551-93fb-502aaff439dd"
    }
  } ]
}
