{
  "resourceType": "Bundle",
  "id": "6179ed49ad1a790b7af75259",
  "type": "transaction",
  "entry": [ {
    "fullUrl": "https://madie.cms.gov/Patient/88d99809-90d6-4cbc-a4bb-d5d73375fc81",
    "resource": {
      "resourceType": "Patient",
      "id": "88d99809-90d6-4cbc-a4bb-d5d73375fc81",
      "meta": {
        "profile": [ "http://hl7.org/fhir/us/qicore/StructureDefinition/qicore-patient" ]
      },
      "extension": [ {
        "url": "http://hl7.org/fhir/us/core/StructureDefinition/us-core-race",
        "extension": [ {
          "url": "ombCategory",
          "valueCoding": {
            "system": "urn:oid:2.16.840.1.113883.6.238",
            "code": "2076-8",
            "display": "Native Hawaiian or Other Pacific Islander",
            "userSelected": true
          }
        }, {
          "url": "text",
          "valueString": "Native Hawaiian or Other Pacific Islander"
        } ]
      }, {
        "url": "http://hl7.org/fhir/us/core/StructureDefinition/us-core-ethnicity",
        "extension": [ {
          "url": "ombCategory",
          "valueCoding": {
            "system": "urn:oid:2.16.840.1.113883.6.238",
            "code": "2186-5",
            "display": "Not Hispanic or Latino",
            "userSelected": true
          }
        }, {
          "url": "text",
          "valueString": "Not Hispanic or Latino"
        } ]
      } ],
      "identifier": [ {
        "type": {
          "coding": [ {
            "system": "http://terminology.hl7.org/CodeSystem/v2-0203",
            "code": "MR"
          } ]
        },
        "system": "https://bonnie-fhir.healthit.gov/",
        "value": "6179ed49ad1a790b7af75259"
      } ],
      "name": [ {
        "family": "DenExcl3Pass",
        "given": [ "PxStarts8DBeforeEDEndsAfterED" ]
      } ],
      "gender": "female",
      "birthDate": "1985-12-02"
    },
    "request": {
      "method": "PUT",
      "url": "Patient/88d99809-90d6-4cbc-a4bb-d5d73375fc81"
    }
  }, {
    "fullUrl": "https://madie.cms.gov/Encounter/b1b8cbfc-2162-48d9-87ca-50ce2793df82",
    "resource": {
      "resourceType": "Encounter",
      "id": "b1b8cbfc-2162-48d9-87ca-50ce2793df82",
      "meta": {
        "profile": [ "http://hl7.org/fhir/us/qicore/StructureDefinition/qicore-encounter" ]
      },
      "status": "finished",
      "class": {
        "system": "http://terminology.hl7.org/CodeSystem/v3-ActCode",
        "code": "EMER",
        "display": "emergency",
        "userSelected": true
      },
      "type": [ {
        "coding": [ {
          "system": "http://snomed.info/sct",
          "version": "2020-09",
          "code": "4525004",
          "display": "Emergency department patient visit (procedure)",
          "userSelected": true
        } ]
      } ],
      "subject": {
        "reference": "Patient/88d99809-90d6-4cbc-a4bb-d5d73375fc81"
      },
      "period": {
        "start": "2026-10-09T08:05:00.000+00:00",
        "end": "2026-10-10T07:15:00.000+00:00"
      }
    },
    "request": {
      "method": "PUT",
      "url": "Encounter/b1b8cbfc-2162-48d9-87ca-50ce2793df82"
    }
  }, {
    "fullUrl": "https://madie.cms.gov/Condition/55dc62a9-eac3-4c83-af28-849ae29db9e2",
    "resource": {
      "resourceType": "Condition",
      "id": "55dc62a9-eac3-4c83-af28-849ae29db9e2",
      "meta": {
        "profile": [ "http://hl7.org/fhir/us/qicore/StructureDefinition/qicore-condition" ]
      },
      "clinicalStatus": {
        "coding": [ {
          "system": "http://terminology.hl7.org/CodeSystem/condition-clinical",
          "code": "active",
          "display": "active",
          "userSelected": true
        } ]
      },
      "category": [ {
        "coding": [ {
          "system": "http://terminology.hl7.org/CodeSystem/condition-category",
          "code": "encounter-diagnosis",
          "display": "Encounter Diagnosis",
          "userSelected": true
        } ]
      } ],
      "code": {
        "coding": [ {
          "system": "http://snomed.info/sct",
          "version": "2020-09",
          "code": "401303003",
          "display": "Acute ST segment elevation myocardial infarction (disorder)",
          "userSelected": true
        } ]
      },
      "subject": {
        "reference": "Patient/88d99809-90d6-4cbc-a4bb-d5d73375fc81"
      },
      "onsetDateTime": "2026-10-09T08:30:00.000+00:00"
    },
    "request": {
      "method": "PUT",
      "url": "Condition/55dc62a9-eac3-4c83-af28-849ae29db9e2"
    }
  }, {
    "fullUrl": "https://madie.cms.gov/Procedure/c442b8f9-0463-4181-a376-d56cbe980beb",
    "resource": {
      "resourceType": "Procedure",
      "id": "c442b8f9-0463-4181-a376-d56cbe980beb",
      "meta": {
        "profile": [ "http://hl7.org/fhir/us/qicore/StructureDefinition/qicore-procedure" ]
      },
      "extension": [ {
        "url": "http://hl7.org/fhir/us/qicore/StructureDefinition/qicore-recorded",
        "valueDateTime": "2026-10-30T08:15:00.000+00:00"
      } ],
      "status": "completed",
      "category": {
        "coding": [ {
          "system": "http://snomed.info/sct",
          "code": "387713003",
          "display": "Surgical procedure",
          "userSelected": true
        } ]
      },
      "code": {
        "coding": [ {
          "system": "http://snomed.info/sct",
          "code": "10259007",
          "userSelected": true
        } ]
      },
      "subject": {
        "reference": "Patient/88d99809-90d6-4cbc-a4bb-d5d73375fc81"
      },
      "performedPeriod": {
        "start": "2026-10-01T08:00:00.000+00:00",
        "end": "2026-10-30T08:15:00.000+00:00"
      }
    },
    "request": {
      "method": "PUT",
      "url": "Procedure/c442b8f9-0463-4181-a376-d56cbe980beb"
    }
  }, {
    "fullUrl": "https://madie.cms.gov/MeasureReport/3a8d21c9-dcac-412d-8d44-444ec2ce1740",
    "resource": {
      "resourceType": "MeasureReport",
      "id": "3a8d21c9-dcac-412d-8d44-444ec2ce1740",
      "meta": {
        "profile": [ "http://hl7.org/fhir/us/cqfmeasures/StructureDefinition/test-case-cqfm" ]
      },
      "contained": [ {
        "resourceType": "Parameters",
        "id": "cc09214f-3a5f-407e-b9fb-9e25d9661ce0-parameters",
        "parameter": [ {
          "name": "subject",
          "valueString": "88d99809-90d6-4cbc-a4bb-d5d73375fc81"
        } ]
      } ],
      "extension": [ {
        "url": "http://hl7.org/fhir/us/cqfmeasures/StructureDefinition/cqfm-inputParameters",
        "valueReference": {
          "reference": "#cc09214f-3a5f-407e-b9fb-9e25d9661ce0-parameters"
        }
      }, {
        "url": "http://hl7.org/fhir/us/cqfmeasures/StructureDefinition/cqfm-testCaseDescription",
        "valueMarkdown": "Patient has Major Surgical Procedure (exclusion Px) starts 8 days before ED visit and ends after ED"
      } ],
      "modifierExtension": [ {
        "url": "http://hl7.org/fhir/us/cqfmeasures/StructureDefinition/cqfm-isTestCase",
        "valueBoolean": true
      } ],
      "status": "complete",
      "type": "individual",
      "measure": "https://madie.cms.gov/Measure/CMS996FHIRAptTxforSTEMI",
      "period": {
        "start": "2026-01-01",
        "end": "2026-12-31"
      },
      "group": [ {
        "population": [ {
          "code": {
            "coding": [ {
              "system": "http://terminology.hl7.org/CodeSystem/measure-population",
              "code": "initial-population",
              "display": "Initial Population"
            } ]
          },
          "count": 1
        }, {
          "code": {
            "coding": [ {
              "system": "http://terminology.hl7.org/CodeSystem/measure-population",
              "code": "denominator",
              "display": "Denominator"
            } ]
          },
          "count": 1
        }, {
          "code": {
            "coding": [ {
              "system": "http://terminology.hl7.org/CodeSystem/measure-population",
              "code": "denominator-exclusion",
              "display": "Denominator Exclusion"
            } ]
          },
          "count": 1
        }, {
          "code": {
            "coding": [ {
              "system": "http://terminology.hl7.org/CodeSystem/measure-population",
              "code": "numerator",
              "display": "Numerator"
            } ]
          },
          "count": 0
        }, {
          "code": {
            "coding": [ {
              "system": "http://terminology.hl7.org/CodeSystem/measure-population",
              "code": "denominator-exception",
              "display": "Denominator Exception"
            } ]
          },
          "count": 0
        } ]
      } ],
      "evaluatedResource": [ {
        "reference": "Patient/88d99809-90d6-4cbc-a4bb-d5d73375fc81"
      }, {
        "reference": "Encounter/b1b8cbfc-2162-48d9-87ca-50ce2793df82"
      }, {
        "reference": "Condition/55dc62a9-eac3-4c83-af28-849ae29db9e2"
      }, {
        "reference": "Procedure/c442b8f9-0463-4181-a376-d56cbe980beb"
      } ]
    },
    "request": {
      "method": "PUT",
      "url": "MeasureReport/3a8d21c9-dcac-412d-8d44-444ec2ce1740"
    }
  } ]
}