{"resourceType":"Bundle","id":"tests-2a83ceb0-b652-479c-8b3f-69209286ca86-bundle","type":"transaction","entry":[{"resource":{"resourceType":"Bundle","id":"6494424b8572d953d016cf6f","type":"transaction","entry":[{"fullUrl":"https://madie.cms.gov/Patient/2a83ceb0-b652-479c-8b3f-69209286ca86","resource":{"resourceType":"Patient","id":"2a83ceb0-b652-479c-8b3f-69209286ca86","meta":{"profile":["http://hl7.org/fhir/us/qicore/StructureDefinition/qicore-patient"]},"extension":[{"url":"http://hl7.org/fhir/us/core/StructureDefinition/us-core-race","extension":[{"url":"ombCategory","valueCoding":{"system":"urn:oid:2.16.840.1.113883.6.238","code":"2106-3","display":"White","userSelected":true}},{"url":"text","valueString":"White"}]},{"url":"http://hl7.org/fhir/us/core/StructureDefinition/us-core-ethnicity","extension":[{"url":"ombCategory","valueCoding":{"system":"urn:oid:2.16.840.1.113883.6.238","code":"2135-2","display":"Hispanic or Latino","userSelected":true}},{"url":"text","valueString":"Hispanic or Latino"}]}],"identifier":[{"type":{"coding":[{"system":"http://terminology.hl7.org/CodeSystem/v2-0203","code":"MR"}]},"system":"https://bonnie-fhir.healthit.gov/","value":"6494424b8572d953d016cf6f"}],"name":[{"family":"IPFail","given":["HIVDxAndEnconApr1ofMP"]}],"gender":"female","birthDate":"1990-02-09"},"request":{"method":"POST","url":"Patient/2a83ceb0-b652-479c-8b3f-69209286ca86"}},{"fullUrl":"https://madie.cms.gov/Condition/hiv-cf70","resource":{"resourceType":"Condition","id":"hiv-cf70","meta":{"profile":["http://hl7.org/fhir/us/qicore/StructureDefinition/qicore-condition"]},"category":[{"coding":[{"system":"http://terminology.hl7.org/CodeSystem/condition-category","code":"problem-list-item","display":"Problem List Item"}]}],"code":{"coding":[{"system":"http://hl7.org/fhir/sid/icd-10-cm","code":"O98.73","userSelected":true}]},"subject":{"reference":"Patient/2a83ceb0-b652-479c-8b3f-69209286ca86"},"recordedDate":"2025-04-01T00:45:00.000+00:00"},"request":{"method":"POST","url":"Condition/hiv-cf70"}},{"fullUrl":"https://madie.cms.gov/Encounter/face-to-face-interaction-cf71","resource":{"resourceType":"Encounter","id":"face-to-face-interaction-cf71","meta":{"profile":["http://hl7.org/fhir/us/qicore/StructureDefinition/qicore-encounter"]},"status":"finished","class":{"system":"http://terminology.hl7.org/CodeSystem/v3-ActCode","code":"AMB","display":"ambulatory"},"type":[{"coding":[{"system":"http://snomed.info/sct","version":"2022-09","code":"12843005","display":"Subsequent hospital visit by physician (procedure)","userSelected":true}]}],"subject":{"reference":"Patient/2a83ceb0-b652-479c-8b3f-69209286ca86"},"period":{"start":"2025-04-01T15:00:00.000+00:00","end":"2025-04-01T15:45:00.000+00:00"}},"request":{"method":"POST","url":"Encounter/face-to-face-interaction-cf71"}},{"fullUrl":"https://madie.cms.gov/Coverage/1","resource":{"resourceType":"Coverage","id":"1","meta":{"profile":["http://hl7.org/fhir/us/qicore/StructureDefinition/qicore-coverage"]},"status":"active","beneficiary":{"reference":"Patient/2a83ceb0-b652-479c-8b3f-69209286ca86"},"payor":[{"reference":"Organization/123456"}]},"request":{"method":"POST","url":"Coverage/1"}},{"fullUrl":"https://madie.cms.gov/Organization/123456","resource":{"resourceType":"Organization","id":"123456","meta":{"profile":["http://hl7.org/fhir/us/qicore/StructureDefinition/qicore-organization"]},"identifier":[{"use":"temp","system":"urn:oid:2.16.840.1.113883.4.4","value":"21-3259825"}],"active":true,"type":[{"coding":[{"system":"http://terminology.hl7.org/CodeSystem/organization-type","code":"pay","display":"Payer"}]}],"name":"Blue Cross Blue Shield of Texas","telecom":[{"system":"phone","value":"(+1) 972-766-6900"}],"address":[{"use":"billing","type":"postal","line":["P.O. Box 660044"],"city":"Dallas","state":"TX","postalCode":"75266-0044","country":"USA"}]},"request":{"method":"POST","url":"Organization/123456"}},{"fullUrl":"https://madie.cms.gov/Practitioner/practitioner-123456","resource":{"resourceType":"Practitioner","id":"practitioner-123456","meta":{"profile":["http://hl7.org/fhir/us/qicore/StructureDefinition/qicore-practitioner"]},"identifier":[{"system":"http://hl7.org/fhir/sid/us-npi","value":"123456"}],"name":[{"family":"Evil","prefix":["Dr"]}]},"request":{"method":"POST","url":"Practitioner/practitioner-123456"}},{"fullUrl":"https://madie.cms.gov/MeasureReport/b9f591b6-f76b-40b5-999f-1319d684e15e","resource":{"resourceType":"MeasureReport","id":"b9f591b6-f76b-40b5-999f-1319d684e15e","meta":{"profile":["http://hl7.org/fhir/us/cqfmeasures/StructureDefinition/test-case-cqfm"]},"contained":[{"resourceType":"Parameters","id":"9013fb21-c5e8-43ba-9810-16bcf4a33454-parameters","parameter":[{"name":"subject","valueString":"2a83ceb0-b652-479c-8b3f-69209286ca86"}]}],"extension":[{"url":"http://hl7.org/fhir/us/cqfmeasures/StructureDefinition/cqfm-inputParameters","valueReference":{"reference":"#9013fb21-c5e8-43ba-9810-16bcf4a33454-parameters"}},{"url":"http://hl7.org/fhir/us/cqfmeasures/StructureDefinition/cqfm-testCaseDescription","valueMarkdown":"HIV diagnosis made on April 1 of MP (91 days) with a qualifying encounter on April 1 (91 days) during MP"}],"modifierExtension":[{"url":"http://hl7.org/fhir/us/cqfmeasures/StructureDefinition/cqfm-isTestCase","valueBoolean":true}],"status":"complete","type":"individual","measure":"https://madie.cms.gov/Measure/HIVViralSuppressionFHIR","period":{"start":"2025-01-01","end":"2025-12-31"},"group":[{"population":[{"code":{"coding":[{"system":"http://terminology.hl7.org/CodeSystem/measure-population","code":"initial-population","display":"Initial Population"}]},"count":0},{"code":{"coding":[{"system":"http://terminology.hl7.org/CodeSystem/measure-population","code":"denominator","display":"Denominator"}]},"count":0},{"code":{"coding":[{"system":"http://terminology.hl7.org/CodeSystem/measure-population","code":"numerator","display":"Numerator"}]},"count":0}]}],"evaluatedResource":[{"reference":"https://madie.cms.gov/Patient/2a83ceb0-b652-479c-8b3f-69209286ca86"},{"reference":"https://madie.cms.gov/Condition/hiv-cf70"},{"reference":"https://madie.cms.gov/Encounter/face-to-face-interaction-cf71"},{"reference":"https://madie.cms.gov/Coverage/1"},{"reference":"https://madie.cms.gov/Organization/123456"},{"reference":"https://madie.cms.gov/Practitioner/practitioner-123456"}]},"request":{"method":"POST","url":"MeasureReport/b9f591b6-f76b-40b5-999f-1319d684e15e"}}]},"request":{"method":"PUT","url":"Bundle/6494424b8572d953d016cf6f"}}]}