{"resourceType":"Bundle","id":"tests-d4741a72-3191-4a77-b3ab-7f4e62bc8221-bundle","type":"transaction","entry":[{"resource":{"resourceType":"Bundle","id":"64998601cea95c34d9e57757","type":"transaction","entry":[{"fullUrl":"https://madie.cms.gov/Patient/d4741a72-3191-4a77-b3ab-7f4e62bc8221","resource":{"resourceType":"Patient","id":"d4741a72-3191-4a77-b3ab-7f4e62bc8221","meta":{"profile":["http://hl7.org/fhir/us/qicore/StructureDefinition/qicore-patient"]},"extension":[{"url":"http://hl7.org/fhir/us/core/StructureDefinition/us-core-race","extension":[{"url":"ombCategory","valueCoding":{"system":"urn:oid:2.16.840.1.113883.6.238","code":"2076-8","display":"Native Hawaiian or Other Pacific Islander","userSelected":true}},{"url":"text","valueString":"Native Hawaiian or Other Pacific Islander"}]},{"url":"http://hl7.org/fhir/us/core/StructureDefinition/us-core-ethnicity","extension":[{"url":"ombCategory","valueCoding":{"system":"urn:oid:2.16.840.1.113883.6.238","code":"2186-5","display":"Not Hispanic or Latino","userSelected":true}},{"url":"text","valueString":"Not Hispanic or Latino"}]}],"identifier":[{"type":{"coding":[{"system":"http://terminology.hl7.org/CodeSystem/v2-0203","code":"MR"}]},"system":"https://bonnie-fhir.healthit.gov/","value":"64998601cea95c34d9e57757"}],"name":[{"family":"NumFail","given":["TestBeforeMP"]}],"gender":"male","birthDate":"1986-05-25"},"request":{"method":"POST","url":"Patient/d4741a72-3191-4a77-b3ab-7f4e62bc8221"}},{"fullUrl":"https://madie.cms.gov/Condition/hiv-7758","resource":{"resourceType":"Condition","id":"hiv-7758","meta":{"profile":["http://hl7.org/fhir/us/qicore/StructureDefinition/qicore-condition"]},"clinicalStatus":{"coding":[{"system":"http://terminology.hl7.org/CodeSystem/condition-clinical","code":"active","display":"active","userSelected":true}]},"category":[{"coding":[{"system":"http://terminology.hl7.org/CodeSystem/condition-category","code":"problem-list-item","display":"Problem List Item"}]}],"code":{"coding":[{"system":"http://hl7.org/fhir/sid/icd-9-cm","version":"2013","code":"042","display":"Human immunodeficiency virus [HIV] disease","userSelected":true},{"system":"http://snomed.info/sct","code":"165816005","userSelected":true}]},"subject":{"reference":"Patient/d4741a72-3191-4a77-b3ab-7f4e62bc8221"},"onsetDateTime":"2019-12-02T12:00:00.000+00:00","recordedDate":"2019-12-02T12:00:00.000+00:00"},"request":{"method":"POST","url":"Condition/hiv-7758"}},{"fullUrl":"https://madie.cms.gov/Encounter/preventive-care-services-initial-office-visit-18-and-up-7759","resource":{"resourceType":"Encounter","id":"preventive-care-services-initial-office-visit-18-and-up-7759","meta":{"profile":["http://hl7.org/fhir/us/qicore/StructureDefinition/qicore-encounter"]},"status":"finished","class":{"system":"http://terminology.hl7.org/CodeSystem/v3-ActCode","code":"AMB","display":"ambulatory"},"type":[{"coding":[{"system":"http://www.ama-assn.org/go/cpt","version":"2023","code":"99385","display":"Initial comprehensive preventive medicine evaluation and management of an individual including an age and gender appropriate history, examination, counseling/anticipatory guidance/risk factor reduction interventions, and the ordering of laboratory/diagnostic procedures, new patient; 18-39 years","userSelected":true}]}],"subject":{"reference":"Patient/d4741a72-3191-4a77-b3ab-7f4e62bc8221"},"period":{"start":"2025-08-26T15:02:00.000+00:00","end":"2025-08-26T15:55:00.000+00:00"}},"request":{"method":"POST","url":"Encounter/preventive-care-services-initial-office-visit-18-and-up-7759"}},{"fullUrl":"https://madie.cms.gov/Observation/hiv-viral-load-775a","resource":{"resourceType":"Observation","id":"hiv-viral-load-775a","meta":{"profile":["http://hl7.org/fhir/us/qicore/StructureDefinition/qicore-observation"]},"status":"final","category":[{"coding":[{"system":"http://terminology.hl7.org/CodeSystem/observation-category"}]}],"code":{"coding":[{"system":"http://loinc.org","version":"2.73","code":"10351-5","display":"HIV 1 RNA [Units/volume] (viral load) in Serum or Plasma by Probe with amplification","userSelected":true}]},"subject":{"reference":"Patient/d4741a72-3191-4a77-b3ab-7f4e62bc8221"},"effectiveDateTime":"2023-08-07T08:00:00.000+00:00","issued":"2023-08-07T08:00:00.000+00:00","valueQuantity":{"value":198.0,"unit":"{copies}/mL"}},"request":{"method":"POST","url":"Observation/hiv-viral-load-775a"}},{"fullUrl":"https://madie.cms.gov/Coverage/1","resource":{"resourceType":"Coverage","id":"1","meta":{"profile":["http://hl7.org/fhir/us/qicore/StructureDefinition/qicore-coverage"]},"status":"active","beneficiary":{"reference":"Patient/d4741a72-3191-4a77-b3ab-7f4e62bc8221"},"payor":[{"reference":"Organization/123456"}]},"request":{"method":"POST","url":"Coverage/1"}},{"fullUrl":"https://madie.cms.gov/Organization/123456","resource":{"resourceType":"Organization","id":"123456","meta":{"profile":["http://hl7.org/fhir/us/qicore/StructureDefinition/qicore-organization"]},"identifier":[{"use":"temp","system":"urn:oid:2.16.840.1.113883.4.4","value":"21-3259825"}],"active":true,"type":[{"coding":[{"system":"http://terminology.hl7.org/CodeSystem/organization-type","code":"pay","display":"Payer"}]}],"name":"Blue Cross Blue Shield of Texas","telecom":[{"system":"phone","value":"(+1) 972-766-6900"}],"address":[{"use":"billing","type":"postal","line":["P.O. Box 660044"],"city":"Dallas","state":"TX","postalCode":"75266-0044","country":"USA"}]},"request":{"method":"POST","url":"Organization/123456"}},{"fullUrl":"https://madie.cms.gov/Practitioner/practitioner-123456","resource":{"resourceType":"Practitioner","id":"practitioner-123456","meta":{"profile":["http://hl7.org/fhir/us/qicore/StructureDefinition/qicore-practitioner"]},"identifier":[{"system":"http://hl7.org/fhir/sid/us-npi","value":"123456"}],"name":[{"family":"Evil","prefix":["Dr"]}]},"request":{"method":"POST","url":"Practitioner/practitioner-123456"}},{"fullUrl":"https://madie.cms.gov/MeasureReport/68b22681-34ee-449a-a8e9-dde82d0e9f46","resource":{"resourceType":"MeasureReport","id":"68b22681-34ee-449a-a8e9-dde82d0e9f46","meta":{"profile":["http://hl7.org/fhir/us/cqfmeasures/StructureDefinition/test-case-cqfm"]},"contained":[{"resourceType":"Parameters","id":"70ea7a13-c161-4542-9d16-17eef82244e8-parameters","parameter":[{"name":"subject","valueString":"d4741a72-3191-4a77-b3ab-7f4e62bc8221"}]}],"extension":[{"url":"http://hl7.org/fhir/us/cqfmeasures/StructureDefinition/cqfm-inputParameters","valueReference":{"reference":"#70ea7a13-c161-4542-9d16-17eef82244e8-parameters"}},{"url":"http://hl7.org/fhir/us/cqfmeasures/StructureDefinition/cqfm-testCaseDescription","valueMarkdown":"Patient with a diagnosis of HIV 5 years ago and a qualifying encounter on Aug 26 during the measurement period AND a viral load test before the MP with a result under 200"}],"modifierExtension":[{"url":"http://hl7.org/fhir/us/cqfmeasures/StructureDefinition/cqfm-isTestCase","valueBoolean":true}],"status":"complete","type":"individual","measure":"https://madie.cms.gov/Measure/HIVViralSuppressionFHIR","period":{"start":"2025-01-01","end":"2025-12-31"},"group":[{"population":[{"code":{"coding":[{"system":"http://terminology.hl7.org/CodeSystem/measure-population","code":"initial-population","display":"Initial Population"}]},"count":1},{"code":{"coding":[{"system":"http://terminology.hl7.org/CodeSystem/measure-population","code":"denominator","display":"Denominator"}]},"count":1},{"code":{"coding":[{"system":"http://terminology.hl7.org/CodeSystem/measure-population","code":"numerator","display":"Numerator"}]},"count":0}]}],"evaluatedResource":[{"reference":"https://madie.cms.gov/Patient/d4741a72-3191-4a77-b3ab-7f4e62bc8221"},{"reference":"https://madie.cms.gov/Condition/hiv-7758"},{"reference":"https://madie.cms.gov/Encounter/preventive-care-services-initial-office-visit-18-and-up-7759"},{"reference":"https://madie.cms.gov/Observation/hiv-viral-load-775a"},{"reference":"https://madie.cms.gov/Coverage/1"},{"reference":"https://madie.cms.gov/Organization/123456"},{"reference":"https://madie.cms.gov/Practitioner/practitioner-123456"}]},"request":{"method":"POST","url":"MeasureReport/68b22681-34ee-449a-a8e9-dde82d0e9f46"}}]},"request":{"method":"PUT","url":"Bundle/64998601cea95c34d9e57757"}}]}