{"resourceType":"Bundle","id":"tests-c3a81338-d107-4762-84a8-3a8ce88b781a-bundle","type":"transaction","entry":[{"fullUrl":"https://madie.cms.gov/Patient/c3a81338-d107-4762-84a8-3a8ce88b781a","resource":{"resourceType":"Patient","id":"c3a81338-d107-4762-84a8-3a8ce88b781a","meta":{"profile":["http://hl7.org/fhir/us/qicore/StructureDefinition/qicore-patient"]},"extension":[{"url":"http://hl7.org/fhir/us/core/StructureDefinition/us-core-race","extension":[{"url":"ombCategory","valueCoding":{"system":"urn:oid:2.16.840.1.113883.6.238","code":"2076-8","display":"Native Hawaiian or Other Pacific Islander","userSelected":true}},{"url":"text","valueString":"Native Hawaiian or Other Pacific Islander"}]},{"url":"http://hl7.org/fhir/us/core/StructureDefinition/us-core-ethnicity","extension":[{"url":"ombCategory","valueCoding":{"system":"urn:oid:2.16.840.1.113883.6.238","code":"2186-5","display":"Not Hispanic or Latino","userSelected":true}},{"url":"text","valueString":"Not Hispanic or Latino"}]}],"identifier":[{"type":{"coding":[{"system":"http://terminology.hl7.org/CodeSystem/v2-0203","code":"MR"}]},"system":"https://bonnie-fhir.healthit.gov/","value":"64998d9ccea95c34d9e57771"}],"name":[{"family":"NumPass","given":["2TestsduringMP1Over1Less"]}],"gender":"female","birthDate":"1986-05-25"},"request":{"method":"PUT","url":"Patient/c3a81338-d107-4762-84a8-3a8ce88b781a"}},{"fullUrl":"https://madie.cms.gov/Encounter/preventive-care-services-initial-office-visit-0-to-17-7772","resource":{"resourceType":"Encounter","id":"e6e5ff35-d030-4dab-889d-f972a39df7cf","meta":{"profile":["http://hl7.org/fhir/us/qicore/StructureDefinition/qicore-encounter"]},"status":"finished","class":{"system":"http://terminology.hl7.org/CodeSystem/v3-ActCode","code":"AMB","display":"ambulatory"},"type":[{"coding":[{"system":"http://www.ama-assn.org/go/cpt","version":"2023","code":"99381","display":"Initial comprehensive preventive medicine evaluation and management of an individual including an age and gender appropriate history, examination, counseling/anticipatory guidance/risk factor reduction interventions, and the ordering of laboratory/diagnostic procedures, new patient; infant (age younger than 1 year)","userSelected":true}]}],"subject":{"reference":"Patient/c3a81338-d107-4762-84a8-3a8ce88b781a"},"period":{"start":"2025-03-07T10:00:00.000+00:00","end":"2025-03-07T10:30:00.000+00:00"}},"request":{"method":"PUT","url":"Encounter/e6e5ff35-d030-4dab-889d-f972a39df7cf"}},{"fullUrl":"https://madie.cms.gov/Condition/hiv-7774","resource":{"resourceType":"Condition","id":"58b3b585-ac5f-41a8-be6d-4f8c32a6b333","meta":{"profile":["http://hl7.org/fhir/us/qicore/StructureDefinition/qicore-condition"]},"clinicalStatus":{"coding":[{"system":"http://terminology.hl7.org/CodeSystem/condition-clinical","code":"active","display":"active","userSelected":true}]},"category":[{"coding":[{"system":"http://terminology.hl7.org/CodeSystem/condition-category","code":"problem-list-item","display":"Problem List Item"}]}],"code":{"coding":[{"system":"http://hl7.org/fhir/sid/icd-9-cm","version":"2013","code":"042","display":"Human immunodeficiency virus [HIV] disease","userSelected":true},{"system":"http://snomed.info/sct","code":"165816005","userSelected":true}]},"subject":{"reference":"Patient/c3a81338-d107-4762-84a8-3a8ce88b781a"},"onsetDateTime":"2019-12-02T12:00:00.000+00:00","recordedDate":"2019-12-02T12:00:00.000+00:00"},"request":{"method":"PUT","url":"Condition/58b3b585-ac5f-41a8-be6d-4f8c32a6b333"}},{"fullUrl":"https://madie.cms.gov/Observation/hiv-viral-load-7775","resource":{"resourceType":"Observation","id":"344c24cd-a567-4d54-8046-23651180a7c2","meta":{"profile":["http://hl7.org/fhir/us/qicore/StructureDefinition/qicore-observation"]},"status":"final","category":[{"coding":[{"system":"http://terminology.hl7.org/CodeSystem/observation-category"}]}],"code":{"coding":[{"system":"http://loinc.org","version":"2.73","code":"10351-5","display":"HIV 1 RNA [Units/volume] (viral load) in Serum or Plasma by Probe with amplification","userSelected":true}]},"subject":{"reference":"Patient/c3a81338-d107-4762-84a8-3a8ce88b781a"},"effectiveDateTime":"2025-03-07T08:00:00.000+00:00","issued":"2025-03-07T08:00:00.000+00:00","valueQuantity":{"value":208,"unit":"{copies}/mL"}},"request":{"method":"PUT","url":"Observation/344c24cd-a567-4d54-8046-23651180a7c2"}},{"fullUrl":"https://madie.cms.gov/Observation/hiv-viral-load-7776","resource":{"resourceType":"Observation","id":"7ea75ec0-fc6e-432b-be0d-5e9d7b8cea39","meta":{"profile":["http://hl7.org/fhir/us/qicore/StructureDefinition/qicore-observation"]},"status":"final","category":[{"coding":[{"system":"http://terminology.hl7.org/CodeSystem/observation-category"}]}],"code":{"coding":[{"system":"http://loinc.org","version":"2.73","code":"10351-5","display":"HIV 1 RNA [Units/volume] (viral load) in Serum or Plasma by Probe with amplification","userSelected":true}]},"subject":{"reference":"Patient/c3a81338-d107-4762-84a8-3a8ce88b781a"},"effectiveDateTime":"2025-12-31T08:02:00.000+00:00","issued":"2025-12-31T08:02:00.000+00:00","valueQuantity":{"value":160,"unit":"{copies}/mL"}},"request":{"method":"PUT","url":"Observation/7ea75ec0-fc6e-432b-be0d-5e9d7b8cea39"}},{"fullUrl":"https://madie.cms.gov/Coverage/1","resource":{"resourceType":"Coverage","id":"25950e0a-4ed3-4a67-8e4c-bb3772cd9e42","meta":{"profile":["http://hl7.org/fhir/us/qicore/StructureDefinition/qicore-coverage"]},"status":"active","beneficiary":{"reference":"Patient/c3a81338-d107-4762-84a8-3a8ce88b781a"},"payor":[{"reference":"Organization/a6c3e6fa-301e-4714-9d04-3dde9a7e7c49"}]},"request":{"method":"PUT","url":"Coverage/25950e0a-4ed3-4a67-8e4c-bb3772cd9e42"}},{"fullUrl":"https://madie.cms.gov/Organization/123456","resource":{"resourceType":"Organization","id":"a6c3e6fa-301e-4714-9d04-3dde9a7e7c49","meta":{"profile":["http://hl7.org/fhir/us/qicore/StructureDefinition/qicore-organization"]},"identifier":[{"use":"temp","system":"urn:oid:2.16.840.1.113883.4.4","value":"21-3259825"}],"active":true,"type":[{"coding":[{"system":"http://terminology.hl7.org/CodeSystem/organization-type","code":"pay","display":"Payer"}]}],"name":"Blue Cross Blue Shield of Texas","telecom":[{"system":"phone","value":"(+1) 972-766-6900"}],"address":[{"use":"billing","type":"postal","line":["P.O. Box 660044"],"city":"Dallas","state":"TX","postalCode":"75266-0044","country":"USA"}]},"request":{"method":"PUT","url":"Organization/a6c3e6fa-301e-4714-9d04-3dde9a7e7c49"}},{"fullUrl":"https://madie.cms.gov/Practitioner/practitioner-123456","resource":{"resourceType":"Practitioner","id":"946f5ce5-3406-4a88-872d-991a28b1ce2b","meta":{"profile":["http://hl7.org/fhir/us/qicore/StructureDefinition/qicore-practitioner"]},"identifier":[{"system":"http://hl7.org/fhir/sid/us-npi","value":"123456"}],"name":[{"family":"Evil","prefix":["Dr"]}]},"request":{"method":"PUT","url":"Practitioner/946f5ce5-3406-4a88-872d-991a28b1ce2b"}},{"fullUrl":"https://madie.cms.gov/MeasureReport/466804cd-b9d3-4730-89ae-9b47443e7e32","resource":{"resourceType":"MeasureReport","id":"466804cd-b9d3-4730-89ae-9b47443e7e32","meta":{"profile":["http://hl7.org/fhir/us/cqfmeasures/StructureDefinition/test-case-cqfm"]},"contained":[{"resourceType":"Parameters","id":"d6d4cc10-3c7e-4aa5-b0be-6ed20c34898c-parameters","parameter":[{"name":"subject","valueString":"c3a81338-d107-4762-84a8-3a8ce88b781a"}]}],"extension":[{"url":"http://hl7.org/fhir/us/cqfmeasures/StructureDefinition/cqfm-inputParameters","valueReference":{"reference":"#d6d4cc10-3c7e-4aa5-b0be-6ed20c34898c-parameters"}},{"url":"http://hl7.org/fhir/us/cqfmeasures/StructureDefinition/cqfm-testCaseDescription","valueMarkdown":"Patient with a diagnosis of HIV years before start of the MP and a qualifying encounter during the MP with 2 tests during the MP, most recent under 200"}],"modifierExtension":[{"url":"http://hl7.org/fhir/us/cqfmeasures/StructureDefinition/cqfm-isTestCase","valueBoolean":true}],"status":"complete","type":"individual","measure":"https://madie.cms.gov/Measure/HIVViralSuppressionFHIR","period":{"start":"2025-01-01","end":"2025-12-31"},"group":[{"population":[{"code":{"coding":[{"system":"http://terminology.hl7.org/CodeSystem/measure-population","code":"initial-population","display":"Initial Population"}]},"count":1},{"code":{"coding":[{"system":"http://terminology.hl7.org/CodeSystem/measure-population","code":"denominator","display":"Denominator"}]},"count":1},{"code":{"coding":[{"system":"http://terminology.hl7.org/CodeSystem/measure-population","code":"numerator","display":"Numerator"}]},"count":1}]}]},"request":{"method":"PUT","url":"MeasureReport/466804cd-b9d3-4730-89ae-9b47443e7e32"}}]}