{"resourceType":"Bundle","id":"tests-3f8c028d-5443-41dc-895e-ad9541af0dfe-bundle","type":"transaction","entry":[{"fullUrl":"https://madie.cms.gov/Patient/3f8c028d-5443-41dc-895e-ad9541af0dfe","resource":{"resourceType":"Patient","id":"3f8c028d-5443-41dc-895e-ad9541af0dfe","meta":{"profile":["http://hl7.org/fhir/us/qicore/StructureDefinition/qicore-patient"]},"extension":[{"url":"http://hl7.org/fhir/us/core/StructureDefinition/us-core-race","extension":[{"url":"ombCategory","valueCoding":{"system":"urn:oid:2.16.840.1.113883.6.238","code":"2076-8","display":"Native Hawaiian or Other Pacific Islander","userSelected":true}},{"url":"text","valueString":"Native Hawaiian or Other Pacific Islander"}]},{"url":"http://hl7.org/fhir/us/core/StructureDefinition/us-core-ethnicity","extension":[{"url":"ombCategory","valueCoding":{"system":"urn:oid:2.16.840.1.113883.6.238","code":"2186-5","display":"Not Hispanic or Latino","userSelected":true}},{"url":"text","valueString":"Not Hispanic or Latino"}]}],"identifier":[{"type":{"coding":[{"system":"http://terminology.hl7.org/CodeSystem/v2-0203","code":"MR"}]},"system":"https://bonnie-fhir.healthit.gov/","value":"64998863cea95c34d9e57760"}],"name":[{"family":"NumFail","given":["TestOnJan1ofMPResult199"]}],"gender":"male","birthDate":"1986-05-25"},"request":{"method":"PUT","url":"Patient/3f8c028d-5443-41dc-895e-ad9541af0dfe"}},{"fullUrl":"https://madie.cms.gov/Condition/hiv-7761","resource":{"resourceType":"Condition","id":"5c0f844a-470c-4b19-ab89-d334a9e78831","meta":{"profile":["http://hl7.org/fhir/us/qicore/StructureDefinition/qicore-condition"]},"clinicalStatus":{"coding":[{"system":"http://terminology.hl7.org/CodeSystem/condition-clinical","code":"active","display":"active","userSelected":true}]},"category":[{"coding":[{"system":"http://terminology.hl7.org/CodeSystem/condition-category","code":"problem-list-item","display":"Problem List Item"}]}],"code":{"coding":[{"system":"http://hl7.org/fhir/sid/icd-9-cm","version":"2013","code":"042","display":"Human immunodeficiency virus [HIV] disease","userSelected":true},{"system":"http://snomed.info/sct","code":"165816005","userSelected":true}]},"subject":{"reference":"Patient/3f8c028d-5443-41dc-895e-ad9541af0dfe"},"onsetDateTime":"2019-12-02T12:00:00.000+00:00","recordedDate":"2019-12-02T12:00:00.000+00:00"},"request":{"method":"PUT","url":"Condition/5c0f844a-470c-4b19-ab89-d334a9e78831"}},{"fullUrl":"https://madie.cms.gov/Encounter/preventive-care-services-initial-office-visit-18-and-up-7762","resource":{"resourceType":"Encounter","id":"4a794ba3-0e64-4183-82fe-6cd16b9263fb","meta":{"profile":["http://hl7.org/fhir/us/qicore/StructureDefinition/qicore-encounter"]},"status":"finished","class":{"system":"http://terminology.hl7.org/CodeSystem/v3-ActCode","code":"AMB","display":"ambulatory"},"type":[{"coding":[{"system":"http://www.ama-assn.org/go/cpt","code":"99386","userSelected":true}]}],"subject":{"reference":"Patient/3f8c028d-5443-41dc-895e-ad9541af0dfe"},"period":{"start":"2025-08-29T15:02:00.000+00:00","end":"2025-08-29T15:55:00.000+00:00"}},"request":{"method":"PUT","url":"Encounter/4a794ba3-0e64-4183-82fe-6cd16b9263fb"}},{"fullUrl":"https://madie.cms.gov/Observation/hiv-viral-load-7763","resource":{"resourceType":"Observation","id":"0453a2f0-7594-477d-95c4-5170d406ae00","meta":{"profile":["http://hl7.org/fhir/us/qicore/StructureDefinition/qicore-observation"]},"status":"final","category":[{"coding":[{"system":"http://terminology.hl7.org/CodeSystem/observation-category"}]}],"code":{"coding":[{"system":"http://loinc.org","version":"2.73","code":"10351-5","display":"HIV 1 RNA [Units/volume] (viral load) in Serum or Plasma by Probe with amplification","userSelected":true}]},"subject":{"reference":"Patient/3f8c028d-5443-41dc-895e-ad9541af0dfe"},"effectiveDateTime":"2025-01-01T09:02:00.000+00:00","issued":"2025-01-01T09:02:00.000+00:00","valueQuantity":{"value":299,"unit":"{copies}/mL"}},"request":{"method":"PUT","url":"Observation/0453a2f0-7594-477d-95c4-5170d406ae00"}},{"fullUrl":"https://madie.cms.gov/Coverage/1","resource":{"resourceType":"Coverage","id":"57bbdff5-aa14-4084-83fc-4506369223af","meta":{"profile":["http://hl7.org/fhir/us/qicore/StructureDefinition/qicore-coverage"]},"status":"active","beneficiary":{"reference":"Patient/3f8c028d-5443-41dc-895e-ad9541af0dfe"},"payor":[{"reference":"Organization/84b56847-ad40-4bf6-b612-9e42ad2a84e5"}]},"request":{"method":"PUT","url":"Coverage/57bbdff5-aa14-4084-83fc-4506369223af"}},{"fullUrl":"https://madie.cms.gov/Organization/123456","resource":{"resourceType":"Organization","id":"84b56847-ad40-4bf6-b612-9e42ad2a84e5","meta":{"profile":["http://hl7.org/fhir/us/qicore/StructureDefinition/qicore-organization"]},"identifier":[{"use":"temp","system":"urn:oid:2.16.840.1.113883.4.4","value":"21-3259825"}],"active":true,"type":[{"coding":[{"system":"http://terminology.hl7.org/CodeSystem/organization-type","code":"pay","display":"Payer"}]}],"name":"Blue Cross Blue Shield of Texas","telecom":[{"system":"phone","value":"(+1) 972-766-6900"}],"address":[{"use":"billing","type":"postal","line":["P.O. Box 660044"],"city":"Dallas","state":"TX","postalCode":"75266-0044","country":"USA"}]},"request":{"method":"PUT","url":"Organization/84b56847-ad40-4bf6-b612-9e42ad2a84e5"}},{"fullUrl":"https://madie.cms.gov/Practitioner/practitioner-123456","resource":{"resourceType":"Practitioner","id":"eab00bee-c819-4403-afb8-c7b53733a77f","meta":{"profile":["http://hl7.org/fhir/us/qicore/StructureDefinition/qicore-practitioner"]},"identifier":[{"system":"http://hl7.org/fhir/sid/us-npi","value":"123456"}],"name":[{"family":"Evil","prefix":["Dr"]}]},"request":{"method":"PUT","url":"Practitioner/eab00bee-c819-4403-afb8-c7b53733a77f"}},{"fullUrl":"https://madie.cms.gov/MeasureReport/6294f885-87ec-4c24-b531-93bd339833d3","resource":{"resourceType":"MeasureReport","id":"6294f885-87ec-4c24-b531-93bd339833d3","meta":{"profile":["http://hl7.org/fhir/us/cqfmeasures/StructureDefinition/test-case-cqfm"]},"contained":[{"resourceType":"Parameters","id":"2cd8aa1a-121f-4995-b4c2-812d420decdc-parameters","parameter":[{"name":"subject","valueString":"3f8c028d-5443-41dc-895e-ad9541af0dfe"}]}],"extension":[{"url":"http://hl7.org/fhir/us/cqfmeasures/StructureDefinition/cqfm-inputParameters","valueReference":{"reference":"#2cd8aa1a-121f-4995-b4c2-812d420decdc-parameters"}},{"url":"http://hl7.org/fhir/us/cqfmeasures/StructureDefinition/cqfm-testCaseDescription","valueMarkdown":"Patient with a diagnosis of HIV years before start of the MP and a qualifying encounter on inside 240 day edge of the MP AND a viral load test on Jan 1 of  the MP with a result = 299"}],"modifierExtension":[{"url":"http://hl7.org/fhir/us/cqfmeasures/StructureDefinition/cqfm-isTestCase","valueBoolean":true}],"status":"complete","type":"individual","measure":"https://madie.cms.gov/Measure/HIVViralSuppressionFHIR","period":{"start":"2025-01-01","end":"2025-12-31"},"group":[{"population":[{"code":{"coding":[{"system":"http://terminology.hl7.org/CodeSystem/measure-population","code":"initial-population","display":"Initial Population"}]},"count":1},{"code":{"coding":[{"system":"http://terminology.hl7.org/CodeSystem/measure-population","code":"denominator","display":"Denominator"}]},"count":1},{"code":{"coding":[{"system":"http://terminology.hl7.org/CodeSystem/measure-population","code":"numerator","display":"Numerator"}]},"count":0}]}]},"request":{"method":"PUT","url":"MeasureReport/6294f885-87ec-4c24-b531-93bd339833d3"}}]}