{"resourceType":"Bundle","id":"tests-2a83ceb0-b652-479c-8b3f-69209286ca86-bundle","type":"transaction","entry":[{"fullUrl":"https://madie.cms.gov/Patient/2a83ceb0-b652-479c-8b3f-69209286ca86","resource":{"resourceType":"Patient","id":"2a83ceb0-b652-479c-8b3f-69209286ca86","meta":{"profile":["http://hl7.org/fhir/us/qicore/StructureDefinition/qicore-patient"]},"extension":[{"url":"http://hl7.org/fhir/us/core/StructureDefinition/us-core-race","extension":[{"url":"ombCategory","valueCoding":{"system":"urn:oid:2.16.840.1.113883.6.238","code":"2106-3","display":"White","userSelected":true}},{"url":"text","valueString":"White"}]},{"url":"http://hl7.org/fhir/us/core/StructureDefinition/us-core-ethnicity","extension":[{"url":"ombCategory","valueCoding":{"system":"urn:oid:2.16.840.1.113883.6.238","code":"2135-2","display":"Hispanic or Latino","userSelected":true}},{"url":"text","valueString":"Hispanic or Latino"}]}],"identifier":[{"type":{"coding":[{"system":"http://terminology.hl7.org/CodeSystem/v2-0203","code":"MR"}]},"system":"https://bonnie-fhir.healthit.gov/","value":"6494424b8572d953d016cf6f"}],"name":[{"family":"IPFail","given":["HIVDxAndEncon91stDayofMP"]}],"gender":"female","birthDate":"1990-02-09"},"request":{"method":"PUT","url":"Patient/2a83ceb0-b652-479c-8b3f-69209286ca86"}},{"fullUrl":"https://madie.cms.gov/Condition/hiv-cf70","resource":{"resourceType":"Condition","id":"24fb6f12-6468-4cdc-b4ea-c6c36d178d72","meta":{"profile":["http://hl7.org/fhir/us/qicore/StructureDefinition/qicore-condition"]},"clinicalStatus":{"coding":[{"system":"http://terminology.hl7.org/CodeSystem/condition-clinical","code":"active","display":"active","userSelected":true}]},"category":[{"coding":[{"system":"http://terminology.hl7.org/CodeSystem/condition-category","code":"problem-list-item","display":"Problem List Item"}]}],"code":{"coding":[{"system":"http://hl7.org/fhir/sid/icd-10-cm","code":"O98.73","userSelected":true}]},"subject":{"reference":"Patient/2a83ceb0-b652-479c-8b3f-69209286ca86"},"onsetDateTime":"2025-04-01T00:45:00.000+00:00","recordedDate":"2025-04-01T00:45:00.000+00:00"},"request":{"method":"PUT","url":"Condition/24fb6f12-6468-4cdc-b4ea-c6c36d178d72"}},{"fullUrl":"https://madie.cms.gov/Encounter/face-to-face-interaction-cf71","resource":{"resourceType":"Encounter","id":"c6385a35-5c1b-49d2-88e4-a9596221ad7d","meta":{"profile":["http://hl7.org/fhir/us/qicore/StructureDefinition/qicore-encounter"]},"status":"finished","class":{"system":"http://terminology.hl7.org/CodeSystem/v3-ActCode","code":"AMB","display":"ambulatory"},"type":[{"coding":[{"system":"http://snomed.info/sct","version":"2022-09","code":"12843005","display":"Subsequent hospital visit by physician (procedure)","userSelected":true}]}],"subject":{"reference":"Patient/2a83ceb0-b652-479c-8b3f-69209286ca86"},"period":{"start":"2025-04-01T15:00:00.000+00:00","end":"2025-04-01T15:45:00.000+00:00"}},"request":{"method":"PUT","url":"Encounter/c6385a35-5c1b-49d2-88e4-a9596221ad7d"}},{"fullUrl":"https://madie.cms.gov/Coverage/1","resource":{"resourceType":"Coverage","id":"be480773-7309-45b6-8874-e81861552dd1","meta":{"profile":["http://hl7.org/fhir/us/qicore/StructureDefinition/qicore-coverage"]},"status":"active","beneficiary":{"reference":"Patient/2a83ceb0-b652-479c-8b3f-69209286ca86"},"payor":[{"reference":"Organization/607fdef9-3983-4cef-ab1a-95434d29b463"}]},"request":{"method":"PUT","url":"Coverage/be480773-7309-45b6-8874-e81861552dd1"}},{"fullUrl":"https://madie.cms.gov/Organization/123456","resource":{"resourceType":"Organization","id":"607fdef9-3983-4cef-ab1a-95434d29b463","meta":{"profile":["http://hl7.org/fhir/us/qicore/StructureDefinition/qicore-organization"]},"identifier":[{"use":"temp","system":"urn:oid:2.16.840.1.113883.4.4","value":"21-3259825"}],"active":true,"type":[{"coding":[{"system":"http://terminology.hl7.org/CodeSystem/organization-type","code":"pay","display":"Payer"}]}],"name":"Blue Cross Blue Shield of Texas","telecom":[{"system":"phone","value":"(+1) 972-766-6900"}],"address":[{"use":"billing","type":"postal","line":["P.O. Box 660044"],"city":"Dallas","state":"TX","postalCode":"75266-0044","country":"USA"}]},"request":{"method":"PUT","url":"Organization/607fdef9-3983-4cef-ab1a-95434d29b463"}},{"fullUrl":"https://madie.cms.gov/Practitioner/practitioner-123456","resource":{"resourceType":"Practitioner","id":"73a3e245-6563-43cb-8c33-ba6e35a94d7e","meta":{"profile":["http://hl7.org/fhir/us/qicore/StructureDefinition/qicore-practitioner"]},"identifier":[{"system":"http://hl7.org/fhir/sid/us-npi","value":"123456"}],"name":[{"family":"Evil","prefix":["Dr"]}]},"request":{"method":"PUT","url":"Practitioner/73a3e245-6563-43cb-8c33-ba6e35a94d7e"}},{"fullUrl":"https://madie.cms.gov/MeasureReport/d07ebc48-deac-4d73-b269-77442a626767","resource":{"resourceType":"MeasureReport","id":"d07ebc48-deac-4d73-b269-77442a626767","meta":{"profile":["http://hl7.org/fhir/us/cqfmeasures/StructureDefinition/test-case-cqfm"]},"contained":[{"resourceType":"Parameters","id":"963c1dd8-c147-49db-9a1b-c5bbe46b29d9-parameters","parameter":[{"name":"subject","valueString":"2a83ceb0-b652-479c-8b3f-69209286ca86"}]}],"extension":[{"url":"http://hl7.org/fhir/us/cqfmeasures/StructureDefinition/cqfm-inputParameters","valueReference":{"reference":"#963c1dd8-c147-49db-9a1b-c5bbe46b29d9-parameters"}},{"url":"http://hl7.org/fhir/us/cqfmeasures/StructureDefinition/cqfm-testCaseDescription","valueMarkdown":"HIV diagnosis made on outside 90day edge of MP (91 days) with a qualifying encounter on same day during MP"}],"modifierExtension":[{"url":"http://hl7.org/fhir/us/cqfmeasures/StructureDefinition/cqfm-isTestCase","valueBoolean":true}],"status":"complete","type":"individual","measure":"https://madie.cms.gov/Measure/HIVViralSuppressionFHIR","period":{"start":"2025-01-01","end":"2025-12-31"},"group":[{"population":[{"code":{"coding":[{"system":"http://terminology.hl7.org/CodeSystem/measure-population","code":"initial-population","display":"Initial Population"}]},"count":0},{"code":{"coding":[{"system":"http://terminology.hl7.org/CodeSystem/measure-population","code":"denominator","display":"Denominator"}]},"count":0},{"code":{"coding":[{"system":"http://terminology.hl7.org/CodeSystem/measure-population","code":"numerator","display":"Numerator"}]},"count":0}]}]},"request":{"method":"PUT","url":"MeasureReport/d07ebc48-deac-4d73-b269-77442a626767"}}]}