{"resourceType":"Bundle","id":"tests-1e89cfdc-ec5e-456a-abcf-ab349c9cfbed-bundle","type":"transaction","entry":[{"fullUrl":"https://madie.cms.gov/Patient/1e89cfdc-ec5e-456a-abcf-ab349c9cfbed","resource":{"resourceType":"Patient","id":"1e89cfdc-ec5e-456a-abcf-ab349c9cfbed","meta":{"profile":["http://hl7.org/fhir/us/qicore/StructureDefinition/qicore-patient"]},"extension":[{"url":"http://hl7.org/fhir/us/core/StructureDefinition/us-core-race","extension":[{"url":"ombCategory","valueCoding":{"system":"urn:oid:2.16.840.1.113883.6.238","code":"2076-8","display":"Native Hawaiian or Other Pacific Islander","userSelected":true}},{"url":"text","valueString":"Native Hawaiian or Other Pacific Islander"}]},{"url":"http://hl7.org/fhir/us/core/StructureDefinition/us-core-ethnicity","extension":[{"url":"ombCategory","valueCoding":{"system":"urn:oid:2.16.840.1.113883.6.238","code":"2186-5","display":"Not Hispanic or Latino","userSelected":true}},{"url":"text","valueString":"Not Hispanic or Latino"}]}],"identifier":[{"type":{"coding":[{"system":"http://terminology.hl7.org/CodeSystem/v2-0203","code":"MR"}]},"system":"https://bonnie-fhir.healthit.gov/","value":"64998bcecea95c34d9e5776c"}],"name":[{"family":"NumPass","given":["2Tests1BeforeMP1duringMP"]}],"gender":"female","birthDate":"1986-05-25"},"request":{"method":"PUT","url":"Patient/1e89cfdc-ec5e-456a-abcf-ab349c9cfbed"}},{"fullUrl":"https://madie.cms.gov/Condition/hiv-776d","resource":{"resourceType":"Condition","id":"243f4eb6-9b26-4893-bd47-11da65844d85","meta":{"profile":["http://hl7.org/fhir/us/qicore/StructureDefinition/qicore-condition"]},"clinicalStatus":{"coding":[{"system":"http://terminology.hl7.org/CodeSystem/condition-clinical","code":"active","display":"active","userSelected":true}]},"category":[{"coding":[{"system":"http://terminology.hl7.org/CodeSystem/condition-category","code":"problem-list-item","display":"Problem List Item"}]}],"code":{"coding":[{"system":"http://hl7.org/fhir/sid/icd-9-cm","version":"2013","code":"042","display":"Human immunodeficiency virus [HIV] disease","userSelected":true},{"system":"http://snomed.info/sct","code":"165816005","userSelected":true}]},"subject":{"reference":"Patient/1e89cfdc-ec5e-456a-abcf-ab349c9cfbed"},"onsetDateTime":"2023-12-02T13:00:00.000+00:00","recordedDate":"2023-12-02T13:00:00.000+00:00"},"request":{"method":"PUT","url":"Condition/243f4eb6-9b26-4893-bd47-11da65844d85"}},{"fullUrl":"https://madie.cms.gov/Encounter/outpatient-consultation-776e","resource":{"resourceType":"Encounter","id":"e48505bf-716b-44ef-8ecc-d8e56f2c8f8c","meta":{"profile":["http://hl7.org/fhir/us/qicore/StructureDefinition/qicore-encounter"]},"status":"finished","class":{"system":"http://terminology.hl7.org/CodeSystem/v3-ActCode","code":"AMB","display":"ambulatory"},"type":[{"coding":[{"system":"http://snomed.info/sct","version":"2022-09","code":"281036007","display":"Follow-up consultation (procedure)","userSelected":true}]}],"subject":{"reference":"Patient/1e89cfdc-ec5e-456a-abcf-ab349c9cfbed"},"period":{"start":"2025-03-07T10:00:00.000+00:00","end":"2025-03-07T10:45:00.000+00:00"}},"request":{"method":"PUT","url":"Encounter/e48505bf-716b-44ef-8ecc-d8e56f2c8f8c"}},{"fullUrl":"https://madie.cms.gov/Observation/hiv-viral-load-776f","resource":{"resourceType":"Observation","id":"914bcf19-872f-4a4b-bfe9-a50044d67990","meta":{"profile":["http://hl7.org/fhir/us/qicore/StructureDefinition/qicore-observation"]},"status":"final","category":[{"coding":[{"system":"http://terminology.hl7.org/CodeSystem/observation-category"}]}],"code":{"coding":[{"system":"http://loinc.org","version":"2.73","code":"10351-5","display":"HIV 1 RNA [Units/volume] (viral load) in Serum or Plasma by Probe with amplification","userSelected":true}]},"subject":{"reference":"Patient/1e89cfdc-ec5e-456a-abcf-ab349c9cfbed"},"effectiveDateTime":"2023-03-07T08:00:00.000+00:00","issued":"2023-03-07T08:00:00.000+00:00","valueCodeableConcept":{"coding":[{"system":"http://snomed.info/sct","code":"260988000","display":"Below threshold level (qualifier value)","userSelected":true}]}},"request":{"method":"PUT","url":"Observation/914bcf19-872f-4a4b-bfe9-a50044d67990"}},{"fullUrl":"https://madie.cms.gov/Observation/hiv-viral-load-7770","resource":{"resourceType":"Observation","id":"e9906bc5-a56d-4016-b0c9-a29466e0ee06","meta":{"profile":["http://hl7.org/fhir/us/qicore/StructureDefinition/qicore-observation"]},"status":"final","category":[{"coding":[{"system":"http://terminology.hl7.org/CodeSystem/observation-category"}]}],"code":{"coding":[{"system":"http://loinc.org","version":"2.73","code":"10351-5","display":"HIV 1 RNA [Units/volume] (viral load) in Serum or Plasma by Probe with amplification","userSelected":true}]},"subject":{"reference":"Patient/1e89cfdc-ec5e-456a-abcf-ab349c9cfbed"},"effectiveDateTime":"2025-03-18T08:00:00.000+00:00","issued":"2025-03-18T08:00:00.000+00:00","valueQuantity":{"value":199,"unit":"{copies}/mL"}},"request":{"method":"PUT","url":"Observation/e9906bc5-a56d-4016-b0c9-a29466e0ee06"}},{"fullUrl":"https://madie.cms.gov/Coverage/1","resource":{"resourceType":"Coverage","id":"942d2387-45ed-448c-92f7-4fd142ae9de0","meta":{"profile":["http://hl7.org/fhir/us/qicore/StructureDefinition/qicore-coverage"]},"status":"active","beneficiary":{"reference":"Patient/1e89cfdc-ec5e-456a-abcf-ab349c9cfbed"},"payor":[{"reference":"Organization/024e2731-b045-43bf-80d2-684774c5b51c"}]},"request":{"method":"PUT","url":"Coverage/942d2387-45ed-448c-92f7-4fd142ae9de0"}},{"fullUrl":"https://madie.cms.gov/Organization/123456","resource":{"resourceType":"Organization","id":"024e2731-b045-43bf-80d2-684774c5b51c","meta":{"profile":["http://hl7.org/fhir/us/qicore/StructureDefinition/qicore-organization"]},"identifier":[{"use":"temp","system":"urn:oid:2.16.840.1.113883.4.4","value":"21-3259825"}],"active":true,"type":[{"coding":[{"system":"http://terminology.hl7.org/CodeSystem/organization-type","code":"pay","display":"Payer"}]}],"name":"Blue Cross Blue Shield of Texas","telecom":[{"system":"phone","value":"(+1) 972-766-6900"}],"address":[{"use":"billing","type":"postal","line":["P.O. Box 660044"],"city":"Dallas","state":"TX","postalCode":"75266-0044","country":"USA"}]},"request":{"method":"PUT","url":"Organization/024e2731-b045-43bf-80d2-684774c5b51c"}},{"fullUrl":"https://madie.cms.gov/Practitioner/practitioner-123456","resource":{"resourceType":"Practitioner","id":"475a8aad-a117-4f45-a16d-ee2caa52525f","meta":{"profile":["http://hl7.org/fhir/us/qicore/StructureDefinition/qicore-practitioner"]},"identifier":[{"system":"http://hl7.org/fhir/sid/us-npi","value":"123456"}],"name":[{"family":"Evil","prefix":["Dr"]}]},"request":{"method":"PUT","url":"Practitioner/475a8aad-a117-4f45-a16d-ee2caa52525f"}},{"fullUrl":"https://madie.cms.gov/MeasureReport/f8c24282-6ea2-4c1b-b84d-ed0883bf9388","resource":{"resourceType":"MeasureReport","id":"f8c24282-6ea2-4c1b-b84d-ed0883bf9388","meta":{"profile":["http://hl7.org/fhir/us/cqfmeasures/StructureDefinition/test-case-cqfm"]},"contained":[{"resourceType":"Parameters","id":"72a3a0ce-58c8-4c5b-a992-dd62e60e5000-parameters","parameter":[{"name":"subject","valueString":"1e89cfdc-ec5e-456a-abcf-ab349c9cfbed"}]}],"extension":[{"url":"http://hl7.org/fhir/us/cqfmeasures/StructureDefinition/cqfm-inputParameters","valueReference":{"reference":"#72a3a0ce-58c8-4c5b-a992-dd62e60e5000-parameters"}},{"url":"http://hl7.org/fhir/us/cqfmeasures/StructureDefinition/cqfm-testCaseDescription","valueMarkdown":"Patient with a diagnosis of HIV in years prior to the MP and a qualifying encounter during the MP with two viral load tests - one before the MP and one during the MP"}],"modifierExtension":[{"url":"http://hl7.org/fhir/us/cqfmeasures/StructureDefinition/cqfm-isTestCase","valueBoolean":true}],"status":"complete","type":"individual","measure":"https://madie.cms.gov/Measure/HIVViralSuppressionFHIR","period":{"start":"2025-01-01","end":"2025-12-31"},"group":[{"population":[{"code":{"coding":[{"system":"http://terminology.hl7.org/CodeSystem/measure-population","code":"initial-population","display":"Initial Population"}]},"count":1},{"code":{"coding":[{"system":"http://terminology.hl7.org/CodeSystem/measure-population","code":"denominator","display":"Denominator"}]},"count":1},{"code":{"coding":[{"system":"http://terminology.hl7.org/CodeSystem/measure-population","code":"numerator","display":"Numerator"}]},"count":1}]}]},"request":{"method":"PUT","url":"MeasureReport/f8c24282-6ea2-4c1b-b84d-ed0883bf9388"}}]}