{"resourceType":"Bundle","id":"tests-eae55f3d-0a15-4a21-9229-dfb11f8e3f9d-bundle","type":"transaction","entry":[{"fullUrl":"https://madie.cms.gov/Patient/eae55f3d-0a15-4a21-9229-dfb11f8e3f9d","resource":{"resourceType":"Patient","id":"eae55f3d-0a15-4a21-9229-dfb11f8e3f9d","meta":{"profile":["http://hl7.org/fhir/us/qicore/StructureDefinition/qicore-patient"]},"extension":[{"url":"http://hl7.org/fhir/us/core/StructureDefinition/us-core-race","extension":[{"url":"ombCategory","valueCoding":{"system":"urn:oid:2.16.840.1.113883.6.238","code":"2028-9","display":"Asian","userSelected":true}},{"url":"text","valueString":"Asian"}]},{"url":"http://hl7.org/fhir/us/core/StructureDefinition/us-core-ethnicity","extension":[{"url":"ombCategory","valueCoding":{"system":"urn:oid:2.16.840.1.113883.6.238","code":"2186-5","display":"Not Hispanic or Latino","userSelected":true}},{"url":"text","valueString":"Not Hispanic or Latino"}]}],"identifier":[{"type":{"coding":[{"system":"http://terminology.hl7.org/CodeSystem/v2-0203","code":"MR"}]},"system":"https://bonnie-fhir.healthit.gov/","value":"649336534d994e7239aa25f2"}],"name":[{"family":"IPFail","given":["EncOn240DayEdgeofMP"]}],"gender":"female","birthDate":"1990-02-09"},"request":{"method":"PUT","url":"Patient/eae55f3d-0a15-4a21-9229-dfb11f8e3f9d"}},{"fullUrl":"https://madie.cms.gov/Condition/hiv-25f3","resource":{"resourceType":"Condition","id":"74214d71-ec21-4512-ae63-ce9f7ae05192","meta":{"profile":["http://hl7.org/fhir/us/qicore/StructureDefinition/qicore-condition"]},"clinicalStatus":{"coding":[{"system":"http://terminology.hl7.org/CodeSystem/condition-clinical","code":"active","display":"active","userSelected":true}]},"category":[{"coding":[{"system":"http://terminology.hl7.org/CodeSystem/condition-category","code":"problem-list-item","display":"Problem List Item"}]}],"code":{"coding":[{"system":"http://hl7.org/fhir/sid/icd-9-cm","version":"2013","code":"042","display":"Human immunodeficiency virus [HIV] disease","userSelected":true},{"system":"http://snomed.info/sct","code":"165816005","userSelected":true}]},"subject":{"reference":"Patient/eae55f3d-0a15-4a21-9229-dfb11f8e3f9d"},"onsetDateTime":"2019-12-02T12:00:00.000+00:00","recordedDate":"2025-02-01T11:00:00.000+00:00"},"request":{"method":"PUT","url":"Condition/74214d71-ec21-4512-ae63-ce9f7ae05192"}},{"fullUrl":"https://madie.cms.gov/Encounter/unlisted-preventive-medicine-service-25f4","resource":{"resourceType":"Encounter","id":"f023df99-7d9f-4e58-bfce-079d034b9b01","meta":{"profile":["http://hl7.org/fhir/us/qicore/StructureDefinition/qicore-encounter"]},"status":"finished","class":{"system":"http://terminology.hl7.org/CodeSystem/v3-ActCode","code":"AMB","display":"ambulatory"},"type":[{"coding":[{"system":"http://www.ama-assn.org/go/cpt","code":"99429","userSelected":true}]}],"subject":{"reference":"Patient/eae55f3d-0a15-4a21-9229-dfb11f8e3f9d"},"period":{"start":"2025-08-30T18:00:00.000+00:00","end":"2025-08-30T18:55:00.000+00:00"}},"request":{"method":"PUT","url":"Encounter/f023df99-7d9f-4e58-bfce-079d034b9b01"}},{"fullUrl":"https://madie.cms.gov/Coverage/1","resource":{"resourceType":"Coverage","id":"02aa6496-cd20-4b33-be40-5b870aa79d52","meta":{"profile":["http://hl7.org/fhir/us/qicore/StructureDefinition/qicore-coverage"]},"status":"active","beneficiary":{"reference":"Patient/eae55f3d-0a15-4a21-9229-dfb11f8e3f9d"},"payor":[{"reference":"Organization/f4907415-83c5-4eae-ab0b-cb63a840880d"}]},"request":{"method":"PUT","url":"Coverage/02aa6496-cd20-4b33-be40-5b870aa79d52"}},{"fullUrl":"https://madie.cms.gov/Organization/123456","resource":{"resourceType":"Organization","id":"f4907415-83c5-4eae-ab0b-cb63a840880d","meta":{"profile":["http://hl7.org/fhir/us/qicore/StructureDefinition/qicore-organization"]},"identifier":[{"use":"temp","system":"urn:oid:2.16.840.1.113883.4.4","value":"21-3259825"}],"active":true,"type":[{"coding":[{"system":"http://terminology.hl7.org/CodeSystem/organization-type","code":"pay","display":"Payer"}]}],"name":"Blue Cross Blue Shield of Texas","telecom":[{"system":"phone","value":"(+1) 972-766-6900"}],"address":[{"use":"billing","type":"postal","line":["P.O. Box 660044"],"city":"Dallas","state":"TX","postalCode":"75266-0044","country":"USA"}]},"request":{"method":"PUT","url":"Organization/f4907415-83c5-4eae-ab0b-cb63a840880d"}},{"fullUrl":"https://madie.cms.gov/Practitioner/practitioner-123456","resource":{"resourceType":"Practitioner","id":"9862004b-ebe6-4f99-9eb0-74531fb19818","meta":{"profile":["http://hl7.org/fhir/us/qicore/StructureDefinition/qicore-practitioner"]},"identifier":[{"system":"http://hl7.org/fhir/sid/us-npi","value":"123456"}],"name":[{"family":"Evil","prefix":["Dr"]}]},"request":{"method":"PUT","url":"Practitioner/9862004b-ebe6-4f99-9eb0-74531fb19818"}},{"fullUrl":"https://madie.cms.gov/MeasureReport/f26b7aa1-ead2-4ae7-a02b-4ae5819f3723","resource":{"resourceType":"MeasureReport","id":"f26b7aa1-ead2-4ae7-a02b-4ae5819f3723","meta":{"profile":["http://hl7.org/fhir/us/cqfmeasures/StructureDefinition/test-case-cqfm"]},"contained":[{"resourceType":"Parameters","id":"91f580f3-d861-4ee0-873d-51a2f993e965-parameters","parameter":[{"name":"subject","valueString":"eae55f3d-0a15-4a21-9229-dfb11f8e3f9d"}]}],"extension":[{"url":"http://hl7.org/fhir/us/cqfmeasures/StructureDefinition/cqfm-inputParameters","valueReference":{"reference":"#91f580f3-d861-4ee0-873d-51a2f993e965-parameters"}},{"url":"http://hl7.org/fhir/us/cqfmeasures/StructureDefinition/cqfm-testCaseDescription","valueMarkdown":"HIV diagnosis made during first 90 days of MP with a qualifying encounter on outside 240 day edge during MP"}],"modifierExtension":[{"url":"http://hl7.org/fhir/us/cqfmeasures/StructureDefinition/cqfm-isTestCase","valueBoolean":true}],"status":"complete","type":"individual","measure":"https://madie.cms.gov/Measure/HIVViralSuppressionFHIR","period":{"start":"2025-01-01","end":"2025-12-31"},"group":[{"population":[{"code":{"coding":[{"system":"http://terminology.hl7.org/CodeSystem/measure-population","code":"initial-population","display":"Initial Population"}]},"count":0},{"code":{"coding":[{"system":"http://terminology.hl7.org/CodeSystem/measure-population","code":"denominator","display":"Denominator"}]},"count":0},{"code":{"coding":[{"system":"http://terminology.hl7.org/CodeSystem/measure-population","code":"numerator","display":"Numerator"}]},"count":0}]}]},"request":{"method":"PUT","url":"MeasureReport/f26b7aa1-ead2-4ae7-a02b-4ae5819f3723"}}]}