{"resourceType":"Bundle","id":"tests-6d6980b9-1f73-495a-a78c-c9c26a26ceaf-bundle","type":"transaction","entry":[{"fullUrl":"Patient/6d6980b9-1f73-495a-a78c-c9c26a26ceaf","resource":{"resourceType":"Patient","id":"6d6980b9-1f73-495a-a78c-c9c26a26ceaf","meta":{"profile":["http://hl7.org/fhir/us/qicore/StructureDefinition/qicore-patient"]},"extension":[{"url":"http://hl7.org/fhir/us/core/StructureDefinition/us-core-race","extension":[{"url":"ombCategory","valueCoding":{"system":"urn:oid:2.16.840.1.113883.6.238","code":"2106-3","display":"White"}},{"url":"text","valueString":"White"}]},{"url":"http://hl7.org/fhir/us/core/StructureDefinition/us-core-ethnicity","extension":[{"url":"ombCategory","valueCoding":{"system":"urn:oid:2.16.840.1.113883.6.238","code":"2186-5","display":"Not Hispanic or Latino","userSelected":true}},{"url":"text","valueString":"Not Hispanic or Latino"}]}],"identifier":[{"type":{"coding":[{"system":"http://terminology.hl7.org/CodeSystem/v2-0203","code":"MR"}]},"system":"https://bonnie-fhir.healthit.gov/","value":"649333ea4d994e7239aa25e9"}],"name":[{"family":"IPFail","given":["EncBeforeMP"]}],"gender":"male","birthDate":"1988-08-08"},"request":{"method":"PUT","url":"Patient/6d6980b9-1f73-495a-a78c-c9c26a26ceaf"}},{"fullUrl":"Condition/hiv-25ea","resource":{"resourceType":"Condition","id":"hiv-25ea","meta":{"profile":["http://hl7.org/fhir/us/qicore/StructureDefinition/qicore-condition"]},"category":[{"coding":[{"system":"http://terminology.hl7.org/CodeSystem/condition-category","code":"problem-list-item","display":"Problem List Item"}]}],"code":{"coding":[{"system":"http://snomed.info/sct","code":"111880001","userSelected":true}]},"subject":{"reference":"Patient/6d6980b9-1f73-495a-a78c-c9c26a26ceaf"},"recordedDate":"2000-03-07T08:00:00.000+00:00"},"request":{"method":"PUT","url":"Condition/hiv-25ea"}},{"fullUrl":"Encounter/office-visit-25eb","resource":{"resourceType":"Encounter","id":"office-visit-25eb","meta":{"profile":["http://hl7.org/fhir/us/qicore/StructureDefinition/qicore-encounter"]},"status":"finished","class":{"system":"http://terminology.hl7.org/CodeSystem/v3-ActCode","code":"AMB","display":"ambulatory"},"type":[{"coding":[{"system":"http://snomed.info/sct","version":"2022-09","code":"185463005","display":"Visit out of hours (procedure)","userSelected":true}]}],"subject":{"reference":"Patient/6d6980b9-1f73-495a-a78c-c9c26a26ceaf"},"period":{"start":"2023-12-03T11:00:00.000+00:00","end":"2023-12-03T12:15:00.000+00:00"}},"request":{"method":"PUT","url":"Encounter/office-visit-25eb"}},{"fullUrl":"Coverage/Coverage-1","resource":{"resourceType":"Coverage","id":"Coverage-1","meta":{"profile":["http://hl7.org/fhir/us/qicore/StructureDefinition/qicore-coverage"]},"status":"active","beneficiary":{"reference":"Patient/6d6980b9-1f73-495a-a78c-c9c26a26ceaf"},"payor":[{"reference":"Organization/Org-123456"}]},"request":{"method":"PUT","url":"Coverage/Coverage-1"}},{"fullUrl":"Organization/Org-123456","resource":{"resourceType":"Organization","id":"Org-123456","meta":{"profile":["http://hl7.org/fhir/us/qicore/StructureDefinition/qicore-organization"]},"identifier":[{"use":"temp","system":"urn:oid:2.16.840.1.113883.4.4","value":"21-3259825"}],"active":true,"type":[{"coding":[{"system":"http://terminology.hl7.org/CodeSystem/organization-type","code":"pay","display":"Payer"}]}],"name":"Blue Cross Blue Shield of Texas","telecom":[{"system":"phone","value":"(+1) 972-766-6900"}],"address":[{"use":"billing","type":"postal","line":["P.O. Box 660044"],"city":"Dallas","state":"TX","postalCode":"75266-0044","country":"USA"}]},"request":{"method":"PUT","url":"Organization/Org-123456"}},{"fullUrl":"Practitioner/practitioner-123456","resource":{"resourceType":"Practitioner","id":"practitioner-123456","meta":{"profile":["http://hl7.org/fhir/us/qicore/StructureDefinition/qicore-practitioner"]},"identifier":[{"system":"http://hl7.org/fhir/sid/us-npi","value":"123456"}],"name":[{"family":"Evil","prefix":["Dr"]}]},"request":{"method":"PUT","url":"Practitioner/practitioner-123456"}},{"fullUrl":"MeasureReport/1fe38798-a486-4c87-9fb7-3ed9f081cf08","resource":{"resourceType":"MeasureReport","id":"1fe38798-a486-4c87-9fb7-3ed9f081cf08","meta":{"profile":["http://hl7.org/fhir/us/cqfmeasures/StructureDefinition/test-case-cqfm"]},"contained":[{"resourceType":"Parameters","id":"0174a30a-eafd-48a1-90ba-5ef02ae6f992-parameters","parameter":[{"name":"subject","valueString":"6d6980b9-1f73-495a-a78c-c9c26a26ceaf"}]}],"extension":[{"url":"http://hl7.org/fhir/us/cqfmeasures/StructureDefinition/cqfm-inputParameters","valueReference":{"reference":"#0174a30a-eafd-48a1-90ba-5ef02ae6f992-parameters"}},{"url":"http://hl7.org/fhir/us/cqfmeasures/StructureDefinition/cqfm-testCaseDescription","valueMarkdown":"Patient with HIV diagnosis before MP with an encounter before the MP"}],"modifierExtension":[{"url":"http://hl7.org/fhir/us/cqfmeasures/StructureDefinition/cqfm-isTestCase","valueBoolean":true}],"status":"complete","type":"individual","measure":"Measure/HIVViralSuppressionFHIR","period":{"start":"2025-01-01","end":"2025-12-31"},"group":[{"population":[{"code":{"coding":[{"system":"http://terminology.hl7.org/CodeSystem/measure-population","code":"initial-population","display":"Initial Population"}]},"count":0},{"code":{"coding":[{"system":"http://terminology.hl7.org/CodeSystem/measure-population","code":"denominator","display":"Denominator"}]},"count":0},{"code":{"coding":[{"system":"http://terminology.hl7.org/CodeSystem/measure-population","code":"numerator","display":"Numerator"}]},"count":0}]}],"evaluatedResource":[{"reference":"Patient/6d6980b9-1f73-495a-a78c-c9c26a26ceaf"},{"reference":"Condition/hiv-25ea"},{"reference":"Encounter/office-visit-25eb"},{"reference":"Coverage/Coverage-1"},{"reference":"Organization/Org-123456"},{"reference":"Practitioner/practitioner-123456"}]},"request":{"method":"PUT","url":"MeasureReport/1fe38798-a486-4c87-9fb7-3ed9f081cf08"}}]}