{"resourceType":"Bundle","id":"tests-eae55f3d-0a15-4a21-9229-dfb11f8e3f9d-bundle","type":"transaction","entry":[{"fullUrl":"https://madie.cms.gov/Patient/eae55f3d-0a15-4a21-9229-dfb11f8e3f9d","resource":{"resourceType":"Patient","id":"eae55f3d-0a15-4a21-9229-dfb11f8e3f9d","meta":{"profile":["http://hl7.org/fhir/us/qicore/StructureDefinition/qicore-patient"]},"extension":[{"url":"http://hl7.org/fhir/us/core/StructureDefinition/us-core-race","extension":[{"url":"ombCategory","valueCoding":{"system":"urn:oid:2.16.840.1.113883.6.238","code":"2028-9","display":"Asian","userSelected":true}},{"url":"text","valueString":"Asian"}]},{"url":"http://hl7.org/fhir/us/core/StructureDefinition/us-core-ethnicity","extension":[{"url":"ombCategory","valueCoding":{"system":"urn:oid:2.16.840.1.113883.6.238","code":"2186-5","display":"Not Hispanic or Latino","userSelected":true}},{"url":"text","valueString":"Not Hispanic or Latino"}]}],"identifier":[{"type":{"coding":[{"system":"http://terminology.hl7.org/CodeSystem/v2-0203","code":"MR"}]},"system":"https://bonnie-fhir.healthit.gov/","value":"649336534d994e7239aa25f2"}],"name":[{"family":"IPFail","given":["EncOn240DayEdgeofMP"]}],"gender":"female","birthDate":"1990-02-09"},"request":{"method":"PUT","url":"Patient/eae55f3d-0a15-4a21-9229-dfb11f8e3f9d"}},{"fullUrl":"https://madie.cms.gov/Condition/hiv-25f3","resource":{"resourceType":"Condition","id":"2c436910-d475-4233-9ddb-ceda4d3d5d1e","meta":{"profile":["http://hl7.org/fhir/us/qicore/StructureDefinition/qicore-condition"]},"clinicalStatus":{"coding":[{"system":"http://terminology.hl7.org/CodeSystem/condition-clinical","code":"active","display":"active","userSelected":true}]},"category":[{"coding":[{"system":"http://terminology.hl7.org/CodeSystem/condition-category","code":"problem-list-item","display":"Problem List Item"}]}],"code":{"coding":[{"system":"http://hl7.org/fhir/sid/icd-9-cm","version":"2013","code":"042","display":"Human immunodeficiency virus [HIV] disease","userSelected":true},{"system":"http://snomed.info/sct","code":"165816005","userSelected":true}]},"subject":{"reference":"Patient/eae55f3d-0a15-4a21-9229-dfb11f8e3f9d"},"onsetDateTime":"2019-12-02T12:00:00.000+00:00","recordedDate":"2025-02-01T11:00:00.000+00:00"},"request":{"method":"PUT","url":"Condition/2c436910-d475-4233-9ddb-ceda4d3d5d1e"}},{"fullUrl":"https://madie.cms.gov/Encounter/unlisted-preventive-medicine-service-25f4","resource":{"resourceType":"Encounter","id":"09e20f7b-39d3-42c6-afe1-d2d23041d4fe","meta":{"profile":["http://hl7.org/fhir/us/qicore/StructureDefinition/qicore-encounter"]},"status":"finished","class":{"system":"http://terminology.hl7.org/CodeSystem/v3-ActCode","code":"AMB","display":"ambulatory"},"type":[{"coding":[{"system":"http://www.ama-assn.org/go/cpt","code":"99429","userSelected":true}]}],"subject":{"reference":"Patient/eae55f3d-0a15-4a21-9229-dfb11f8e3f9d"},"period":{"start":"2025-08-30T18:00:00.000+00:00","end":"2025-08-30T18:55:00.000+00:00"}},"request":{"method":"PUT","url":"Encounter/09e20f7b-39d3-42c6-afe1-d2d23041d4fe"}},{"fullUrl":"https://madie.cms.gov/Coverage/1","resource":{"resourceType":"Coverage","id":"ba6c8d56-e3aa-4f5d-b362-c53d34e976af","meta":{"profile":["http://hl7.org/fhir/us/qicore/StructureDefinition/qicore-coverage"]},"status":"active","beneficiary":{"reference":"Patient/eae55f3d-0a15-4a21-9229-dfb11f8e3f9d"},"payor":[{"reference":"Organization/aeb2c6be-6577-4bba-a6b6-6eab95111f1b"}]},"request":{"method":"PUT","url":"Coverage/ba6c8d56-e3aa-4f5d-b362-c53d34e976af"}},{"fullUrl":"https://madie.cms.gov/Organization/123456","resource":{"resourceType":"Organization","id":"aeb2c6be-6577-4bba-a6b6-6eab95111f1b","meta":{"profile":["http://hl7.org/fhir/us/qicore/StructureDefinition/qicore-organization"]},"identifier":[{"use":"temp","system":"urn:oid:2.16.840.1.113883.4.4","value":"21-3259825"}],"active":true,"type":[{"coding":[{"system":"http://terminology.hl7.org/CodeSystem/organization-type","code":"pay","display":"Payer"}]}],"name":"Blue Cross Blue Shield of Texas","telecom":[{"system":"phone","value":"(+1) 972-766-6900"}],"address":[{"use":"billing","type":"postal","line":["P.O. Box 660044"],"city":"Dallas","state":"TX","postalCode":"75266-0044","country":"USA"}]},"request":{"method":"PUT","url":"Organization/aeb2c6be-6577-4bba-a6b6-6eab95111f1b"}},{"fullUrl":"https://madie.cms.gov/Practitioner/practitioner-123456","resource":{"resourceType":"Practitioner","id":"c9b2baa3-c01d-43ea-9365-40a4dc0e9daf","meta":{"profile":["http://hl7.org/fhir/us/qicore/StructureDefinition/qicore-practitioner"]},"identifier":[{"system":"http://hl7.org/fhir/sid/us-npi","value":"123456"}],"name":[{"family":"Evil","prefix":["Dr"]}]},"request":{"method":"PUT","url":"Practitioner/c9b2baa3-c01d-43ea-9365-40a4dc0e9daf"}},{"fullUrl":"https://madie.cms.gov/MeasureReport/f26b7aa1-ead2-4ae7-a02b-4ae5819f3723","resource":{"resourceType":"MeasureReport","id":"f26b7aa1-ead2-4ae7-a02b-4ae5819f3723","meta":{"profile":["http://hl7.org/fhir/us/cqfmeasures/StructureDefinition/test-case-cqfm"]},"contained":[{"resourceType":"Parameters","id":"91f580f3-d861-4ee0-873d-51a2f993e965-parameters","parameter":[{"name":"subject","valueString":"eae55f3d-0a15-4a21-9229-dfb11f8e3f9d"}]}],"extension":[{"url":"http://hl7.org/fhir/us/cqfmeasures/StructureDefinition/cqfm-inputParameters","valueReference":{"reference":"#91f580f3-d861-4ee0-873d-51a2f993e965-parameters"}},{"url":"http://hl7.org/fhir/us/cqfmeasures/StructureDefinition/cqfm-testCaseDescription","valueMarkdown":"HIV diagnosis made during first 90 days of MP with a qualifying encounter on outside 240 day edge during MP"}],"modifierExtension":[{"url":"http://hl7.org/fhir/us/cqfmeasures/StructureDefinition/cqfm-isTestCase","valueBoolean":true}],"status":"complete","type":"individual","measure":"https://madie.cms.gov/Measure/HIVViralSuppressionFHIR","period":{"start":"2025-01-01","end":"2025-12-31"},"group":[{"population":[{"code":{"coding":[{"system":"http://terminology.hl7.org/CodeSystem/measure-population","code":"initial-population","display":"Initial Population"}]},"count":0},{"code":{"coding":[{"system":"http://terminology.hl7.org/CodeSystem/measure-population","code":"denominator","display":"Denominator"}]},"count":0},{"code":{"coding":[{"system":"http://terminology.hl7.org/CodeSystem/measure-population","code":"numerator","display":"Numerator"}]},"count":0}]}]},"request":{"method":"PUT","url":"MeasureReport/f26b7aa1-ead2-4ae7-a02b-4ae5819f3723"}}]}