{"resourceType":"Bundle","id":"tests-7c34502d-cd54-4f08-9c0c-93d3c04fc3bf-bundle","type":"transaction","entry":[{"fullUrl":"https://madie.cms.gov/Patient/7c34502d-cd54-4f08-9c0c-93d3c04fc3bf","resource":{"resourceType":"Patient","id":"7c34502d-cd54-4f08-9c0c-93d3c04fc3bf","meta":{"profile":["http://hl7.org/fhir/us/qicore/StructureDefinition/qicore-patient"]},"extension":[{"url":"http://hl7.org/fhir/us/core/StructureDefinition/us-core-race","extension":[{"url":"ombCategory","valueCoding":{"system":"urn:oid:2.16.840.1.113883.6.238","code":"2076-8","display":"Native Hawaiian or Other Pacific Islander","userSelected":true}},{"url":"text","valueString":"Native Hawaiian or Other Pacific Islander"}]},{"url":"http://hl7.org/fhir/us/core/StructureDefinition/us-core-ethnicity","extension":[{"url":"ombCategory","valueCoding":{"system":"urn:oid:2.16.840.1.113883.6.238","code":"2186-5","display":"Not Hispanic or Latino","userSelected":true}},{"url":"text","valueString":"Not Hispanic or Latino"}]}],"identifier":[{"type":{"coding":[{"system":"http://terminology.hl7.org/CodeSystem/v2-0203","code":"MR"}]},"system":"https://bonnie-fhir.healthit.gov/","value":"6495b1fde06f07b7e170780c"}],"name":[{"family":"IPPass","given":["EncOn240DayEdgeofMP"]}],"gender":"male","birthDate":"1986-05-25"},"request":{"method":"PUT","url":"Patient/7c34502d-cd54-4f08-9c0c-93d3c04fc3bf"}},{"fullUrl":"https://madie.cms.gov/Condition/hiv-780d","resource":{"resourceType":"Condition","id":"9073cd6a-fbec-4d4b-891c-b074ef642099","meta":{"profile":["http://hl7.org/fhir/us/qicore/StructureDefinition/qicore-condition"]},"clinicalStatus":{"coding":[{"system":"http://terminology.hl7.org/CodeSystem/condition-clinical","code":"active","display":"active","userSelected":true}]},"category":[{"coding":[{"system":"http://terminology.hl7.org/CodeSystem/condition-category","code":"problem-list-item","display":"Problem List Item"}]}],"code":{"coding":[{"system":"http://hl7.org/fhir/sid/icd-9-cm","version":"2013","code":"042","display":"Human immunodeficiency virus [HIV] disease","userSelected":true},{"system":"http://snomed.info/sct","code":"165816005","userSelected":true}]},"subject":{"reference":"Patient/7c34502d-cd54-4f08-9c0c-93d3c04fc3bf"},"onsetDateTime":"2020-12-02T12:00:00.000+00:00","recordedDate":"2020-12-02T12:00:00.000+00:00"},"request":{"method":"PUT","url":"Condition/9073cd6a-fbec-4d4b-891c-b074ef642099"}},{"fullUrl":"https://madie.cms.gov/Encounter/preventive-care-services-initial-office-visit-18-and-up-780e","resource":{"resourceType":"Encounter","id":"b9b15e68-6ce8-446b-b91a-f6ad8c3d497e","meta":{"profile":["http://hl7.org/fhir/us/qicore/StructureDefinition/qicore-encounter"]},"status":"finished","class":{"system":"http://terminology.hl7.org/CodeSystem/v3-ActCode","code":"AMB","display":"ambulatory"},"type":[{"coding":[{"system":"http://www.ama-assn.org/go/cpt","code":"99386","userSelected":true}]}],"subject":{"reference":"Patient/7c34502d-cd54-4f08-9c0c-93d3c04fc3bf"},"period":{"start":"2025-08-29T15:02:00.000+00:00","end":"2025-08-29T15:55:00.000+00:00"}},"request":{"method":"PUT","url":"Encounter/b9b15e68-6ce8-446b-b91a-f6ad8c3d497e"}},{"fullUrl":"https://madie.cms.gov/Coverage/1","resource":{"resourceType":"Coverage","id":"53a7f80f-d8de-401c-a427-ba09caaaf8c0","meta":{"profile":["http://hl7.org/fhir/us/qicore/StructureDefinition/qicore-coverage"]},"status":"active","beneficiary":{"reference":"Patient/7c34502d-cd54-4f08-9c0c-93d3c04fc3bf"},"payor":[{"reference":"Organization/80573fa1-cf83-4e9a-8f21-86a018689678"}]},"request":{"method":"PUT","url":"Coverage/53a7f80f-d8de-401c-a427-ba09caaaf8c0"}},{"fullUrl":"https://madie.cms.gov/Organization/123456","resource":{"resourceType":"Organization","id":"80573fa1-cf83-4e9a-8f21-86a018689678","meta":{"profile":["http://hl7.org/fhir/us/qicore/StructureDefinition/qicore-organization"]},"identifier":[{"use":"temp","system":"urn:oid:2.16.840.1.113883.4.4","value":"21-3259825"}],"active":true,"type":[{"coding":[{"system":"http://terminology.hl7.org/CodeSystem/organization-type","code":"pay","display":"Payer"}]}],"name":"Blue Cross Blue Shield of Texas","telecom":[{"system":"phone","value":"(+1) 972-766-6900"}],"address":[{"use":"billing","type":"postal","line":["P.O. Box 660044"],"city":"Dallas","state":"TX","postalCode":"75266-0044","country":"USA"}]},"request":{"method":"PUT","url":"Organization/80573fa1-cf83-4e9a-8f21-86a018689678"}},{"fullUrl":"https://madie.cms.gov/Practitioner/practitioner-123456","resource":{"resourceType":"Practitioner","id":"07a2ea13-5530-4408-8141-e8805860385a","meta":{"profile":["http://hl7.org/fhir/us/qicore/StructureDefinition/qicore-practitioner"]},"identifier":[{"system":"http://hl7.org/fhir/sid/us-npi","value":"123456"}],"name":[{"family":"Evil","prefix":["Dr"]}]},"request":{"method":"PUT","url":"Practitioner/07a2ea13-5530-4408-8141-e8805860385a"}},{"fullUrl":"https://madie.cms.gov/MeasureReport/6e78c68c-c1bb-4ea4-904a-1397f0cd9d88","resource":{"resourceType":"MeasureReport","id":"6e78c68c-c1bb-4ea4-904a-1397f0cd9d88","meta":{"profile":["http://hl7.org/fhir/us/cqfmeasures/StructureDefinition/test-case-cqfm"]},"contained":[{"resourceType":"Parameters","id":"4ec0d2c3-5501-4018-8d2b-9d8feeed2fa1-parameters","parameter":[{"name":"subject","valueString":"7c34502d-cd54-4f08-9c0c-93d3c04fc3bf"}]}],"extension":[{"url":"http://hl7.org/fhir/us/cqfmeasures/StructureDefinition/cqfm-inputParameters","valueReference":{"reference":"#4ec0d2c3-5501-4018-8d2b-9d8feeed2fa1-parameters"}},{"url":"http://hl7.org/fhir/us/cqfmeasures/StructureDefinition/cqfm-testCaseDescription","valueMarkdown":"Patient with a diagnosis of HIV years before start of the MP and a qualifying encounter on inside 240 day edge of the MP "}],"modifierExtension":[{"url":"http://hl7.org/fhir/us/cqfmeasures/StructureDefinition/cqfm-isTestCase","valueBoolean":true}],"status":"complete","type":"individual","measure":"https://madie.cms.gov/Measure/HIVViralSuppressionFHIR","period":{"start":"2025-01-01","end":"2025-12-31"},"group":[{"population":[{"code":{"coding":[{"system":"http://terminology.hl7.org/CodeSystem/measure-population","code":"initial-population","display":"Initial Population"}]},"count":1},{"code":{"coding":[{"system":"http://terminology.hl7.org/CodeSystem/measure-population","code":"denominator","display":"Denominator"}]},"count":1},{"code":{"coding":[{"system":"http://terminology.hl7.org/CodeSystem/measure-population","code":"numerator","display":"Numerator"}]},"count":0}]}]},"request":{"method":"PUT","url":"MeasureReport/6e78c68c-c1bb-4ea4-904a-1397f0cd9d88"}}]}