{"resourceType":"Bundle","id":"tests-fee37cef-a36c-4640-b58f-c7df0743597d-bundle","type":"transaction","entry":[{"fullUrl":"https://madie.cms.gov/Patient/fee37cef-a36c-4640-b58f-c7df0743597d","resource":{"resourceType":"Patient","id":"fee37cef-a36c-4640-b58f-c7df0743597d","meta":{"profile":["http://hl7.org/fhir/us/qicore/StructureDefinition/qicore-patient"]},"extension":[{"url":"http://hl7.org/fhir/us/core/StructureDefinition/us-core-race","extension":[{"url":"ombCategory","valueCoding":{"system":"urn:oid:2.16.840.1.113883.6.238","code":"2106-3","display":"White","userSelected":true}},{"url":"text","valueString":"White"}]},{"url":"http://hl7.org/fhir/us/core/StructureDefinition/us-core-ethnicity","extension":[{"url":"ombCategory","valueCoding":{"system":"urn:oid:2.16.840.1.113883.6.238","code":"2186-5","display":"Not Hispanic or Latino","userSelected":true}},{"url":"text","valueString":"Not Hispanic or Latino"}]}],"identifier":[{"type":{"coding":[{"system":"http://terminology.hl7.org/CodeSystem/v2-0203","code":"MR"}]},"system":"https://bonnie-fhir.healthit.gov/","value":"64c708db5a1f5043f18529c8"}],"name":[{"family":"IPPass","given":["HIVDXonMarch29ofMPLeapYear"]}],"gender":"male","birthDate":"1982-08-04"},"request":{"method":"PUT","url":"Patient/fee37cef-a36c-4640-b58f-c7df0743597d"}},{"fullUrl":"https://madie.cms.gov/Condition/hiv-29c9","resource":{"resourceType":"Condition","id":"507284c5-4fd6-4e2c-a6f3-5c8fb8b8e004","meta":{"profile":["http://hl7.org/fhir/us/qicore/StructureDefinition/qicore-condition"]},"clinicalStatus":{"coding":[{"system":"http://terminology.hl7.org/CodeSystem/condition-clinical","code":"active","display":"active","userSelected":true}]},"category":[{"coding":[{"system":"http://terminology.hl7.org/CodeSystem/condition-category","code":"problem-list-item","display":"Problem List Item"}]}],"code":{"coding":[{"system":"http://hl7.org/fhir/sid/icd-9-cm","version":"2013","code":"042","display":"Human immunodeficiency virus [HIV] disease","userSelected":true},{"system":"http://snomed.info/sct","code":"165816005","userSelected":true}]},"subject":{"reference":"Patient/fee37cef-a36c-4640-b58f-c7df0743597d"},"onsetDateTime":"2025-03-29T08:00:00.000+00:00","recordedDate":"2025-03-29T08:00:00.000+00:00"},"request":{"method":"PUT","url":"Condition/507284c5-4fd6-4e2c-a6f3-5c8fb8b8e004"}},{"fullUrl":"https://madie.cms.gov/Encounter/office-visit-29ca","resource":{"resourceType":"Encounter","id":"9807ae8b-8cc2-4452-8c29-7264ba92ddfe","meta":{"profile":["http://hl7.org/fhir/us/qicore/StructureDefinition/qicore-encounter"]},"status":"finished","class":{"system":"http://terminology.hl7.org/CodeSystem/v3-ActCode","code":"AMB","display":"ambulatory"},"type":[{"coding":[{"system":"http://snomed.info/sct","version":"2022-09","code":"185463005","display":"Visit out of hours (procedure)","userSelected":true}]}],"subject":{"reference":"Patient/fee37cef-a36c-4640-b58f-c7df0743597d"},"period":{"start":"2025-02-13T08:00:00.000+00:00","end":"2025-02-13T08:15:00.000+00:00"}},"request":{"method":"PUT","url":"Encounter/9807ae8b-8cc2-4452-8c29-7264ba92ddfe"}},{"fullUrl":"https://madie.cms.gov/Coverage/1","resource":{"resourceType":"Coverage","id":"d9d00edf-e127-431b-b087-325bd5e66548","meta":{"profile":["http://hl7.org/fhir/us/qicore/StructureDefinition/qicore-coverage"]},"status":"active","beneficiary":{"reference":"Patient/fee37cef-a36c-4640-b58f-c7df0743597d"},"payor":[{"reference":"Organization/3778262e-e084-4bb5-9a47-1a144735f786"}]},"request":{"method":"PUT","url":"Coverage/d9d00edf-e127-431b-b087-325bd5e66548"}},{"fullUrl":"https://madie.cms.gov/Organization/123456","resource":{"resourceType":"Organization","id":"3778262e-e084-4bb5-9a47-1a144735f786","meta":{"profile":["http://hl7.org/fhir/us/qicore/StructureDefinition/qicore-organization"]},"identifier":[{"use":"temp","system":"urn:oid:2.16.840.1.113883.4.4","value":"21-3259825"}],"active":true,"type":[{"coding":[{"system":"http://terminology.hl7.org/CodeSystem/organization-type","code":"pay","display":"Payer"}]}],"name":"Blue Cross Blue Shield of Texas","telecom":[{"system":"phone","value":"(+1) 972-766-6900"}],"address":[{"use":"billing","type":"postal","line":["P.O. Box 660044"],"city":"Dallas","state":"TX","postalCode":"75266-0044","country":"USA"}]},"request":{"method":"PUT","url":"Organization/3778262e-e084-4bb5-9a47-1a144735f786"}},{"fullUrl":"https://madie.cms.gov/Practitioner/practitioner-123456","resource":{"resourceType":"Practitioner","id":"8962b477-e83e-41b2-a8fc-1710fccf0fe6","meta":{"profile":["http://hl7.org/fhir/us/qicore/StructureDefinition/qicore-practitioner"]},"identifier":[{"system":"http://hl7.org/fhir/sid/us-npi","value":"123456"}],"name":[{"family":"Evil","prefix":["Dr"]}]},"request":{"method":"PUT","url":"Practitioner/8962b477-e83e-41b2-a8fc-1710fccf0fe6"}},{"fullUrl":"https://madie.cms.gov/MeasureReport/c891ddb9-c3a9-4eac-aaa6-e96904b1b00a","resource":{"resourceType":"MeasureReport","id":"c891ddb9-c3a9-4eac-aaa6-e96904b1b00a","meta":{"profile":["http://hl7.org/fhir/us/cqfmeasures/StructureDefinition/test-case-cqfm"]},"contained":[{"resourceType":"Parameters","id":"7ff43392-aedc-443d-b1f4-cdbd3d61f803-parameters","parameter":[{"name":"subject","valueString":"fee37cef-a36c-4640-b58f-c7df0743597d"}]}],"extension":[{"url":"http://hl7.org/fhir/us/cqfmeasures/StructureDefinition/cqfm-inputParameters","valueReference":{"reference":"#7ff43392-aedc-443d-b1f4-cdbd3d61f803-parameters"}},{"url":"http://hl7.org/fhir/us/cqfmeasures/StructureDefinition/cqfm-testCaseDescription","valueMarkdown":"Patient with HIV diagnosis made on March 29 of MP"}],"modifierExtension":[{"url":"http://hl7.org/fhir/us/cqfmeasures/StructureDefinition/cqfm-isTestCase","valueBoolean":true}],"status":"complete","type":"individual","measure":"https://madie.cms.gov/Measure/HIVViralSuppressionFHIR","period":{"start":"2025-01-01","end":"2025-12-31"},"group":[{"population":[{"code":{"coding":[{"system":"http://terminology.hl7.org/CodeSystem/measure-population","code":"initial-population","display":"Initial Population"}]},"count":1},{"code":{"coding":[{"system":"http://terminology.hl7.org/CodeSystem/measure-population","code":"denominator","display":"Denominator"}]},"count":1},{"code":{"coding":[{"system":"http://terminology.hl7.org/CodeSystem/measure-population","code":"numerator","display":"Numerator"}]},"count":0}]}]},"request":{"method":"PUT","url":"MeasureReport/c891ddb9-c3a9-4eac-aaa6-e96904b1b00a"}}]}