{"resourceType":"Bundle","id":"tests-a98409bd-26b7-499a-bdff-f4c0118e0934-bundle","type":"transaction","entry":[{"fullUrl":"https://madie.cms.gov/Patient/a98409bd-26b7-499a-bdff-f4c0118e0934","resource":{"resourceType":"Patient","id":"a98409bd-26b7-499a-bdff-f4c0118e0934","meta":{"profile":["http://hl7.org/fhir/us/qicore/StructureDefinition/qicore-patient"]},"extension":[{"url":"http://hl7.org/fhir/us/core/StructureDefinition/us-core-race","extension":[{"url":"ombCategory","valueCoding":{"system":"urn:oid:2.16.840.1.113883.6.238","code":"2076-8","display":"Native Hawaiian or Other Pacific Islander","userSelected":true}},{"url":"text","valueString":"Native Hawaiian or Other Pacific Islander"}]},{"url":"http://hl7.org/fhir/us/core/StructureDefinition/us-core-ethnicity","extension":[{"url":"ombCategory","valueCoding":{"system":"urn:oid:2.16.840.1.113883.6.238","code":"2186-5","display":"Not Hispanic or Latino","userSelected":true}},{"url":"text","valueString":"Not Hispanic or Latino"}]}],"identifier":[{"type":{"coding":[{"system":"http://terminology.hl7.org/CodeSystem/v2-0203","code":"MR"}]},"system":"https://bonnie-fhir.healthit.gov/","value":"649444c08572d953d016cf72"}],"name":[{"family":"IPFail","given":["HIVDxJan1WithEncOnOutside240DayEdgeofMP"]}],"gender":"male","birthDate":"1986-05-25"},"request":{"method":"PUT","url":"Patient/a98409bd-26b7-499a-bdff-f4c0118e0934"}},{"fullUrl":"https://madie.cms.gov/Condition/hiv-cf73","resource":{"resourceType":"Condition","id":"e60d961c-f6f2-4c0a-8d37-9049ad8dcea7","meta":{"profile":["http://hl7.org/fhir/us/qicore/StructureDefinition/qicore-condition"]},"clinicalStatus":{"coding":[{"system":"http://terminology.hl7.org/CodeSystem/condition-clinical","code":"active","display":"active","userSelected":true}]},"category":[{"coding":[{"system":"http://terminology.hl7.org/CodeSystem/condition-category","code":"problem-list-item","display":"Problem List Item"}]}],"code":{"coding":[{"system":"http://hl7.org/fhir/sid/icd-9-cm","version":"2013","code":"079.53","display":"Human immunodeficiency virus [HIV] disease","userSelected":true},{"system":"http://snomed.info/sct","code":"165816005","userSelected":true}]},"subject":{"reference":"Patient/a98409bd-26b7-499a-bdff-f4c0118e0934"},"onsetDateTime":"2019-12-02T12:00:00.000+00:00","recordedDate":"2025-01-01T12:00:00.000+00:00"},"request":{"method":"PUT","url":"Condition/e60d961c-f6f2-4c0a-8d37-9049ad8dcea7"}},{"fullUrl":"https://madie.cms.gov/Encounter/preventive-care-services-initial-office-visit-18-and-up-cf74","resource":{"resourceType":"Encounter","id":"de2ec867-0de8-42b3-9699-a9f224e414fe","meta":{"profile":["http://hl7.org/fhir/us/qicore/StructureDefinition/qicore-encounter"]},"status":"finished","class":{"system":"http://terminology.hl7.org/CodeSystem/v3-ActCode","code":"AMB","display":"ambulatory"},"type":[{"coding":[{"system":"http://www.ama-assn.org/go/cpt","code":"99386","userSelected":true}]}],"subject":{"reference":"Patient/a98409bd-26b7-499a-bdff-f4c0118e0934"},"period":{"start":"2025-08-30T15:02:00.000+00:00","end":"2025-08-30T15:55:00.000+00:00"}},"request":{"method":"PUT","url":"Encounter/de2ec867-0de8-42b3-9699-a9f224e414fe"}},{"fullUrl":"https://madie.cms.gov/Coverage/1","resource":{"resourceType":"Coverage","id":"9dbfb9c5-d0e4-484f-b856-a891be61950c","meta":{"profile":["http://hl7.org/fhir/us/qicore/StructureDefinition/qicore-coverage"]},"status":"active","beneficiary":{"reference":"Patient/a98409bd-26b7-499a-bdff-f4c0118e0934"},"payor":[{"reference":"Organization/e75793c9-fdf6-463a-8c1d-4ee44320dc25"}]},"request":{"method":"PUT","url":"Coverage/9dbfb9c5-d0e4-484f-b856-a891be61950c"}},{"fullUrl":"https://madie.cms.gov/Organization/123456","resource":{"resourceType":"Organization","id":"e75793c9-fdf6-463a-8c1d-4ee44320dc25","meta":{"profile":["http://hl7.org/fhir/us/qicore/StructureDefinition/qicore-organization"]},"identifier":[{"use":"temp","system":"urn:oid:2.16.840.1.113883.4.4","value":"21-3259825"}],"active":true,"type":[{"coding":[{"system":"http://terminology.hl7.org/CodeSystem/organization-type","code":"pay","display":"Payer"}]}],"name":"Blue Cross Blue Shield of Texas","telecom":[{"system":"phone","value":"(+1) 972-766-6900"}],"address":[{"use":"billing","type":"postal","line":["P.O. Box 660044"],"city":"Dallas","state":"TX","postalCode":"75266-0044","country":"USA"}]},"request":{"method":"PUT","url":"Organization/e75793c9-fdf6-463a-8c1d-4ee44320dc25"}},{"fullUrl":"https://madie.cms.gov/Practitioner/practitioner-123456","resource":{"resourceType":"Practitioner","id":"d0348ea3-eb61-41aa-83c1-0030558e9692","meta":{"profile":["http://hl7.org/fhir/us/qicore/StructureDefinition/qicore-practitioner"]},"identifier":[{"system":"http://hl7.org/fhir/sid/us-npi","value":"123456"}],"name":[{"family":"Evil","prefix":["Dr"]}]},"request":{"method":"PUT","url":"Practitioner/d0348ea3-eb61-41aa-83c1-0030558e9692"}},{"fullUrl":"https://madie.cms.gov/MeasureReport/dbe9802d-7fa8-4a78-8f6b-e7205b4d1398","resource":{"resourceType":"MeasureReport","id":"dbe9802d-7fa8-4a78-8f6b-e7205b4d1398","meta":{"profile":["http://hl7.org/fhir/us/cqfmeasures/StructureDefinition/test-case-cqfm"]},"contained":[{"resourceType":"Parameters","id":"f2d80977-12eb-439f-9a49-08b96984bc30-parameters","parameter":[{"name":"subject","valueString":"a98409bd-26b7-499a-bdff-f4c0118e0934"}]}],"extension":[{"url":"http://hl7.org/fhir/us/cqfmeasures/StructureDefinition/cqfm-inputParameters","valueReference":{"reference":"#f2d80977-12eb-439f-9a49-08b96984bc30-parameters"}},{"url":"http://hl7.org/fhir/us/cqfmeasures/StructureDefinition/cqfm-testCaseDescription","valueMarkdown":"Patient with a diagnosis of HIV on Jan 1 and a qualifying encounter on outside 240 day edge during the measurement period "}],"modifierExtension":[{"url":"http://hl7.org/fhir/us/cqfmeasures/StructureDefinition/cqfm-isTestCase","valueBoolean":true}],"status":"complete","type":"individual","measure":"https://madie.cms.gov/Measure/HIVViralSuppressionFHIR","period":{"start":"2025-01-01","end":"2025-12-31"},"group":[{"population":[{"code":{"coding":[{"system":"http://terminology.hl7.org/CodeSystem/measure-population","code":"initial-population","display":"Initial Population"}]},"count":0},{"code":{"coding":[{"system":"http://terminology.hl7.org/CodeSystem/measure-population","code":"denominator","display":"Denominator"}]},"count":0},{"code":{"coding":[{"system":"http://terminology.hl7.org/CodeSystem/measure-population","code":"numerator","display":"Numerator"}]},"count":0}]}]},"request":{"method":"PUT","url":"MeasureReport/dbe9802d-7fa8-4a78-8f6b-e7205b4d1398"}}]}