{"resourceType":"Bundle","id":"tests-15d3fb71-37d0-4d5c-b504-4fd1c8b5b942-bundle","type":"transaction","entry":[{"fullUrl":"https://madie.cms.gov/Patient/15d3fb71-37d0-4d5c-b504-4fd1c8b5b942","resource":{"resourceType":"Patient","id":"15d3fb71-37d0-4d5c-b504-4fd1c8b5b942","meta":{"profile":["http://hl7.org/fhir/us/qicore/StructureDefinition/qicore-patient"]},"extension":[{"url":"http://hl7.org/fhir/us/core/StructureDefinition/us-core-race","extension":[{"url":"ombCategory","valueCoding":{"system":"urn:oid:2.16.840.1.113883.6.238","code":"2106-3","display":"White","userSelected":true}},{"url":"text","valueString":"White"}]},{"url":"http://hl7.org/fhir/us/core/StructureDefinition/us-core-ethnicity","extension":[{"url":"ombCategory","valueCoding":{"system":"urn:oid:2.16.840.1.113883.6.238","code":"2135-2","display":"Hispanic or Latino","userSelected":true}},{"url":"text","valueString":"Hispanic or Latino"}]}],"identifier":[{"type":{"coding":[{"system":"http://terminology.hl7.org/CodeSystem/v2-0203","code":"MR"}]},"system":"https://bonnie-fhir.healthit.gov/","value":"6494496f8572d953d016cf78"}],"name":[{"family":"IPFail","given":["HIVDxinDecofMP"]}],"gender":"female","birthDate":"1990-02-09"},"request":{"method":"PUT","url":"Patient/15d3fb71-37d0-4d5c-b504-4fd1c8b5b942"}},{"fullUrl":"https://madie.cms.gov/Condition/hiv-cf79","resource":{"resourceType":"Condition","id":"057bf79a-070b-49de-bf6f-bbad9d29ee50","meta":{"profile":["http://hl7.org/fhir/us/qicore/StructureDefinition/qicore-condition"]},"clinicalStatus":{"coding":[{"system":"http://terminology.hl7.org/CodeSystem/condition-clinical","code":"active","display":"active","userSelected":true}]},"category":[{"coding":[{"system":"http://terminology.hl7.org/CodeSystem/condition-category","code":"problem-list-item","display":"Problem List Item"}]}],"code":{"coding":[{"system":"http://snomed.info/sct","code":"1142045004","userSelected":true}]},"subject":{"reference":"Patient/15d3fb71-37d0-4d5c-b504-4fd1c8b5b942"},"onsetDateTime":"2025-12-02T12:00:00.000+00:00","recordedDate":"2025-12-02T13:01:00.000+00:00"},"request":{"method":"PUT","url":"Condition/057bf79a-070b-49de-bf6f-bbad9d29ee50"}},{"fullUrl":"https://madie.cms.gov/Encounter/telephone-visits-cf7a","resource":{"resourceType":"Encounter","id":"a7362c17-6cd6-436b-95fe-97b1ad23a452","meta":{"profile":["http://hl7.org/fhir/us/qicore/StructureDefinition/qicore-encounter"]},"status":"finished","class":{"system":"http://terminology.hl7.org/CodeSystem/v3-ActCode","code":"AMB","display":"ambulatory"},"type":[{"coding":[{"system":"http://snomed.info/sct","version":"2022-09","code":"185317003","display":"Telephone encounter (procedure)","userSelected":true}]}],"subject":{"reference":"Patient/15d3fb71-37d0-4d5c-b504-4fd1c8b5b942"},"period":{"start":"2025-03-07T07:30:00.000+00:00","end":"2025-03-07T08:15:00.000+00:00"}},"request":{"method":"PUT","url":"Encounter/a7362c17-6cd6-436b-95fe-97b1ad23a452"}},{"fullUrl":"https://madie.cms.gov/Coverage/1","resource":{"resourceType":"Coverage","id":"b95055c4-7efe-434d-b45e-0370c9f2d782","meta":{"profile":["http://hl7.org/fhir/us/qicore/StructureDefinition/qicore-coverage"]},"status":"active","beneficiary":{"reference":"Patient/15d3fb71-37d0-4d5c-b504-4fd1c8b5b942"},"payor":[{"reference":"Organization/f6075515-d38f-4624-bde8-a1ce20473a69"}]},"request":{"method":"PUT","url":"Coverage/b95055c4-7efe-434d-b45e-0370c9f2d782"}},{"fullUrl":"https://madie.cms.gov/Organization/123456","resource":{"resourceType":"Organization","id":"f6075515-d38f-4624-bde8-a1ce20473a69","meta":{"profile":["http://hl7.org/fhir/us/qicore/StructureDefinition/qicore-organization"]},"identifier":[{"use":"temp","system":"urn:oid:2.16.840.1.113883.4.4","value":"21-3259825"}],"active":true,"type":[{"coding":[{"system":"http://terminology.hl7.org/CodeSystem/organization-type","code":"pay","display":"Payer"}]}],"name":"Blue Cross Blue Shield of Texas","telecom":[{"system":"phone","value":"(+1) 972-766-6900"}],"address":[{"use":"billing","type":"postal","line":["P.O. Box 660044"],"city":"Dallas","state":"TX","postalCode":"75266-0044","country":"USA"}]},"request":{"method":"PUT","url":"Organization/f6075515-d38f-4624-bde8-a1ce20473a69"}},{"fullUrl":"https://madie.cms.gov/Practitioner/practitioner-123456","resource":{"resourceType":"Practitioner","id":"bd94cfb2-c596-46d3-ad5c-4b858d692526","meta":{"profile":["http://hl7.org/fhir/us/qicore/StructureDefinition/qicore-practitioner"]},"identifier":[{"system":"http://hl7.org/fhir/sid/us-npi","value":"123456"}],"name":[{"family":"Evil","prefix":["Dr"]}]},"request":{"method":"PUT","url":"Practitioner/bd94cfb2-c596-46d3-ad5c-4b858d692526"}},{"fullUrl":"https://madie.cms.gov/MeasureReport/9d14731a-a9d7-432b-9d2e-b39bf9089a99","resource":{"resourceType":"MeasureReport","id":"9d14731a-a9d7-432b-9d2e-b39bf9089a99","meta":{"profile":["http://hl7.org/fhir/us/cqfmeasures/StructureDefinition/test-case-cqfm"]},"contained":[{"resourceType":"Parameters","id":"34055108-bc71-4f15-b2b3-741c22928d3b-parameters","parameter":[{"name":"subject","valueString":"15d3fb71-37d0-4d5c-b504-4fd1c8b5b942"}]}],"extension":[{"url":"http://hl7.org/fhir/us/cqfmeasures/StructureDefinition/cqfm-inputParameters","valueReference":{"reference":"#34055108-bc71-4f15-b2b3-741c22928d3b-parameters"}},{"url":"http://hl7.org/fhir/us/cqfmeasures/StructureDefinition/cqfm-testCaseDescription","valueMarkdown":"HIV diagnosis made in December of MP (not in first 90 days) with a qualifying encounter during MP"}],"modifierExtension":[{"url":"http://hl7.org/fhir/us/cqfmeasures/StructureDefinition/cqfm-isTestCase","valueBoolean":true}],"status":"complete","type":"individual","measure":"https://madie.cms.gov/Measure/HIVViralSuppressionFHIR","period":{"start":"2025-01-01","end":"2025-12-31"},"group":[{"population":[{"code":{"coding":[{"system":"http://terminology.hl7.org/CodeSystem/measure-population","code":"initial-population","display":"Initial Population"}]},"count":0},{"code":{"coding":[{"system":"http://terminology.hl7.org/CodeSystem/measure-population","code":"denominator","display":"Denominator"}]},"count":0},{"code":{"coding":[{"system":"http://terminology.hl7.org/CodeSystem/measure-population","code":"numerator","display":"Numerator"}]},"count":0}]}]},"request":{"method":"PUT","url":"MeasureReport/9d14731a-a9d7-432b-9d2e-b39bf9089a99"}}]}