{"resourceType":"Bundle","id":"tests-1a5ca6a4-7ff9-4b3f-bb47-655b5cc14fd0-bundle","type":"transaction","entry":[{"fullUrl":"https://madie.cms.gov/Patient/1a5ca6a4-7ff9-4b3f-bb47-655b5cc14fd0","resource":{"resourceType":"Patient","id":"1a5ca6a4-7ff9-4b3f-bb47-655b5cc14fd0","meta":{"profile":["http://hl7.org/fhir/us/qicore/StructureDefinition/qicore-patient"]},"extension":[{"url":"http://hl7.org/fhir/us/core/StructureDefinition/us-core-race","extension":[{"url":"ombCategory","valueCoding":{"system":"urn:oid:2.16.840.1.113883.6.238","code":"2054-5","display":"Black or African American","userSelected":true}},{"url":"text","valueString":"Black or African American"}]},{"url":"http://hl7.org/fhir/us/core/StructureDefinition/us-core-ethnicity","extension":[{"url":"ombCategory","valueCoding":{"system":"urn:oid:2.16.840.1.113883.6.238","code":"2135-2","display":"Hispanic or Latino","userSelected":true}},{"url":"text","valueString":"Hispanic or Latino"}]}],"identifier":[{"type":{"coding":[{"system":"http://terminology.hl7.org/CodeSystem/v2-0203","code":"MR"}]},"system":"https://bonnie-fhir.healthit.gov/","value":"64e3c2df6354ff73be38a556"}],"name":[{"family":"IPPass","given":["AnnualWellnessEnc"]}],"gender":"male","birthDate":"1986-05-25"},"request":{"method":"PUT","url":"Patient/1a5ca6a4-7ff9-4b3f-bb47-655b5cc14fd0"}},{"fullUrl":"https://madie.cms.gov/Condition/hiv-7810","resource":{"resourceType":"Condition","id":"c17d2fcb-81f0-4d9d-80e1-eb4c90e5c725","meta":{"profile":["http://hl7.org/fhir/us/qicore/StructureDefinition/qicore-condition"]},"clinicalStatus":{"coding":[{"system":"http://terminology.hl7.org/CodeSystem/condition-clinical","code":"active","display":"active","userSelected":true}]},"category":[{"coding":[{"system":"http://terminology.hl7.org/CodeSystem/condition-category","code":"problem-list-item","display":"Problem List Item"}]}],"code":{"coding":[{"system":"http://hl7.org/fhir/sid/icd-9-cm","version":"2013","code":"042","display":"Human immunodeficiency virus [HIV] disease","userSelected":true},{"system":"http://snomed.info/sct","code":"165816005","userSelected":true}]},"subject":{"reference":"Patient/1a5ca6a4-7ff9-4b3f-bb47-655b5cc14fd0"},"onsetDateTime":"2019-12-02T12:00:00.000+00:00","recordedDate":"2019-12-02T12:00:00.000+00:00"},"request":{"method":"PUT","url":"Condition/c17d2fcb-81f0-4d9d-80e1-eb4c90e5c725"}},{"fullUrl":"https://madie.cms.gov/Encounter/annual-wellness-visit-a557","resource":{"resourceType":"Encounter","id":"78fbaccd-439c-424f-ada8-4d53018b4bad","meta":{"profile":["http://hl7.org/fhir/us/qicore/StructureDefinition/qicore-encounter"]},"status":"finished","class":{"system":"http://terminology.hl7.org/CodeSystem/v3-ActCode","code":"AMB","display":"ambulatory"},"type":[{"coding":[{"system":"http://snomed.info/sct","version":"2022-09","code":"444971000124105","display":"Annual wellness visit (procedure)","userSelected":true}]}],"subject":{"reference":"Patient/1a5ca6a4-7ff9-4b3f-bb47-655b5cc14fd0"},"period":{"start":"2025-03-14T08:00:00.000+00:00","end":"2025-03-14T08:15:00.000+00:00"}},"request":{"method":"PUT","url":"Encounter/78fbaccd-439c-424f-ada8-4d53018b4bad"}},{"fullUrl":"https://madie.cms.gov/Coverage/1","resource":{"resourceType":"Coverage","id":"b08ef9aa-9981-497b-87a0-35537b9f7e30","meta":{"profile":["http://hl7.org/fhir/us/qicore/StructureDefinition/qicore-coverage"]},"status":"active","beneficiary":{"reference":"Patient/1a5ca6a4-7ff9-4b3f-bb47-655b5cc14fd0"},"payor":[{"reference":"Organization/f6075515-d38f-4624-bde8-a1ce20473a69"}]},"request":{"method":"PUT","url":"Coverage/b08ef9aa-9981-497b-87a0-35537b9f7e30"}},{"fullUrl":"https://madie.cms.gov/Organization/123456","resource":{"resourceType":"Organization","id":"f6075515-d38f-4624-bde8-a1ce20473a69","meta":{"profile":["http://hl7.org/fhir/us/qicore/StructureDefinition/qicore-organization"]},"identifier":[{"use":"temp","system":"urn:oid:2.16.840.1.113883.4.4","value":"21-3259825"}],"active":true,"type":[{"coding":[{"system":"http://terminology.hl7.org/CodeSystem/organization-type","code":"pay","display":"Payer"}]}],"name":"Blue Cross Blue Shield of Texas","telecom":[{"system":"phone","value":"(+1) 972-766-6900"}],"address":[{"use":"billing","type":"postal","line":["P.O. Box 660044"],"city":"Dallas","state":"TX","postalCode":"75266-0044","country":"USA"}]},"request":{"method":"PUT","url":"Organization/f6075515-d38f-4624-bde8-a1ce20473a69"}},{"fullUrl":"https://madie.cms.gov/Practitioner/practitioner-123456","resource":{"resourceType":"Practitioner","id":"5333bb96-1673-4cd7-8612-98f13a454bc6","meta":{"profile":["http://hl7.org/fhir/us/qicore/StructureDefinition/qicore-practitioner"]},"identifier":[{"system":"http://hl7.org/fhir/sid/us-npi","value":"123456"}],"name":[{"family":"Evil","prefix":["Dr"]}]},"request":{"method":"PUT","url":"Practitioner/5333bb96-1673-4cd7-8612-98f13a454bc6"}},{"fullUrl":"https://madie.cms.gov/MeasureReport/35014996-818c-417a-85cd-2f4ea144e7d9","resource":{"resourceType":"MeasureReport","id":"35014996-818c-417a-85cd-2f4ea144e7d9","meta":{"profile":["http://hl7.org/fhir/us/cqfmeasures/StructureDefinition/test-case-cqfm"]},"contained":[{"resourceType":"Parameters","id":"6ef4807f-fff5-4154-b368-83e514ab51d3-parameters","parameter":[{"name":"subject","valueString":"1a5ca6a4-7ff9-4b3f-bb47-655b5cc14fd0"}]}],"extension":[{"url":"http://hl7.org/fhir/us/cqfmeasures/StructureDefinition/cqfm-inputParameters","valueReference":{"reference":"#6ef4807f-fff5-4154-b368-83e514ab51d3-parameters"}},{"url":"http://hl7.org/fhir/us/cqfmeasures/StructureDefinition/cqfm-testCaseDescription","valueMarkdown":"Patient with a diagnosis of HIV years before start of the MP and a annual wellness visit enc"}],"modifierExtension":[{"url":"http://hl7.org/fhir/us/cqfmeasures/StructureDefinition/cqfm-isTestCase","valueBoolean":true}],"status":"complete","type":"individual","measure":"https://madie.cms.gov/Measure/HIVViralSuppressionFHIR","period":{"start":"2025-01-01","end":"2025-12-31"},"group":[{"population":[{"code":{"coding":[{"system":"http://terminology.hl7.org/CodeSystem/measure-population","code":"initial-population","display":"Initial Population"}]},"count":1},{"code":{"coding":[{"system":"http://terminology.hl7.org/CodeSystem/measure-population","code":"denominator","display":"Denominator"}]},"count":1},{"code":{"coding":[{"system":"http://terminology.hl7.org/CodeSystem/measure-population","code":"numerator","display":"Numerator"}]},"count":0}]}]},"request":{"method":"PUT","url":"MeasureReport/35014996-818c-417a-85cd-2f4ea144e7d9"}}]}