{"resourceType":"Bundle","id":"tests-15d3fb71-37d0-4d5c-b504-4fd1c8b5b942-bundle","type":"transaction","entry":[{"fullUrl":"https://madie.cms.gov/Patient/15d3fb71-37d0-4d5c-b504-4fd1c8b5b942","resource":{"resourceType":"Patient","id":"15d3fb71-37d0-4d5c-b504-4fd1c8b5b942","meta":{"profile":["http://hl7.org/fhir/us/qicore/StructureDefinition/qicore-patient"]},"extension":[{"url":"http://hl7.org/fhir/us/core/StructureDefinition/us-core-race","extension":[{"url":"ombCategory","valueCoding":{"system":"urn:oid:2.16.840.1.113883.6.238","code":"2106-3","display":"White","userSelected":true}},{"url":"text","valueString":"White"}]},{"url":"http://hl7.org/fhir/us/core/StructureDefinition/us-core-ethnicity","extension":[{"url":"ombCategory","valueCoding":{"system":"urn:oid:2.16.840.1.113883.6.238","code":"2135-2","display":"Hispanic or Latino","userSelected":true}},{"url":"text","valueString":"Hispanic or Latino"}]}],"identifier":[{"type":{"coding":[{"system":"http://terminology.hl7.org/CodeSystem/v2-0203","code":"MR"}]},"system":"https://bonnie-fhir.healthit.gov/","value":"6494496f8572d953d016cf78"}],"name":[{"family":"IPFail","given":["HIVDxinDecofMP"]}],"gender":"female","birthDate":"1990-02-09"},"request":{"method":"PUT","url":"Patient/15d3fb71-37d0-4d5c-b504-4fd1c8b5b942"}},{"fullUrl":"https://madie.cms.gov/Condition/hiv-cf79","resource":{"resourceType":"Condition","id":"4103d0ce-fff9-4c79-8615-f6ae2bf5d443","meta":{"profile":["http://hl7.org/fhir/us/qicore/StructureDefinition/qicore-condition"]},"clinicalStatus":{"coding":[{"system":"http://terminology.hl7.org/CodeSystem/condition-clinical","code":"active","display":"active","userSelected":true}]},"category":[{"coding":[{"system":"http://terminology.hl7.org/CodeSystem/condition-category","code":"problem-list-item","display":"Problem List Item"}]}],"code":{"coding":[{"system":"http://snomed.info/sct","code":"1142045004","userSelected":true}]},"subject":{"reference":"Patient/15d3fb71-37d0-4d5c-b504-4fd1c8b5b942"},"onsetDateTime":"2025-12-02T12:00:00.000+00:00","recordedDate":"2025-12-02T13:01:00.000+00:00"},"request":{"method":"PUT","url":"Condition/4103d0ce-fff9-4c79-8615-f6ae2bf5d443"}},{"fullUrl":"https://madie.cms.gov/Encounter/telephone-visits-cf7a","resource":{"resourceType":"Encounter","id":"ae97897a-8468-4642-a1b7-da37865ba937","meta":{"profile":["http://hl7.org/fhir/us/qicore/StructureDefinition/qicore-encounter"]},"status":"finished","class":{"system":"http://terminology.hl7.org/CodeSystem/v3-ActCode","code":"AMB","display":"ambulatory"},"type":[{"coding":[{"system":"http://snomed.info/sct","version":"2022-09","code":"185317003","display":"Telephone encounter (procedure)","userSelected":true}]}],"subject":{"reference":"Patient/15d3fb71-37d0-4d5c-b504-4fd1c8b5b942"},"period":{"start":"2025-03-07T07:30:00.000+00:00","end":"2025-03-07T08:15:00.000+00:00"}},"request":{"method":"PUT","url":"Encounter/ae97897a-8468-4642-a1b7-da37865ba937"}},{"fullUrl":"https://madie.cms.gov/Coverage/1","resource":{"resourceType":"Coverage","id":"6d1d72e5-6e2e-4d41-a7f4-01a69c16e929","meta":{"profile":["http://hl7.org/fhir/us/qicore/StructureDefinition/qicore-coverage"]},"status":"active","beneficiary":{"reference":"Patient/15d3fb71-37d0-4d5c-b504-4fd1c8b5b942"},"payor":[{"reference":"Organization/88fe5347-bc11-46bc-b22c-c233ad09637b"}]},"request":{"method":"PUT","url":"Coverage/6d1d72e5-6e2e-4d41-a7f4-01a69c16e929"}},{"fullUrl":"https://madie.cms.gov/Organization/123456","resource":{"resourceType":"Organization","id":"88fe5347-bc11-46bc-b22c-c233ad09637b","meta":{"profile":["http://hl7.org/fhir/us/qicore/StructureDefinition/qicore-organization"]},"identifier":[{"use":"temp","system":"urn:oid:2.16.840.1.113883.4.4","value":"21-3259825"}],"active":true,"type":[{"coding":[{"system":"http://terminology.hl7.org/CodeSystem/organization-type","code":"pay","display":"Payer"}]}],"name":"Blue Cross Blue Shield of Texas","telecom":[{"system":"phone","value":"(+1) 972-766-6900"}],"address":[{"use":"billing","type":"postal","line":["P.O. Box 660044"],"city":"Dallas","state":"TX","postalCode":"75266-0044","country":"USA"}]},"request":{"method":"PUT","url":"Organization/88fe5347-bc11-46bc-b22c-c233ad09637b"}},{"fullUrl":"https://madie.cms.gov/Practitioner/practitioner-123456","resource":{"resourceType":"Practitioner","id":"dc2b8c7f-aa1c-46f1-a44f-20426bbf47c9","meta":{"profile":["http://hl7.org/fhir/us/qicore/StructureDefinition/qicore-practitioner"]},"identifier":[{"system":"http://hl7.org/fhir/sid/us-npi","value":"123456"}],"name":[{"family":"Evil","prefix":["Dr"]}]},"request":{"method":"PUT","url":"Practitioner/dc2b8c7f-aa1c-46f1-a44f-20426bbf47c9"}},{"fullUrl":"https://madie.cms.gov/MeasureReport/9d14731a-a9d7-432b-9d2e-b39bf9089a99","resource":{"resourceType":"MeasureReport","id":"9d14731a-a9d7-432b-9d2e-b39bf9089a99","meta":{"profile":["http://hl7.org/fhir/us/cqfmeasures/StructureDefinition/test-case-cqfm"]},"contained":[{"resourceType":"Parameters","id":"34055108-bc71-4f15-b2b3-741c22928d3b-parameters","parameter":[{"name":"subject","valueString":"15d3fb71-37d0-4d5c-b504-4fd1c8b5b942"}]}],"extension":[{"url":"http://hl7.org/fhir/us/cqfmeasures/StructureDefinition/cqfm-inputParameters","valueReference":{"reference":"#34055108-bc71-4f15-b2b3-741c22928d3b-parameters"}},{"url":"http://hl7.org/fhir/us/cqfmeasures/StructureDefinition/cqfm-testCaseDescription","valueMarkdown":"HIV diagnosis made in December of MP (not in first 90 days) with a qualifying encounter during MP"}],"modifierExtension":[{"url":"http://hl7.org/fhir/us/cqfmeasures/StructureDefinition/cqfm-isTestCase","valueBoolean":true}],"status":"complete","type":"individual","measure":"https://madie.cms.gov/Measure/HIVViralSuppressionFHIR","period":{"start":"2025-01-01","end":"2025-12-31"},"group":[{"population":[{"code":{"coding":[{"system":"http://terminology.hl7.org/CodeSystem/measure-population","code":"initial-population","display":"Initial Population"}]},"count":0},{"code":{"coding":[{"system":"http://terminology.hl7.org/CodeSystem/measure-population","code":"denominator","display":"Denominator"}]},"count":0},{"code":{"coding":[{"system":"http://terminology.hl7.org/CodeSystem/measure-population","code":"numerator","display":"Numerator"}]},"count":0}]}]},"request":{"method":"PUT","url":"MeasureReport/9d14731a-a9d7-432b-9d2e-b39bf9089a99"}}]}