{"resourceType":"Bundle","id":"tests-765f96cd-d613-460d-98d1-111d44c08723-bundle","type":"transaction","entry":[{"fullUrl":"https://madie.cms.gov/Patient/765f96cd-d613-460d-98d1-111d44c08723","resource":{"resourceType":"Patient","id":"765f96cd-d613-460d-98d1-111d44c08723","meta":{"profile":["http://hl7.org/fhir/us/qicore/StructureDefinition/qicore-patient"]},"extension":[{"url":"http://hl7.org/fhir/us/core/StructureDefinition/us-core-race","extension":[{"url":"ombCategory","valueCoding":{"system":"urn:oid:2.16.840.1.113883.6.238","code":"2106-3","display":"White"}},{"url":"text","valueString":"White"}]},{"url":"http://hl7.org/fhir/us/core/StructureDefinition/us-core-ethnicity","extension":[{"url":"ombCategory","valueCoding":{"system":"urn:oid:2.16.840.1.113883.6.238","code":"2186-5","display":"Not Hispanic or Latino","userSelected":true}},{"url":"text","valueString":"Not Hispanic or Latino"}]}],"identifier":[{"type":{"coding":[{"system":"http://terminology.hl7.org/CodeSystem/v2-0203","code":"MR"}]},"system":"https://bonnie-fhir.healthit.gov/","value":"649335474d994e7239aa25ec"}],"name":[{"family":"IPFail","given":["EncDec31BeforeMP"]}],"gender":"male","birthDate":"1988-08-08"},"request":{"method":"PUT","url":"Patient/765f96cd-d613-460d-98d1-111d44c08723"}},{"fullUrl":"https://madie.cms.gov/Condition/hiv-25ed","resource":{"resourceType":"Condition","id":"4abc8f54-72ea-4d37-ae91-cff4a1d52b9e","meta":{"profile":["http://hl7.org/fhir/us/qicore/StructureDefinition/qicore-condition"]},"clinicalStatus":{"coding":[{"system":"http://terminology.hl7.org/CodeSystem/condition-clinical","code":"active","display":"active","userSelected":true}]},"category":[{"coding":[{"system":"http://terminology.hl7.org/CodeSystem/condition-category","code":"problem-list-item","display":"Problem List Item"}]}],"code":{"coding":[{"system":"http://hl7.org/fhir/sid/icd-10-cm","code":"B20","userSelected":true}]},"subject":{"reference":"Patient/765f96cd-d613-460d-98d1-111d44c08723"},"onsetDateTime":"2000-03-07T08:00:00.000+00:00","recordedDate":"2000-03-07T08:00:00.000+00:00"},"request":{"method":"PUT","url":"Condition/4abc8f54-72ea-4d37-ae91-cff4a1d52b9e"}},{"fullUrl":"https://madie.cms.gov/Encounter/preventive-care-services-initial-office-visit-0-to-17-25ee","resource":{"resourceType":"Encounter","id":"e8881f31-c8e2-4f47-b05a-8fae4fad5759","meta":{"profile":["http://hl7.org/fhir/us/qicore/StructureDefinition/qicore-encounter"]},"status":"finished","class":{"system":"http://terminology.hl7.org/CodeSystem/v3-ActCode","code":"AMB","display":"ambulatory"},"type":[{"coding":[{"system":"http://www.ama-assn.org/go/cpt","code":"99391","userSelected":true}]}],"subject":{"reference":"Patient/765f96cd-d613-460d-98d1-111d44c08723"},"period":{"start":"2024-12-31T08:00:00.000+00:00","end":"2024-12-31T08:23:00.000+00:00"}},"request":{"method":"PUT","url":"Encounter/e8881f31-c8e2-4f47-b05a-8fae4fad5759"}},{"fullUrl":"https://madie.cms.gov/Coverage/1","resource":{"resourceType":"Coverage","id":"eade1b9c-4301-4194-9a85-33b8f8ce2a73","meta":{"profile":["http://hl7.org/fhir/us/qicore/StructureDefinition/qicore-coverage"]},"status":"active","beneficiary":{"reference":"Patient/765f96cd-d613-460d-98d1-111d44c08723"},"payor":[{"reference":"Organization/18ca435c-cae6-4c34-8033-af717477f9fc"}]},"request":{"method":"PUT","url":"Coverage/eade1b9c-4301-4194-9a85-33b8f8ce2a73"}},{"fullUrl":"https://madie.cms.gov/Organization/123456","resource":{"resourceType":"Organization","id":"18ca435c-cae6-4c34-8033-af717477f9fc","meta":{"profile":["http://hl7.org/fhir/us/qicore/StructureDefinition/qicore-organization"]},"identifier":[{"use":"temp","system":"urn:oid:2.16.840.1.113883.4.4","value":"21-3259825"}],"active":true,"type":[{"coding":[{"system":"http://terminology.hl7.org/CodeSystem/organization-type","code":"pay","display":"Payer"}]}],"name":"Blue Cross Blue Shield of Texas","telecom":[{"system":"phone","value":"(+1) 972-766-6900"}],"address":[{"use":"billing","type":"postal","line":["P.O. Box 660044"],"city":"Dallas","state":"TX","postalCode":"75266-0044","country":"USA"}]},"request":{"method":"PUT","url":"Organization/18ca435c-cae6-4c34-8033-af717477f9fc"}},{"fullUrl":"https://madie.cms.gov/Practitioner/practitioner-123456","resource":{"resourceType":"Practitioner","id":"26948f9b-1fed-4948-b974-812871162425","meta":{"profile":["http://hl7.org/fhir/us/qicore/StructureDefinition/qicore-practitioner"]},"identifier":[{"system":"http://hl7.org/fhir/sid/us-npi","value":"123456"}],"name":[{"family":"Evil","prefix":["Dr"]}]},"request":{"method":"PUT","url":"Practitioner/26948f9b-1fed-4948-b974-812871162425"}},{"fullUrl":"https://madie.cms.gov/MeasureReport/f55804f3-fd78-41e1-8400-2e67669fd96d","resource":{"resourceType":"MeasureReport","id":"f55804f3-fd78-41e1-8400-2e67669fd96d","meta":{"profile":["http://hl7.org/fhir/us/cqfmeasures/StructureDefinition/test-case-cqfm"]},"contained":[{"resourceType":"Parameters","id":"1e2e67d0-8588-41af-a6ee-c796d4934a52-parameters","parameter":[{"name":"subject","valueString":"765f96cd-d613-460d-98d1-111d44c08723"}]}],"extension":[{"url":"http://hl7.org/fhir/us/cqfmeasures/StructureDefinition/cqfm-inputParameters","valueReference":{"reference":"#1e2e67d0-8588-41af-a6ee-c796d4934a52-parameters"}},{"url":"http://hl7.org/fhir/us/cqfmeasures/StructureDefinition/cqfm-testCaseDescription","valueMarkdown":"Patient with HIV diagnosis on 12/31 before MP with an encounter before the MP"}],"modifierExtension":[{"url":"http://hl7.org/fhir/us/cqfmeasures/StructureDefinition/cqfm-isTestCase","valueBoolean":true}],"status":"complete","type":"individual","measure":"https://madie.cms.gov/Measure/HIVViralSuppressionFHIR","period":{"start":"2025-01-01","end":"2025-12-31"},"group":[{"population":[{"code":{"coding":[{"system":"http://terminology.hl7.org/CodeSystem/measure-population","code":"initial-population","display":"Initial Population"}]},"count":0},{"code":{"coding":[{"system":"http://terminology.hl7.org/CodeSystem/measure-population","code":"denominator","display":"Denominator"}]},"count":0},{"code":{"coding":[{"system":"http://terminology.hl7.org/CodeSystem/measure-population","code":"numerator","display":"Numerator"}]},"count":0}]}]},"request":{"method":"PUT","url":"MeasureReport/f55804f3-fd78-41e1-8400-2e67669fd96d"}}]}