{"resourceType":"Bundle","id":"tests-920a15ae-3bc9-4e7b-9f0f-e1554b78157a-bundle","type":"transaction","entry":[{"fullUrl":"https://madie.cms.gov/Patient/920a15ae-3bc9-4e7b-9f0f-e1554b78157a","resource":{"resourceType":"Patient","id":"920a15ae-3bc9-4e7b-9f0f-e1554b78157a","meta":{"profile":["http://hl7.org/fhir/us/qicore/StructureDefinition/qicore-patient"]},"extension":[{"url":"http://hl7.org/fhir/us/core/StructureDefinition/us-core-race","extension":[{"url":"ombCategory","valueCoding":{"system":"urn:oid:2.16.840.1.113883.6.238","code":"2106-3","display":"White","userSelected":true}},{"url":"text","valueString":"White"}]},{"url":"http://hl7.org/fhir/us/core/StructureDefinition/us-core-ethnicity","extension":[{"url":"ombCategory","valueCoding":{"system":"urn:oid:2.16.840.1.113883.6.238","code":"2135-2","display":"Hispanic or Latino","userSelected":true}},{"url":"text","valueString":"Hispanic or Latino"}]}],"identifier":[{"type":{"coding":[{"system":"http://terminology.hl7.org/CodeSystem/v2-0203","code":"MR"}]},"system":"https://bonnie-fhir.healthit.gov/","value":"6495ae77e06f07b7e1707806"}],"name":[{"family":"IPFail","given":["HIVDxonMarch31ofMP"]}],"gender":"female","birthDate":"1990-02-09"},"request":{"method":"PUT","url":"Patient/920a15ae-3bc9-4e7b-9f0f-e1554b78157a"}},{"fullUrl":"https://madie.cms.gov/Condition/hiv-7807","resource":{"resourceType":"Condition","id":"8e0192c7-0208-4622-acec-7d640b3e9e17","meta":{"profile":["http://hl7.org/fhir/us/qicore/StructureDefinition/qicore-condition"]},"clinicalStatus":{"coding":[{"system":"http://terminology.hl7.org/CodeSystem/condition-clinical","code":"active","display":"active","userSelected":true}]},"category":[{"coding":[{"system":"http://terminology.hl7.org/CodeSystem/condition-category","code":"problem-list-item","display":"Problem List Item"}]}],"code":{"coding":[{"system":"http://hl7.org/fhir/sid/icd-10-cm","code":"O98.73","userSelected":true}]},"subject":{"reference":"Patient/920a15ae-3bc9-4e7b-9f0f-e1554b78157a"},"onsetDateTime":"2025-04-01T11:00:00.000+00:00","recordedDate":"2025-04-01T11:00:00.000+00:00"},"request":{"method":"PUT","url":"Condition/8e0192c7-0208-4622-acec-7d640b3e9e17"}},{"fullUrl":"https://madie.cms.gov/Encounter/face-to-face-interaction-7808","resource":{"resourceType":"Encounter","id":"e680f06c-d255-4db8-9d30-ea5a31057553","meta":{"profile":["http://hl7.org/fhir/us/qicore/StructureDefinition/qicore-encounter"]},"status":"finished","class":{"system":"http://terminology.hl7.org/CodeSystem/v3-ActCode","code":"AMB","display":"ambulatory"},"type":[{"coding":[{"system":"http://snomed.info/sct","version":"2022-09","code":"12843005","display":"Subsequent hospital visit by physician (procedure)","userSelected":true}]}],"subject":{"reference":"Patient/920a15ae-3bc9-4e7b-9f0f-e1554b78157a"},"period":{"start":"2025-03-07T15:00:00.000+00:00","end":"2025-03-07T15:45:00.000+00:00"}},"request":{"method":"PUT","url":"Encounter/e680f06c-d255-4db8-9d30-ea5a31057553"}},{"fullUrl":"https://madie.cms.gov/Coverage/1","resource":{"resourceType":"Coverage","id":"4fbba4f6-d4b0-4835-a5c1-fcc5ab9875e3","meta":{"profile":["http://hl7.org/fhir/us/qicore/StructureDefinition/qicore-coverage"]},"status":"active","beneficiary":{"reference":"Patient/920a15ae-3bc9-4e7b-9f0f-e1554b78157a"},"payor":[{"reference":"Organization/3e899f33-84eb-4634-a770-a5a0bd7a80e7"}]},"request":{"method":"PUT","url":"Coverage/4fbba4f6-d4b0-4835-a5c1-fcc5ab9875e3"}},{"fullUrl":"https://madie.cms.gov/Organization/123456","resource":{"resourceType":"Organization","id":"3e899f33-84eb-4634-a770-a5a0bd7a80e7","meta":{"profile":["http://hl7.org/fhir/us/qicore/StructureDefinition/qicore-organization"]},"identifier":[{"use":"temp","system":"urn:oid:2.16.840.1.113883.4.4","value":"21-3259825"}],"active":true,"type":[{"coding":[{"system":"http://terminology.hl7.org/CodeSystem/organization-type","code":"pay","display":"Payer"}]}],"name":"Blue Cross Blue Shield of Texas","telecom":[{"system":"phone","value":"(+1) 972-766-6900"}],"address":[{"use":"billing","type":"postal","line":["P.O. Box 660044"],"city":"Dallas","state":"TX","postalCode":"75266-0044","country":"USA"}]},"request":{"method":"PUT","url":"Organization/3e899f33-84eb-4634-a770-a5a0bd7a80e7"}},{"fullUrl":"https://madie.cms.gov/Practitioner/practitioner-123456","resource":{"resourceType":"Practitioner","id":"d7e667a0-7049-4cf2-bc9d-ca7f2b8db8ba","meta":{"profile":["http://hl7.org/fhir/us/qicore/StructureDefinition/qicore-practitioner"]},"identifier":[{"system":"http://hl7.org/fhir/sid/us-npi","value":"123456"}],"name":[{"family":"Evil","prefix":["Dr"]}]},"request":{"method":"PUT","url":"Practitioner/d7e667a0-7049-4cf2-bc9d-ca7f2b8db8ba"}},{"fullUrl":"https://madie.cms.gov/MeasureReport/f7f6ce3a-1f95-4062-803f-807d4c0f9f47","resource":{"resourceType":"MeasureReport","id":"f7f6ce3a-1f95-4062-803f-807d4c0f9f47","meta":{"profile":["http://hl7.org/fhir/us/cqfmeasures/StructureDefinition/test-case-cqfm"]},"contained":[{"resourceType":"Parameters","id":"91fbbdca-aa80-4d81-b0f8-415b0b3e46f2-parameters","parameter":[{"name":"subject","valueString":"920a15ae-3bc9-4e7b-9f0f-e1554b78157a"}]}],"extension":[{"url":"http://hl7.org/fhir/us/cqfmeasures/StructureDefinition/cqfm-inputParameters","valueReference":{"reference":"#91fbbdca-aa80-4d81-b0f8-415b0b3e46f2-parameters"}},{"url":"http://hl7.org/fhir/us/cqfmeasures/StructureDefinition/cqfm-testCaseDescription","valueMarkdown":"HIV diagnosis made on April 1 of MP (91 days) with a qualifying encounter during MP"}],"modifierExtension":[{"url":"http://hl7.org/fhir/us/cqfmeasures/StructureDefinition/cqfm-isTestCase","valueBoolean":true}],"status":"complete","type":"individual","measure":"https://madie.cms.gov/Measure/HIVViralSuppressionFHIR","period":{"start":"2025-01-01","end":"2025-12-31"},"group":[{"population":[{"code":{"coding":[{"system":"http://terminology.hl7.org/CodeSystem/measure-population","code":"initial-population","display":"Initial Population"}]},"count":0},{"code":{"coding":[{"system":"http://terminology.hl7.org/CodeSystem/measure-population","code":"denominator","display":"Denominator"}]},"count":0},{"code":{"coding":[{"system":"http://terminology.hl7.org/CodeSystem/measure-population","code":"numerator","display":"Numerator"}]},"count":0}]}]},"request":{"method":"PUT","url":"MeasureReport/f7f6ce3a-1f95-4062-803f-807d4c0f9f47"}}]}