{"resourceType":"Bundle","id":"tests-7ebb36aa-b8dc-4d22-9c09-3250684e3d30-bundle","type":"transaction","entry":[{"fullUrl":"https://madie.cms.gov/Patient/7ebb36aa-b8dc-4d22-9c09-3250684e3d30","resource":{"resourceType":"Patient","id":"7ebb36aa-b8dc-4d22-9c09-3250684e3d30","meta":{"profile":["http://hl7.org/fhir/us/qicore/StructureDefinition/qicore-patient"]},"extension":[{"url":"http://hl7.org/fhir/us/core/StructureDefinition/us-core-race","extension":[{"url":"ombCategory","valueCoding":{"system":"urn:oid:2.16.840.1.113883.6.238","code":"2028-9","display":"Asian","userSelected":true}},{"url":"text","valueString":"Asian"}]},{"url":"http://hl7.org/fhir/us/core/StructureDefinition/us-core-ethnicity","extension":[{"url":"ombCategory","valueCoding":{"system":"urn:oid:2.16.840.1.113883.6.238","code":"2186-5","display":"Not Hispanic or Latino","userSelected":true}},{"url":"text","valueString":"Not Hispanic or Latino"}]}],"identifier":[{"type":{"coding":[{"system":"http://terminology.hl7.org/CodeSystem/v2-0203","code":"MR"}]},"system":"https://bonnie-fhir.healthit.gov/","value":"6499d7e01037008f66e1d7e0"}],"name":[{"family":"NumPass","given":["VLTestDec31ofMPResult199"]}],"gender":"female","birthDate":"1986-05-25"},"request":{"method":"PUT","url":"Patient/7ebb36aa-b8dc-4d22-9c09-3250684e3d30"}},{"fullUrl":"https://madie.cms.gov/Condition/hiv-d7e1","resource":{"resourceType":"Condition","id":"dc102ba5-43be-42df-a0a5-e25490caae5a","meta":{"profile":["http://hl7.org/fhir/us/qicore/StructureDefinition/qicore-condition"]},"clinicalStatus":{"coding":[{"system":"http://terminology.hl7.org/CodeSystem/condition-clinical","code":"active","display":"active","userSelected":true}]},"category":[{"coding":[{"system":"http://terminology.hl7.org/CodeSystem/condition-category","code":"problem-list-item","display":"Problem List Item"}]}],"code":{"coding":[{"system":"http://hl7.org/fhir/sid/icd-9-cm","version":"2013","code":"042","display":"Human immunodeficiency virus [HIV] disease","userSelected":true},{"system":"http://snomed.info/sct","code":"165816005","userSelected":true}]},"subject":{"reference":"Patient/7ebb36aa-b8dc-4d22-9c09-3250684e3d30"},"onsetDateTime":"2019-12-02T12:00:00.000+00:00","recordedDate":"2019-12-02T12:00:00.000+00:00"},"request":{"method":"PUT","url":"Condition/dc102ba5-43be-42df-a0a5-e25490caae5a"}},{"fullUrl":"https://madie.cms.gov/Observation/hiv-viral-load-d7e2","resource":{"resourceType":"Observation","id":"7eebbe69-d4c4-4df0-b63e-75fdfd6e432f","meta":{"profile":["http://hl7.org/fhir/us/qicore/StructureDefinition/qicore-observation"]},"status":"final","category":[{"coding":[{"system":"http://terminology.hl7.org/CodeSystem/observation-category"}]}],"code":{"coding":[{"system":"http://loinc.org","version":"2.73","code":"10351-5","display":"HIV 1 RNA [Units/volume] (viral load) in Serum or Plasma by Probe with amplification","userSelected":true}]},"subject":{"reference":"Patient/7ebb36aa-b8dc-4d22-9c09-3250684e3d30"},"effectiveDateTime":"2025-12-31T09:02:00.000+00:00","issued":"2025-12-31T09:02:00.000+00:00","valueQuantity":{"value":199,"unit":"{copies}/mL"}},"request":{"method":"PUT","url":"Observation/7eebbe69-d4c4-4df0-b63e-75fdfd6e432f"}},{"fullUrl":"https://madie.cms.gov/Encounter/home-healthcare-services-d7e3","resource":{"resourceType":"Encounter","id":"2acb6c29-0b5e-427a-918c-e60ac93b46bb","meta":{"profile":["http://hl7.org/fhir/us/qicore/StructureDefinition/qicore-encounter"]},"status":"finished","class":{"system":"http://terminology.hl7.org/CodeSystem/v3-ActCode","code":"AMB","display":"ambulatory"},"type":[{"coding":[{"system":"http://snomed.info/sct","version":"2022-09","code":"185460008","display":"Home visit request by patient (procedure)","userSelected":true}]}],"subject":{"reference":"Patient/7ebb36aa-b8dc-4d22-9c09-3250684e3d30"},"period":{"start":"2025-08-27T15:02:00.000+00:00","end":"2025-08-27T15:55:00.000+00:00"}},"request":{"method":"PUT","url":"Encounter/2acb6c29-0b5e-427a-918c-e60ac93b46bb"}},{"fullUrl":"https://madie.cms.gov/Coverage/1","resource":{"resourceType":"Coverage","id":"a94b34c5-c9d9-45b5-b02c-7391ab821541","meta":{"profile":["http://hl7.org/fhir/us/qicore/StructureDefinition/qicore-coverage"]},"status":"active","beneficiary":{"reference":"Patient/7ebb36aa-b8dc-4d22-9c09-3250684e3d30"},"payor":[{"reference":"Organization/42846cc3-1db0-4bf7-b9ff-8b81fa6e835d"}]},"request":{"method":"PUT","url":"Coverage/a94b34c5-c9d9-45b5-b02c-7391ab821541"}},{"fullUrl":"https://madie.cms.gov/Organization/123456","resource":{"resourceType":"Organization","id":"42846cc3-1db0-4bf7-b9ff-8b81fa6e835d","meta":{"profile":["http://hl7.org/fhir/us/qicore/StructureDefinition/qicore-organization"]},"identifier":[{"use":"temp","system":"urn:oid:2.16.840.1.113883.4.4","value":"21-3259825"}],"active":true,"type":[{"coding":[{"system":"http://terminology.hl7.org/CodeSystem/organization-type","code":"pay","display":"Payer"}]}],"name":"Blue Cross Blue Shield of Texas","telecom":[{"system":"phone","value":"(+1) 972-766-6900"}],"address":[{"use":"billing","type":"postal","line":["P.O. Box 660044"],"city":"Dallas","state":"TX","postalCode":"75266-0044","country":"USA"}]},"request":{"method":"PUT","url":"Organization/42846cc3-1db0-4bf7-b9ff-8b81fa6e835d"}},{"fullUrl":"https://madie.cms.gov/Practitioner/practitioner-123456","resource":{"resourceType":"Practitioner","id":"24e70a7f-d3a2-41a2-b0c6-a730a1fc73e0","meta":{"profile":["http://hl7.org/fhir/us/qicore/StructureDefinition/qicore-practitioner"]},"identifier":[{"system":"http://hl7.org/fhir/sid/us-npi","value":"123456"}],"name":[{"family":"Evil","prefix":["Dr"]}]},"request":{"method":"PUT","url":"Practitioner/24e70a7f-d3a2-41a2-b0c6-a730a1fc73e0"}},{"fullUrl":"https://madie.cms.gov/MeasureReport/b1dcf974-0677-478c-ab55-7343098c2624","resource":{"resourceType":"MeasureReport","id":"b1dcf974-0677-478c-ab55-7343098c2624","meta":{"profile":["http://hl7.org/fhir/us/cqfmeasures/StructureDefinition/test-case-cqfm"]},"contained":[{"resourceType":"Parameters","id":"f2196f9d-0704-4626-af4b-8abf8ba610f0-parameters","parameter":[{"name":"subject","valueString":"7ebb36aa-b8dc-4d22-9c09-3250684e3d30"}]}],"extension":[{"url":"http://hl7.org/fhir/us/cqfmeasures/StructureDefinition/cqfm-inputParameters","valueReference":{"reference":"#f2196f9d-0704-4626-af4b-8abf8ba610f0-parameters"}},{"url":"http://hl7.org/fhir/us/cqfmeasures/StructureDefinition/cqfm-testCaseDescription","valueMarkdown":"Patient with a diagnosis of HIV years before start of MP and a qualifying encounter on inside 240 day edge of the MP AND a viral load test on Dec 31 (edge case) during the MP with a result of 199 (under 200)"}],"modifierExtension":[{"url":"http://hl7.org/fhir/us/cqfmeasures/StructureDefinition/cqfm-isTestCase","valueBoolean":true}],"status":"complete","type":"individual","measure":"https://madie.cms.gov/Measure/HIVViralSuppressionFHIR","period":{"start":"2025-01-01","end":"2025-12-31"},"group":[{"population":[{"code":{"coding":[{"system":"http://terminology.hl7.org/CodeSystem/measure-population","code":"initial-population","display":"Initial Population"}]},"count":1},{"code":{"coding":[{"system":"http://terminology.hl7.org/CodeSystem/measure-population","code":"denominator","display":"Denominator"}]},"count":1},{"code":{"coding":[{"system":"http://terminology.hl7.org/CodeSystem/measure-population","code":"numerator","display":"Numerator"}]},"count":1}]}]},"request":{"method":"PUT","url":"MeasureReport/b1dcf974-0677-478c-ab55-7343098c2624"}}]}