{
  "resourceType": "Bundle",
  "id": "633c9d030968f8012250fc8e",
  "type": "transaction",
  "entry": [ {
    "fullUrl": "https://madie.cms.gov/Patient/fb49e13d-3b13-46ae-8862-59033137e1b8",
    "resource": {
      "resourceType": "Patient",
      "id": "fb49e13d-3b13-46ae-8862-59033137e1b8",
      "meta": {
        "profile": [ "http://hl7.org/fhir/us/qicore/StructureDefinition/qicore-patient" ]
      },
      "text": {
        "status": "generated",
        "div": "<div xmlns=\"http://www.w3.org/1999/xhtml\"><div class=\"hapiHeaderText\">MedRsnStartTmLTEncAdmTm <b>DENEXCEPFAIL </b></div><table class=\"hapiPropertyTable\"><tbody><tr><td>Identifier</td><td>8a884ee78cd24d8c9b5a7d8bd151cd79</td></tr><tr><td>Date of birth</td><td><span>23 May 1954</span></td></tr></tbody></table></div>"
      },
      "extension": [ {
        "url": "http://hl7.org/fhir/us/core/StructureDefinition/us-core-race",
        "extension": [ {
          "url": "ombCategory",
          "valueCoding": {
            "system": "urn:oid:2.16.840.1.113883.6.238",
            "code": "1002-5",
            "display": "American Indian or Alaska Native",
            "userSelected": true
          }
        }, {
          "url": "text",
          "valueString": "American Indian or Alaska Native"
        } ]
      }, {
        "url": "http://hl7.org/fhir/us/core/StructureDefinition/us-core-ethnicity",
        "extension": [ {
          "url": "ombCategory",
          "valueCoding": {
            "system": "urn:oid:2.16.840.1.113883.6.238",
            "code": "2135-2",
            "display": "Hispanic or Latino",
            "userSelected": true
          }
        }, {
          "url": "text",
          "valueString": "Hispanic or Latino"
        } ]
      } ],
      "identifier": [ {
        "type": {
          "coding": [ {
            "system": "http://terminology.hl7.org/CodeSystem/v2-0203",
            "code": "MR"
          } ]
        },
        "system": "https://bonnie-fhir.healthit.gov/",
        "value": "633c9d030968f8012250fc8e"
      } ],
      "active": true,
      "name": [ {
        "use": "usual",
        "family": "DENEXCEPFail",
        "given": [ "MedRsnStartTmLTEncAdmTm" ]
      } ],
      "gender": "female",
      "birthDate": "1955-05-23"
    },
    "request": {
      "method": "PUT",
      "url": "Patient/fb49e13d-3b13-46ae-8862-59033137e1b8"
    }
  }, {
    "fullUrl": "https://madie.cms.gov/Encounter/2aee09a5-d5a6-4d7b-ba4c-5998db92d0eb",
    "resource": {
      "resourceType": "Encounter",
      "id": "2aee09a5-d5a6-4d7b-ba4c-5998db92d0eb",
      "meta": {
        "profile": [ "http://hl7.org/fhir/us/qicore/StructureDefinition/qicore-encounter" ]
      },
      "status": "finished",
      "class": {
        "system": "http://terminology.hl7.org/CodeSystem/v3-ActCode",
        "code": "IMP",
        "display": "inpatient encounter"
      },
      "type": [ {
        "coding": [ {
          "system": "http://snomed.info/sct",
          "code": "32485007"
        } ]
      } ],
      "subject": {
        "reference": "Patient/fb49e13d-3b13-46ae-8862-59033137e1b8"
      },
      "period": {
        "start": "2026-11-20T07:16:00.000Z",
        "end": "2026-11-22T08:15:00.000Z"
      },
      "length": {
        "value": 2,
        "unit": "days"
      },
      "diagnosis": [ {
        "condition": {
          "reference": "Condition/d4f0244c-8c39-4dbf-8624-81740f04eb36"
        },
        "use": {
          "coding": [ {
            "system": "http://terminology.hl7.org/CodeSystem/diagnosis-role",
            "code": "billing",
            "display": "Billing"
          } ]
        },
        "rank": 1
      } ]
    },
    "request": {
      "method": "PUT",
      "url": "Encounter/2aee09a5-d5a6-4d7b-ba4c-5998db92d0eb"
    }
  }, {
    "fullUrl": "https://madie.cms.gov/MedicationRequest/b24ac5d0-50a5-42e9-9267-f0132739becc",
    "resource": {
      "resourceType": "MedicationRequest",
      "id": "b24ac5d0-50a5-42e9-9267-f0132739becc",
      "meta": {
        "profile": [ "http://hl7.org/fhir/us/qicore/StructureDefinition/qicore-mednotrequested" ]
      },
      "status": "completed",
      "intent": "order",
      "category": [ {
        "coding": [ {
          "system": "http://terminology.hl7.org/CodeSystem/medicationrequest-category",
          "code": "community"
        } ]
      } ],
      "doNotPerform": true,
      "medicationCodeableConcept": {
        "coding": [ {
          "system": "http://www.nlm.nih.gov/research/umls/rxnorm",
          "code": "1037045"
        } ]
      },
      "subject": {
        "reference": "Patient/fb49e13d-3b13-46ae-8862-59033137e1b8"
      },
      "authoredOn": "2026-11-20T07:15:00.000+00:00",
      "requester": {
        "reference": "Practitioner/example"
      },
      "reasonCode": [ {
        "coding": [ {
          "system": "http://snomed.info/sct",
          "code": "183932001"
        } ]
      } ]
    },
    "request": {
      "method": "PUT",
      "url": "MedicationRequest/b24ac5d0-50a5-42e9-9267-f0132739becc"
    }
  }, {
    "fullUrl": "https://madie.cms.gov/Coverage/ec1f52d1-9d6e-477d-a3c9-a0e2158831a2",
    "resource": {
      "resourceType": "Coverage",
      "id": "ec1f52d1-9d6e-477d-a3c9-a0e2158831a2",
      "status": "active",
      "beneficiary": {
        "reference": "Patient/fb49e13d-3b13-46ae-8862-59033137e1b8"
      },
      "period": {
        "start": "1955-05-23T08:00:00.000Z"
      },
      "payor": [ {
        "reference": "Organization/580d30c1-63d1-4b39-ae7d-6d6137b0f4ca"
      } ]
    },
    "request": {
      "method": "PUT",
      "url": "Coverage/ec1f52d1-9d6e-477d-a3c9-a0e2158831a2"
    }
  }, {
    "fullUrl": "https://madie.cms.gov/Procedure/5e78892e-5dd5-45bc-9373-660cc4424db3",
    "resource": {
      "resourceType": "Procedure",
      "id": "5e78892e-5dd5-45bc-9373-660cc4424db3",
      "meta": {
        "profile": [ "http://hl7.org/fhir/us/qicore/StructureDefinition/qicore-procedure" ]
      },
      "extension": [ {
        "url": "http://hl7.org/fhir/us/qicore/StructureDefinition/qicore-recorded",
        "valueDateTime": "2014-04-05T09:35:00-04:00"
      } ],
      "status": "completed",
      "code": {
        "coding": [ {
          "system": "http://www.cms.gov/Medicare/Coding/ICD10",
          "code": "02560ZZ"
        }, {
          "system": "http://snomed.info/sct",
          "code": "175095005"
        } ]
      },
      "subject": {
        "reference": "Patient/fb49e13d-3b13-46ae-8862-59033137e1b8"
      },
      "performedPeriod": {
        "start": "2026-11-20T07:15:00.000Z",
        "end": "2026-11-20T07:16:00.000Z"
      }
    },
    "request": {
      "method": "PUT",
      "url": "Procedure/5e78892e-5dd5-45bc-9373-660cc4424db3"
    }
  }, {
    "fullUrl": "https://madie.cms.gov/Condition/d4f0244c-8c39-4dbf-8624-81740f04eb36",
    "resource": {
      "resourceType": "Condition",
      "id": "d4f0244c-8c39-4dbf-8624-81740f04eb36",
      "meta": {
        "profile": [ "http://hl7.org/fhir/us/qicore/StructureDefinition/qicore-condition" ]
      },
      "clinicalStatus": {
        "coding": [ {
          "system": "http://terminology.hl7.org/CodeSystem/condition-clinical",
          "code": "active"
        } ]
      },
      "verificationStatus": {
        "coding": [ {
          "system": "http://terminology.hl7.org/CodeSystem/condition-ver-status",
          "code": "confirmed"
        } ]
      },
      "category": [ {
        "coding": [ {
          "system": "http://terminology.hl7.org/CodeSystem/condition-category",
          "code": "encounter-diagnosis",
          "display": "Encounter Diagnosis"
        } ]
      } ],
      "code": {
        "coding": [ {
          "system": "http://snomed.info/sct",
          "version": "2021-09",
          "code": "111297002",
          "display": "Nonparalytic stroke (disorder)",
          "userSelected": true
        } ]
      },
      "subject": {
        "reference": "Patient/fb49e13d-3b13-46ae-8862-59033137e1b8"
      },
      "recordedDate": "2026-10-13T08:00:00.000+00:00"
    },
    "request": {
      "method": "PUT",
      "url": "Condition/d4f0244c-8c39-4dbf-8624-81740f04eb36"
    }
  }, {
    "fullUrl": "https://madie.cms.gov/Organization/580d30c1-63d1-4b39-ae7d-6d6137b0f4ca",
    "resource": {
      "resourceType": "Organization",
      "id": "580d30c1-63d1-4b39-ae7d-6d6137b0f4ca",
      "meta": {
        "profile": [ "http://hl7.org/fhir/us/qicore/StructureDefinition/qicore-organization" ]
      },
      "identifier": [ {
        "use": "temp",
        "system": "urn:oid:2.16.840.1.113883.4.4",
        "value": "21-3259825"
      } ],
      "active": true,
      "type": [ {
        "coding": [ {
          "system": "http://terminology.hl7.org/CodeSystem/organization-type",
          "code": "pay",
          "display": "Payer"
        } ]
      } ],
      "name": "Blue Cross Blue Shield of Texas",
      "telecom": [ {
        "system": "phone",
        "value": "(+1) 972-766-6900"
      } ],
      "address": [ {
        "use": "billing",
        "type": "postal",
        "line": [ "P.O. Box 660044" ],
        "city": "Dallas",
        "state": "TX",
        "postalCode": "75266-0044",
        "country": "USA"
      } ]
    },
    "request": {
      "method": "PUT",
      "url": "Organization/580d30c1-63d1-4b39-ae7d-6d6137b0f4ca"
    }
  }, {
    "fullUrl": "https://madie.cms.gov/MeasureReport/a38432f0-216c-44e6-bab1-b662ed2b04e3",
    "resource": {
      "resourceType": "MeasureReport",
      "id": "a38432f0-216c-44e6-bab1-b662ed2b04e3",
      "meta": {
        "profile": [ "http://hl7.org/fhir/us/cqfmeasures/StructureDefinition/test-case-cqfm" ]
      },
      "contained": [ {
        "resourceType": "Parameters",
        "id": "1d9599c7-9506-461f-9d0c-417f0f4207e5-parameters",
        "parameter": [ {
          "name": "subject",
          "valueString": "fb49e13d-3b13-46ae-8862-59033137e1b8"
        } ]
      } ],
      "extension": [ {
        "url": "http://hl7.org/fhir/us/cqfmeasures/StructureDefinition/cqfm-inputParameters",
        "valueReference": {
          "reference": "#1d9599c7-9506-461f-9d0c-417f0f4207e5-parameters"
        }
      }, {
        "url": "http://hl7.org/fhir/us/cqfmeasures/StructureDefinition/cqfm-testCaseDescription",
        "valueMarkdown": "Patient did not receive anticoagulant on dc due to medical reason, but start date is before start of OccurA\n"
      } ],
      "modifierExtension": [ {
        "url": "http://hl7.org/fhir/us/cqfmeasures/StructureDefinition/cqfm-isTestCase",
        "valueBoolean": true
      } ],
      "status": "complete",
      "type": "individual",
      "measure": "https://madie.cms.gov/Measure/CMS71FHIRSTKAnticoagAFFlutter",
      "period": {
        "start": "2026-01-01",
        "end": "2026-12-31"
      },
      "group": [ {
        "population": [ {
          "code": {
            "coding": [ {
              "system": "http://terminology.hl7.org/CodeSystem/measure-population",
              "code": "initial-population",
              "display": "Initial Population"
            } ]
          },
          "count": 1
        }, {
          "code": {
            "coding": [ {
              "system": "http://terminology.hl7.org/CodeSystem/measure-population",
              "code": "denominator",
              "display": "Denominator"
            } ]
          },
          "count": 1
        }, {
          "code": {
            "coding": [ {
              "system": "http://terminology.hl7.org/CodeSystem/measure-population",
              "code": "denominator-exclusion",
              "display": "Denominator Exclusion"
            } ]
          },
          "count": 0
        }, {
          "code": {
            "coding": [ {
              "system": "http://terminology.hl7.org/CodeSystem/measure-population",
              "code": "numerator",
              "display": "Numerator"
            } ]
          },
          "count": 0
        }, {
          "code": {
            "coding": [ {
              "system": "http://terminology.hl7.org/CodeSystem/measure-population",
              "code": "denominator-exception",
              "display": "Denominator Exception"
            } ]
          },
          "count": 0
        } ]
      } ],
      "evaluatedResource": [ {
        "reference": "Patient/fb49e13d-3b13-46ae-8862-59033137e1b8"
      }, {
        "reference": "Encounter/2aee09a5-d5a6-4d7b-ba4c-5998db92d0eb"
      }, {
        "reference": "MedicationRequest/b24ac5d0-50a5-42e9-9267-f0132739becc"
      }, {
        "reference": "Coverage/ec1f52d1-9d6e-477d-a3c9-a0e2158831a2"
      }, {
        "reference": "Procedure/5e78892e-5dd5-45bc-9373-660cc4424db3"
      }, {
        "reference": "Condition/d4f0244c-8c39-4dbf-8624-81740f04eb36"
      }, {
        "reference": "Organization/580d30c1-63d1-4b39-ae7d-6d6137b0f4ca"
      } ]
    },
    "request": {
      "method": "PUT",
      "url": "MeasureReport/a38432f0-216c-44e6-bab1-b662ed2b04e3"
    }
  } ]
}