{"resourceType":"Bundle","id":"tests-ab9cb197-3c30-48f9-ba83-a921641a4501-bundle","type":"transaction","entry":[{"fullUrl":"https://madie.cms.gov/Patient/ab9cb197-3c30-48f9-ba83-a921641a4501","resource":{"resourceType":"Patient","id":"ab9cb197-3c30-48f9-ba83-a921641a4501","meta":{"profile":["http://hl7.org/fhir/us/qicore/StructureDefinition/qicore-patient"]},"extension":[{"url":"http://hl7.org/fhir/us/core/StructureDefinition/us-core-race","extension":[{"url":"ombCategory","valueCoding":{"system":"urn:oid:2.16.840.1.113883.6.238","code":"2028-9","display":"Asian"}},{"url":"text","valueString":"Asian"}]},{"url":"http://hl7.org/fhir/us/core/StructureDefinition/us-core-ethnicity","extension":[{"url":"ombCategory","valueCoding":{"system":"urn:oid:2.16.840.1.113883.6.238","code":"2135-2","display":"Hispanic or Latino"}},{"url":"text","valueString":"Hispanic or Latino"}]}],"identifier":[{"system":"http://hospital.smarthealthit.org","value":"999999995"}],"name":[{"family":"Bertha","given":["Betty"]}],"gender":"female","birthDate":"2007-01-01"},"request":{"method":"PUT","url":"Patient/ab9cb197-3c30-48f9-ba83-a921641a4501"}},{"fullUrl":"https://madie.cms.gov/Encounter/Encounter-49","resource":{"resourceType":"Encounter","id":"f1c37e5b-0809-4a23-858f-623206c82144","meta":{"profile":["http://hl7.org/fhir/us/qicore/StructureDefinition/qicore-encounter"]},"status":"finished","class":{"system":"http://terminology.hl7.org/CodeSystem/v3-ActCode","code":"AMB","display":"ambulatory"},"type":[{"coding":[{"system":"http://snomed.info/sct","code":"185317003","display":"Telephone encounter (procedure)"}]}],"subject":{"reference":"Patient/ab9cb197-3c30-48f9-ba83-a921641a4501"},"period":{"start":"2025-01-01T01:00:00.000Z","end":"2025-01-01T01:15:00.000Z"}},"request":{"method":"PUT","url":"Encounter/f1c37e5b-0809-4a23-858f-623206c82144"}},{"fullUrl":"https://madie.cms.gov/Encounter/Encounter-50","resource":{"resourceType":"Encounter","id":"896e9e32-9737-4850-8e8a-415aafd3d9be","meta":{"profile":["http://hl7.org/fhir/us/qicore/StructureDefinition/qicore-encounter"]},"status":"finished","class":{"system":"http://terminology.hl7.org/CodeSystem/v3-ActCode","code":"AMB","display":"ambulatory"},"type":[{"coding":[{"system":"http://snomed.info/sct","code":"185317003","display":"Telephone encounter (procedure)"}]}],"subject":{"reference":"Patient/ab9cb197-3c30-48f9-ba83-a921641a4501"},"period":{"start":"2025-01-02T01:00:00.000Z","end":"2025-01-02T01:15:00.000Z"}},"request":{"method":"PUT","url":"Encounter/896e9e32-9737-4850-8e8a-415aafd3d9be"}},{"fullUrl":"https://madie.cms.gov/Condition/Condition-22","resource":{"resourceType":"Condition","id":"08d47e3d-5bee-4e0d-bd67-bc1bf32f1590","meta":{"profile":["http://hl7.org/fhir/us/qicore/StructureDefinition/qicore-condition"]},"clinicalStatus":{"coding":[{"system":"http://terminology.hl7.org/CodeSystem/condition-clinical","code":"active"}]},"category":[{"coding":[{"system":"http://terminology.hl7.org/CodeSystem/condition-category","code":"problem-list-item","display":"Problem List Item"}]}],"code":{"coding":[{"system":"http://snomed.info/sct","code":"10091002","display":"High output heart failure (disorder)"}]},"subject":{"reference":"Patient/ab9cb197-3c30-48f9-ba83-a921641a4501"},"onsetDateTime":"2024-12-31T23:59:00.000Z"},"request":{"method":"PUT","url":"Condition/08d47e3d-5bee-4e0d-bd67-bc1bf32f1590"}},{"fullUrl":"https://madie.cms.gov/Observation/Observation-77","resource":{"resourceType":"Observation","id":"c1d80b94-34ba-4310-85fb-26c6c6db5cc9","meta":{"profile":["http://hl7.org/fhir/us/qicore/StructureDefinition/qicore-observation"]},"status":"final","category":[{"coding":[{"system":"http://terminology.hl7.org/CodeSystem/observation-category","code":"survey","display":"survey"}],"text":"survey"}],"code":{"coding":[{"system":"http://loinc.org","code":"72189-4","display":"Quality of life score [KCCQ]"}]},"subject":{"reference":"Patient/ab9cb197-3c30-48f9-ba83-a921641a4501"},"effectivePeriod":{"start":"2025-01-01T23:00:00.000Z","end":"2025-01-01T23:59:00.000Z"},"valueInteger":4},"request":{"method":"PUT","url":"Observation/c1d80b94-34ba-4310-85fb-26c6c6db5cc9"}},{"fullUrl":"https://madie.cms.gov/Observation/Observation-78","resource":{"resourceType":"Observation","id":"cc4bc337-c6ab-41b4-ba2d-ba4d24bd8e44","meta":{"profile":["http://hl7.org/fhir/us/qicore/StructureDefinition/qicore-observation"]},"status":"final","category":[{"coding":[{"system":"http://terminology.hl7.org/CodeSystem/observation-category","code":"survey","display":"survey"}],"text":"survey"}],"code":{"coding":[{"system":"http://loinc.org","code":"72189-4","display":"Quality of life score [KCCQ]"}]},"subject":{"reference":"Patient/ab9cb197-3c30-48f9-ba83-a921641a4501"},"effectivePeriod":{"start":"2025-06-29T23:00:00.000Z","end":"2025-06-29T23:59:00.000Z"},"valueInteger":4},"request":{"method":"PUT","url":"Observation/cc4bc337-c6ab-41b4-ba2d-ba4d24bd8e44"}},{"fullUrl":"https://madie.cms.gov/Observation/Observation-79","resource":{"resourceType":"Observation","id":"912f56d3-09a4-46df-b9b5-956a6b02f159","meta":{"profile":["http://hl7.org/fhir/us/qicore/StructureDefinition/qicore-observation"]},"status":"final","category":[{"coding":[{"system":"http://terminology.hl7.org/CodeSystem/observation-category","code":"survey","display":"survey"}],"text":"survey"}],"code":{"coding":[{"system":"http://loinc.org","code":"72194-4","display":"Symptom stability score [KCCQ]"}]},"subject":{"reference":"Patient/ab9cb197-3c30-48f9-ba83-a921641a4501"},"effectivePeriod":{"start":"2025-01-01T23:00:00.000Z","end":"2025-01-01T23:59:00.000Z"},"valueInteger":4},"request":{"method":"PUT","url":"Observation/912f56d3-09a4-46df-b9b5-956a6b02f159"}},{"fullUrl":"https://madie.cms.gov/Observation/Observation-80","resource":{"resourceType":"Observation","id":"2923835a-e3e4-4ed7-be61-19b823b06078","meta":{"profile":["http://hl7.org/fhir/us/qicore/StructureDefinition/qicore-observation"]},"status":"final","category":[{"coding":[{"system":"http://terminology.hl7.org/CodeSystem/observation-category","code":"survey","display":"survey"}],"text":"survey"}],"code":{"coding":[{"system":"http://loinc.org","code":"72194-4","display":"Symptom stability score [KCCQ]"}]},"subject":{"reference":"Patient/ab9cb197-3c30-48f9-ba83-a921641a4501"},"effectivePeriod":{"start":"2025-06-29T23:00:00.000Z","end":"2025-06-29T23:59:00.000Z"},"valueInteger":4},"request":{"method":"PUT","url":"Observation/2923835a-e3e4-4ed7-be61-19b823b06078"}},{"fullUrl":"https://madie.cms.gov/Observation/Observation-81","resource":{"resourceType":"Observation","id":"bd208594-2d4d-4760-b4c0-5dcb7c21e42f","meta":{"profile":["http://hl7.org/fhir/us/qicore/StructureDefinition/qicore-observation"]},"status":"final","category":[{"coding":[{"system":"http://terminology.hl7.org/CodeSystem/observation-category","code":"survey","display":"survey"}],"text":"survey"}],"code":{"coding":[{"system":"http://loinc.org","code":"72190-2","display":"Self-efficacy score [KCCQ]"}]},"subject":{"reference":"Patient/ab9cb197-3c30-48f9-ba83-a921641a4501"},"effectivePeriod":{"start":"2025-01-01T23:00:00.000Z","end":"2025-01-01T23:59:00.000Z"},"valueInteger":4},"request":{"method":"PUT","url":"Observation/bd208594-2d4d-4760-b4c0-5dcb7c21e42f"}},{"fullUrl":"https://madie.cms.gov/Observation/Observation-82","resource":{"resourceType":"Observation","id":"662f8a8d-d0f8-4c91-99d6-d6a747c6f8a5","meta":{"profile":["http://hl7.org/fhir/us/qicore/StructureDefinition/qicore-observation"]},"status":"final","category":[{"coding":[{"system":"http://terminology.hl7.org/CodeSystem/observation-category","code":"survey","display":"survey"}],"text":"survey"}],"code":{"coding":[{"system":"http://loinc.org","code":"72190-2","display":"Self-efficacy score [KCCQ]"}]},"subject":{"reference":"Patient/ab9cb197-3c30-48f9-ba83-a921641a4501"},"effectivePeriod":{"start":"2025-06-29T23:00:00.000Z","end":"2025-06-29T23:59:00.000Z"},"valueInteger":4},"request":{"method":"PUT","url":"Observation/662f8a8d-d0f8-4c91-99d6-d6a747c6f8a5"}},{"fullUrl":"https://madie.cms.gov/Observation/Observation-83","resource":{"resourceType":"Observation","id":"ba7de9c8-9810-4f72-8afb-5578ba0f9571","meta":{"profile":["http://hl7.org/fhir/us/qicore/StructureDefinition/qicore-observation"]},"status":"final","category":[{"coding":[{"system":"http://terminology.hl7.org/CodeSystem/observation-category","code":"survey","display":"survey"}],"text":"survey"}],"code":{"coding":[{"system":"http://loinc.org","code":"72191-0","display":"Total symptom score [KCCQ]"}]},"subject":{"reference":"Patient/ab9cb197-3c30-48f9-ba83-a921641a4501"},"effectivePeriod":{"start":"2025-01-01T23:00:00.000Z","end":"2025-01-01T23:59:00.000Z"},"valueInteger":4},"request":{"method":"PUT","url":"Observation/ba7de9c8-9810-4f72-8afb-5578ba0f9571"}},{"fullUrl":"https://madie.cms.gov/Observation/Observation-84","resource":{"resourceType":"Observation","id":"e67ad869-db20-4723-854c-61a58c0d9b6d","meta":{"profile":["http://hl7.org/fhir/us/qicore/StructureDefinition/qicore-observation"]},"status":"final","category":[{"coding":[{"system":"http://terminology.hl7.org/CodeSystem/observation-category","code":"survey","display":"survey"}],"text":"survey"}],"code":{"coding":[{"system":"http://loinc.org","code":"72191-0","display":"Total symptom score [KCCQ]"}]},"subject":{"reference":"Patient/ab9cb197-3c30-48f9-ba83-a921641a4501"},"effectivePeriod":{"start":"2025-06-29T23:00:00.000Z","end":"2025-06-29T23:59:00.000Z"},"valueInteger":4},"request":{"method":"PUT","url":"Observation/e67ad869-db20-4723-854c-61a58c0d9b6d"}},{"fullUrl":"https://madie.cms.gov/Observation/Observation-85","resource":{"resourceType":"Observation","id":"42628256-066e-4d8a-95a8-79b3a98a5edf","meta":{"profile":["http://hl7.org/fhir/us/qicore/StructureDefinition/qicore-observation"]},"status":"final","category":[{"coding":[{"system":"http://terminology.hl7.org/CodeSystem/observation-category","code":"survey","display":"survey"}],"text":"survey"}],"code":{"coding":[{"system":"http://loinc.org","code":"72195-1","display":"Physical limitation score [KCCQ]"}]},"subject":{"reference":"Patient/ab9cb197-3c30-48f9-ba83-a921641a4501"},"effectivePeriod":{"start":"2025-01-01T23:00:00.000Z","end":"2025-01-01T23:59:00.000Z"},"valueInteger":4},"request":{"method":"PUT","url":"Observation/42628256-066e-4d8a-95a8-79b3a98a5edf"}},{"fullUrl":"https://madie.cms.gov/Observation/Observation-86","resource":{"resourceType":"Observation","id":"c9d11457-f0fc-437c-a7d0-46ca8c9d986f","meta":{"profile":["http://hl7.org/fhir/us/qicore/StructureDefinition/qicore-observation"]},"status":"final","category":[{"coding":[{"system":"http://terminology.hl7.org/CodeSystem/observation-category","code":"survey","display":"survey"}],"text":"survey"}],"code":{"coding":[{"system":"http://loinc.org","code":"72195-1","display":"Physical limitation score [KCCQ]"}]},"subject":{"reference":"Patient/ab9cb197-3c30-48f9-ba83-a921641a4501"},"effectivePeriod":{"start":"2025-06-29T23:00:00.000Z","end":"2025-06-29T23:59:00.000Z"},"valueInteger":4},"request":{"method":"PUT","url":"Observation/c9d11457-f0fc-437c-a7d0-46ca8c9d986f"}},{"fullUrl":"https://madie.cms.gov/Observation/Observation-87","resource":{"resourceType":"Observation","id":"05fff3f9-d35a-4ef0-91d1-8e063eaf113b","meta":{"profile":["http://hl7.org/fhir/us/qicore/StructureDefinition/qicore-observation"]},"status":"final","category":[{"coding":[{"system":"http://terminology.hl7.org/CodeSystem/observation-category","code":"survey","display":"survey"}],"text":"survey"}],"code":{"coding":[{"system":"http://loinc.org","code":"72196-9","display":"Social limitation score [KCCQ]"}]},"subject":{"reference":"Patient/ab9cb197-3c30-48f9-ba83-a921641a4501"},"effectivePeriod":{"start":"2025-01-01T23:00:00.000Z","end":"2025-01-01T23:59:00.000Z"},"valueInteger":4},"request":{"method":"PUT","url":"Observation/05fff3f9-d35a-4ef0-91d1-8e063eaf113b"}},{"fullUrl":"https://madie.cms.gov/Observation/Observation-88","resource":{"resourceType":"Observation","id":"c423e6c1-1d28-4a56-9125-9bf02d077dd4","meta":{"profile":["http://hl7.org/fhir/us/qicore/StructureDefinition/qicore-observation"]},"status":"final","category":[{"coding":[{"system":"http://terminology.hl7.org/CodeSystem/observation-category","code":"survey","display":"survey"}],"text":"survey"}],"code":{"coding":[{"system":"http://loinc.org","code":"72196-9","display":"Social limitation score [KCCQ]"}]},"subject":{"reference":"Patient/ab9cb197-3c30-48f9-ba83-a921641a4501"},"effectivePeriod":{"start":"2025-06-29T23:00:00.000Z","end":"2025-06-29T23:59:00.000Z"},"valueInteger":4},"request":{"method":"PUT","url":"Observation/c423e6c1-1d28-4a56-9125-9bf02d077dd4"}},{"fullUrl":"https://madie.cms.gov/MeasureReport/85ac0a93-87d1-4781-8776-cea6b27f0868","resource":{"resourceType":"MeasureReport","id":"85ac0a93-87d1-4781-8776-cea6b27f0868","meta":{"profile":["http://hl7.org/fhir/us/cqfmeasures/StructureDefinition/test-case-cqfm"]},"contained":[{"resourceType":"Parameters","id":"f07247a7-c6cf-4262-b6fb-86022ffa6893-parameters","parameter":[{"name":"subject","valueString":"ab9cb197-3c30-48f9-ba83-a921641a4501"}]}],"extension":[{"url":"http://hl7.org/fhir/us/cqfmeasures/StructureDefinition/cqfm-inputParameters","valueReference":{"reference":"#f07247a7-c6cf-4262-b6fb-86022ffa6893-parameters"}},{"url":"http://hl7.org/fhir/us/cqfmeasures/StructureDefinition/cqfm-testCaseDescription","valueMarkdown":"Patient has all KCCQ Domain assessments with results during the correct timeframe. Testing the 180 days boundary."}],"modifierExtension":[{"url":"http://hl7.org/fhir/us/cqfmeasures/StructureDefinition/cqfm-isTestCase","valueBoolean":true}],"status":"complete","type":"individual","measure":"https://madie.cms.gov/Measure/FunctionalStatusAssessmentsforHeartFailureFHIR","period":{"start":"2025-01-01","end":"2025-12-31"},"group":[{"population":[{"code":{"coding":[{"system":"http://terminology.hl7.org/CodeSystem/measure-population","code":"initial-population","display":"Initial Population"}]},"count":1},{"code":{"coding":[{"system":"http://terminology.hl7.org/CodeSystem/measure-population","code":"denominator","display":"Denominator"}]},"count":1},{"code":{"coding":[{"system":"http://terminology.hl7.org/CodeSystem/measure-population","code":"denominator-exclusion","display":"Denominator Exclusion"}]},"count":0},{"code":{"coding":[{"system":"http://terminology.hl7.org/CodeSystem/measure-population","code":"numerator","display":"Numerator"}]},"count":1}]}]},"request":{"method":"PUT","url":"MeasureReport/85ac0a93-87d1-4781-8776-cea6b27f0868"}}]}