{"resourceType":"Bundle","id":"tests-55e09746-2203-47d9-89d0-e96f71300720-bundle","type":"transaction","entry":[{"fullUrl":"https://madie.cms.gov/Patient/55e09746-2203-47d9-89d0-e96f71300720","resource":{"resourceType":"Patient","id":"55e09746-2203-47d9-89d0-e96f71300720","meta":{"profile":["http://hl7.org/fhir/us/qicore/StructureDefinition/qicore-patient"]},"extension":[{"url":"http://hl7.org/fhir/us/core/StructureDefinition/us-core-race","extension":[{"url":"ombCategory","valueCoding":{"system":"urn:oid:2.16.840.1.113883.6.238","code":"2028-9","display":"Asian"}},{"url":"text","valueString":"Asian"}]},{"url":"http://hl7.org/fhir/us/core/StructureDefinition/us-core-ethnicity","extension":[{"url":"ombCategory","valueCoding":{"system":"urn:oid:2.16.840.1.113883.6.238","code":"2135-2","display":"Hispanic or Latino"}},{"url":"text","valueString":"Hispanic or Latino"}]}],"identifier":[{"system":"http://hospital.smarthealthit.org","value":"999999995"}],"name":[{"family":"Bertha","given":["Betty"]}],"gender":"female","birthDate":"2007-01-01"},"request":{"method":"PUT","url":"Patient/55e09746-2203-47d9-89d0-e96f71300720"}},{"fullUrl":"https://madie.cms.gov/Encounter/Encounter-15","resource":{"resourceType":"Encounter","id":"5716392c-2623-4365-92cd-1b683354a988","meta":{"profile":["http://hl7.org/fhir/us/qicore/StructureDefinition/qicore-encounter"]},"status":"finished","class":{"system":"http://terminology.hl7.org/CodeSystem/v3-ActCode","code":"AMB","display":"ambulatory"},"type":[{"coding":[{"system":"http://snomed.info/sct","code":"185317003","display":"Telephone encounter (procedure)"}]}],"subject":{"reference":"Patient/55e09746-2203-47d9-89d0-e96f71300720"},"period":{"start":"2025-01-01T01:00:00.000Z","end":"2025-01-01T01:15:00.000Z"}},"request":{"method":"PUT","url":"Encounter/5716392c-2623-4365-92cd-1b683354a988"}},{"fullUrl":"https://madie.cms.gov/Encounter/Encounter-16","resource":{"resourceType":"Encounter","id":"41d8c6d2-b270-4ee8-be00-442c091ac7b8","meta":{"profile":["http://hl7.org/fhir/us/qicore/StructureDefinition/qicore-encounter"]},"status":"finished","class":{"system":"http://terminology.hl7.org/CodeSystem/v3-ActCode","code":"AMB","display":"ambulatory"},"type":[{"coding":[{"system":"http://snomed.info/sct","code":"185317003","display":"Telephone encounter (procedure)"}]}],"subject":{"reference":"Patient/55e09746-2203-47d9-89d0-e96f71300720"},"period":{"start":"2025-01-02T01:00:00.000Z","end":"2025-01-02T01:15:00.000Z"}},"request":{"method":"PUT","url":"Encounter/41d8c6d2-b270-4ee8-be00-442c091ac7b8"}},{"fullUrl":"https://madie.cms.gov/Condition/Condition-7","resource":{"resourceType":"Condition","id":"01865c83-f16f-423d-bc00-2811e4a03c63","meta":{"profile":["http://hl7.org/fhir/us/qicore/StructureDefinition/qicore-condition"]},"clinicalStatus":{"coding":[{"system":"http://terminology.hl7.org/CodeSystem/condition-clinical","code":"active"}]},"category":[{"coding":[{"system":"http://terminology.hl7.org/CodeSystem/condition-category","code":"problem-list-item","display":"Problem List Item"}]}],"code":{"coding":[{"system":"http://snomed.info/sct","code":"10091002","display":"High output heart failure (disorder)"}]},"subject":{"reference":"Patient/55e09746-2203-47d9-89d0-e96f71300720"},"onsetDateTime":"2024-12-31T23:59:00.000Z"},"request":{"method":"PUT","url":"Condition/01865c83-f16f-423d-bc00-2811e4a03c63"}},{"fullUrl":"https://madie.cms.gov/Observation/Observation-9","resource":{"resourceType":"Observation","id":"a59690a4-d957-414c-b6d1-fc59c8b95e35","meta":{"profile":["http://hl7.org/fhir/us/qicore/StructureDefinition/qicore-observation"]},"status":"final","category":[{"coding":[{"system":"http://terminology.hl7.org/CodeSystem/observation-category","code":"survey","display":"survey"}],"text":"survey"}],"code":{"coding":[{"system":"http://loinc.org","code":"71955-9","display":"PROMIS-29 Sleep disturbance score T-score"}]},"subject":{"reference":"Patient/55e09746-2203-47d9-89d0-e96f71300720"},"effectivePeriod":{"start":"2025-01-01T23:00:00.000Z","end":"2025-01-01T23:59:00.000Z"},"valueInteger":1},"request":{"method":"PUT","url":"Observation/a59690a4-d957-414c-b6d1-fc59c8b95e35"}},{"fullUrl":"https://madie.cms.gov/Observation/Observation-10","resource":{"resourceType":"Observation","id":"9757ddf0-212e-4820-b584-724bbcdf0ac4","meta":{"profile":["http://hl7.org/fhir/us/qicore/StructureDefinition/qicore-observation"]},"status":"final","category":[{"coding":[{"system":"http://terminology.hl7.org/CodeSystem/observation-category","code":"survey","display":"survey"}],"text":"survey"}],"code":{"coding":[{"system":"http://loinc.org","code":"71957-5","display":"PROMIS-29 Satisfaction with participation in social roles score T-score"}]},"subject":{"reference":"Patient/55e09746-2203-47d9-89d0-e96f71300720"},"effectivePeriod":{"start":"2025-01-01T23:00:00.000Z","end":"2025-01-01T23:59:00.000Z"},"valueInteger":2},"request":{"method":"PUT","url":"Observation/9757ddf0-212e-4820-b584-724bbcdf0ac4"}},{"fullUrl":"https://madie.cms.gov/Observation/Observation-11","resource":{"resourceType":"Observation","id":"b8ed2940-0061-473c-b449-edebf215d90d","meta":{"profile":["http://hl7.org/fhir/us/qicore/StructureDefinition/qicore-observation"]},"status":"final","category":[{"coding":[{"system":"http://terminology.hl7.org/CodeSystem/observation-category","code":"survey","display":"survey"}],"text":"survey"}],"code":{"coding":[{"system":"http://loinc.org","code":"71955-9","display":"PROMIS-29 Sleep disturbance score T-score"}]},"subject":{"reference":"Patient/55e09746-2203-47d9-89d0-e96f71300720"},"effectivePeriod":{"start":"2025-01-31T23:00:00.000Z","end":"2025-01-31T23:59:00.000Z"},"valueInteger":3},"request":{"method":"PUT","url":"Observation/b8ed2940-0061-473c-b449-edebf215d90d"}},{"fullUrl":"https://madie.cms.gov/Observation/Observation-12","resource":{"resourceType":"Observation","id":"86f51ed4-183e-41d1-ae15-2d7bfc052ae2","meta":{"profile":["http://hl7.org/fhir/us/qicore/StructureDefinition/qicore-observation"]},"status":"final","category":[{"coding":[{"system":"http://terminology.hl7.org/CodeSystem/observation-category","code":"survey","display":"survey"}],"text":"survey"}],"code":{"coding":[{"system":"http://loinc.org","code":"71957-5","display":"PROMIS-29 Satisfaction with participation in social roles score T-score"}]},"subject":{"reference":"Patient/55e09746-2203-47d9-89d0-e96f71300720"},"effectivePeriod":{"start":"2025-01-31T23:00:00.000Z","end":"2025-01-31T23:59:00.000Z"},"valueInteger":4},"request":{"method":"PUT","url":"Observation/86f51ed4-183e-41d1-ae15-2d7bfc052ae2"}},{"fullUrl":"https://madie.cms.gov/Observation/Observation-13","resource":{"resourceType":"Observation","id":"8a174c57-806e-4593-b57c-db99225ea98a","meta":{"profile":["http://hl7.org/fhir/us/qicore/StructureDefinition/qicore-observation"]},"status":"final","category":[{"coding":[{"system":"http://terminology.hl7.org/CodeSystem/observation-category","code":"survey","display":"survey"}],"text":"survey"}],"code":{"coding":[{"system":"http://loinc.org","code":"71959-1","display":"PROMIS-29 Physical function score T-score"}]},"subject":{"reference":"Patient/55e09746-2203-47d9-89d0-e96f71300720"},"effectivePeriod":{"start":"2025-01-01T23:00:00.000Z","end":"2025-01-01T23:59:00.000Z"},"valueInteger":4},"request":{"method":"PUT","url":"Observation/8a174c57-806e-4593-b57c-db99225ea98a"}},{"fullUrl":"https://madie.cms.gov/Observation/Observation-14","resource":{"resourceType":"Observation","id":"97c674a4-e428-4378-8b5f-d6b92faf10ba","meta":{"profile":["http://hl7.org/fhir/us/qicore/StructureDefinition/qicore-observation"]},"status":"final","category":[{"coding":[{"system":"http://terminology.hl7.org/CodeSystem/observation-category","code":"survey","display":"survey"}],"text":"survey"}],"code":{"coding":[{"system":"http://loinc.org","code":"71959-1","display":"PROMIS-29 Physical function score T-score"}]},"subject":{"reference":"Patient/55e09746-2203-47d9-89d0-e96f71300720"},"effectivePeriod":{"start":"2025-01-31T23:00:00.000Z","end":"2025-01-31T23:59:00.000Z"},"valueInteger":4},"request":{"method":"PUT","url":"Observation/97c674a4-e428-4378-8b5f-d6b92faf10ba"}},{"fullUrl":"https://madie.cms.gov/Observation/Observation-15","resource":{"resourceType":"Observation","id":"025daf36-6592-4170-af64-65673fb1c7bb","meta":{"profile":["http://hl7.org/fhir/us/qicore/StructureDefinition/qicore-observation"]},"status":"final","category":[{"coding":[{"system":"http://terminology.hl7.org/CodeSystem/observation-category","code":"survey","display":"survey"}],"text":"survey"}],"code":{"coding":[{"system":"http://loinc.org","code":"71961-7","display":"PROMIS-29 Pain interference score T-score"}]},"subject":{"reference":"Patient/55e09746-2203-47d9-89d0-e96f71300720"},"effectivePeriod":{"start":"2025-01-01T23:00:00.000Z","end":"2025-01-01T23:59:00.000Z"},"valueInteger":4},"request":{"method":"PUT","url":"Observation/025daf36-6592-4170-af64-65673fb1c7bb"}},{"fullUrl":"https://madie.cms.gov/Observation/Observation-16","resource":{"resourceType":"Observation","id":"0b708fd1-85ba-40c5-99e3-a17ee776feea","meta":{"profile":["http://hl7.org/fhir/us/qicore/StructureDefinition/qicore-observation"]},"status":"final","category":[{"coding":[{"system":"http://terminology.hl7.org/CodeSystem/observation-category","code":"survey","display":"survey"}],"text":"survey"}],"code":{"coding":[{"system":"http://loinc.org","code":"71961-7","display":"PROMIS-29 Pain interference score T-score"}]},"subject":{"reference":"Patient/55e09746-2203-47d9-89d0-e96f71300720"},"effectivePeriod":{"start":"2025-01-31T23:00:00.000Z","end":"2025-01-31T23:59:00.000Z"},"valueInteger":4},"request":{"method":"PUT","url":"Observation/0b708fd1-85ba-40c5-99e3-a17ee776feea"}},{"fullUrl":"https://madie.cms.gov/Observation/Observation-17","resource":{"resourceType":"Observation","id":"dda7140c-d32e-472c-83c1-c5e687daf928","meta":{"profile":["http://hl7.org/fhir/us/qicore/StructureDefinition/qicore-observation"]},"status":"final","category":[{"coding":[{"system":"http://terminology.hl7.org/CodeSystem/observation-category","code":"survey","display":"survey"}],"text":"survey"}],"code":{"coding":[{"system":"http://loinc.org","code":"71963-3","display":"PROMIS-29 Fatigue score T-score"}]},"subject":{"reference":"Patient/55e09746-2203-47d9-89d0-e96f71300720"},"effectivePeriod":{"start":"2025-01-01T23:00:00.000Z","end":"2025-01-01T23:59:00.000Z"},"valueInteger":4},"request":{"method":"PUT","url":"Observation/dda7140c-d32e-472c-83c1-c5e687daf928"}},{"fullUrl":"https://madie.cms.gov/Observation/Observation-18","resource":{"resourceType":"Observation","id":"6094ef7c-5716-4568-b1d4-9ee31a5cd3e2","meta":{"profile":["http://hl7.org/fhir/us/qicore/StructureDefinition/qicore-observation"]},"status":"final","category":[{"coding":[{"system":"http://terminology.hl7.org/CodeSystem/observation-category","code":"survey","display":"survey"}],"text":"survey"}],"code":{"coding":[{"system":"http://loinc.org","code":"71963-3","display":"PROMIS-29 Fatigue score T-score"}]},"subject":{"reference":"Patient/55e09746-2203-47d9-89d0-e96f71300720"},"effectivePeriod":{"start":"2025-01-31T23:00:00.000Z","end":"2025-01-31T23:59:00.000Z"},"valueInteger":4},"request":{"method":"PUT","url":"Observation/6094ef7c-5716-4568-b1d4-9ee31a5cd3e2"}},{"fullUrl":"https://madie.cms.gov/Observation/Observation-19","resource":{"resourceType":"Observation","id":"8125c8b7-63bb-4189-a72c-29993eeddeb9","meta":{"profile":["http://hl7.org/fhir/us/qicore/StructureDefinition/qicore-observation"]},"status":"final","category":[{"coding":[{"system":"http://terminology.hl7.org/CodeSystem/observation-category","code":"survey","display":"survey"}],"text":"survey"}],"code":{"coding":[{"system":"http://loinc.org","code":"71965-8","display":"PROMIS-29 Depression score T-score"}]},"subject":{"reference":"Patient/55e09746-2203-47d9-89d0-e96f71300720"},"effectivePeriod":{"start":"2025-01-01T23:00:00.000Z","end":"2025-01-01T23:59:00.000Z"},"valueInteger":4},"request":{"method":"PUT","url":"Observation/8125c8b7-63bb-4189-a72c-29993eeddeb9"}},{"fullUrl":"https://madie.cms.gov/Observation/Observation-20","resource":{"resourceType":"Observation","id":"bd5a5e7e-1c35-42d1-a50f-1115aee5d491","meta":{"profile":["http://hl7.org/fhir/us/qicore/StructureDefinition/qicore-observation"]},"status":"final","category":[{"coding":[{"system":"http://terminology.hl7.org/CodeSystem/observation-category","code":"survey","display":"survey"}],"text":"survey"}],"code":{"coding":[{"system":"http://loinc.org","code":"71965-8","display":"PROMIS-29 Depression score T-score"}]},"subject":{"reference":"Patient/55e09746-2203-47d9-89d0-e96f71300720"},"effectivePeriod":{"start":"2025-01-31T23:00:00.000Z","end":"2025-01-31T23:59:00.000Z"},"valueInteger":4},"request":{"method":"PUT","url":"Observation/bd5a5e7e-1c35-42d1-a50f-1115aee5d491"}},{"fullUrl":"https://madie.cms.gov/Observation/Observation-21","resource":{"resourceType":"Observation","id":"d962fa05-4470-42aa-af82-b8f1493c5fe3","meta":{"profile":["http://hl7.org/fhir/us/qicore/StructureDefinition/qicore-observation"]},"status":"final","category":[{"coding":[{"system":"http://terminology.hl7.org/CodeSystem/observation-category","code":"survey","display":"survey"}],"text":"survey"}],"code":{"coding":[{"system":"http://loinc.org","code":"71967-4","display":"PROMIS-29 Anxiety score T-score"}]},"subject":{"reference":"Patient/55e09746-2203-47d9-89d0-e96f71300720"},"effectivePeriod":{"start":"2025-01-01T23:00:00.000Z","end":"2025-01-01T23:59:00.000Z"},"valueInteger":4},"request":{"method":"PUT","url":"Observation/d962fa05-4470-42aa-af82-b8f1493c5fe3"}},{"fullUrl":"https://madie.cms.gov/Observation/Observation-22","resource":{"resourceType":"Observation","id":"82eaad18-7f46-419a-9234-1f77368f4162","meta":{"profile":["http://hl7.org/fhir/us/qicore/StructureDefinition/qicore-observation"]},"status":"final","category":[{"coding":[{"system":"http://terminology.hl7.org/CodeSystem/observation-category","code":"survey","display":"survey"}],"text":"survey"}],"code":{"coding":[{"system":"http://loinc.org","code":"71967-4","display":"PROMIS-29 Anxiety score T-score"}]},"subject":{"reference":"Patient/55e09746-2203-47d9-89d0-e96f71300720"},"effectivePeriod":{"start":"2025-01-31T23:00:00.000Z","end":"2025-01-31T23:59:00.000Z"},"valueInteger":4},"request":{"method":"PUT","url":"Observation/82eaad18-7f46-419a-9234-1f77368f4162"}},{"fullUrl":"https://madie.cms.gov/MeasureReport/80ffdf0a-b9b5-4f87-92ce-ef75bafd0b54","resource":{"resourceType":"MeasureReport","id":"80ffdf0a-b9b5-4f87-92ce-ef75bafd0b54","meta":{"profile":["http://hl7.org/fhir/us/cqfmeasures/StructureDefinition/test-case-cqfm"]},"contained":[{"resourceType":"Parameters","id":"ba513f49-ae2f-4df0-95eb-d49dec7e5b57-parameters","parameter":[{"name":"subject","valueString":"55e09746-2203-47d9-89d0-e96f71300720"}]}],"extension":[{"url":"http://hl7.org/fhir/us/cqfmeasures/StructureDefinition/cqfm-inputParameters","valueReference":{"reference":"#ba513f49-ae2f-4df0-95eb-d49dec7e5b57-parameters"}},{"url":"http://hl7.org/fhir/us/cqfmeasures/StructureDefinition/cqfm-testCaseDescription","valueMarkdown":"Patient has all PROMIS29 results during the correct timeframe."}],"modifierExtension":[{"url":"http://hl7.org/fhir/us/cqfmeasures/StructureDefinition/cqfm-isTestCase","valueBoolean":true}],"status":"complete","type":"individual","measure":"https://madie.cms.gov/Measure/FunctionalStatusAssessmentsforHeartFailureFHIR","period":{"start":"2025-01-01","end":"2025-12-31"},"group":[{"population":[{"code":{"coding":[{"system":"http://terminology.hl7.org/CodeSystem/measure-population","code":"initial-population","display":"Initial Population"}]},"count":1},{"code":{"coding":[{"system":"http://terminology.hl7.org/CodeSystem/measure-population","code":"denominator","display":"Denominator"}]},"count":1},{"code":{"coding":[{"system":"http://terminology.hl7.org/CodeSystem/measure-population","code":"denominator-exclusion","display":"Denominator Exclusion"}]},"count":0},{"code":{"coding":[{"system":"http://terminology.hl7.org/CodeSystem/measure-population","code":"numerator","display":"Numerator"}]},"count":1}]}]},"request":{"method":"PUT","url":"MeasureReport/80ffdf0a-b9b5-4f87-92ce-ef75bafd0b54"}}]}