{"resourceType":"Bundle","id":"tests-66b81457-e503-497b-b4c6-9d91aaeb57e3-bundle","type":"transaction","entry":[{"fullUrl":"https://madie.cms.gov/Patient/66b81457-e503-497b-b4c6-9d91aaeb57e3","resource":{"resourceType":"Patient","id":"66b81457-e503-497b-b4c6-9d91aaeb57e3","meta":{"profile":["http://hl7.org/fhir/us/qicore/StructureDefinition/qicore-patient"]},"extension":[{"url":"http://hl7.org/fhir/us/core/StructureDefinition/us-core-race","extension":[{"url":"ombCategory","valueCoding":{"system":"urn:oid:2.16.840.1.113883.6.238","code":"2028-9","display":"Asian"}},{"url":"text","valueString":"Asian"}]},{"url":"http://hl7.org/fhir/us/core/StructureDefinition/us-core-ethnicity","extension":[{"url":"ombCategory","valueCoding":{"system":"urn:oid:2.16.840.1.113883.6.238","code":"2135-2","display":"Hispanic or Latino"}},{"url":"text","valueString":"Hispanic or Latino"}]}],"identifier":[{"system":"http://hospital.smarthealthit.org","value":"999999995"}],"name":[{"family":"Bertha","given":["Betty"]}],"gender":"female","birthDate":"2007-01-01"},"request":{"method":"PUT","url":"Patient/66b81457-e503-497b-b4c6-9d91aaeb57e3"}},{"fullUrl":"https://madie.cms.gov/Encounter/Encounter-13","resource":{"resourceType":"Encounter","id":"e5bea021-7c67-428b-b9f3-292a0ac54420","meta":{"profile":["http://hl7.org/fhir/us/qicore/StructureDefinition/qicore-encounter"]},"status":"finished","class":{"system":"http://terminology.hl7.org/CodeSystem/v3-ActCode","code":"AMB","display":"ambulatory"},"type":[{"coding":[{"system":"http://snomed.info/sct","code":"185317003","display":"Telephone encounter (procedure)"}]}],"subject":{"reference":"Patient/66b81457-e503-497b-b4c6-9d91aaeb57e3"},"period":{"start":"2025-01-01T01:00:00.000Z","end":"2025-01-01T01:15:00.000Z"}},"request":{"method":"PUT","url":"Encounter/e5bea021-7c67-428b-b9f3-292a0ac54420"}},{"fullUrl":"https://madie.cms.gov/Encounter/Encounter-14","resource":{"resourceType":"Encounter","id":"a2621ac0-4226-4ecf-a3b9-d3226000c693","meta":{"profile":["http://hl7.org/fhir/us/qicore/StructureDefinition/qicore-encounter"]},"status":"finished","class":{"system":"http://terminology.hl7.org/CodeSystem/v3-ActCode","code":"AMB","display":"ambulatory"},"type":[{"coding":[{"system":"http://snomed.info/sct","code":"185317003","display":"Telephone encounter (procedure)"}]}],"subject":{"reference":"Patient/66b81457-e503-497b-b4c6-9d91aaeb57e3"},"period":{"start":"2025-01-02T01:00:00.000Z","end":"2025-01-02T01:15:00.000Z"}},"request":{"method":"PUT","url":"Encounter/a2621ac0-4226-4ecf-a3b9-d3226000c693"}},{"fullUrl":"https://madie.cms.gov/Condition/Condition-6","resource":{"resourceType":"Condition","id":"fb915647-47e2-4096-a10c-1d867ac0836e","meta":{"profile":["http://hl7.org/fhir/us/qicore/StructureDefinition/qicore-condition"]},"clinicalStatus":{"coding":[{"system":"http://terminology.hl7.org/CodeSystem/condition-clinical","code":"active"}]},"category":[{"coding":[{"system":"http://terminology.hl7.org/CodeSystem/condition-category","code":"problem-list-item","display":"Problem List Item"}]}],"code":{"coding":[{"system":"http://snomed.info/sct","code":"10091002","display":"High output heart failure (disorder)"}]},"subject":{"reference":"Patient/66b81457-e503-497b-b4c6-9d91aaeb57e3"},"onsetDateTime":"2024-12-31T23:59:00.000Z"},"request":{"method":"PUT","url":"Condition/fb915647-47e2-4096-a10c-1d867ac0836e"}},{"fullUrl":"https://madie.cms.gov/Observation/Observation-5","resource":{"resourceType":"Observation","id":"5214724b-34c4-4bc3-82d2-c066b08526ef","meta":{"profile":["http://hl7.org/fhir/us/qicore/StructureDefinition/qicore-observation"]},"status":"final","category":[{"coding":[{"system":"http://terminology.hl7.org/CodeSystem/observation-category","code":"survey","display":"survey"}],"text":"survey"}],"code":{"coding":[{"system":"http://loinc.org","code":"71969-0","display":"PROMIS-10 Global Mental Health (GMH) score T-score"}]},"subject":{"reference":"Patient/66b81457-e503-497b-b4c6-9d91aaeb57e3"},"effectivePeriod":{"start":"2025-01-01T23:00:00.000Z","end":"2025-01-01T23:59:00.000Z"},"valueInteger":1},"request":{"method":"PUT","url":"Observation/5214724b-34c4-4bc3-82d2-c066b08526ef"}},{"fullUrl":"https://madie.cms.gov/Observation/Observation-6","resource":{"resourceType":"Observation","id":"2ff67a18-c15f-4566-9b1b-a09de201c72b","meta":{"profile":["http://hl7.org/fhir/us/qicore/StructureDefinition/qicore-observation"]},"status":"final","category":[{"coding":[{"system":"http://terminology.hl7.org/CodeSystem/observation-category","code":"survey","display":"survey"}],"text":"survey"}],"code":{"coding":[{"system":"http://loinc.org","code":"71971-6","display":"PROMIS-10 Global Physical Health (GPH) score T-score"}]},"subject":{"reference":"Patient/66b81457-e503-497b-b4c6-9d91aaeb57e3"},"effectivePeriod":{"start":"2025-01-01T23:00:00.000Z","end":"2025-01-01T23:59:00.000Z"},"valueInteger":2},"request":{"method":"PUT","url":"Observation/2ff67a18-c15f-4566-9b1b-a09de201c72b"}},{"fullUrl":"https://madie.cms.gov/Observation/Observation-7","resource":{"resourceType":"Observation","id":"e9f47940-d8ef-4dab-b486-010280ca5a39","meta":{"profile":["http://hl7.org/fhir/us/qicore/StructureDefinition/qicore-observation"]},"status":"final","category":[{"coding":[{"system":"http://terminology.hl7.org/CodeSystem/observation-category","code":"survey","display":"survey"}],"text":"survey"}],"code":{"coding":[{"system":"http://loinc.org","code":"71969-0","display":"PROMIS-10 Global Mental Health (GMH) score T-score"}]},"subject":{"reference":"Patient/66b81457-e503-497b-b4c6-9d91aaeb57e3"},"effectivePeriod":{"start":"2025-01-31T23:00:00.000Z","end":"2025-01-31T23:59:00.000Z"},"valueInteger":3},"request":{"method":"PUT","url":"Observation/e9f47940-d8ef-4dab-b486-010280ca5a39"}},{"fullUrl":"https://madie.cms.gov/Observation/Observation-8","resource":{"resourceType":"Observation","id":"5553b194-255e-4c38-8927-40d760567e86","meta":{"profile":["http://hl7.org/fhir/us/qicore/StructureDefinition/qicore-observation"]},"status":"final","category":[{"coding":[{"system":"http://terminology.hl7.org/CodeSystem/observation-category","code":"survey","display":"survey"}],"text":"survey"}],"code":{"coding":[{"system":"http://loinc.org","code":"71971-6","display":"PROMIS-10 Global Physical Health (GPH) score T-score"}]},"subject":{"reference":"Patient/66b81457-e503-497b-b4c6-9d91aaeb57e3"},"effectivePeriod":{"start":"2025-01-31T23:00:00.000Z","end":"2025-01-31T23:59:00.000Z"},"valueInteger":4},"request":{"method":"PUT","url":"Observation/5553b194-255e-4c38-8927-40d760567e86"}},{"fullUrl":"https://madie.cms.gov/MeasureReport/67d6cf92-bccf-4713-bd1a-1031553f8db7","resource":{"resourceType":"MeasureReport","id":"67d6cf92-bccf-4713-bd1a-1031553f8db7","meta":{"profile":["http://hl7.org/fhir/us/cqfmeasures/StructureDefinition/test-case-cqfm"]},"contained":[{"resourceType":"Parameters","id":"bdeba5a1-65be-44b3-bdb3-975099a3c73e-parameters","parameter":[{"name":"subject","valueString":"66b81457-e503-497b-b4c6-9d91aaeb57e3"}]}],"extension":[{"url":"http://hl7.org/fhir/us/cqfmeasures/StructureDefinition/cqfm-inputParameters","valueReference":{"reference":"#bdeba5a1-65be-44b3-bdb3-975099a3c73e-parameters"}},{"url":"http://hl7.org/fhir/us/cqfmeasures/StructureDefinition/cqfm-testCaseDescription","valueMarkdown":"Two PROMIS 10 with results during correct timeframe"}],"modifierExtension":[{"url":"http://hl7.org/fhir/us/cqfmeasures/StructureDefinition/cqfm-isTestCase","valueBoolean":true}],"status":"complete","type":"individual","measure":"https://madie.cms.gov/Measure/FunctionalStatusAssessmentsforHeartFailureFHIR","period":{"start":"2025-01-01","end":"2025-12-31"},"group":[{"population":[{"code":{"coding":[{"system":"http://terminology.hl7.org/CodeSystem/measure-population","code":"initial-population","display":"Initial Population"}]},"count":1},{"code":{"coding":[{"system":"http://terminology.hl7.org/CodeSystem/measure-population","code":"denominator","display":"Denominator"}]},"count":1},{"code":{"coding":[{"system":"http://terminology.hl7.org/CodeSystem/measure-population","code":"denominator-exclusion","display":"Denominator Exclusion"}]},"count":0},{"code":{"coding":[{"system":"http://terminology.hl7.org/CodeSystem/measure-population","code":"numerator","display":"Numerator"}]},"count":1}]}]},"request":{"method":"PUT","url":"MeasureReport/67d6cf92-bccf-4713-bd1a-1031553f8db7"}}]}