{"resourceType":"Bundle","id":"tests-c7dc3ea8-f482-4096-8651-f2483e170c84-bundle","type":"transaction","entry":[{"fullUrl":"https://madie.cms.gov/Patient/c7dc3ea8-f482-4096-8651-f2483e170c84","resource":{"resourceType":"Patient","id":"c7dc3ea8-f482-4096-8651-f2483e170c84","meta":{"profile":["http://hl7.org/fhir/us/qicore/StructureDefinition/qicore-patient"]},"extension":[{"url":"http://hl7.org/fhir/us/core/StructureDefinition/us-core-race","extension":[{"url":"ombCategory","valueCoding":{"system":"urn:oid:2.16.840.1.113883.6.238","code":"2028-9","display":"Asian"}},{"url":"text","valueString":"Asian"}]},{"url":"http://hl7.org/fhir/us/core/StructureDefinition/us-core-ethnicity","extension":[{"url":"ombCategory","valueCoding":{"system":"urn:oid:2.16.840.1.113883.6.238","code":"2135-2","display":"Hispanic or Latino"}},{"url":"text","valueString":"Hispanic or Latino"}]}],"identifier":[{"system":"http://hospital.smarthealthit.org","value":"999999995"}],"name":[{"family":"Bertha","given":["Betty"]}],"gender":"female","birthDate":"2007-01-01"},"request":{"method":"PUT","url":"Patient/c7dc3ea8-f482-4096-8651-f2483e170c84"}},{"fullUrl":"https://madie.cms.gov/Encounter/Encounter-30","resource":{"resourceType":"Encounter","id":"970400ce-de7a-4df8-b99f-9c944cad4629","meta":{"profile":["http://hl7.org/fhir/us/qicore/StructureDefinition/qicore-encounter"]},"status":"finished","class":{"system":"http://terminology.hl7.org/CodeSystem/v3-ActCode","code":"AMB","display":"ambulatory"},"type":[{"coding":[{"system":"http://snomed.info/sct","code":"185317003","display":"Telephone encounter (procedure)"}]}],"subject":{"reference":"Patient/c7dc3ea8-f482-4096-8651-f2483e170c84"},"period":{"start":"2025-01-01T01:00:00.000Z","end":"2025-01-01T01:15:00.000Z"}},"request":{"method":"PUT","url":"Encounter/970400ce-de7a-4df8-b99f-9c944cad4629"}},{"fullUrl":"https://madie.cms.gov/Encounter/Encounter-31","resource":{"resourceType":"Encounter","id":"d556e7ce-69ab-497c-9bb0-800989b49f51","meta":{"profile":["http://hl7.org/fhir/us/qicore/StructureDefinition/qicore-encounter"]},"status":"finished","class":{"system":"http://terminology.hl7.org/CodeSystem/v3-ActCode","code":"AMB","display":"ambulatory"},"type":[{"coding":[{"system":"http://snomed.info/sct","code":"185317003","display":"Telephone encounter (procedure)"}]}],"subject":{"reference":"Patient/c7dc3ea8-f482-4096-8651-f2483e170c84"},"period":{"start":"2025-01-02T01:00:00.000Z","end":"2025-01-02T01:15:00.000Z"}},"request":{"method":"PUT","url":"Encounter/d556e7ce-69ab-497c-9bb0-800989b49f51"}},{"fullUrl":"https://madie.cms.gov/Condition/Condition-15","resource":{"resourceType":"Condition","id":"f400511e-81f5-4411-94a8-c39b97f195e7","meta":{"profile":["http://hl7.org/fhir/us/qicore/StructureDefinition/qicore-condition"]},"clinicalStatus":{"coding":[{"system":"http://terminology.hl7.org/CodeSystem/condition-clinical","code":"active"}]},"category":[{"coding":[{"system":"http://terminology.hl7.org/CodeSystem/condition-category","code":"problem-list-item","display":"Problem List Item"}]}],"code":{"coding":[{"system":"http://snomed.info/sct","code":"10091002","display":"High output heart failure (disorder)"}]},"subject":{"reference":"Patient/c7dc3ea8-f482-4096-8651-f2483e170c84"},"onsetDateTime":"2024-12-31T23:59:00.000Z"},"request":{"method":"PUT","url":"Condition/f400511e-81f5-4411-94a8-c39b97f195e7"}},{"fullUrl":"https://madie.cms.gov/Observation/Observation-46","resource":{"resourceType":"Observation","id":"583bcfeb-23e1-43fd-9932-f4e863c0face","meta":{"profile":["http://hl7.org/fhir/us/qicore/StructureDefinition/qicore-observation"]},"status":"final","category":[{"coding":[{"system":"http://terminology.hl7.org/CodeSystem/observation-category","code":"survey","display":"survey"}],"text":"survey"}],"code":{"coding":[{"system":"http://loinc.org","code":"72008-6","display":"VR-36 Mental component summary (MCS) score - orthogonal method T-score"}]},"subject":{"reference":"Patient/c7dc3ea8-f482-4096-8651-f2483e170c84"},"effectivePeriod":{"start":"2025-01-01T23:00:00.000Z","end":"2025-01-01T23:59:00.000Z"},"valueInteger":4},"request":{"method":"PUT","url":"Observation/583bcfeb-23e1-43fd-9932-f4e863c0face"}},{"fullUrl":"https://madie.cms.gov/Observation/Observation-47","resource":{"resourceType":"Observation","id":"ac6b59cf-c5ac-45b2-841c-d52ad0af3397","meta":{"profile":["http://hl7.org/fhir/us/qicore/StructureDefinition/qicore-observation"]},"status":"final","category":[{"coding":[{"system":"http://terminology.hl7.org/CodeSystem/observation-category","code":"survey","display":"survey"}],"text":"survey"}],"code":{"coding":[{"system":"http://loinc.org","code":"72008-6","display":"VR-36 Mental component summary (MCS) score - orthogonal method T-score"}]},"subject":{"reference":"Patient/c7dc3ea8-f482-4096-8651-f2483e170c84"},"effectivePeriod":{"start":"2025-01-31T23:00:00.000Z","end":"2025-01-31T23:59:00.000Z"},"valueInteger":4},"request":{"method":"PUT","url":"Observation/ac6b59cf-c5ac-45b2-841c-d52ad0af3397"}},{"fullUrl":"https://madie.cms.gov/Observation/Observation-48","resource":{"resourceType":"Observation","id":"9467516a-2f64-4f13-a517-b5367a042221","meta":{"profile":["http://hl7.org/fhir/us/qicore/StructureDefinition/qicore-observation"]},"status":"final","category":[{"coding":[{"system":"http://terminology.hl7.org/CodeSystem/observation-category","code":"survey","display":"survey"}],"text":"survey"}],"code":{"coding":[{"system":"http://loinc.org","code":"72007-8","display":"VR-36 Physical component summary (PCS) score - orthogonal method T-score"}]},"subject":{"reference":"Patient/c7dc3ea8-f482-4096-8651-f2483e170c84"},"effectivePeriod":{"start":"2025-01-01T23:00:00.000Z","end":"2025-01-01T23:59:00.000Z"},"valueInteger":4},"request":{"method":"PUT","url":"Observation/9467516a-2f64-4f13-a517-b5367a042221"}},{"fullUrl":"https://madie.cms.gov/Observation/Observation-49","resource":{"resourceType":"Observation","id":"12c1bb12-eed9-478f-8fa7-02f40bf4aae5","meta":{"profile":["http://hl7.org/fhir/us/qicore/StructureDefinition/qicore-observation"]},"status":"final","category":[{"coding":[{"system":"http://terminology.hl7.org/CodeSystem/observation-category","code":"survey","display":"survey"}],"text":"survey"}],"code":{"coding":[{"system":"http://loinc.org","code":"72007-8","display":"VR-36 Physical component summary (PCS) score - orthogonal method T-score"}]},"subject":{"reference":"Patient/c7dc3ea8-f482-4096-8651-f2483e170c84"},"effectivePeriod":{"start":"2025-01-31T23:00:00.000Z","end":"2025-01-31T23:59:00.000Z"}},"request":{"method":"PUT","url":"Observation/12c1bb12-eed9-478f-8fa7-02f40bf4aae5"}},{"fullUrl":"https://madie.cms.gov/MeasureReport/290c688b-ee24-4107-9595-50b50ff05af8","resource":{"resourceType":"MeasureReport","id":"290c688b-ee24-4107-9595-50b50ff05af8","meta":{"profile":["http://hl7.org/fhir/us/cqfmeasures/StructureDefinition/test-case-cqfm"]},"contained":[{"resourceType":"Parameters","id":"70ad62de-7107-41af-8bb8-5b281d87b80d-parameters","parameter":[{"name":"subject","valueString":"c7dc3ea8-f482-4096-8651-f2483e170c84"}]}],"extension":[{"url":"http://hl7.org/fhir/us/cqfmeasures/StructureDefinition/cqfm-inputParameters","valueReference":{"reference":"#70ad62de-7107-41af-8bb8-5b281d87b80d-parameters"}},{"url":"http://hl7.org/fhir/us/cqfmeasures/StructureDefinition/cqfm-testCaseDescription","valueMarkdown":"Patient has all VR36 Orthogonal Assessments during the correct timeframe but one FSA is missing a result."}],"modifierExtension":[{"url":"http://hl7.org/fhir/us/cqfmeasures/StructureDefinition/cqfm-isTestCase","valueBoolean":true}],"status":"complete","type":"individual","measure":"https://madie.cms.gov/Measure/FunctionalStatusAssessmentsforHeartFailureFHIR","period":{"start":"2025-01-01","end":"2025-12-31"},"group":[{"population":[{"code":{"coding":[{"system":"http://terminology.hl7.org/CodeSystem/measure-population","code":"initial-population","display":"Initial Population"}]},"count":1},{"code":{"coding":[{"system":"http://terminology.hl7.org/CodeSystem/measure-population","code":"denominator","display":"Denominator"}]},"count":1},{"code":{"coding":[{"system":"http://terminology.hl7.org/CodeSystem/measure-population","code":"denominator-exclusion","display":"Denominator Exclusion"}]},"count":0},{"code":{"coding":[{"system":"http://terminology.hl7.org/CodeSystem/measure-population","code":"numerator","display":"Numerator"}]},"count":0}]}]},"request":{"method":"PUT","url":"MeasureReport/290c688b-ee24-4107-9595-50b50ff05af8"}}]}