{"resourceType":"Bundle","id":"tests-1df58f4a-37fb-46e6-b20d-fc4a8b57d77e-bundle","type":"transaction","entry":[{"fullUrl":"https://madie.cms.gov/Patient/1df58f4a-37fb-46e6-b20d-fc4a8b57d77e","resource":{"resourceType":"Patient","id":"1df58f4a-37fb-46e6-b20d-fc4a8b57d77e","meta":{"profile":["http://hl7.org/fhir/us/qicore/StructureDefinition/qicore-patient"]},"extension":[{"url":"http://hl7.org/fhir/us/core/StructureDefinition/us-core-race","extension":[{"url":"ombCategory","valueCoding":{"system":"urn:oid:2.16.840.1.113883.6.238","code":"2028-9","display":"Asian"}},{"url":"text","valueString":"Asian"}]},{"url":"http://hl7.org/fhir/us/core/StructureDefinition/us-core-ethnicity","extension":[{"url":"ombCategory","valueCoding":{"system":"urn:oid:2.16.840.1.113883.6.238","code":"2135-2","display":"Hispanic or Latino"}},{"url":"text","valueString":"Hispanic or Latino"}]}],"identifier":[{"system":"http://hospital.smarthealthit.org","value":"999999995"}],"name":[{"family":"Bertha","given":["Betty"]}],"gender":"female","birthDate":"2007-01-01"},"request":{"method":"PUT","url":"Patient/1df58f4a-37fb-46e6-b20d-fc4a8b57d77e"}},{"fullUrl":"https://madie.cms.gov/Encounter/Encounter-47","resource":{"resourceType":"Encounter","id":"f1a70361-4a6d-4c18-be5f-eafc636b3ec3","meta":{"profile":["http://hl7.org/fhir/us/qicore/StructureDefinition/qicore-encounter"]},"status":"finished","class":{"system":"http://terminology.hl7.org/CodeSystem/v3-ActCode","code":"AMB","display":"ambulatory"},"type":[{"coding":[{"system":"http://snomed.info/sct","code":"185317003","display":"Telephone encounter (procedure)"}]}],"subject":{"reference":"Patient/1df58f4a-37fb-46e6-b20d-fc4a8b57d77e"},"period":{"start":"2025-01-01T01:00:00.000Z","end":"2025-01-01T01:15:00.000Z"}},"request":{"method":"PUT","url":"Encounter/f1a70361-4a6d-4c18-be5f-eafc636b3ec3"}},{"fullUrl":"https://madie.cms.gov/Encounter/Encounter-48","resource":{"resourceType":"Encounter","id":"9d03549b-8c1b-46ff-b6a7-ab1cc0fcc37b","meta":{"profile":["http://hl7.org/fhir/us/qicore/StructureDefinition/qicore-encounter"]},"status":"finished","class":{"system":"http://terminology.hl7.org/CodeSystem/v3-ActCode","code":"AMB","display":"ambulatory"},"type":[{"coding":[{"system":"http://snomed.info/sct","code":"185317003","display":"Telephone encounter (procedure)"}]}],"subject":{"reference":"Patient/1df58f4a-37fb-46e6-b20d-fc4a8b57d77e"},"period":{"start":"2025-01-02T01:00:00.000Z","end":"2025-01-02T01:15:00.000Z"}},"request":{"method":"PUT","url":"Encounter/9d03549b-8c1b-46ff-b6a7-ab1cc0fcc37b"}},{"fullUrl":"https://madie.cms.gov/Condition/Condition-21","resource":{"resourceType":"Condition","id":"fb68939a-2375-4521-bec9-757710260461","meta":{"profile":["http://hl7.org/fhir/us/qicore/StructureDefinition/qicore-condition"]},"clinicalStatus":{"coding":[{"system":"http://terminology.hl7.org/CodeSystem/condition-clinical","code":"active"}]},"category":[{"coding":[{"system":"http://terminology.hl7.org/CodeSystem/condition-category","code":"problem-list-item","display":"Problem List Item"}]}],"code":{"coding":[{"system":"http://snomed.info/sct","code":"10091002","display":"High output heart failure (disorder)"}]},"subject":{"reference":"Patient/1df58f4a-37fb-46e6-b20d-fc4a8b57d77e"},"onsetDateTime":"2024-12-31T23:59:00.000Z"},"request":{"method":"PUT","url":"Condition/fb68939a-2375-4521-bec9-757710260461"}},{"fullUrl":"https://madie.cms.gov/Observation/Observation-65","resource":{"resourceType":"Observation","id":"f897a51f-87b0-4351-8bf8-108db9aaf8c9","meta":{"profile":["http://hl7.org/fhir/us/qicore/StructureDefinition/qicore-observation"]},"status":"final","category":[{"coding":[{"system":"http://terminology.hl7.org/CodeSystem/observation-category","code":"survey","display":"survey"}],"text":"survey"}],"code":{"coding":[{"system":"http://loinc.org","code":"72189-4","display":"Quality of life score [KCCQ]"}]},"subject":{"reference":"Patient/1df58f4a-37fb-46e6-b20d-fc4a8b57d77e"},"effectivePeriod":{"start":"2025-01-01T23:00:00.000Z","end":"2025-01-01T23:59:00.000Z"},"valueInteger":4},"request":{"method":"PUT","url":"Observation/f897a51f-87b0-4351-8bf8-108db9aaf8c9"}},{"fullUrl":"https://madie.cms.gov/Observation/Observation-66","resource":{"resourceType":"Observation","id":"3781b527-c02c-4035-9889-d93a3d157a96","meta":{"profile":["http://hl7.org/fhir/us/qicore/StructureDefinition/qicore-observation"]},"status":"final","category":[{"coding":[{"system":"http://terminology.hl7.org/CodeSystem/observation-category","code":"survey","display":"survey"}],"text":"survey"}],"code":{"coding":[{"system":"http://loinc.org","code":"72189-4","display":"Quality of life score [KCCQ]"}]},"subject":{"reference":"Patient/1df58f4a-37fb-46e6-b20d-fc4a8b57d77e"},"effectivePeriod":{"start":"2025-07-03T23:00:00.000Z","end":"2025-07-03T23:59:00.000Z"},"valueInteger":4},"request":{"method":"PUT","url":"Observation/3781b527-c02c-4035-9889-d93a3d157a96"}},{"fullUrl":"https://madie.cms.gov/Observation/Observation-67","resource":{"resourceType":"Observation","id":"26241907-932c-4808-9f4d-5e2500b42aa7","meta":{"profile":["http://hl7.org/fhir/us/qicore/StructureDefinition/qicore-observation"]},"status":"final","category":[{"coding":[{"system":"http://terminology.hl7.org/CodeSystem/observation-category","code":"survey","display":"survey"}],"text":"survey"}],"code":{"coding":[{"system":"http://loinc.org","code":"72194-4","display":"Symptom stability score [KCCQ]"}]},"subject":{"reference":"Patient/1df58f4a-37fb-46e6-b20d-fc4a8b57d77e"},"effectivePeriod":{"start":"2025-01-01T23:00:00.000Z","end":"2025-01-01T23:59:00.000Z"},"valueInteger":4},"request":{"method":"PUT","url":"Observation/26241907-932c-4808-9f4d-5e2500b42aa7"}},{"fullUrl":"https://madie.cms.gov/Observation/Observation-68","resource":{"resourceType":"Observation","id":"77705367-8e4d-48c4-a276-dd23aba7ea2b","meta":{"profile":["http://hl7.org/fhir/us/qicore/StructureDefinition/qicore-observation"]},"status":"final","category":[{"coding":[{"system":"http://terminology.hl7.org/CodeSystem/observation-category","code":"survey","display":"survey"}],"text":"survey"}],"code":{"coding":[{"system":"http://loinc.org","code":"72194-4","display":"Symptom stability score [KCCQ]"}]},"subject":{"reference":"Patient/1df58f4a-37fb-46e6-b20d-fc4a8b57d77e"},"effectivePeriod":{"start":"2025-06-30T23:00:00.000Z","end":"2025-06-30T23:59:00.000Z"},"valueInteger":4},"request":{"method":"PUT","url":"Observation/77705367-8e4d-48c4-a276-dd23aba7ea2b"}},{"fullUrl":"https://madie.cms.gov/Observation/Observation-69","resource":{"resourceType":"Observation","id":"2ef10a86-b0b1-4f88-92cc-76f91a1280f2","meta":{"profile":["http://hl7.org/fhir/us/qicore/StructureDefinition/qicore-observation"]},"status":"final","category":[{"coding":[{"system":"http://terminology.hl7.org/CodeSystem/observation-category","code":"survey","display":"survey"}],"text":"survey"}],"code":{"coding":[{"system":"http://loinc.org","code":"72190-2","display":"Self-efficacy score [KCCQ]"}]},"subject":{"reference":"Patient/1df58f4a-37fb-46e6-b20d-fc4a8b57d77e"},"effectivePeriod":{"start":"2025-01-01T23:00:00.000Z","end":"2025-01-01T23:59:00.000Z"},"valueInteger":4},"request":{"method":"PUT","url":"Observation/2ef10a86-b0b1-4f88-92cc-76f91a1280f2"}},{"fullUrl":"https://madie.cms.gov/Observation/Observation-70","resource":{"resourceType":"Observation","id":"dd989cf4-42e3-4723-817a-5475c8cb2a47","meta":{"profile":["http://hl7.org/fhir/us/qicore/StructureDefinition/qicore-observation"]},"status":"final","category":[{"coding":[{"system":"http://terminology.hl7.org/CodeSystem/observation-category","code":"survey","display":"survey"}],"text":"survey"}],"code":{"coding":[{"system":"http://loinc.org","code":"72190-2","display":"Self-efficacy score [KCCQ]"}]},"subject":{"reference":"Patient/1df58f4a-37fb-46e6-b20d-fc4a8b57d77e"},"effectivePeriod":{"start":"2025-06-30T23:00:00.000Z","end":"2025-06-30T23:59:00.000Z"},"valueInteger":4},"request":{"method":"PUT","url":"Observation/dd989cf4-42e3-4723-817a-5475c8cb2a47"}},{"fullUrl":"https://madie.cms.gov/Observation/Observation-71","resource":{"resourceType":"Observation","id":"de59bb61-eba2-498a-9685-b5a779fcdc00","meta":{"profile":["http://hl7.org/fhir/us/qicore/StructureDefinition/qicore-observation"]},"status":"final","category":[{"coding":[{"system":"http://terminology.hl7.org/CodeSystem/observation-category","code":"survey","display":"survey"}],"text":"survey"}],"code":{"coding":[{"system":"http://loinc.org","code":"72191-0","display":"Total symptom score [KCCQ]"}]},"subject":{"reference":"Patient/1df58f4a-37fb-46e6-b20d-fc4a8b57d77e"},"effectivePeriod":{"start":"2025-01-01T23:00:00.000Z","end":"2025-01-01T23:59:00.000Z"},"valueInteger":4},"request":{"method":"PUT","url":"Observation/de59bb61-eba2-498a-9685-b5a779fcdc00"}},{"fullUrl":"https://madie.cms.gov/Observation/Observation-72","resource":{"resourceType":"Observation","id":"8c1b9f58-50b8-4792-b7d8-8dab2fc7cb3d","meta":{"profile":["http://hl7.org/fhir/us/qicore/StructureDefinition/qicore-observation"]},"status":"final","category":[{"coding":[{"system":"http://terminology.hl7.org/CodeSystem/observation-category","code":"survey","display":"survey"}],"text":"survey"}],"code":{"coding":[{"system":"http://loinc.org","code":"72191-0","display":"Total symptom score [KCCQ]"}]},"subject":{"reference":"Patient/1df58f4a-37fb-46e6-b20d-fc4a8b57d77e"},"effectivePeriod":{"start":"2025-06-30T23:00:00.000Z","end":"2025-06-30T23:59:00.000Z"},"valueInteger":4},"request":{"method":"PUT","url":"Observation/8c1b9f58-50b8-4792-b7d8-8dab2fc7cb3d"}},{"fullUrl":"https://madie.cms.gov/Observation/Observation-73","resource":{"resourceType":"Observation","id":"60384b67-6e28-4f69-b3f2-20452cffdeb3","meta":{"profile":["http://hl7.org/fhir/us/qicore/StructureDefinition/qicore-observation"]},"status":"final","category":[{"coding":[{"system":"http://terminology.hl7.org/CodeSystem/observation-category","code":"survey","display":"survey"}],"text":"survey"}],"code":{"coding":[{"system":"http://loinc.org","code":"72195-1","display":"Physical limitation score [KCCQ]"}]},"subject":{"reference":"Patient/1df58f4a-37fb-46e6-b20d-fc4a8b57d77e"},"effectivePeriod":{"start":"2025-01-01T23:00:00.000Z","end":"2025-01-01T23:59:00.000Z"},"valueInteger":4},"request":{"method":"PUT","url":"Observation/60384b67-6e28-4f69-b3f2-20452cffdeb3"}},{"fullUrl":"https://madie.cms.gov/Observation/Observation-74","resource":{"resourceType":"Observation","id":"3c420bfb-5519-448b-a7e6-3aa7c15a8dc4","meta":{"profile":["http://hl7.org/fhir/us/qicore/StructureDefinition/qicore-observation"]},"status":"final","category":[{"coding":[{"system":"http://terminology.hl7.org/CodeSystem/observation-category","code":"survey","display":"survey"}],"text":"survey"}],"code":{"coding":[{"system":"http://loinc.org","code":"72195-1","display":"Physical limitation score [KCCQ]"}]},"subject":{"reference":"Patient/1df58f4a-37fb-46e6-b20d-fc4a8b57d77e"},"effectivePeriod":{"start":"2025-06-30T23:00:00.000Z","end":"2025-06-30T23:59:00.000Z"},"valueInteger":4},"request":{"method":"PUT","url":"Observation/3c420bfb-5519-448b-a7e6-3aa7c15a8dc4"}},{"fullUrl":"https://madie.cms.gov/Observation/Observation-75","resource":{"resourceType":"Observation","id":"33d0a0dd-7353-4704-8bf2-5f75f9ce8d83","meta":{"profile":["http://hl7.org/fhir/us/qicore/StructureDefinition/qicore-observation"]},"status":"final","category":[{"coding":[{"system":"http://terminology.hl7.org/CodeSystem/observation-category","code":"survey","display":"survey"}],"text":"survey"}],"code":{"coding":[{"system":"http://loinc.org","code":"72196-9","display":"Social limitation score [KCCQ]"}]},"subject":{"reference":"Patient/1df58f4a-37fb-46e6-b20d-fc4a8b57d77e"},"effectivePeriod":{"start":"2025-01-01T23:00:00.000Z","end":"2025-01-01T23:59:00.000Z"},"valueInteger":4},"request":{"method":"PUT","url":"Observation/33d0a0dd-7353-4704-8bf2-5f75f9ce8d83"}},{"fullUrl":"https://madie.cms.gov/Observation/Observation-76","resource":{"resourceType":"Observation","id":"1b08439b-7122-4a51-9549-ca1b1ba97cd4","meta":{"profile":["http://hl7.org/fhir/us/qicore/StructureDefinition/qicore-observation"]},"status":"final","category":[{"coding":[{"system":"http://terminology.hl7.org/CodeSystem/observation-category","code":"survey","display":"survey"}],"text":"survey"}],"code":{"coding":[{"system":"http://loinc.org","code":"72196-9","display":"Social limitation score [KCCQ]"}]},"subject":{"reference":"Patient/1df58f4a-37fb-46e6-b20d-fc4a8b57d77e"},"effectivePeriod":{"start":"2025-06-30T23:00:00.000Z","end":"2025-06-30T23:59:00.000Z"},"valueInteger":4},"request":{"method":"PUT","url":"Observation/1b08439b-7122-4a51-9549-ca1b1ba97cd4"}},{"fullUrl":"https://madie.cms.gov/MeasureReport/7db0611d-1ec7-44fe-8d26-d263b3a62076","resource":{"resourceType":"MeasureReport","id":"7db0611d-1ec7-44fe-8d26-d263b3a62076","meta":{"profile":["http://hl7.org/fhir/us/cqfmeasures/StructureDefinition/test-case-cqfm"]},"contained":[{"resourceType":"Parameters","id":"4dfa22bb-3243-4239-a4b6-a8d6408a7ae7-parameters","parameter":[{"name":"subject","valueString":"1df58f4a-37fb-46e6-b20d-fc4a8b57d77e"}]}],"extension":[{"url":"http://hl7.org/fhir/us/cqfmeasures/StructureDefinition/cqfm-inputParameters","valueReference":{"reference":"#4dfa22bb-3243-4239-a4b6-a8d6408a7ae7-parameters"}},{"url":"http://hl7.org/fhir/us/cqfmeasures/StructureDefinition/cqfm-testCaseDescription","valueMarkdown":"Patient has one KCCQ Domain assessments that is 181 days after their initial FSA."}],"modifierExtension":[{"url":"http://hl7.org/fhir/us/cqfmeasures/StructureDefinition/cqfm-isTestCase","valueBoolean":true}],"status":"complete","type":"individual","measure":"https://madie.cms.gov/Measure/FunctionalStatusAssessmentsforHeartFailureFHIR","period":{"start":"2025-01-01","end":"2025-12-31"},"group":[{"population":[{"code":{"coding":[{"system":"http://terminology.hl7.org/CodeSystem/measure-population","code":"initial-population","display":"Initial Population"}]},"count":1},{"code":{"coding":[{"system":"http://terminology.hl7.org/CodeSystem/measure-population","code":"denominator","display":"Denominator"}]},"count":1},{"code":{"coding":[{"system":"http://terminology.hl7.org/CodeSystem/measure-population","code":"denominator-exclusion","display":"Denominator Exclusion"}]},"count":0},{"code":{"coding":[{"system":"http://terminology.hl7.org/CodeSystem/measure-population","code":"numerator","display":"Numerator"}]},"count":0}]}]},"request":{"method":"PUT","url":"MeasureReport/7db0611d-1ec7-44fe-8d26-d263b3a62076"}}]}