{"resourceType":"Bundle","id":"tests-a7bf6cfb-2548-4992-8c61-2c21468ff562-bundle","type":"transaction","entry":[{"fullUrl":"https://madie.cms.gov/Patient/a7bf6cfb-2548-4992-8c61-2c21468ff562","resource":{"resourceType":"Patient","id":"a7bf6cfb-2548-4992-8c61-2c21468ff562","meta":{"profile":["http://hl7.org/fhir/us/qicore/StructureDefinition/qicore-patient"]},"extension":[{"url":"http://hl7.org/fhir/us/core/StructureDefinition/us-core-race","extension":[{"url":"ombCategory","valueCoding":{"system":"urn:oid:2.16.840.1.113883.6.238","code":"2028-9","display":"Asian"}},{"url":"text","valueString":"Asian"}]},{"url":"http://hl7.org/fhir/us/core/StructureDefinition/us-core-ethnicity","extension":[{"url":"ombCategory","valueCoding":{"system":"urn:oid:2.16.840.1.113883.6.238","code":"2135-2","display":"Hispanic or Latino"}},{"url":"text","valueString":"Hispanic or Latino"}]}],"identifier":[{"system":"http://hospital.smarthealthit.org","value":"999999995"}],"name":[{"family":"Bertha","given":["Betty"]}],"gender":"female","birthDate":"2007-01-01"},"request":{"method":"PUT","url":"Patient/a7bf6cfb-2548-4992-8c61-2c21468ff562"}},{"fullUrl":"https://madie.cms.gov/Encounter/Encounter-38","resource":{"resourceType":"Encounter","id":"d5b8b2c7-6e05-419e-b086-61c39d7de739","meta":{"profile":["http://hl7.org/fhir/us/qicore/StructureDefinition/qicore-encounter"]},"status":"finished","class":{"system":"http://terminology.hl7.org/CodeSystem/v3-ActCode","code":"AMB","display":"ambulatory"},"type":[{"coding":[{"system":"http://snomed.info/sct","code":"185317003","display":"Telephone encounter (procedure)"}]}],"subject":{"reference":"Patient/a7bf6cfb-2548-4992-8c61-2c21468ff562"},"period":{"start":"2025-01-01T01:00:00.000Z","end":"2025-01-01T01:15:00.000Z"}},"request":{"method":"PUT","url":"Encounter/d5b8b2c7-6e05-419e-b086-61c39d7de739"}},{"fullUrl":"https://madie.cms.gov/Encounter/Encounter-40","resource":{"resourceType":"Encounter","id":"299a917b-30a1-458f-bd3c-35eedd6caec1","meta":{"profile":["http://hl7.org/fhir/us/qicore/StructureDefinition/qicore-encounter"]},"status":"finished","class":{"system":"http://terminology.hl7.org/CodeSystem/v3-ActCode","code":"AMB","display":"ambulatory"},"type":[{"coding":[{"system":"http://snomed.info/sct","code":"185317003","display":"Telephone encounter (procedure)"}]}],"subject":{"reference":"Patient/a7bf6cfb-2548-4992-8c61-2c21468ff562"},"period":{"start":"2025-01-02T01:00:00.000Z","end":"2025-01-02T01:15:00.000Z"}},"request":{"method":"PUT","url":"Encounter/299a917b-30a1-458f-bd3c-35eedd6caec1"}},{"fullUrl":"https://madie.cms.gov/Condition/Condition-19","resource":{"resourceType":"Condition","id":"f312472b-f9b3-4077-9251-b4a7fcb77e30","meta":{"profile":["http://hl7.org/fhir/us/qicore/StructureDefinition/qicore-condition"]},"clinicalStatus":{"coding":[{"system":"http://terminology.hl7.org/CodeSystem/condition-clinical","code":"active"}]},"category":[{"coding":[{"system":"http://terminology.hl7.org/CodeSystem/condition-category","code":"problem-list-item","display":"Problem List Item"}]}],"code":{"coding":[{"system":"http://snomed.info/sct","code":"10091002","display":"High output heart failure (disorder)"}]},"subject":{"reference":"Patient/a7bf6cfb-2548-4992-8c61-2c21468ff562"},"onsetDateTime":"2024-12-31T23:59:00.000Z"},"request":{"method":"PUT","url":"Condition/f312472b-f9b3-4077-9251-b4a7fcb77e30"}},{"fullUrl":"https://madie.cms.gov/Observation/Observation-57","resource":{"resourceType":"Observation","id":"a6b6748e-e612-48cb-9d57-b2d577704827","meta":{"profile":["http://hl7.org/fhir/us/qicore/StructureDefinition/qicore-observation"]},"status":"final","category":[{"coding":[{"system":"http://terminology.hl7.org/CodeSystem/observation-category","code":"survey","display":"survey"}],"text":"survey"}],"code":{"coding":[{"system":"http://loinc.org","code":"86923-0","display":"Kansas City Cardiomyopathy Questionnaire - 12 item [KCCQ-12]"}]},"subject":{"reference":"Patient/a7bf6cfb-2548-4992-8c61-2c21468ff562"},"effectivePeriod":{"start":"2025-01-01T23:00:00.000Z","end":"2025-01-01T23:59:00.000Z"},"valueInteger":4},"request":{"method":"PUT","url":"Observation/a6b6748e-e612-48cb-9d57-b2d577704827"}},{"fullUrl":"https://madie.cms.gov/Observation/Observation-58","resource":{"resourceType":"Observation","id":"f97854d8-4da0-4671-88ab-173b657e35c7","meta":{"profile":["http://hl7.org/fhir/us/qicore/StructureDefinition/qicore-observation"]},"status":"final","category":[{"coding":[{"system":"http://terminology.hl7.org/CodeSystem/observation-category","code":"survey","display":"survey"}],"text":"survey"}],"code":{"coding":[{"system":"http://loinc.org","code":"86923-0","display":"Kansas City Cardiomyopathy Questionnaire - 12 item [KCCQ-12]"}]},"subject":{"reference":"Patient/a7bf6cfb-2548-4992-8c61-2c21468ff562"},"effectivePeriod":{"start":"2025-01-30T23:00:00.000Z","end":"2025-01-30T23:59:00.000Z"},"valueInteger":4},"request":{"method":"PUT","url":"Observation/f97854d8-4da0-4671-88ab-173b657e35c7"}},{"fullUrl":"https://madie.cms.gov/Observation/Observation-59","resource":{"resourceType":"Observation","id":"0618c0f7-c5f1-430d-8bc0-6ce2bb6a2c3d","meta":{"profile":["http://hl7.org/fhir/us/qicore/StructureDefinition/qicore-observation"]},"status":"final","category":[{"coding":[{"system":"http://terminology.hl7.org/CodeSystem/observation-category","code":"survey","display":"survey"}],"text":"survey"}],"code":{"coding":[{"system":"http://loinc.org","code":"86924-8","display":"Overall summary score [KCCQ-12]"}]},"subject":{"reference":"Patient/a7bf6cfb-2548-4992-8c61-2c21468ff562"},"effectivePeriod":{"start":"2025-01-01T23:00:00.000Z","end":"2025-01-01T23:59:00.000Z"},"valueInteger":4},"request":{"method":"PUT","url":"Observation/0618c0f7-c5f1-430d-8bc0-6ce2bb6a2c3d"}},{"fullUrl":"https://madie.cms.gov/Observation/Observation-60","resource":{"resourceType":"Observation","id":"724dc7b9-69c1-468a-8882-a39bb3386833","meta":{"profile":["http://hl7.org/fhir/us/qicore/StructureDefinition/qicore-observation"]},"status":"final","category":[{"coding":[{"system":"http://terminology.hl7.org/CodeSystem/observation-category","code":"survey","display":"survey"}],"text":"survey"}],"code":{"coding":[{"system":"http://loinc.org","code":"86924-8","display":"Overall summary score [KCCQ-12]"}]},"subject":{"reference":"Patient/a7bf6cfb-2548-4992-8c61-2c21468ff562"},"effectivePeriod":{"start":"2025-01-30T23:00:00.000Z","end":"2025-01-30T23:59:00.000Z"},"valueInteger":4},"request":{"method":"PUT","url":"Observation/724dc7b9-69c1-468a-8882-a39bb3386833"}},{"fullUrl":"https://madie.cms.gov/MeasureReport/5b788750-d3a5-42ac-ba03-149de19a6a18","resource":{"resourceType":"MeasureReport","id":"5b788750-d3a5-42ac-ba03-149de19a6a18","meta":{"profile":["http://hl7.org/fhir/us/cqfmeasures/StructureDefinition/test-case-cqfm"]},"contained":[{"resourceType":"Parameters","id":"5c3fc73c-57bf-4ea9-96fa-ba9f07af1d1d-parameters","parameter":[{"name":"subject","valueString":"a7bf6cfb-2548-4992-8c61-2c21468ff562"}]}],"extension":[{"url":"http://hl7.org/fhir/us/cqfmeasures/StructureDefinition/cqfm-inputParameters","valueReference":{"reference":"#5c3fc73c-57bf-4ea9-96fa-ba9f07af1d1d-parameters"}},{"url":"http://hl7.org/fhir/us/cqfmeasures/StructureDefinition/cqfm-testCaseDescription","valueMarkdown":"Patient has all KCCQ12 with results but one follow up occurs 29 days after initial follow up. "}],"modifierExtension":[{"url":"http://hl7.org/fhir/us/cqfmeasures/StructureDefinition/cqfm-isTestCase","valueBoolean":true}],"status":"complete","type":"individual","measure":"https://madie.cms.gov/Measure/FunctionalStatusAssessmentsforHeartFailureFHIR","period":{"start":"2025-01-01","end":"2025-12-31"},"group":[{"population":[{"code":{"coding":[{"system":"http://terminology.hl7.org/CodeSystem/measure-population","code":"initial-population","display":"Initial Population"}]},"count":1},{"code":{"coding":[{"system":"http://terminology.hl7.org/CodeSystem/measure-population","code":"denominator","display":"Denominator"}]},"count":1},{"code":{"coding":[{"system":"http://terminology.hl7.org/CodeSystem/measure-population","code":"denominator-exclusion","display":"Denominator Exclusion"}]},"count":0},{"code":{"coding":[{"system":"http://terminology.hl7.org/CodeSystem/measure-population","code":"numerator","display":"Numerator"}]},"count":0}]}]},"request":{"method":"PUT","url":"MeasureReport/5b788750-d3a5-42ac-ba03-149de19a6a18"}}]}