{"resourceType":"Bundle","id":"tests-f368822a-d0b3-482a-a189-ce27ed2e4bd4-bundle","type":"transaction","entry":[{"fullUrl":"https://madie.cms.gov/Patient/f368822a-d0b3-482a-a189-ce27ed2e4bd4","resource":{"resourceType":"Patient","id":"f368822a-d0b3-482a-a189-ce27ed2e4bd4","meta":{"profile":["http://hl7.org/fhir/us/qicore/StructureDefinition/qicore-patient"]},"extension":[{"url":"http://hl7.org/fhir/us/core/StructureDefinition/us-core-race","extension":[{"url":"ombCategory","valueCoding":{"system":"urn:oid:2.16.840.1.113883.6.238","code":"2028-9","display":"Asian"}},{"url":"text","valueString":"Asian"}]},{"url":"http://hl7.org/fhir/us/core/StructureDefinition/us-core-ethnicity","extension":[{"url":"ombCategory","valueCoding":{"system":"urn:oid:2.16.840.1.113883.6.238","code":"2135-2","display":"Hispanic or Latino"}},{"url":"text","valueString":"Hispanic or Latino"}]}],"identifier":[{"system":"http://hospital.smarthealthit.org","value":"999999995"}],"name":[{"family":"Bertha","given":["Betty"]}],"gender":"female","birthDate":"2007-01-01"},"request":{"method":"PUT","url":"Patient/f368822a-d0b3-482a-a189-ce27ed2e4bd4"}},{"fullUrl":"https://madie.cms.gov/Encounter/Encounter-43","resource":{"resourceType":"Encounter","id":"e9a2c466-d805-4ad4-9e9c-005487e4a2d9","meta":{"profile":["http://hl7.org/fhir/us/qicore/StructureDefinition/qicore-encounter"]},"status":"finished","class":{"system":"http://terminology.hl7.org/CodeSystem/v3-ActCode","code":"AMB","display":"ambulatory"},"type":[{"coding":[{"system":"http://snomed.info/sct","code":"185317003","display":"Telephone encounter (procedure)"}]}],"subject":{"reference":"Patient/f368822a-d0b3-482a-a189-ce27ed2e4bd4"},"period":{"start":"2025-01-01T01:00:00.000Z","end":"2025-01-01T01:15:00.000Z"}},"request":{"method":"PUT","url":"Encounter/e9a2c466-d805-4ad4-9e9c-005487e4a2d9"}},{"fullUrl":"https://madie.cms.gov/Encounter/Encounter-44","resource":{"resourceType":"Encounter","id":"3d1bd2b1-a1b7-4d8d-9500-ef954b745f7e","meta":{"profile":["http://hl7.org/fhir/us/qicore/StructureDefinition/qicore-encounter"]},"status":"finished","class":{"system":"http://terminology.hl7.org/CodeSystem/v3-ActCode","code":"AMB","display":"ambulatory"},"type":[{"coding":[{"system":"http://snomed.info/sct","code":"185317003","display":"Telephone encounter (procedure)"}]}],"subject":{"reference":"Patient/f368822a-d0b3-482a-a189-ce27ed2e4bd4"},"period":{"start":"2025-01-02T01:00:00.000Z","end":"2025-01-02T01:15:00.000Z"}},"request":{"method":"PUT","url":"Encounter/3d1bd2b1-a1b7-4d8d-9500-ef954b745f7e"}},{"fullUrl":"https://madie.cms.gov/Condition/Condition-20","resource":{"resourceType":"Condition","id":"174441fb-3e09-4591-8f1b-c42854612edd","meta":{"profile":["http://hl7.org/fhir/us/qicore/StructureDefinition/qicore-condition"]},"clinicalStatus":{"coding":[{"system":"http://terminology.hl7.org/CodeSystem/condition-clinical","code":"active"}]},"category":[{"coding":[{"system":"http://terminology.hl7.org/CodeSystem/condition-category","code":"problem-list-item","display":"Problem List Item"}]}],"code":{"coding":[{"system":"http://snomed.info/sct","code":"10091002","display":"High output heart failure (disorder)"}]},"subject":{"reference":"Patient/f368822a-d0b3-482a-a189-ce27ed2e4bd4"},"onsetDateTime":"2024-12-31T23:59:00.000Z"},"request":{"method":"PUT","url":"Condition/174441fb-3e09-4591-8f1b-c42854612edd"}},{"fullUrl":"https://madie.cms.gov/Observation/Observation-61","resource":{"resourceType":"Observation","id":"62c23b2d-e0b3-4e0f-bfa0-4ac7c380db8d","meta":{"profile":["http://hl7.org/fhir/us/qicore/StructureDefinition/qicore-observation"]},"status":"final","category":[{"coding":[{"system":"http://terminology.hl7.org/CodeSystem/observation-category","code":"survey","display":"survey"}],"text":"survey"}],"code":{"coding":[{"system":"http://loinc.org","code":"85609-6","display":"Physical score [MLHFQ]"}]},"subject":{"reference":"Patient/f368822a-d0b3-482a-a189-ce27ed2e4bd4"},"effectivePeriod":{"start":"2025-01-01T23:00:00.000Z","end":"2025-01-01T23:59:00.000Z"},"valueInteger":4},"request":{"method":"PUT","url":"Observation/62c23b2d-e0b3-4e0f-bfa0-4ac7c380db8d"}},{"fullUrl":"https://madie.cms.gov/Observation/Observation-62","resource":{"resourceType":"Observation","id":"afb8b2aa-98b4-4dfd-963b-9e99dcde92aa","meta":{"profile":["http://hl7.org/fhir/us/qicore/StructureDefinition/qicore-observation"]},"status":"final","category":[{"coding":[{"system":"http://terminology.hl7.org/CodeSystem/observation-category","code":"survey","display":"survey"}],"text":"survey"}],"code":{"coding":[{"system":"http://loinc.org","code":"85609-6","display":"Physical score [MLHFQ]"}]},"subject":{"reference":"Patient/f368822a-d0b3-482a-a189-ce27ed2e4bd4"},"effectivePeriod":{"start":"2025-06-29T23:00:00.000Z","end":"2025-06-29T23:59:00.000Z"},"valueInteger":4},"request":{"method":"PUT","url":"Observation/afb8b2aa-98b4-4dfd-963b-9e99dcde92aa"}},{"fullUrl":"https://madie.cms.gov/Observation/Observation-63","resource":{"resourceType":"Observation","id":"051889b9-80bf-4f0a-8ebf-8e71398fd8bc","meta":{"profile":["http://hl7.org/fhir/us/qicore/StructureDefinition/qicore-observation"]},"status":"final","category":[{"coding":[{"system":"http://terminology.hl7.org/CodeSystem/observation-category","code":"survey","display":"survey"}],"text":"survey"}],"code":{"coding":[{"system":"http://loinc.org","code":"85618-7","display":"Emotional score [MLHFQ]"}]},"subject":{"reference":"Patient/f368822a-d0b3-482a-a189-ce27ed2e4bd4"},"effectivePeriod":{"start":"2025-01-01T23:00:00.000Z","end":"2025-01-01T23:59:00.000Z"},"valueInteger":4},"request":{"method":"PUT","url":"Observation/051889b9-80bf-4f0a-8ebf-8e71398fd8bc"}},{"fullUrl":"https://madie.cms.gov/Observation/Observation-64","resource":{"resourceType":"Observation","id":"0abb79ac-0746-425d-8c72-a9f03ab01f08","meta":{"profile":["http://hl7.org/fhir/us/qicore/StructureDefinition/qicore-observation"]},"status":"final","category":[{"coding":[{"system":"http://terminology.hl7.org/CodeSystem/observation-category","code":"survey","display":"survey"}],"text":"survey"}],"code":{"coding":[{"system":"http://loinc.org","code":"85618-7","display":"Emotional score [MLHFQ]"}]},"subject":{"reference":"Patient/f368822a-d0b3-482a-a189-ce27ed2e4bd4"},"effectivePeriod":{"start":"2025-06-29T23:00:00.000Z","end":"2025-06-29T23:59:00.000Z"},"valueInteger":4},"request":{"method":"PUT","url":"Observation/0abb79ac-0746-425d-8c72-a9f03ab01f08"}},{"fullUrl":"https://madie.cms.gov/MeasureReport/47d0697b-3c0d-4b90-b4d0-75ae1d26e245","resource":{"resourceType":"MeasureReport","id":"47d0697b-3c0d-4b90-b4d0-75ae1d26e245","meta":{"profile":["http://hl7.org/fhir/us/cqfmeasures/StructureDefinition/test-case-cqfm"]},"contained":[{"resourceType":"Parameters","id":"fe5dbb70-7913-4c0b-943b-169028743150-parameters","parameter":[{"name":"subject","valueString":"f368822a-d0b3-482a-a189-ce27ed2e4bd4"}]}],"extension":[{"url":"http://hl7.org/fhir/us/cqfmeasures/StructureDefinition/cqfm-inputParameters","valueReference":{"reference":"#fe5dbb70-7913-4c0b-943b-169028743150-parameters"}},{"url":"http://hl7.org/fhir/us/cqfmeasures/StructureDefinition/cqfm-testCaseDescription","valueMarkdown":"Patient has all MLHFQ with results during the correct timeframe. Testing the 180 days boundary."}],"modifierExtension":[{"url":"http://hl7.org/fhir/us/cqfmeasures/StructureDefinition/cqfm-isTestCase","valueBoolean":true}],"status":"complete","type":"individual","measure":"https://madie.cms.gov/Measure/FunctionalStatusAssessmentsforHeartFailureFHIR","period":{"start":"2025-01-01","end":"2025-12-31"},"group":[{"population":[{"code":{"coding":[{"system":"http://terminology.hl7.org/CodeSystem/measure-population","code":"initial-population","display":"Initial Population"}]},"count":1},{"code":{"coding":[{"system":"http://terminology.hl7.org/CodeSystem/measure-population","code":"denominator","display":"Denominator"}]},"count":1},{"code":{"coding":[{"system":"http://terminology.hl7.org/CodeSystem/measure-population","code":"denominator-exclusion","display":"Denominator Exclusion"}]},"count":0},{"code":{"coding":[{"system":"http://terminology.hl7.org/CodeSystem/measure-population","code":"numerator","display":"Numerator"}]},"count":1}]}]},"request":{"method":"PUT","url":"MeasureReport/47d0697b-3c0d-4b90-b4d0-75ae1d26e245"}}]}