{"resourceType":"Bundle","id":"tests-e9b53461-c75e-4749-ab0c-bd7a6e2b060f-bundle","type":"transaction","entry":[{"fullUrl":"https://madie.cms.gov/Patient/e9b53461-c75e-4749-ab0c-bd7a6e2b060f","resource":{"resourceType":"Patient","id":"e9b53461-c75e-4749-ab0c-bd7a6e2b060f","meta":{"profile":["http://hl7.org/fhir/us/qicore/StructureDefinition/qicore-patient"]},"extension":[{"url":"http://hl7.org/fhir/us/core/StructureDefinition/us-core-race","extension":[{"url":"ombCategory","valueCoding":{"system":"urn:oid:2.16.840.1.113883.6.238","code":"2028-9","display":"Asian"}},{"url":"text","valueString":"Asian"}]},{"url":"http://hl7.org/fhir/us/core/StructureDefinition/us-core-ethnicity","extension":[{"url":"ombCategory","valueCoding":{"system":"urn:oid:2.16.840.1.113883.6.238","code":"2135-2","display":"Hispanic or Latino"}},{"url":"text","valueString":"Hispanic or Latino"}]}],"identifier":[{"system":"http://hospital.smarthealthit.org","value":"999999995"}],"name":[{"family":"Bertha","given":["Betty"]}],"gender":"female","birthDate":"2007-01-01"},"request":{"method":"PUT","url":"Patient/e9b53461-c75e-4749-ab0c-bd7a6e2b060f"}},{"fullUrl":"https://madie.cms.gov/Encounter/Encounter-11","resource":{"resourceType":"Encounter","id":"71153e0c-1d44-4983-8523-61c07e45c969","meta":{"profile":["http://hl7.org/fhir/us/qicore/StructureDefinition/qicore-encounter"]},"status":"finished","class":{"system":"http://terminology.hl7.org/CodeSystem/v3-ActCode","code":"AMB","display":"ambulatory"},"type":[{"coding":[{"system":"http://snomed.info/sct","code":"185317003","display":"Telephone encounter (procedure)"}]}],"subject":{"reference":"Patient/e9b53461-c75e-4749-ab0c-bd7a6e2b060f"},"period":{"start":"2025-01-01T01:00:00.000Z","end":"2025-01-01T01:15:00.000Z"}},"request":{"method":"PUT","url":"Encounter/71153e0c-1d44-4983-8523-61c07e45c969"}},{"fullUrl":"https://madie.cms.gov/Encounter/Encounter-12","resource":{"resourceType":"Encounter","id":"aca07aff-e375-4fec-a864-2513cfe3cbbe","meta":{"profile":["http://hl7.org/fhir/us/qicore/StructureDefinition/qicore-encounter"]},"status":"finished","class":{"system":"http://terminology.hl7.org/CodeSystem/v3-ActCode","code":"AMB","display":"ambulatory"},"type":[{"coding":[{"system":"http://snomed.info/sct","code":"185317003","display":"Telephone encounter (procedure)"}]}],"subject":{"reference":"Patient/e9b53461-c75e-4749-ab0c-bd7a6e2b060f"},"period":{"start":"2025-01-02T01:00:00.000Z","end":"2025-01-02T01:15:00.000Z"}},"request":{"method":"PUT","url":"Encounter/aca07aff-e375-4fec-a864-2513cfe3cbbe"}},{"fullUrl":"https://madie.cms.gov/Condition/Condition-5","resource":{"resourceType":"Condition","id":"a27d02d7-8afb-4c10-900a-bab53e63d55b","meta":{"profile":["http://hl7.org/fhir/us/qicore/StructureDefinition/qicore-condition"]},"clinicalStatus":{"coding":[{"system":"http://terminology.hl7.org/CodeSystem/condition-clinical","code":"active"}]},"category":[{"coding":[{"system":"http://terminology.hl7.org/CodeSystem/condition-category","code":"problem-list-item","display":"Problem List Item"}]}],"code":{"coding":[{"system":"http://snomed.info/sct","code":"10091002","display":"High output heart failure (disorder)"}]},"subject":{"reference":"Patient/e9b53461-c75e-4749-ab0c-bd7a6e2b060f"},"onsetDateTime":"2024-12-31T23:59:00.000Z"},"request":{"method":"PUT","url":"Condition/a27d02d7-8afb-4c10-900a-bab53e63d55b"}},{"fullUrl":"https://madie.cms.gov/Observation/Observation-1","resource":{"resourceType":"Observation","id":"7d788082-2893-439b-808c-05a943b6f508","meta":{"profile":["http://hl7.org/fhir/us/qicore/StructureDefinition/qicore-observation"]},"status":"corrected","category":[{"coding":[{"system":"http://terminology.hl7.org/CodeSystem/observation-category","code":"laboratory"}]}],"code":{"coding":[{"system":"http://loinc.org","code":"71969-0","display":"PROMIS-10 Global Mental Health (GMH) score T-score"}]},"subject":{"reference":"Patient/e9b53461-c75e-4749-ab0c-bd7a6e2b060f"},"effectivePeriod":{"start":"2020-12-31T23:00:00.000Z","end":"2020-12-31T23:59:00.000Z"},"valueCodeableConcept":{"coding":[{"system":"http://snomed.info/sct","code":"373066001","display":"Yes (qualifier value)"}]}},"request":{"method":"PUT","url":"Observation/7d788082-2893-439b-808c-05a943b6f508"}},{"fullUrl":"https://madie.cms.gov/Observation/Observation-2","resource":{"resourceType":"Observation","id":"a353cff9-a00a-4292-94c8-43a630dc7b04","meta":{"profile":["http://hl7.org/fhir/us/qicore/StructureDefinition/qicore-observation"]},"status":"corrected","category":[{"coding":[{"system":"http://terminology.hl7.org/CodeSystem/observation-category","code":"laboratory"}]}],"code":{"coding":[{"system":"http://loinc.org","code":"71971-6","display":"PROMIS-10 Global Physical Health (GPH) score T-score"}]},"subject":{"reference":"Patient/e9b53461-c75e-4749-ab0c-bd7a6e2b060f"},"effectivePeriod":{"start":"2020-12-31T23:00:00.000Z","end":"2020-12-31T23:59:00.000Z"},"valueCodeableConcept":{"coding":[{"system":"http://snomed.info/sct","code":"373066001","display":"Yes (qualifier value)"}]}},"request":{"method":"PUT","url":"Observation/a353cff9-a00a-4292-94c8-43a630dc7b04"}},{"fullUrl":"https://madie.cms.gov/Observation/Observation-3","resource":{"resourceType":"Observation","id":"71534629-21cb-47bd-b806-d765b92204e4","meta":{"profile":["http://hl7.org/fhir/us/qicore/StructureDefinition/qicore-observation"]},"status":"corrected","category":[{"coding":[{"system":"http://terminology.hl7.org/CodeSystem/observation-category","code":"laboratory"}]}],"code":{"coding":[{"system":"http://loinc.org","code":"71969-0","display":"PROMIS-10 Global Mental Health (GMH) score T-score"}]},"subject":{"reference":"Patient/e9b53461-c75e-4749-ab0c-bd7a6e2b060f"},"effectivePeriod":{"start":"2025-04-05T23:00:00.000Z","end":"2025-04-05T23:59:00.000Z"},"valueCodeableConcept":{"coding":[{"system":"http://snomed.info/sct","code":"373066001","display":"Yes (qualifier value)"}]}},"request":{"method":"PUT","url":"Observation/71534629-21cb-47bd-b806-d765b92204e4"}},{"fullUrl":"https://madie.cms.gov/Observation/Observation-4","resource":{"resourceType":"Observation","id":"536a8c16-5a72-4310-9bbb-8e58e1366c06","meta":{"profile":["http://hl7.org/fhir/us/qicore/StructureDefinition/qicore-observation"]},"status":"corrected","category":[{"coding":[{"system":"http://terminology.hl7.org/CodeSystem/observation-category","code":"laboratory"}]}],"code":{"coding":[{"system":"http://loinc.org","code":"71971-6","display":"PROMIS-10 Global Physical Health (GPH) score T-score"}]},"subject":{"reference":"Patient/e9b53461-c75e-4749-ab0c-bd7a6e2b060f"},"effectivePeriod":{"start":"2020-12-31T23:00:00.000Z","end":"2020-12-31T23:59:00.000Z"},"valueCodeableConcept":{"coding":[{"system":"http://snomed.info/sct","code":"373066001","display":"Yes (qualifier value)"}]}},"request":{"method":"PUT","url":"Observation/536a8c16-5a72-4310-9bbb-8e58e1366c06"}},{"fullUrl":"https://madie.cms.gov/MeasureReport/fbf1b1b1-b7ba-48da-8c04-ba9f0057c006","resource":{"resourceType":"MeasureReport","id":"fbf1b1b1-b7ba-48da-8c04-ba9f0057c006","meta":{"profile":["http://hl7.org/fhir/us/cqfmeasures/StructureDefinition/test-case-cqfm"]},"contained":[{"resourceType":"Parameters","id":"47df858a-3885-4dff-837a-ed6a6ea05ad3-parameters","parameter":[{"name":"subject","valueString":"e9b53461-c75e-4749-ab0c-bd7a6e2b060f"}]}],"extension":[{"url":"http://hl7.org/fhir/us/cqfmeasures/StructureDefinition/cqfm-inputParameters","valueReference":{"reference":"#47df858a-3885-4dff-837a-ed6a6ea05ad3-parameters"}},{"url":"http://hl7.org/fhir/us/cqfmeasures/StructureDefinition/cqfm-testCaseDescription","valueMarkdown":"FSA with no result"}],"modifierExtension":[{"url":"http://hl7.org/fhir/us/cqfmeasures/StructureDefinition/cqfm-isTestCase","valueBoolean":true}],"status":"complete","type":"individual","measure":"https://madie.cms.gov/Measure/FunctionalStatusAssessmentsforHeartFailureFHIR","period":{"start":"2025-01-01","end":"2025-12-31"},"group":[{"population":[{"code":{"coding":[{"system":"http://terminology.hl7.org/CodeSystem/measure-population","code":"initial-population","display":"Initial Population"}]},"count":1},{"code":{"coding":[{"system":"http://terminology.hl7.org/CodeSystem/measure-population","code":"denominator","display":"Denominator"}]},"count":1},{"code":{"coding":[{"system":"http://terminology.hl7.org/CodeSystem/measure-population","code":"denominator-exclusion","display":"Denominator Exclusion"}]},"count":0},{"code":{"coding":[{"system":"http://terminology.hl7.org/CodeSystem/measure-population","code":"numerator","display":"Numerator"}]},"count":0}]}]},"request":{"method":"PUT","url":"MeasureReport/fbf1b1b1-b7ba-48da-8c04-ba9f0057c006"}}]}