{"resourceType":"Bundle","id":"tests-a7bf6cfb-2548-4992-8c61-2c21468ff562-bundle","type":"transaction","entry":[{"fullUrl":"https://madie.cms.gov/Patient/a7bf6cfb-2548-4992-8c61-2c21468ff562","resource":{"resourceType":"Patient","id":"a7bf6cfb-2548-4992-8c61-2c21468ff562","meta":{"profile":["http://hl7.org/fhir/us/qicore/StructureDefinition/qicore-patient"]},"extension":[{"url":"http://hl7.org/fhir/us/core/StructureDefinition/us-core-race","extension":[{"url":"ombCategory","valueCoding":{"system":"urn:oid:2.16.840.1.113883.6.238","code":"2028-9","display":"Asian"}},{"url":"text","valueString":"Asian"}]},{"url":"http://hl7.org/fhir/us/core/StructureDefinition/us-core-ethnicity","extension":[{"url":"ombCategory","valueCoding":{"system":"urn:oid:2.16.840.1.113883.6.238","code":"2135-2","display":"Hispanic or Latino"}},{"url":"text","valueString":"Hispanic or Latino"}]}],"identifier":[{"system":"http://hospital.smarthealthit.org","value":"999999995"}],"name":[{"family":"Bertha","given":["Betty"]}],"gender":"female","birthDate":"2007-01-01"},"request":{"method":"PUT","url":"Patient/a7bf6cfb-2548-4992-8c61-2c21468ff562"}},{"fullUrl":"https://madie.cms.gov/Encounter/Encounter-38","resource":{"resourceType":"Encounter","id":"a567a62b-5e01-439a-8fa2-cbe4d8c7811d","meta":{"profile":["http://hl7.org/fhir/us/qicore/StructureDefinition/qicore-encounter"]},"status":"finished","class":{"system":"http://terminology.hl7.org/CodeSystem/v3-ActCode","code":"AMB","display":"ambulatory"},"type":[{"coding":[{"system":"http://snomed.info/sct","code":"185317003","display":"Telephone encounter (procedure)"}]}],"subject":{"reference":"Patient/a7bf6cfb-2548-4992-8c61-2c21468ff562"},"period":{"start":"2025-01-01T01:00:00.000Z","end":"2025-01-01T01:15:00.000Z"}},"request":{"method":"PUT","url":"Encounter/a567a62b-5e01-439a-8fa2-cbe4d8c7811d"}},{"fullUrl":"https://madie.cms.gov/Encounter/Encounter-40","resource":{"resourceType":"Encounter","id":"8e28a031-e998-4862-afc6-72d132638438","meta":{"profile":["http://hl7.org/fhir/us/qicore/StructureDefinition/qicore-encounter"]},"status":"finished","class":{"system":"http://terminology.hl7.org/CodeSystem/v3-ActCode","code":"AMB","display":"ambulatory"},"type":[{"coding":[{"system":"http://snomed.info/sct","code":"185317003","display":"Telephone encounter (procedure)"}]}],"subject":{"reference":"Patient/a7bf6cfb-2548-4992-8c61-2c21468ff562"},"period":{"start":"2025-01-02T01:00:00.000Z","end":"2025-01-02T01:15:00.000Z"}},"request":{"method":"PUT","url":"Encounter/8e28a031-e998-4862-afc6-72d132638438"}},{"fullUrl":"https://madie.cms.gov/Condition/Condition-19","resource":{"resourceType":"Condition","id":"c05c4e89-6768-48ae-810a-103c6c56e3dc","meta":{"profile":["http://hl7.org/fhir/us/qicore/StructureDefinition/qicore-condition"]},"clinicalStatus":{"coding":[{"system":"http://terminology.hl7.org/CodeSystem/condition-clinical","code":"active"}]},"category":[{"coding":[{"system":"http://terminology.hl7.org/CodeSystem/condition-category","code":"problem-list-item","display":"Problem List Item"}]}],"code":{"coding":[{"system":"http://snomed.info/sct","code":"10091002","display":"High output heart failure (disorder)"}]},"subject":{"reference":"Patient/a7bf6cfb-2548-4992-8c61-2c21468ff562"},"onsetDateTime":"2024-12-31T23:59:00.000Z"},"request":{"method":"PUT","url":"Condition/c05c4e89-6768-48ae-810a-103c6c56e3dc"}},{"fullUrl":"https://madie.cms.gov/Observation/Observation-57","resource":{"resourceType":"Observation","id":"d58ebfdf-7c69-4a6b-9c92-98c30cd7ddc8","meta":{"profile":["http://hl7.org/fhir/us/qicore/StructureDefinition/qicore-observation"]},"status":"final","category":[{"coding":[{"system":"http://terminology.hl7.org/CodeSystem/observation-category","code":"survey","display":"survey"}],"text":"survey"}],"code":{"coding":[{"system":"http://loinc.org","code":"86923-0","display":"Kansas City Cardiomyopathy Questionnaire - 12 item [KCCQ-12]"}]},"subject":{"reference":"Patient/a7bf6cfb-2548-4992-8c61-2c21468ff562"},"effectivePeriod":{"start":"2025-01-01T23:00:00.000Z","end":"2025-01-01T23:59:00.000Z"},"valueInteger":4},"request":{"method":"PUT","url":"Observation/d58ebfdf-7c69-4a6b-9c92-98c30cd7ddc8"}},{"fullUrl":"https://madie.cms.gov/Observation/Observation-58","resource":{"resourceType":"Observation","id":"b5ec769b-07ca-4858-9db8-228c74ebcb8d","meta":{"profile":["http://hl7.org/fhir/us/qicore/StructureDefinition/qicore-observation"]},"status":"final","category":[{"coding":[{"system":"http://terminology.hl7.org/CodeSystem/observation-category","code":"survey","display":"survey"}],"text":"survey"}],"code":{"coding":[{"system":"http://loinc.org","code":"86923-0","display":"Kansas City Cardiomyopathy Questionnaire - 12 item [KCCQ-12]"}]},"subject":{"reference":"Patient/a7bf6cfb-2548-4992-8c61-2c21468ff562"},"effectivePeriod":{"start":"2025-01-30T23:00:00.000Z","end":"2025-01-30T23:59:00.000Z"},"valueInteger":4},"request":{"method":"PUT","url":"Observation/b5ec769b-07ca-4858-9db8-228c74ebcb8d"}},{"fullUrl":"https://madie.cms.gov/Observation/Observation-59","resource":{"resourceType":"Observation","id":"0c6ef778-fe78-4639-adc2-5ee885ee530a","meta":{"profile":["http://hl7.org/fhir/us/qicore/StructureDefinition/qicore-observation"]},"status":"final","category":[{"coding":[{"system":"http://terminology.hl7.org/CodeSystem/observation-category","code":"survey","display":"survey"}],"text":"survey"}],"code":{"coding":[{"system":"http://loinc.org","code":"86924-8","display":"Overall summary score [KCCQ-12]"}]},"subject":{"reference":"Patient/a7bf6cfb-2548-4992-8c61-2c21468ff562"},"effectivePeriod":{"start":"2025-01-01T23:00:00.000Z","end":"2025-01-01T23:59:00.000Z"},"valueInteger":4},"request":{"method":"PUT","url":"Observation/0c6ef778-fe78-4639-adc2-5ee885ee530a"}},{"fullUrl":"https://madie.cms.gov/Observation/Observation-60","resource":{"resourceType":"Observation","id":"64101067-8534-4d73-9dda-e4631f913565","meta":{"profile":["http://hl7.org/fhir/us/qicore/StructureDefinition/qicore-observation"]},"status":"final","category":[{"coding":[{"system":"http://terminology.hl7.org/CodeSystem/observation-category","code":"survey","display":"survey"}],"text":"survey"}],"code":{"coding":[{"system":"http://loinc.org","code":"86924-8","display":"Overall summary score [KCCQ-12]"}]},"subject":{"reference":"Patient/a7bf6cfb-2548-4992-8c61-2c21468ff562"},"effectivePeriod":{"start":"2025-01-30T23:00:00.000Z","end":"2025-01-30T23:59:00.000Z"},"valueInteger":4},"request":{"method":"PUT","url":"Observation/64101067-8534-4d73-9dda-e4631f913565"}},{"fullUrl":"https://madie.cms.gov/MeasureReport/5b788750-d3a5-42ac-ba03-149de19a6a18","resource":{"resourceType":"MeasureReport","id":"5b788750-d3a5-42ac-ba03-149de19a6a18","meta":{"profile":["http://hl7.org/fhir/us/cqfmeasures/StructureDefinition/test-case-cqfm"]},"contained":[{"resourceType":"Parameters","id":"5c3fc73c-57bf-4ea9-96fa-ba9f07af1d1d-parameters","parameter":[{"name":"subject","valueString":"a7bf6cfb-2548-4992-8c61-2c21468ff562"}]}],"extension":[{"url":"http://hl7.org/fhir/us/cqfmeasures/StructureDefinition/cqfm-inputParameters","valueReference":{"reference":"#5c3fc73c-57bf-4ea9-96fa-ba9f07af1d1d-parameters"}},{"url":"http://hl7.org/fhir/us/cqfmeasures/StructureDefinition/cqfm-testCaseDescription","valueMarkdown":"Patient has all KCCQ12 with results but one follow up occurs 29 days after initial follow up. "}],"modifierExtension":[{"url":"http://hl7.org/fhir/us/cqfmeasures/StructureDefinition/cqfm-isTestCase","valueBoolean":true}],"status":"complete","type":"individual","measure":"https://madie.cms.gov/Measure/FunctionalStatusAssessmentsforHeartFailureFHIR","period":{"start":"2025-01-01","end":"2025-12-31"},"group":[{"population":[{"code":{"coding":[{"system":"http://terminology.hl7.org/CodeSystem/measure-population","code":"initial-population","display":"Initial Population"}]},"count":1},{"code":{"coding":[{"system":"http://terminology.hl7.org/CodeSystem/measure-population","code":"denominator","display":"Denominator"}]},"count":1},{"code":{"coding":[{"system":"http://terminology.hl7.org/CodeSystem/measure-population","code":"denominator-exclusion","display":"Denominator Exclusion"}]},"count":0},{"code":{"coding":[{"system":"http://terminology.hl7.org/CodeSystem/measure-population","code":"numerator","display":"Numerator"}]},"count":0}]}]},"request":{"method":"PUT","url":"MeasureReport/5b788750-d3a5-42ac-ba03-149de19a6a18"}}]}