{"resourceType":"Bundle","id":"tests-22e26758-8ad6-4784-8d01-0543b2277269-bundle","type":"transaction","entry":[{"fullUrl":"https://madie.cms.gov/Patient/22e26758-8ad6-4784-8d01-0543b2277269","resource":{"resourceType":"Patient","id":"22e26758-8ad6-4784-8d01-0543b2277269","meta":{"profile":["http://hl7.org/fhir/us/qicore/StructureDefinition/qicore-patient"]},"extension":[{"url":"http://hl7.org/fhir/us/core/StructureDefinition/us-core-race","extension":[{"url":"ombCategory","valueCoding":{"system":"urn:oid:2.16.840.1.113883.6.238","code":"2028-9","display":"Asian"}},{"url":"text","valueString":"Asian"}]},{"url":"http://hl7.org/fhir/us/core/StructureDefinition/us-core-ethnicity","extension":[{"url":"ombCategory","valueCoding":{"system":"urn:oid:2.16.840.1.113883.6.238","code":"2135-2","display":"Hispanic or Latino"}},{"url":"text","valueString":"Hispanic or Latino"}]}],"identifier":[{"system":"http://hospital.smarthealthit.org","value":"999999995"}],"name":[{"family":"Bertha","given":["Betty"]}],"gender":"female","birthDate":"2007-01-01"},"request":{"method":"PUT","url":"Patient/22e26758-8ad6-4784-8d01-0543b2277269"}},{"fullUrl":"https://madie.cms.gov/Encounter/Encounter-51","resource":{"resourceType":"Encounter","id":"143c347c-2983-4d54-80fb-5e250613d908","meta":{"profile":["http://hl7.org/fhir/us/qicore/StructureDefinition/qicore-encounter"]},"status":"finished","class":{"system":"http://terminology.hl7.org/CodeSystem/v3-ActCode","code":"AMB","display":"ambulatory"},"type":[{"coding":[{"system":"http://snomed.info/sct","code":"185317003","display":"Telephone encounter (procedure)"}]}],"subject":{"reference":"Patient/22e26758-8ad6-4784-8d01-0543b2277269"},"period":{"start":"2025-01-01T01:00:00.000Z","end":"2025-01-01T01:15:00.000Z"}},"request":{"method":"PUT","url":"Encounter/143c347c-2983-4d54-80fb-5e250613d908"}},{"fullUrl":"https://madie.cms.gov/Encounter/Encounter-52","resource":{"resourceType":"Encounter","id":"ec2d2317-b5c2-4e66-be18-b22578d88f99","meta":{"profile":["http://hl7.org/fhir/us/qicore/StructureDefinition/qicore-encounter"]},"status":"finished","class":{"system":"http://terminology.hl7.org/CodeSystem/v3-ActCode","code":"AMB","display":"ambulatory"},"type":[{"coding":[{"system":"http://snomed.info/sct","code":"185317003","display":"Telephone encounter (procedure)"}]}],"subject":{"reference":"Patient/22e26758-8ad6-4784-8d01-0543b2277269"},"period":{"start":"2025-01-02T01:00:00.000Z","end":"2025-01-02T01:15:00.000Z"}},"request":{"method":"PUT","url":"Encounter/ec2d2317-b5c2-4e66-be18-b22578d88f99"}},{"fullUrl":"https://madie.cms.gov/Condition/Condition-23","resource":{"resourceType":"Condition","id":"2afc0b27-82b2-463b-bb54-747a2f432b53","meta":{"profile":["http://hl7.org/fhir/us/qicore/StructureDefinition/qicore-condition"]},"clinicalStatus":{"coding":[{"system":"http://terminology.hl7.org/CodeSystem/condition-clinical","code":"active"}]},"category":[{"coding":[{"system":"http://terminology.hl7.org/CodeSystem/condition-category","code":"problem-list-item","display":"Problem List Item"}]}],"code":{"coding":[{"system":"http://snomed.info/sct","code":"10091002","display":"High output heart failure (disorder)"}]},"subject":{"reference":"Patient/22e26758-8ad6-4784-8d01-0543b2277269"},"onsetDateTime":"2024-12-31T00:00:00.000Z"},"request":{"method":"PUT","url":"Condition/2afc0b27-82b2-463b-bb54-747a2f432b53"}},{"fullUrl":"https://madie.cms.gov/Condition/Condition-24","resource":{"resourceType":"Condition","id":"1857f13f-f1c0-4407-adef-d69dd1148f68","meta":{"profile":["http://hl7.org/fhir/us/qicore/StructureDefinition/qicore-condition"]},"clinicalStatus":{"coding":[{"system":"http://terminology.hl7.org/CodeSystem/condition-clinical","code":"active"}]},"category":[{"coding":[{"system":"http://terminology.hl7.org/CodeSystem/condition-category","code":"problem-list-item","display":"Problem List Item"}]}],"code":{"coding":[{"system":"http://snomed.info/sct","code":"702956004","display":"Severe cognitive impairment (finding)"}]},"subject":{"reference":"Patient/22e26758-8ad6-4784-8d01-0543b2277269"},"onsetDateTime":"2026-01-01T00:00:00.000Z"},"request":{"method":"PUT","url":"Condition/1857f13f-f1c0-4407-adef-d69dd1148f68"}},{"fullUrl":"https://madie.cms.gov/MeasureReport/9d6202df-0052-41be-8894-c77c485719b4","resource":{"resourceType":"MeasureReport","id":"9d6202df-0052-41be-8894-c77c485719b4","meta":{"profile":["http://hl7.org/fhir/us/cqfmeasures/StructureDefinition/test-case-cqfm"]},"contained":[{"resourceType":"Parameters","id":"f8788901-6e89-47be-870d-1b1139e98381-parameters","parameter":[{"name":"subject","valueString":"22e26758-8ad6-4784-8d01-0543b2277269"}]}],"extension":[{"url":"http://hl7.org/fhir/us/cqfmeasures/StructureDefinition/cqfm-inputParameters","valueReference":{"reference":"#f8788901-6e89-47be-870d-1b1139e98381-parameters"}},{"url":"http://hl7.org/fhir/us/cqfmeasures/StructureDefinition/cqfm-testCaseDescription","valueMarkdown":"Patient has severe cognitive impairment that starts after the MP."}],"modifierExtension":[{"url":"http://hl7.org/fhir/us/cqfmeasures/StructureDefinition/cqfm-isTestCase","valueBoolean":true}],"status":"complete","type":"individual","measure":"https://madie.cms.gov/Measure/FunctionalStatusAssessmentsforHeartFailureFHIR","period":{"start":"2025-01-01","end":"2025-12-31"},"group":[{"population":[{"code":{"coding":[{"system":"http://terminology.hl7.org/CodeSystem/measure-population","code":"initial-population","display":"Initial Population"}]},"count":1},{"code":{"coding":[{"system":"http://terminology.hl7.org/CodeSystem/measure-population","code":"denominator","display":"Denominator"}]},"count":1},{"code":{"coding":[{"system":"http://terminology.hl7.org/CodeSystem/measure-population","code":"denominator-exclusion","display":"Denominator Exclusion"}]},"count":0},{"code":{"coding":[{"system":"http://terminology.hl7.org/CodeSystem/measure-population","code":"numerator","display":"Numerator"}]},"count":0}]}]},"request":{"method":"PUT","url":"MeasureReport/9d6202df-0052-41be-8894-c77c485719b4"}}]}