{"resourceType":"Bundle","id":"tests-22ef163c-08d2-4111-889a-284b96eac368-bundle","type":"transaction","entry":[{"fullUrl":"https://madie.cms.gov/Patient/22ef163c-08d2-4111-889a-284b96eac368","resource":{"resourceType":"Patient","id":"22ef163c-08d2-4111-889a-284b96eac368","meta":{"profile":["http://hl7.org/fhir/us/qicore/StructureDefinition/qicore-patient"]},"extension":[{"url":"http://hl7.org/fhir/us/core/StructureDefinition/us-core-race","extension":[{"url":"ombCategory","valueCoding":{"system":"urn:oid:2.16.840.1.113883.6.238","code":"2028-9","display":"Asian"}},{"url":"text","valueString":"Asian"}]},{"url":"http://hl7.org/fhir/us/core/StructureDefinition/us-core-ethnicity","extension":[{"url":"ombCategory","valueCoding":{"system":"urn:oid:2.16.840.1.113883.6.238","code":"2135-2","display":"Hispanic or Latino"}},{"url":"text","valueString":"Hispanic or Latino"}]}],"identifier":[{"system":"http://hospital.smarthealthit.org","value":"999999995"}],"name":[{"family":"Bertha","given":["Betty"]}],"gender":"female","birthDate":"2007-01-01"},"request":{"method":"PUT","url":"Patient/22ef163c-08d2-4111-889a-284b96eac368"}},{"fullUrl":"https://madie.cms.gov/Encounter/Encounter-5","resource":{"resourceType":"Encounter","id":"4ff8f9a6-c4c1-4760-99f4-998879aaaa64","meta":{"profile":["http://hl7.org/fhir/us/qicore/StructureDefinition/qicore-encounter"]},"status":"finished","class":{"system":"http://terminology.hl7.org/CodeSystem/v3-ActCode","code":"AMB","display":"ambulatory"},"type":[{"coding":[{"system":"http://snomed.info/sct","code":"185317003","display":"Telephone encounter (procedure)"}]}],"subject":{"reference":"Patient/22ef163c-08d2-4111-889a-284b96eac368"},"period":{"start":"2025-01-01T01:00:00.000Z","end":"2025-01-01T01:15:00.000Z"}},"request":{"method":"PUT","url":"Encounter/4ff8f9a6-c4c1-4760-99f4-998879aaaa64"}},{"fullUrl":"https://madie.cms.gov/Encounter/Encounter-6","resource":{"resourceType":"Encounter","id":"23c93f9e-9ef5-41c4-9340-89f2e6bc74ce","meta":{"profile":["http://hl7.org/fhir/us/qicore/StructureDefinition/qicore-encounter"]},"status":"finished","class":{"system":"http://terminology.hl7.org/CodeSystem/v3-ActCode","code":"AMB","display":"ambulatory"},"type":[{"coding":[{"system":"http://snomed.info/sct","code":"185317003","display":"Telephone encounter (procedure)"}]}],"subject":{"reference":"Patient/22ef163c-08d2-4111-889a-284b96eac368"},"period":{"start":"2025-01-02T01:00:00.000Z","end":"2025-01-02T01:15:00.000Z"}},"request":{"method":"PUT","url":"Encounter/23c93f9e-9ef5-41c4-9340-89f2e6bc74ce"}},{"fullUrl":"https://madie.cms.gov/Condition/Condition-3","resource":{"resourceType":"Condition","id":"87372398-c86a-4cf7-ac23-ee334208b9d6","meta":{"profile":["http://hl7.org/fhir/us/qicore/StructureDefinition/qicore-condition"]},"clinicalStatus":{"coding":[{"system":"http://terminology.hl7.org/CodeSystem/condition-clinical","code":"active"}]},"category":[{"coding":[{"system":"http://terminology.hl7.org/CodeSystem/condition-category","code":"problem-list-item","display":"Problem List Item"}]}],"code":{"coding":[{"system":"http://snomed.info/sct","code":"10091002","display":"High output heart failure (disorder)"}]},"subject":{"reference":"Patient/22ef163c-08d2-4111-889a-284b96eac368"},"onsetDateTime":"2024-12-31T23:59:00.000Z"},"request":{"method":"PUT","url":"Condition/87372398-c86a-4cf7-ac23-ee334208b9d6"}},{"fullUrl":"https://madie.cms.gov/Encounter/Encounter-7","resource":{"resourceType":"Encounter","id":"ddc9dad2-3556-40f7-afbb-d5790107bf87","meta":{"profile":["http://hl7.org/fhir/us/qicore/StructureDefinition/qicore-encounter"]},"status":"finished","class":{"system":"http://terminology.hl7.org/CodeSystem/v3-ActCode","code":"AMB","display":"ambulatory"},"type":[{"coding":[{"system":"http://snomed.info/sct","code":"305336008","display":"Admission to hospice (procedure)"}]}],"subject":{"reference":"Patient/22ef163c-08d2-4111-889a-284b96eac368"},"period":{"start":"2025-01-02T01:00:00.000Z","end":"2025-01-02T01:15:00.000Z"}},"request":{"method":"PUT","url":"Encounter/ddc9dad2-3556-40f7-afbb-d5790107bf87"}},{"fullUrl":"https://madie.cms.gov/MeasureReport/70913917-54c7-4c5b-a6dd-78f61f0d2235","resource":{"resourceType":"MeasureReport","id":"70913917-54c7-4c5b-a6dd-78f61f0d2235","meta":{"profile":["http://hl7.org/fhir/us/cqfmeasures/StructureDefinition/test-case-cqfm"]},"contained":[{"resourceType":"Parameters","id":"db29df30-f2eb-4178-aaa9-50806519ac93-parameters","parameter":[{"name":"subject","valueString":"22ef163c-08d2-4111-889a-284b96eac368"}]}],"extension":[{"url":"http://hl7.org/fhir/us/cqfmeasures/StructureDefinition/cqfm-inputParameters","valueReference":{"reference":"#db29df30-f2eb-4178-aaa9-50806519ac93-parameters"}},{"url":"http://hl7.org/fhir/us/cqfmeasures/StructureDefinition/cqfm-testCaseDescription","valueMarkdown":"Hospice during MP"}],"modifierExtension":[{"url":"http://hl7.org/fhir/us/cqfmeasures/StructureDefinition/cqfm-isTestCase","valueBoolean":true}],"status":"complete","type":"individual","measure":"https://madie.cms.gov/Measure/FunctionalStatusAssessmentsforHeartFailureFHIR","period":{"start":"2025-01-01","end":"2025-12-31"},"group":[{"population":[{"code":{"coding":[{"system":"http://terminology.hl7.org/CodeSystem/measure-population","code":"initial-population","display":"Initial Population"}]},"count":1},{"code":{"coding":[{"system":"http://terminology.hl7.org/CodeSystem/measure-population","code":"denominator","display":"Denominator"}]},"count":1},{"code":{"coding":[{"system":"http://terminology.hl7.org/CodeSystem/measure-population","code":"denominator-exclusion","display":"Denominator Exclusion"}]},"count":1},{"code":{"coding":[{"system":"http://terminology.hl7.org/CodeSystem/measure-population","code":"numerator","display":"Numerator"}]},"count":0}]}]},"request":{"method":"PUT","url":"MeasureReport/70913917-54c7-4c5b-a6dd-78f61f0d2235"}}]}