{"resourceType":"Bundle","id":"tests-50a51fb2-a8bb-42b8-acf1-784749261d31-bundle","type":"transaction","entry":[{"fullUrl":"https://madie.cms.gov/Patient/50a51fb2-a8bb-42b8-acf1-784749261d31","resource":{"resourceType":"Patient","id":"50a51fb2-a8bb-42b8-acf1-784749261d31","meta":{"profile":["http://hl7.org/fhir/us/qicore/StructureDefinition/qicore-patient"]},"extension":[{"url":"http://hl7.org/fhir/us/core/StructureDefinition/us-core-race","extension":[{"url":"ombCategory","valueCoding":{"system":"urn:oid:2.16.840.1.113883.6.238","code":"2028-9","display":"Asian"}},{"url":"text","valueString":"Asian"}]},{"url":"http://hl7.org/fhir/us/core/StructureDefinition/us-core-ethnicity","extension":[{"url":"ombCategory","valueCoding":{"system":"urn:oid:2.16.840.1.113883.6.238","code":"2135-2","display":"Hispanic or Latino"}},{"url":"text","valueString":"Hispanic or Latino"}]}],"identifier":[{"system":"http://hospital.smarthealthit.org","value":"999999995"}],"name":[{"family":"Bertha","given":["Betty"]}],"gender":"female","birthDate":"2007-01-01"},"request":{"method":"PUT","url":"Patient/50a51fb2-a8bb-42b8-acf1-784749261d31"}},{"fullUrl":"https://madie.cms.gov/Encounter/Encounter-26","resource":{"resourceType":"Encounter","id":"dbc776a0-bc8f-49ca-b2f2-e6a98883f34e","meta":{"profile":["http://hl7.org/fhir/us/qicore/StructureDefinition/qicore-encounter"]},"status":"finished","class":{"system":"http://terminology.hl7.org/CodeSystem/v3-ActCode","code":"AMB","display":"ambulatory"},"type":[{"coding":[{"system":"http://snomed.info/sct","code":"185317003","display":"Telephone encounter (procedure)"}]}],"subject":{"reference":"Patient/50a51fb2-a8bb-42b8-acf1-784749261d31"},"period":{"start":"2025-01-01T01:00:00.000Z","end":"2025-01-01T01:15:00.000Z"}},"request":{"method":"PUT","url":"Encounter/dbc776a0-bc8f-49ca-b2f2-e6a98883f34e"}},{"fullUrl":"https://madie.cms.gov/Encounter/Encounter-27","resource":{"resourceType":"Encounter","id":"038c2490-bc69-4adf-886a-ba304ca46563","meta":{"profile":["http://hl7.org/fhir/us/qicore/StructureDefinition/qicore-encounter"]},"status":"finished","class":{"system":"http://terminology.hl7.org/CodeSystem/v3-ActCode","code":"AMB","display":"ambulatory"},"type":[{"coding":[{"system":"http://snomed.info/sct","code":"185317003","display":"Telephone encounter (procedure)"}]}],"subject":{"reference":"Patient/50a51fb2-a8bb-42b8-acf1-784749261d31"},"period":{"start":"2025-01-02T01:00:00.000Z","end":"2025-01-02T01:15:00.000Z"}},"request":{"method":"PUT","url":"Encounter/038c2490-bc69-4adf-886a-ba304ca46563"}},{"fullUrl":"https://madie.cms.gov/Condition/Condition-13","resource":{"resourceType":"Condition","id":"7805f803-20cc-4bcd-b8cc-afe13044a21c","meta":{"profile":["http://hl7.org/fhir/us/qicore/StructureDefinition/qicore-condition"]},"clinicalStatus":{"coding":[{"system":"http://terminology.hl7.org/CodeSystem/condition-clinical","code":"active"}]},"category":[{"coding":[{"system":"http://terminology.hl7.org/CodeSystem/condition-category","code":"problem-list-item","display":"Problem List Item"}]}],"code":{"coding":[{"system":"http://snomed.info/sct","code":"10091002","display":"High output heart failure (disorder)"}]},"subject":{"reference":"Patient/50a51fb2-a8bb-42b8-acf1-784749261d31"},"onsetDateTime":"2024-12-31T23:59:00.000Z"},"request":{"method":"PUT","url":"Condition/7805f803-20cc-4bcd-b8cc-afe13044a21c"}},{"fullUrl":"https://madie.cms.gov/Observation/Observation-38","resource":{"resourceType":"Observation","id":"ef5518df-742d-43c6-8b75-05ecabfa5576","meta":{"profile":["http://hl7.org/fhir/us/qicore/StructureDefinition/qicore-observation"]},"status":"final","category":[{"coding":[{"system":"http://terminology.hl7.org/CodeSystem/observation-category","code":"survey","display":"survey"}],"text":"survey"}],"code":{"coding":[{"system":"http://loinc.org","code":"71990-6","display":"VR-36 Mental component summary (MCS) score - oblique method T-score"}]},"subject":{"reference":"Patient/50a51fb2-a8bb-42b8-acf1-784749261d31"},"effectivePeriod":{"start":"2025-01-01T23:00:00.000Z","end":"2025-01-01T23:59:00.000Z"},"valueInteger":4},"request":{"method":"PUT","url":"Observation/ef5518df-742d-43c6-8b75-05ecabfa5576"}},{"fullUrl":"https://madie.cms.gov/Observation/Observation-39","resource":{"resourceType":"Observation","id":"60b6bc36-2acd-41ac-9353-b74d7647ae37","meta":{"profile":["http://hl7.org/fhir/us/qicore/StructureDefinition/qicore-observation"]},"status":"final","category":[{"coding":[{"system":"http://terminology.hl7.org/CodeSystem/observation-category","code":"survey","display":"survey"}],"text":"survey"}],"code":{"coding":[{"system":"http://loinc.org","code":"71990-6","display":"VR-36 Mental component summary (MCS) score - oblique method T-score"}]},"subject":{"reference":"Patient/50a51fb2-a8bb-42b8-acf1-784749261d31"},"effectivePeriod":{"start":"2025-01-31T23:00:00.000Z","end":"2025-01-31T23:59:00.000Z"},"valueInteger":4},"request":{"method":"PUT","url":"Observation/60b6bc36-2acd-41ac-9353-b74d7647ae37"}},{"fullUrl":"https://madie.cms.gov/Observation/Observation-40","resource":{"resourceType":"Observation","id":"ff6b4d9c-ca54-4492-b763-387cc1cbfe91","meta":{"profile":["http://hl7.org/fhir/us/qicore/StructureDefinition/qicore-observation"]},"status":"final","category":[{"coding":[{"system":"http://terminology.hl7.org/CodeSystem/observation-category","code":"survey","display":"survey"}],"text":"survey"}],"code":{"coding":[{"system":"http://loinc.org","code":"71989-8","display":"VR-36 Physical component summary (PCS) score - oblique method T-score"}]},"subject":{"reference":"Patient/50a51fb2-a8bb-42b8-acf1-784749261d31"},"effectivePeriod":{"start":"2025-01-01T23:00:00.000Z","end":"2025-01-01T23:59:00.000Z"},"valueInteger":4},"request":{"method":"PUT","url":"Observation/ff6b4d9c-ca54-4492-b763-387cc1cbfe91"}},{"fullUrl":"https://madie.cms.gov/Observation/Observation-41","resource":{"resourceType":"Observation","id":"027e3c35-cfe2-496a-8f77-3277d1a77fb8","meta":{"profile":["http://hl7.org/fhir/us/qicore/StructureDefinition/qicore-observation"]},"status":"final","category":[{"coding":[{"system":"http://terminology.hl7.org/CodeSystem/observation-category","code":"survey","display":"survey"}],"text":"survey"}],"code":{"coding":[{"system":"http://loinc.org","code":"71989-8","display":"VR-36 Physical component summary (PCS) score - oblique method T-score"}]},"subject":{"reference":"Patient/50a51fb2-a8bb-42b8-acf1-784749261d31"},"effectivePeriod":{"start":"2025-01-31T23:00:00.000Z","end":"2025-01-31T23:59:00.000Z"},"valueInteger":4},"request":{"method":"PUT","url":"Observation/027e3c35-cfe2-496a-8f77-3277d1a77fb8"}},{"fullUrl":"https://madie.cms.gov/MeasureReport/40a2c5fb-dd26-4552-8cf7-717c277fe4ca","resource":{"resourceType":"MeasureReport","id":"40a2c5fb-dd26-4552-8cf7-717c277fe4ca","meta":{"profile":["http://hl7.org/fhir/us/cqfmeasures/StructureDefinition/test-case-cqfm"]},"contained":[{"resourceType":"Parameters","id":"243cc762-8e0b-4a14-92a3-6e3309661627-parameters","parameter":[{"name":"subject","valueString":"50a51fb2-a8bb-42b8-acf1-784749261d31"}]}],"extension":[{"url":"http://hl7.org/fhir/us/cqfmeasures/StructureDefinition/cqfm-inputParameters","valueReference":{"reference":"#243cc762-8e0b-4a14-92a3-6e3309661627-parameters"}},{"url":"http://hl7.org/fhir/us/cqfmeasures/StructureDefinition/cqfm-testCaseDescription","valueMarkdown":"Patient has all VR36 Oblique Assessments during the correct timeframe but one FSA is missing a result."}],"modifierExtension":[{"url":"http://hl7.org/fhir/us/cqfmeasures/StructureDefinition/cqfm-isTestCase","valueBoolean":true}],"status":"complete","type":"individual","measure":"https://madie.cms.gov/Measure/FunctionalStatusAssessmentsforHeartFailureFHIR","period":{"start":"2025-01-01","end":"2025-12-31"},"group":[{"population":[{"code":{"coding":[{"system":"http://terminology.hl7.org/CodeSystem/measure-population","code":"initial-population","display":"Initial Population"}]},"count":1},{"code":{"coding":[{"system":"http://terminology.hl7.org/CodeSystem/measure-population","code":"denominator","display":"Denominator"}]},"count":1},{"code":{"coding":[{"system":"http://terminology.hl7.org/CodeSystem/measure-population","code":"denominator-exclusion","display":"Denominator Exclusion"}]},"count":0},{"code":{"coding":[{"system":"http://terminology.hl7.org/CodeSystem/measure-population","code":"numerator","display":"Numerator"}]},"count":1}]}]},"request":{"method":"PUT","url":"MeasureReport/40a2c5fb-dd26-4552-8cf7-717c277fe4ca"}}]}