{"resourceType":"Bundle","id":"tests-36f1ecd0-16a5-4f4a-bc5c-f1d2a3d8bcb8-bundle","type":"transaction","entry":[{"fullUrl":"https://madie.cms.gov/Patient/36f1ecd0-16a5-4f4a-bc5c-f1d2a3d8bcb8","resource":{"resourceType":"Patient","id":"36f1ecd0-16a5-4f4a-bc5c-f1d2a3d8bcb8","meta":{"profile":["http://hl7.org/fhir/us/qicore/StructureDefinition/qicore-patient"]},"extension":[{"url":"http://hl7.org/fhir/us/core/StructureDefinition/us-core-race","extension":[{"url":"ombCategory","valueCoding":{"system":"urn:oid:2.16.840.1.113883.6.238","code":"2028-9","display":"Asian"}},{"url":"text","valueString":"Asian"}]},{"url":"http://hl7.org/fhir/us/core/StructureDefinition/us-core-ethnicity","extension":[{"url":"ombCategory","valueCoding":{"system":"urn:oid:2.16.840.1.113883.6.238","code":"2135-2","display":"Hispanic or Latino"}},{"url":"text","valueString":"Hispanic or Latino"}]}],"identifier":[{"system":"http://hospital.smarthealthit.org","value":"999999995"}],"name":[{"family":"Bertha","given":["Betty"]}],"gender":"female","birthDate":"2007-01-01"},"request":{"method":"PUT","url":"Patient/36f1ecd0-16a5-4f4a-bc5c-f1d2a3d8bcb8"}},{"fullUrl":"https://madie.cms.gov/Encounter/Encounter-8","resource":{"resourceType":"Encounter","id":"91f1c9e7-50d8-4f45-9cec-811f1360810a","meta":{"profile":["http://hl7.org/fhir/us/qicore/StructureDefinition/qicore-encounter"]},"status":"finished","class":{"system":"http://terminology.hl7.org/CodeSystem/v3-ActCode","code":"AMB","display":"ambulatory"},"type":[{"coding":[{"system":"http://snomed.info/sct","code":"185317003","display":"Telephone encounter (procedure)"}]}],"subject":{"reference":"Patient/36f1ecd0-16a5-4f4a-bc5c-f1d2a3d8bcb8"},"period":{"start":"2025-01-01T01:00:00.000Z","end":"2025-01-01T01:15:00.000Z"}},"request":{"method":"PUT","url":"Encounter/91f1c9e7-50d8-4f45-9cec-811f1360810a"}},{"fullUrl":"https://madie.cms.gov/Encounter/Encounter-9","resource":{"resourceType":"Encounter","id":"60e9b1af-a0f6-4275-987d-ab464ba5b5d1","meta":{"profile":["http://hl7.org/fhir/us/qicore/StructureDefinition/qicore-encounter"]},"status":"finished","class":{"system":"http://terminology.hl7.org/CodeSystem/v3-ActCode","code":"AMB","display":"ambulatory"},"type":[{"coding":[{"system":"http://snomed.info/sct","code":"185317003","display":"Telephone encounter (procedure)"}]}],"subject":{"reference":"Patient/36f1ecd0-16a5-4f4a-bc5c-f1d2a3d8bcb8"},"period":{"start":"2025-01-02T01:00:00.000Z","end":"2025-01-02T01:15:00.000Z"}},"request":{"method":"PUT","url":"Encounter/60e9b1af-a0f6-4275-987d-ab464ba5b5d1"}},{"fullUrl":"https://madie.cms.gov/Condition/Condition-4","resource":{"resourceType":"Condition","id":"e3b45b3a-14d5-4dc1-883a-9c0c1d4cebeb","meta":{"profile":["http://hl7.org/fhir/us/qicore/StructureDefinition/qicore-condition"]},"clinicalStatus":{"coding":[{"system":"http://terminology.hl7.org/CodeSystem/condition-clinical","code":"active"}]},"category":[{"coding":[{"system":"http://terminology.hl7.org/CodeSystem/condition-category","code":"problem-list-item","display":"Problem List Item"}]}],"code":{"coding":[{"system":"http://snomed.info/sct","code":"10091002","display":"High output heart failure (disorder)"}]},"subject":{"reference":"Patient/36f1ecd0-16a5-4f4a-bc5c-f1d2a3d8bcb8"},"onsetDateTime":"2024-12-31T23:59:00.000Z"},"request":{"method":"PUT","url":"Condition/e3b45b3a-14d5-4dc1-883a-9c0c1d4cebeb"}},{"fullUrl":"https://madie.cms.gov/Encounter/Encounter-10","resource":{"resourceType":"Encounter","id":"ce2557d6-2a45-411b-9a02-ab2f3a0015d6","meta":{"profile":["http://hl7.org/fhir/us/qicore/StructureDefinition/qicore-encounter"]},"status":"finished","class":{"system":"http://terminology.hl7.org/CodeSystem/v3-ActCode","code":"AMB","display":"ambulatory"},"type":[{"coding":[{"system":"http://snomed.info/sct","code":"305336008","display":"Admission to hospice (procedure)"}]}],"subject":{"reference":"Patient/36f1ecd0-16a5-4f4a-bc5c-f1d2a3d8bcb8"},"period":{"start":"2024-12-31T23:59:00.000Z","end":"2024-12-31T23:59:00.000Z"}},"request":{"method":"PUT","url":"Encounter/ce2557d6-2a45-411b-9a02-ab2f3a0015d6"}},{"fullUrl":"https://madie.cms.gov/MeasureReport/38b29736-ea27-482f-ad05-52aac8602675","resource":{"resourceType":"MeasureReport","id":"38b29736-ea27-482f-ad05-52aac8602675","meta":{"profile":["http://hl7.org/fhir/us/cqfmeasures/StructureDefinition/test-case-cqfm"]},"contained":[{"resourceType":"Parameters","id":"052dd10c-c9a4-4fb5-b77e-cf7da188f70e-parameters","parameter":[{"name":"subject","valueString":"36f1ecd0-16a5-4f4a-bc5c-f1d2a3d8bcb8"}]}],"extension":[{"url":"http://hl7.org/fhir/us/cqfmeasures/StructureDefinition/cqfm-inputParameters","valueReference":{"reference":"#052dd10c-c9a4-4fb5-b77e-cf7da188f70e-parameters"}},{"url":"http://hl7.org/fhir/us/cqfmeasures/StructureDefinition/cqfm-testCaseDescription","valueMarkdown":"Hospice before MP"}],"modifierExtension":[{"url":"http://hl7.org/fhir/us/cqfmeasures/StructureDefinition/cqfm-isTestCase","valueBoolean":true}],"status":"complete","type":"individual","measure":"https://madie.cms.gov/Measure/FunctionalStatusAssessmentsforHeartFailureFHIR","period":{"start":"2025-01-01","end":"2025-12-31"},"group":[{"population":[{"code":{"coding":[{"system":"http://terminology.hl7.org/CodeSystem/measure-population","code":"initial-population","display":"Initial Population"}]},"count":1},{"code":{"coding":[{"system":"http://terminology.hl7.org/CodeSystem/measure-population","code":"denominator","display":"Denominator"}]},"count":1},{"code":{"coding":[{"system":"http://terminology.hl7.org/CodeSystem/measure-population","code":"denominator-exclusion","display":"Denominator Exclusion"}]},"count":0},{"code":{"coding":[{"system":"http://terminology.hl7.org/CodeSystem/measure-population","code":"numerator","display":"Numerator"}]},"count":0}]}]},"request":{"method":"PUT","url":"MeasureReport/38b29736-ea27-482f-ad05-52aac8602675"}}]}