{"resourceType":"Bundle","id":"tests-ab9cb197-3c30-48f9-ba83-a921641a4501-bundle","type":"transaction","entry":[{"fullUrl":"https://madie.cms.gov/Patient/ab9cb197-3c30-48f9-ba83-a921641a4501","resource":{"resourceType":"Patient","id":"ab9cb197-3c30-48f9-ba83-a921641a4501","meta":{"profile":["http://hl7.org/fhir/us/qicore/StructureDefinition/qicore-patient"]},"extension":[{"url":"http://hl7.org/fhir/us/core/StructureDefinition/us-core-race","extension":[{"url":"ombCategory","valueCoding":{"system":"urn:oid:2.16.840.1.113883.6.238","code":"2028-9","display":"Asian"}},{"url":"text","valueString":"Asian"}]},{"url":"http://hl7.org/fhir/us/core/StructureDefinition/us-core-ethnicity","extension":[{"url":"ombCategory","valueCoding":{"system":"urn:oid:2.16.840.1.113883.6.238","code":"2135-2","display":"Hispanic or Latino"}},{"url":"text","valueString":"Hispanic or Latino"}]}],"identifier":[{"system":"http://hospital.smarthealthit.org","value":"999999995"}],"name":[{"family":"Bertha","given":["Betty"]}],"gender":"female","birthDate":"2007-01-01"},"request":{"method":"PUT","url":"Patient/ab9cb197-3c30-48f9-ba83-a921641a4501"}},{"fullUrl":"https://madie.cms.gov/Encounter/Encounter-49","resource":{"resourceType":"Encounter","id":"09085d02-73a9-499f-ac1d-7fa8471652a2","meta":{"profile":["http://hl7.org/fhir/us/qicore/StructureDefinition/qicore-encounter"]},"status":"finished","class":{"system":"http://terminology.hl7.org/CodeSystem/v3-ActCode","code":"AMB","display":"ambulatory"},"type":[{"coding":[{"system":"http://snomed.info/sct","code":"185317003","display":"Telephone encounter (procedure)"}]}],"subject":{"reference":"Patient/ab9cb197-3c30-48f9-ba83-a921641a4501"},"period":{"start":"2025-01-01T01:00:00.000Z","end":"2025-01-01T01:15:00.000Z"}},"request":{"method":"PUT","url":"Encounter/09085d02-73a9-499f-ac1d-7fa8471652a2"}},{"fullUrl":"https://madie.cms.gov/Encounter/Encounter-50","resource":{"resourceType":"Encounter","id":"a8da890c-784a-4833-b1bd-8ebcb7e2a593","meta":{"profile":["http://hl7.org/fhir/us/qicore/StructureDefinition/qicore-encounter"]},"status":"finished","class":{"system":"http://terminology.hl7.org/CodeSystem/v3-ActCode","code":"AMB","display":"ambulatory"},"type":[{"coding":[{"system":"http://snomed.info/sct","code":"185317003","display":"Telephone encounter (procedure)"}]}],"subject":{"reference":"Patient/ab9cb197-3c30-48f9-ba83-a921641a4501"},"period":{"start":"2025-01-02T01:00:00.000Z","end":"2025-01-02T01:15:00.000Z"}},"request":{"method":"PUT","url":"Encounter/a8da890c-784a-4833-b1bd-8ebcb7e2a593"}},{"fullUrl":"https://madie.cms.gov/Condition/Condition-22","resource":{"resourceType":"Condition","id":"231a18c7-cd38-43c3-8180-b9c28059f507","meta":{"profile":["http://hl7.org/fhir/us/qicore/StructureDefinition/qicore-condition"]},"clinicalStatus":{"coding":[{"system":"http://terminology.hl7.org/CodeSystem/condition-clinical","code":"active"}]},"category":[{"coding":[{"system":"http://terminology.hl7.org/CodeSystem/condition-category","code":"problem-list-item","display":"Problem List Item"}]}],"code":{"coding":[{"system":"http://snomed.info/sct","code":"10091002","display":"High output heart failure (disorder)"}]},"subject":{"reference":"Patient/ab9cb197-3c30-48f9-ba83-a921641a4501"},"onsetDateTime":"2024-12-31T23:59:00.000Z"},"request":{"method":"PUT","url":"Condition/231a18c7-cd38-43c3-8180-b9c28059f507"}},{"fullUrl":"https://madie.cms.gov/Observation/Observation-77","resource":{"resourceType":"Observation","id":"20ed21ce-def8-45b3-a3e8-b5d80ef52377","meta":{"profile":["http://hl7.org/fhir/us/qicore/StructureDefinition/qicore-observation"]},"status":"final","category":[{"coding":[{"system":"http://terminology.hl7.org/CodeSystem/observation-category","code":"survey","display":"survey"}],"text":"survey"}],"code":{"coding":[{"system":"http://loinc.org","code":"72189-4","display":"Quality of life score [KCCQ]"}]},"subject":{"reference":"Patient/ab9cb197-3c30-48f9-ba83-a921641a4501"},"effectivePeriod":{"start":"2025-01-01T23:00:00.000Z","end":"2025-01-01T23:59:00.000Z"},"valueInteger":4},"request":{"method":"PUT","url":"Observation/20ed21ce-def8-45b3-a3e8-b5d80ef52377"}},{"fullUrl":"https://madie.cms.gov/Observation/Observation-78","resource":{"resourceType":"Observation","id":"5c577c08-5ab1-4dc6-9e9e-3367c3b931ba","meta":{"profile":["http://hl7.org/fhir/us/qicore/StructureDefinition/qicore-observation"]},"status":"final","category":[{"coding":[{"system":"http://terminology.hl7.org/CodeSystem/observation-category","code":"survey","display":"survey"}],"text":"survey"}],"code":{"coding":[{"system":"http://loinc.org","code":"72189-4","display":"Quality of life score [KCCQ]"}]},"subject":{"reference":"Patient/ab9cb197-3c30-48f9-ba83-a921641a4501"},"effectivePeriod":{"start":"2025-06-29T23:00:00.000Z","end":"2025-06-29T23:59:00.000Z"},"valueInteger":4},"request":{"method":"PUT","url":"Observation/5c577c08-5ab1-4dc6-9e9e-3367c3b931ba"}},{"fullUrl":"https://madie.cms.gov/Observation/Observation-79","resource":{"resourceType":"Observation","id":"bd9b817b-0265-42f1-89ac-d6eac0bc944f","meta":{"profile":["http://hl7.org/fhir/us/qicore/StructureDefinition/qicore-observation"]},"status":"final","category":[{"coding":[{"system":"http://terminology.hl7.org/CodeSystem/observation-category","code":"survey","display":"survey"}],"text":"survey"}],"code":{"coding":[{"system":"http://loinc.org","code":"72194-4","display":"Symptom stability score [KCCQ]"}]},"subject":{"reference":"Patient/ab9cb197-3c30-48f9-ba83-a921641a4501"},"effectivePeriod":{"start":"2025-01-01T23:00:00.000Z","end":"2025-01-01T23:59:00.000Z"},"valueInteger":4},"request":{"method":"PUT","url":"Observation/bd9b817b-0265-42f1-89ac-d6eac0bc944f"}},{"fullUrl":"https://madie.cms.gov/Observation/Observation-80","resource":{"resourceType":"Observation","id":"f0e7f96f-9a5e-4dc9-a372-628ee01ac7ff","meta":{"profile":["http://hl7.org/fhir/us/qicore/StructureDefinition/qicore-observation"]},"status":"final","category":[{"coding":[{"system":"http://terminology.hl7.org/CodeSystem/observation-category","code":"survey","display":"survey"}],"text":"survey"}],"code":{"coding":[{"system":"http://loinc.org","code":"72194-4","display":"Symptom stability score [KCCQ]"}]},"subject":{"reference":"Patient/ab9cb197-3c30-48f9-ba83-a921641a4501"},"effectivePeriod":{"start":"2025-06-29T23:00:00.000Z","end":"2025-06-29T23:59:00.000Z"},"valueInteger":4},"request":{"method":"PUT","url":"Observation/f0e7f96f-9a5e-4dc9-a372-628ee01ac7ff"}},{"fullUrl":"https://madie.cms.gov/Observation/Observation-81","resource":{"resourceType":"Observation","id":"01a57f23-967f-41a7-bd36-9c9a2ab69b7b","meta":{"profile":["http://hl7.org/fhir/us/qicore/StructureDefinition/qicore-observation"]},"status":"final","category":[{"coding":[{"system":"http://terminology.hl7.org/CodeSystem/observation-category","code":"survey","display":"survey"}],"text":"survey"}],"code":{"coding":[{"system":"http://loinc.org","code":"72190-2","display":"Self-efficacy score [KCCQ]"}]},"subject":{"reference":"Patient/ab9cb197-3c30-48f9-ba83-a921641a4501"},"effectivePeriod":{"start":"2025-01-01T23:00:00.000Z","end":"2025-01-01T23:59:00.000Z"},"valueInteger":4},"request":{"method":"PUT","url":"Observation/01a57f23-967f-41a7-bd36-9c9a2ab69b7b"}},{"fullUrl":"https://madie.cms.gov/Observation/Observation-82","resource":{"resourceType":"Observation","id":"0624afaf-96eb-4d70-96a2-49d2dfbc96b6","meta":{"profile":["http://hl7.org/fhir/us/qicore/StructureDefinition/qicore-observation"]},"status":"final","category":[{"coding":[{"system":"http://terminology.hl7.org/CodeSystem/observation-category","code":"survey","display":"survey"}],"text":"survey"}],"code":{"coding":[{"system":"http://loinc.org","code":"72190-2","display":"Self-efficacy score [KCCQ]"}]},"subject":{"reference":"Patient/ab9cb197-3c30-48f9-ba83-a921641a4501"},"effectivePeriod":{"start":"2025-06-29T23:00:00.000Z","end":"2025-06-29T23:59:00.000Z"},"valueInteger":4},"request":{"method":"PUT","url":"Observation/0624afaf-96eb-4d70-96a2-49d2dfbc96b6"}},{"fullUrl":"https://madie.cms.gov/Observation/Observation-83","resource":{"resourceType":"Observation","id":"98f1bb2d-491c-4904-9749-2d5bc3141fd7","meta":{"profile":["http://hl7.org/fhir/us/qicore/StructureDefinition/qicore-observation"]},"status":"final","category":[{"coding":[{"system":"http://terminology.hl7.org/CodeSystem/observation-category","code":"survey","display":"survey"}],"text":"survey"}],"code":{"coding":[{"system":"http://loinc.org","code":"72191-0","display":"Total symptom score [KCCQ]"}]},"subject":{"reference":"Patient/ab9cb197-3c30-48f9-ba83-a921641a4501"},"effectivePeriod":{"start":"2025-01-01T23:00:00.000Z","end":"2025-01-01T23:59:00.000Z"},"valueInteger":4},"request":{"method":"PUT","url":"Observation/98f1bb2d-491c-4904-9749-2d5bc3141fd7"}},{"fullUrl":"https://madie.cms.gov/Observation/Observation-84","resource":{"resourceType":"Observation","id":"a5ddf19a-d9cf-454d-bd7a-b74f969f978e","meta":{"profile":["http://hl7.org/fhir/us/qicore/StructureDefinition/qicore-observation"]},"status":"final","category":[{"coding":[{"system":"http://terminology.hl7.org/CodeSystem/observation-category","code":"survey","display":"survey"}],"text":"survey"}],"code":{"coding":[{"system":"http://loinc.org","code":"72191-0","display":"Total symptom score [KCCQ]"}]},"subject":{"reference":"Patient/ab9cb197-3c30-48f9-ba83-a921641a4501"},"effectivePeriod":{"start":"2025-06-29T23:00:00.000Z","end":"2025-06-29T23:59:00.000Z"},"valueInteger":4},"request":{"method":"PUT","url":"Observation/a5ddf19a-d9cf-454d-bd7a-b74f969f978e"}},{"fullUrl":"https://madie.cms.gov/Observation/Observation-85","resource":{"resourceType":"Observation","id":"5a1b0032-4bc1-4807-bb48-37bf337e1404","meta":{"profile":["http://hl7.org/fhir/us/qicore/StructureDefinition/qicore-observation"]},"status":"final","category":[{"coding":[{"system":"http://terminology.hl7.org/CodeSystem/observation-category","code":"survey","display":"survey"}],"text":"survey"}],"code":{"coding":[{"system":"http://loinc.org","code":"72195-1","display":"Physical limitation score [KCCQ]"}]},"subject":{"reference":"Patient/ab9cb197-3c30-48f9-ba83-a921641a4501"},"effectivePeriod":{"start":"2025-01-01T23:00:00.000Z","end":"2025-01-01T23:59:00.000Z"},"valueInteger":4},"request":{"method":"PUT","url":"Observation/5a1b0032-4bc1-4807-bb48-37bf337e1404"}},{"fullUrl":"https://madie.cms.gov/Observation/Observation-86","resource":{"resourceType":"Observation","id":"c8ada3e9-c123-4eac-bfb8-6db917ebba35","meta":{"profile":["http://hl7.org/fhir/us/qicore/StructureDefinition/qicore-observation"]},"status":"final","category":[{"coding":[{"system":"http://terminology.hl7.org/CodeSystem/observation-category","code":"survey","display":"survey"}],"text":"survey"}],"code":{"coding":[{"system":"http://loinc.org","code":"72195-1","display":"Physical limitation score [KCCQ]"}]},"subject":{"reference":"Patient/ab9cb197-3c30-48f9-ba83-a921641a4501"},"effectivePeriod":{"start":"2025-06-29T23:00:00.000Z","end":"2025-06-29T23:59:00.000Z"},"valueInteger":4},"request":{"method":"PUT","url":"Observation/c8ada3e9-c123-4eac-bfb8-6db917ebba35"}},{"fullUrl":"https://madie.cms.gov/Observation/Observation-87","resource":{"resourceType":"Observation","id":"112cdef5-b4af-41e2-b7a3-3e2a0609366f","meta":{"profile":["http://hl7.org/fhir/us/qicore/StructureDefinition/qicore-observation"]},"status":"final","category":[{"coding":[{"system":"http://terminology.hl7.org/CodeSystem/observation-category","code":"survey","display":"survey"}],"text":"survey"}],"code":{"coding":[{"system":"http://loinc.org","code":"72196-9","display":"Social limitation score [KCCQ]"}]},"subject":{"reference":"Patient/ab9cb197-3c30-48f9-ba83-a921641a4501"},"effectivePeriod":{"start":"2025-01-01T23:00:00.000Z","end":"2025-01-01T23:59:00.000Z"},"valueInteger":4},"request":{"method":"PUT","url":"Observation/112cdef5-b4af-41e2-b7a3-3e2a0609366f"}},{"fullUrl":"https://madie.cms.gov/Observation/Observation-88","resource":{"resourceType":"Observation","id":"5b218b5d-d183-4fb8-8cc2-9120b0a1dba8","meta":{"profile":["http://hl7.org/fhir/us/qicore/StructureDefinition/qicore-observation"]},"status":"final","category":[{"coding":[{"system":"http://terminology.hl7.org/CodeSystem/observation-category","code":"survey","display":"survey"}],"text":"survey"}],"code":{"coding":[{"system":"http://loinc.org","code":"72196-9","display":"Social limitation score [KCCQ]"}]},"subject":{"reference":"Patient/ab9cb197-3c30-48f9-ba83-a921641a4501"},"effectivePeriod":{"start":"2025-06-29T23:00:00.000Z","end":"2025-06-29T23:59:00.000Z"},"valueInteger":4},"request":{"method":"PUT","url":"Observation/5b218b5d-d183-4fb8-8cc2-9120b0a1dba8"}},{"fullUrl":"https://madie.cms.gov/MeasureReport/85ac0a93-87d1-4781-8776-cea6b27f0868","resource":{"resourceType":"MeasureReport","id":"85ac0a93-87d1-4781-8776-cea6b27f0868","meta":{"profile":["http://hl7.org/fhir/us/cqfmeasures/StructureDefinition/test-case-cqfm"]},"contained":[{"resourceType":"Parameters","id":"f07247a7-c6cf-4262-b6fb-86022ffa6893-parameters","parameter":[{"name":"subject","valueString":"ab9cb197-3c30-48f9-ba83-a921641a4501"}]}],"extension":[{"url":"http://hl7.org/fhir/us/cqfmeasures/StructureDefinition/cqfm-inputParameters","valueReference":{"reference":"#f07247a7-c6cf-4262-b6fb-86022ffa6893-parameters"}},{"url":"http://hl7.org/fhir/us/cqfmeasures/StructureDefinition/cqfm-testCaseDescription","valueMarkdown":"Patient has all KCCQ Domain assessments with results during the correct timeframe. Testing the 180 days boundary."}],"modifierExtension":[{"url":"http://hl7.org/fhir/us/cqfmeasures/StructureDefinition/cqfm-isTestCase","valueBoolean":true}],"status":"complete","type":"individual","measure":"https://madie.cms.gov/Measure/FunctionalStatusAssessmentsforHeartFailureFHIR","period":{"start":"2025-01-01","end":"2025-12-31"},"group":[{"population":[{"code":{"coding":[{"system":"http://terminology.hl7.org/CodeSystem/measure-population","code":"initial-population","display":"Initial Population"}]},"count":1},{"code":{"coding":[{"system":"http://terminology.hl7.org/CodeSystem/measure-population","code":"denominator","display":"Denominator"}]},"count":1},{"code":{"coding":[{"system":"http://terminology.hl7.org/CodeSystem/measure-population","code":"denominator-exclusion","display":"Denominator Exclusion"}]},"count":0},{"code":{"coding":[{"system":"http://terminology.hl7.org/CodeSystem/measure-population","code":"numerator","display":"Numerator"}]},"count":1}]}]},"request":{"method":"PUT","url":"MeasureReport/85ac0a93-87d1-4781-8776-cea6b27f0868"}}]}