{
  "resourceType": "Bundle",
  "id": "617bf45e1619a529957d62cd",
  "type": "transaction",
  "entry": [ {
    "fullUrl": "https://madie.cms.gov/Patient/83e7cc74-5ae5-4fb9-922f-15faa555890a",
    "resource": {
      "resourceType": "Patient",
      "id": "83e7cc74-5ae5-4fb9-922f-15faa555890a",
      "meta": {
        "profile": [ "http://hl7.org/fhir/us/qicore/StructureDefinition/qicore-patient" ]
      },
      "extension": [ {
        "url": "http://hl7.org/fhir/us/core/StructureDefinition/us-core-race",
        "extension": [ {
          "url": "ombCategory",
          "valueCoding": {
            "system": "urn:oid:2.16.840.1.113883.6.238",
            "code": "2028-9",
            "display": "Asian",
            "userSelected": true
          }
        }, {
          "url": "text",
          "valueString": "Asian"
        } ]
      }, {
        "url": "http://hl7.org/fhir/us/core/StructureDefinition/us-core-ethnicity",
        "extension": [ {
          "url": "ombCategory",
          "valueCoding": {
            "system": "urn:oid:2.16.840.1.113883.6.238",
            "code": "2135-2",
            "display": "Hispanic or Latino",
            "userSelected": true
          }
        }, {
          "url": "text",
          "valueString": "Hispanic or Latino"
        } ]
      } ],
      "identifier": [ {
        "type": {
          "coding": [ {
            "system": "http://terminology.hl7.org/CodeSystem/v2-0203",
            "code": "MR"
          } ]
        },
        "system": "https://bonnie-fhir.healthit.gov/",
        "value": "617bf45e1619a529957d62cd"
      } ],
      "name": [ {
        "family": "DenExcl8Pass",
        "given": [ "AllergyStartsBeforeEDNoEnd" ]
      } ],
      "gender": "male",
      "birthDate": "1985-12-02"
    },
    "request": {
      "method": "PUT",
      "url": "Patient/83e7cc74-5ae5-4fb9-922f-15faa555890a"
    }
  }, {
    "fullUrl": "https://madie.cms.gov/Encounter/128367c5-fdec-4aa3-93b0-f1b58ba230d1",
    "resource": {
      "resourceType": "Encounter",
      "id": "128367c5-fdec-4aa3-93b0-f1b58ba230d1",
      "meta": {
        "profile": [ "http://hl7.org/fhir/us/qicore/StructureDefinition/qicore-encounter" ]
      },
      "status": "finished",
      "class": {
        "system": "http://terminology.hl7.org/CodeSystem/v3-ActCode",
        "code": "EMER",
        "display": "emergency",
        "userSelected": true
      },
      "type": [ {
        "coding": [ {
          "system": "http://snomed.info/sct",
          "version": "2020-09",
          "code": "4525004",
          "display": "Emergency department patient visit (procedure)",
          "userSelected": true
        } ]
      } ],
      "subject": {
        "reference": "Patient/83e7cc74-5ae5-4fb9-922f-15faa555890a"
      },
      "period": {
        "start": "2026-10-09T08:05:00.000+00:00",
        "end": "2026-10-10T07:15:00.000+00:00"
      },
      "reasonCode": [ {
        "coding": [ {
          "system": "http://snomed.info/sct",
          "version": "2020-09",
          "code": "703211006",
          "display": "Subsequent ST segment elevation myocardial infarction (disorder)",
          "userSelected": true
        } ]
      } ]
    },
    "request": {
      "method": "PUT",
      "url": "Encounter/128367c5-fdec-4aa3-93b0-f1b58ba230d1"
    }
  }, {
    "fullUrl": "https://madie.cms.gov/AllergyIntolerance/6d7c38c7-55cb-44b0-b548-3bfdebde8b64",
    "resource": {
      "resourceType": "AllergyIntolerance",
      "id": "6d7c38c7-55cb-44b0-b548-3bfdebde8b64",
      "meta": {
        "profile": [ "http://hl7.org/fhir/us/qicore/StructureDefinition/qicore-allergyintolerance" ]
      },
      "clinicalStatus": {
        "coding": [ {
          "system": "http://terminology.hl7.org/CodeSystem/allergyintolerance-clinical",
          "code": "active",
          "display": "allergy-active",
          "userSelected": true
        } ]
      },
      "code": {
        "coding": [ {
          "system": "http://www.nlm.nih.gov/research/umls/rxnorm",
          "version": "2021-01",
          "code": "10106",
          "display": "streptokinase",
          "userSelected": true
        } ]
      },
      "patient": {
        "reference": "Patient/83e7cc74-5ae5-4fb9-922f-15faa555890a"
      },
      "onsetPeriod": {
        "start": "2021-01-10T08:00:00.000+00:00"
      }
    },
    "request": {
      "method": "PUT",
      "url": "AllergyIntolerance/6d7c38c7-55cb-44b0-b548-3bfdebde8b64"
    }
  }, {
    "fullUrl": "https://madie.cms.gov/MeasureReport/209256ab-6791-48e2-b842-9e98784173c5",
    "resource": {
      "resourceType": "MeasureReport",
      "id": "209256ab-6791-48e2-b842-9e98784173c5",
      "meta": {
        "profile": [ "http://hl7.org/fhir/us/cqfmeasures/StructureDefinition/test-case-cqfm" ]
      },
      "contained": [ {
        "resourceType": "Parameters",
        "id": "d9c7b990-5f78-4a7c-9289-0cc1f886e1d2-parameters",
        "parameter": [ {
          "name": "subject",
          "valueString": "83e7cc74-5ae5-4fb9-922f-15faa555890a"
        } ]
      } ],
      "extension": [ {
        "url": "http://hl7.org/fhir/us/cqfmeasures/StructureDefinition/cqfm-inputParameters",
        "valueReference": {
          "reference": "#d9c7b990-5f78-4a7c-9289-0cc1f886e1d2-parameters"
        }
      }, {
        "url": "http://hl7.org/fhir/us/cqfmeasures/StructureDefinition/cqfm-testCaseDescription",
        "valueMarkdown": "Patient has allergy to medication ingredient starts before ED and no end"
      } ],
      "modifierExtension": [ {
        "url": "http://hl7.org/fhir/us/cqfmeasures/StructureDefinition/cqfm-isTestCase",
        "valueBoolean": true
      } ],
      "status": "complete",
      "type": "individual",
      "measure": "https://madie.cms.gov/Measure/CMS996FHIRAptTxforSTEMI",
      "period": {
        "start": "2026-01-01",
        "end": "2026-12-31"
      },
      "group": [ {
        "population": [ {
          "code": {
            "coding": [ {
              "system": "http://terminology.hl7.org/CodeSystem/measure-population",
              "code": "initial-population",
              "display": "Initial Population"
            } ]
          },
          "count": 1
        }, {
          "code": {
            "coding": [ {
              "system": "http://terminology.hl7.org/CodeSystem/measure-population",
              "code": "denominator",
              "display": "Denominator"
            } ]
          },
          "count": 1
        }, {
          "code": {
            "coding": [ {
              "system": "http://terminology.hl7.org/CodeSystem/measure-population",
              "code": "denominator-exclusion",
              "display": "Denominator Exclusion"
            } ]
          },
          "count": 1
        }, {
          "code": {
            "coding": [ {
              "system": "http://terminology.hl7.org/CodeSystem/measure-population",
              "code": "numerator",
              "display": "Numerator"
            } ]
          },
          "count": 0
        }, {
          "code": {
            "coding": [ {
              "system": "http://terminology.hl7.org/CodeSystem/measure-population",
              "code": "denominator-exception",
              "display": "Denominator Exception"
            } ]
          },
          "count": 0
        } ]
      } ],
      "evaluatedResource": [ {
        "reference": "Patient/83e7cc74-5ae5-4fb9-922f-15faa555890a"
      }, {
        "reference": "Encounter/128367c5-fdec-4aa3-93b0-f1b58ba230d1"
      }, {
        "reference": "AllergyIntolerance/6d7c38c7-55cb-44b0-b548-3bfdebde8b64"
      } ]
    },
    "request": {
      "method": "PUT",
      "url": "MeasureReport/209256ab-6791-48e2-b842-9e98784173c5"
    }
  } ]
}