{
  "resourceType": "Bundle",
  "id": "tests-37c6141e-3120-4b78-ab4a-be6eef7bca2e-bundle",
  "type": "transaction",
  "entry": [ {
    "fullUrl": "https://madie.cms.gov/Patient/37c6141e-3120-4b78-ab4a-be6eef7bca2e",
    "resource": {
      "resourceType": "Patient",
      "id": "37c6141e-3120-4b78-ab4a-be6eef7bca2e",
      "meta": {
        "profile": [ "http://hl7.org/fhir/us/qicore/StructureDefinition/qicore-patient" ]
      },
      "text": {
        "status": "generated",
        "div": "<div xmlns=\"http://www.w3.org/1999/xhtml\"><div class=\"hapiHeaderText\">2Encountersat10075, , <b> </b></div><table class=\"hapiPropertyTable\"><tbody><tr><td>Identifier</td><td>2Encountersat10075</td></tr><tr><td>Date of birth</td><td><span>14 May 1950</span></td></tr></tbody></table></div>"
      },
      "extension": [ {
        "url": "http://hl7.org/fhir/us/core/StructureDefinition/us-core-race",
        "extension": [ {
          "url": "ombCategory",
          "valueCoding": {
            "system": "urn:oid:2.16.840.1.113883.6.238",
            "code": "2106-3",
            "display": "White",
            "userSelected": true
          }
        }, {
          "url": "text",
          "valueString": "White"
        } ]
      }, {
        "url": "http://hl7.org/fhir/us/core/StructureDefinition/us-core-ethnicity",
        "extension": [ {
          "url": "ombCategory",
          "valueCoding": {
            "system": "urn:oid:2.16.840.1.113883.6.238",
            "code": "2186-5",
            "display": "Not Hispanic or Latino",
            "userSelected": true
          }
        }, {
          "url": "text",
          "valueString": "Not Hispanic or Latino"
        } ]
      } ],
      "identifier": [ {
        "type": {
          "coding": [ {
            "system": "http://terminology.hl7.org/CodeSystem/v2-0203",
            "code": "MR"
          } ]
        },
        "system": "https://madie.cms.gov/",
        "value": "2Encountersat10075"
      } ],
      "active": true,
      "name": [ {
        "use": "usual",
        "text": "2Encountersat10075",
        "family": "denompass444",
        "given": [ "2Encountersat10075denompass444" ]
      } ],
      "gender": "male",
      "birthDate": "1950-05-14",
      "address": [ {
        "text": "2Encountersat10075, Screened Not at risk Assessed Severely Malnourished Diagnosed Care Plan, ID=2Encountersat10075, DOB: 14 May 1950"
      } ]
    },
    "request": {
      "method": "POST",
      "url": "Patient/37c6141e-3120-4b78-ab4a-be6eef7bca2e"
    }
  }, {
    "fullUrl": "https://madie.cms.gov/Encounter/2Encountersat10075-01",
    "resource": {
      "resourceType": "Encounter",
      "id": "2Encountersat10075-01",
      "meta": {
        "profile": [ "http://hl7.org/fhir/us/qicore/StructureDefinition/qicore-encounter" ]
      },
      "status": "finished",
      "class": {
        "system": "http://terminology.hl7.org/CodeSystem/v3-ActCode",
        "code": "IMP",
        "display": "inpatient encounter"
      },
      "type": [ {
        "coding": [ {
          "system": "http://snomed.info/sct",
          "code": "183452005"
        } ]
      } ],
      "subject": {
        "reference": "Patient/37c6141e-3120-4b78-ab4a-be6eef7bca2e"
      },
      "period": {
        "start": "2025-02-01T08:00:00.000Z",
        "end": "2025-02-07T08:15:00.000Z"
      }
    },
    "request": {
      "method": "POST",
      "url": "Encounter/2Encountersat10075-01"
    }
  }, {
    "fullUrl": "https://madie.cms.gov/Condition/2Encountersat10075-06",
    "resource": {
      "resourceType": "Condition",
      "id": "2Encountersat10075-06",
      "meta": {
        "profile": [ "http://hl7.org/fhir/us/qicore/StructureDefinition/qicore-condition" ]
      },
      "clinicalStatus": {
        "coding": [ {
          "system": "http://terminology.hl7.org/CodeSystem/condition-clinical",
          "code": "active",
          "display": "Active",
          "userSelected": true
        } ]
      },
      "verificationStatus": {
        "coding": [ {
          "system": "http://terminology.hl7.org/CodeSystem/condition-ver-status",
          "code": "confirmed",
          "display": "Confirmed",
          "userSelected": true
        } ]
      },
      "category": [ {
        "coding": [ {
          "system": "http://terminology.hl7.org/CodeSystem/condition-category",
          "code": "encounter-diagnosis",
          "display": "Encounter Diagnosis",
          "userSelected": true
        } ]
      } ],
      "code": {
        "coding": [ {
          "system": "http://snomed.info/sct",
          "code": "272588001",
          "display": "Malnutrition (calorie) (disorder)",
          "userSelected": true
        } ]
      },
      "subject": {
        "reference": "Patient/37c6141e-3120-4b78-ab4a-be6eef7bca2e"
      },
      "onsetPeriod": {
        "start": "2025-02-01T08:00:00.000+00:00"
      },
      "recordedDate": "2025-02-01T11:00:00.000+00:00"
    },
    "request": {
      "method": "POST",
      "url": "Condition/2Encountersat10075-06"
    }
  }, {
    "fullUrl": "https://madie.cms.gov/Observation/2Encountersat10075-18",
    "resource": {
      "resourceType": "Observation",
      "id": "2Encountersat10075-18",
      "meta": {
        "profile": [ "http://hl7.org/fhir/us/qicore/StructureDefinition/qicore-observation" ]
      },
      "status": "final",
      "category": [ {
        "coding": [ {
          "system": "http://terminology.hl7.org/CodeSystem/observation-category",
          "code": "survey",
          "display": "Survey"
        } ]
      } ],
      "code": {
        "coding": [ {
          "system": "http://loinc.org",
          "code": "98968-1",
          "display": "Initial Screening NRS_2002",
          "userSelected": true
        } ]
      },
      "subject": {
        "reference": "Patient/37c6141e-3120-4b78-ab4a-be6eef7bca2e"
      },
      "effectiveDateTime": "2025-02-01T09:00:00.000+00:00",
      "valueCodeableConcept": {
        "coding": [ {
          "system": "http://snomed.info/sct",
          "code": "36823005",
          "display": "Normal diet (finding)",
          "userSelected": true
        } ]
      }
    },
    "request": {
      "method": "POST",
      "url": "Observation/2Encountersat10075-18"
    }
  }, {
    "fullUrl": "https://madie.cms.gov/Observation/2Encountersat10075-19",
    "resource": {
      "resourceType": "Observation",
      "id": "2Encountersat10075-19",
      "meta": {
        "profile": [ "http://hl7.org/fhir/us/qicore/StructureDefinition/qicore-observation" ]
      },
      "status": "final",
      "category": [ {
        "coding": [ {
          "system": "http://terminology.hl7.org/CodeSystem/observation-category",
          "code": "survey",
          "display": "Survey"
        } ]
      } ],
      "code": {
        "coding": [ {
          "system": "http://loinc.org",
          "code": "75285-7",
          "display": "Comparative nutrition assessment standards panel",
          "userSelected": true
        } ]
      },
      "subject": {
        "reference": "Patient/37c6141e-3120-4b78-ab4a-be6eef7bca2e"
      },
      "effectiveDateTime": "2025-02-01T10:00:00.000+00:00",
      "valueCodeableConcept": {
        "coding": [ {
          "system": "http://snomed.info/sct",
          "code": "272588001",
          "display": "Malnutrition (calorie) (disorder)",
          "userSelected": true
        } ]
      }
    },
    "request": {
      "method": "POST",
      "url": "Observation/2Encountersat10075-19"
    }
  }, {
    "fullUrl": "https://madie.cms.gov/Procedure/2Encountersat10075-12",
    "resource": {
      "resourceType": "Procedure",
      "id": "2Encountersat10075-12",
      "meta": {
        "profile": [ "http://hl7.org/fhir/us/qicore/StructureDefinition/qicore-procedure" ]
      },
      "extension": [ {
        "url": "http://hl7.org/fhir/us/qicore/StructureDefinition/qicore-recorded",
        "valueDateTime": "2025-02-01T11:30:00.000Z"
      } ],
      "status": "completed",
      "code": {
        "coding": [ {
          "system": "http://snomed.info/sct",
          "code": "306354000",
          "display": "Referral to hospital-based dietitian (procedure)"
        } ],
        "text": "Referral to hospital-based dietitian (procedure)"
      },
      "subject": {
        "reference": "Patient/37c6141e-3120-4b78-ab4a-be6eef7bca2e"
      },
      "encounter": {
        "reference": "Encounter/2Encountersat10075denompass444"
      },
      "performedPeriod": {
        "start": "2025-02-01T11:30:00.000Z",
        "end": "2025-02-07T08:15:00.000Z"
      }
    },
    "request": {
      "method": "POST",
      "url": "Procedure/2Encountersat10075-12"
    }
  }, {
    "fullUrl": "https://madie.cms.gov/Procedure/2Encountersat10075-08",
    "resource": {
      "resourceType": "Procedure",
      "id": "2Encountersat10075-08",
      "meta": {
        "profile": [ "http://hl7.org/fhir/us/qicore/StructureDefinition/qicore-procedure" ]
      },
      "extension": [ {
        "url": "http://hl7.org/fhir/us/qicore/StructureDefinition/qicore-recorded",
        "valueDateTime": "2025-02-02T11:30:00.000Z"
      } ],
      "status": "completed",
      "code": {
        "coding": [ {
          "system": "http://snomed.info/sct",
          "code": "386372009",
          "display": "Nutrition management (regime/therapy)"
        } ],
        "text": "Nutrition management (regime/therapy)"
      },
      "subject": {
        "reference": "Patient/37c6141e-3120-4b78-ab4a-be6eef7bca2e"
      },
      "encounter": {
        "reference": "Encounter/2Encountersat10075denompass444"
      },
      "performedPeriod": {
        "start": "2025-02-01T11:30:00.000Z",
        "end": "2025-02-07T08:15:00.000Z"
      }
    },
    "request": {
      "method": "POST",
      "url": "Procedure/2Encountersat10075-08"
    }
  }, {
    "fullUrl": "https://madie.cms.gov/Coverage/2Encountersat10075-61",
    "resource": {
      "resourceType": "Coverage",
      "id": "2Encountersat10075-61",
      "meta": {
        "profile": [ "http://hl7.org/fhir/us/qicore/StructureDefinition/qicore-coverage" ]
      },
      "status": "active",
      "type": {
        "coding": [ {
          "system": "https://nahdo.org/sopt",
          "version": "9.2",
          "code": "11",
          "display": "Medicare Managed Care (Includes Medicare Advantage Plans)"
        } ]
      },
      "beneficiary": {
        "reference": "Patient/37c6141e-3120-4b78-ab4a-be6eef7bca2e"
      },
      "period": {
        "start": "2024-10-01T00:00:00+00:00"
      },
      "payor": [ {
        "reference": "Organization/2Encountersat10075-98"
      } ]
    },
    "request": {
      "method": "POST",
      "url": "Coverage/2Encountersat10075-61"
    }
  }, {
    "fullUrl": "https://madie.cms.gov/Encounter/2Encountersat10075-20",
    "resource": {
      "resourceType": "Encounter",
      "id": "2Encountersat10075-20",
      "meta": {
        "profile": [ "http://hl7.org/fhir/us/qicore/StructureDefinition/qicore-encounter" ]
      },
      "status": "finished",
      "class": {
        "system": "http://terminology.hl7.org/CodeSystem/v3-ActCode",
        "code": "IMP",
        "display": "inpatient encounter"
      },
      "type": [ {
        "coding": [ {
          "system": "http://snomed.info/sct",
          "code": "183452005"
        } ]
      } ],
      "subject": {
        "reference": "Patient/37c6141e-3120-4b78-ab4a-be6eef7bca2e"
      },
      "period": {
        "start": "2025-03-01T08:00:00.000Z",
        "end": "2025-03-07T08:15:00.000Z"
      }
    },
    "request": {
      "method": "POST",
      "url": "Encounter/2Encountersat10075-20"
    }
  }, {
    "fullUrl": "https://madie.cms.gov/Condition/2Encountersat10075-21",
    "resource": {
      "resourceType": "Condition",
      "id": "2Encountersat10075-21",
      "meta": {
        "profile": [ "http://hl7.org/fhir/us/qicore/StructureDefinition/qicore-condition" ]
      },
      "clinicalStatus": {
        "coding": [ {
          "system": "http://terminology.hl7.org/CodeSystem/condition-clinical",
          "code": "active",
          "display": "Active",
          "userSelected": true
        } ]
      },
      "verificationStatus": {
        "coding": [ {
          "system": "http://terminology.hl7.org/CodeSystem/condition-ver-status",
          "code": "confirmed",
          "display": "Confirmed",
          "userSelected": true
        } ]
      },
      "category": [ {
        "coding": [ {
          "system": "http://terminology.hl7.org/CodeSystem/condition-category",
          "code": "encounter-diagnosis",
          "display": "Encounter Diagnosis",
          "userSelected": true
        } ]
      } ],
      "code": {
        "coding": [ {
          "system": "http://snomed.info/sct",
          "code": "272588001",
          "display": "Malnutrition (calorie) (disorder)",
          "userSelected": true
        } ]
      },
      "subject": {
        "reference": "Patient/37c6141e-3120-4b78-ab4a-be6eef7bca2e"
      },
      "onsetPeriod": {
        "start": "2025-03-01T08:00:00.000+00:00"
      },
      "recordedDate": "2025-03-01T11:00:00.000+00:00"
    },
    "request": {
      "method": "POST",
      "url": "Condition/2Encountersat10075-21"
    }
  }, {
    "fullUrl": "https://madie.cms.gov/Observation/2Encountersat10075-23",
    "resource": {
      "resourceType": "Observation",
      "id": "2Encountersat10075-23",
      "meta": {
        "profile": [ "http://hl7.org/fhir/us/qicore/StructureDefinition/qicore-observation" ]
      },
      "status": "final",
      "category": [ {
        "coding": [ {
          "system": "http://terminology.hl7.org/CodeSystem/observation-category",
          "code": "survey",
          "display": "Survey"
        } ]
      } ],
      "code": {
        "coding": [ {
          "system": "http://loinc.org",
          "code": "75285-7",
          "display": "Comparative nutrition assessment standards panel",
          "userSelected": true
        } ]
      },
      "subject": {
        "reference": "Patient/37c6141e-3120-4b78-ab4a-be6eef7bca2e"
      },
      "effectiveDateTime": "2025-03-01T10:00:00.000+00:00",
      "valueCodeableConcept": {
        "coding": [ {
          "system": "http://snomed.info/sct",
          "code": "272588001",
          "display": "Malnutrition (calorie) (disorder)",
          "userSelected": true
        } ]
      }
    },
    "request": {
      "method": "POST",
      "url": "Observation/2Encountersat10075-23"
    }
  }, {
    "fullUrl": "https://madie.cms.gov/Procedure/2Encountersat10075-24",
    "resource": {
      "resourceType": "Procedure",
      "id": "2Encountersat10075-24",
      "meta": {
        "profile": [ "http://hl7.org/fhir/us/qicore/StructureDefinition/qicore-procedure" ]
      },
      "extension": [ {
        "url": "http://hl7.org/fhir/us/qicore/StructureDefinition/qicore-recorded",
        "valueDateTime": "2025-03-01T11:30:00.000Z"
      } ],
      "status": "completed",
      "code": {
        "coding": [ {
          "system": "http://snomed.info/sct",
          "code": "306354000",
          "display": "Referral to hospital-based dietitian (procedure)"
        } ],
        "text": "Referral to hospital-based dietitian (procedure)"
      },
      "subject": {
        "reference": "Patient/37c6141e-3120-4b78-ab4a-be6eef7bca2e"
      },
      "encounter": {
        "reference": "Encounter/2Encountersat10075denompass444"
      },
      "performedPeriod": {
        "start": "2025-03-01T11:30:00.000Z",
        "end": "2025-03-07T08:15:00.000Z"
      }
    },
    "request": {
      "method": "POST",
      "url": "Procedure/2Encountersat10075-24"
    }
  }, {
    "fullUrl": "https://madie.cms.gov/Coverage/2Encountersat10075-32",
    "resource": {
      "resourceType": "Coverage",
      "id": "2Encountersat10075-32",
      "meta": {
        "profile": [ "http://hl7.org/fhir/us/qicore/StructureDefinition/qicore-coverage" ]
      },
      "status": "active",
      "type": {
        "coding": [ {
          "system": "https://nahdo.org/sopt",
          "version": "9.2",
          "code": "11",
          "display": "Medicare Managed Care (Includes Medicare Advantage Plans)"
        } ]
      },
      "beneficiary": {
        "reference": "Patient/37c6141e-3120-4b78-ab4a-be6eef7bca2e"
      },
      "period": {
        "start": "2024-10-01T00:00:00+00:00"
      },
      "payor": [ {
        "reference": "Organization/2Encountersat10075-98"
      } ]
    },
    "request": {
      "method": "POST",
      "url": "Coverage/2Encountersat10075-32"
    }
  }, {
    "fullUrl": "https://madie.cms.gov/Organization/2Encountersat10075-98",
    "resource": {
      "resourceType": "Organization",
      "id": "2Encountersat10075-98",
      "meta": {
        "profile": [ "http://hl7.org/fhir/us/qicore/StructureDefinition/qicore-organization" ]
      },
      "identifier": [ {
        "use": "temp",
        "system": "urn:oid:2.16.840.1.113883.4.4",
        "value": "21-3259825"
      } ],
      "active": true,
      "type": [ {
        "coding": [ {
          "system": "http://terminology.hl7.org/CodeSystem/organization-type",
          "code": "pay",
          "display": "Payer"
        } ]
      } ],
      "name": "Blue Cross Blue Shield of Texas",
      "telecom": [ {
        "system": "phone",
        "value": "(+1) 972-766-6900"
      } ],
      "address": [ {
        "use": "billing",
        "type": "postal",
        "line": [ "P.O. Box 660044" ],
        "city": "Dallas",
        "state": "TX",
        "postalCode": "75266-0044",
        "country": "USA"
      } ]
    },
    "request": {
      "method": "POST",
      "url": "Organization/2Encountersat10075-98"
    }
  }, {
    "fullUrl": "https://madie.cms.gov/MeasureReport/793454f5-e62a-43d9-86fe-06f19640f2df",
    "resource": {
      "resourceType": "MeasureReport",
      "id": "793454f5-e62a-43d9-86fe-06f19640f2df",
      "meta": {
        "profile": [ "http://hl7.org/fhir/us/cqfmeasures/StructureDefinition/test-case-cqfm" ]
      },
      "contained": [ {
        "resourceType": "Parameters",
        "id": "fd0e2a85-20df-41c5-af8a-9ef42d2f0fe9-parameters",
        "parameter": [ {
          "name": "subject",
          "valueString": "37c6141e-3120-4b78-ab4a-be6eef7bca2e"
        } ]
      } ],
      "extension": [ {
        "url": "http://hl7.org/fhir/us/cqfmeasures/StructureDefinition/cqfm-inputParameters",
        "valueReference": {
          "reference": "#fd0e2a85-20df-41c5-af8a-9ef42d2f0fe9-parameters"
        }
      }, {
        "url": "http://hl7.org/fhir/us/cqfmeasures/StructureDefinition/cqfm-testCaseDescription",
        "valueMarkdown": "Multiple Encounters"
      } ],
      "modifierExtension": [ {
        "url": "http://hl7.org/fhir/us/cqfmeasures/StructureDefinition/cqfm-isTestCase",
        "valueBoolean": true
      } ],
      "status": "complete",
      "type": "individual",
      "measure": "https://madie.cms.gov/Measure/GlobalMalnutritionCompositeFHIR",
      "period": {
        "start": "2025-01-01",
        "end": "2025-12-31"
      },
      "group": [ {
        "population": [ {
          "code": {
            "coding": [ {
              "system": "http://terminology.hl7.org/CodeSystem/measure-population",
              "code": "initial-population",
              "display": "Initial Population"
            } ]
          },
          "count": 2
        }, {
          "code": {
            "coding": [ {
              "system": "http://terminology.hl7.org/CodeSystem/measure-population",
              "code": "measure-population",
              "display": "Measure Population"
            } ]
          },
          "count": 2
        }, {
          "code": {
            "coding": [ {
              "system": "http://terminology.hl7.org/CodeSystem/measure-population",
              "code": "measure-population-observation",
              "display": "Measure Population Observation"
            } ]
          },
          "count": 1
        }, {
          "code": {
            "coding": [ {
              "system": "http://terminology.hl7.org/CodeSystem/measure-population",
              "code": "measure-population-observation",
              "display": "Measure Population Observation"
            } ]
          },
          "count": 1
        } ]
      }, {
        "population": [ {
          "code": {
            "coding": [ {
              "system": "http://terminology.hl7.org/CodeSystem/measure-population",
              "code": "initial-population",
              "display": "Initial Population"
            } ]
          },
          "count": 2
        }, {
          "code": {
            "coding": [ {
              "system": "http://terminology.hl7.org/CodeSystem/measure-population",
              "code": "measure-population",
              "display": "Measure Population"
            } ]
          },
          "count": 2
        }, {
          "code": {
            "coding": [ {
              "system": "http://terminology.hl7.org/CodeSystem/measure-population",
              "code": "measure-population-observation",
              "display": "Measure Population Observation"
            } ]
          },
          "count": 1
        }, {
          "code": {
            "coding": [ {
              "system": "http://terminology.hl7.org/CodeSystem/measure-population",
              "code": "measure-population-observation",
              "display": "Measure Population Observation"
            } ]
          },
          "count": 1
        } ]
      }, {
        "population": [ {
          "code": {
            "coding": [ {
              "system": "http://terminology.hl7.org/CodeSystem/measure-population",
              "code": "initial-population",
              "display": "Initial Population"
            } ]
          },
          "count": 2
        }, {
          "code": {
            "coding": [ {
              "system": "http://terminology.hl7.org/CodeSystem/measure-population",
              "code": "measure-population",
              "display": "Measure Population"
            } ]
          },
          "count": 2
        }, {
          "code": {
            "coding": [ {
              "system": "http://terminology.hl7.org/CodeSystem/measure-population",
              "code": "measure-population-observation",
              "display": "Measure Population Observation"
            } ]
          },
          "count": 1
        }, {
          "code": {
            "coding": [ {
              "system": "http://terminology.hl7.org/CodeSystem/measure-population",
              "code": "measure-population-observation",
              "display": "Measure Population Observation"
            } ]
          },
          "count": 1
        } ]
      }, {
        "population": [ {
          "code": {
            "coding": [ {
              "system": "http://terminology.hl7.org/CodeSystem/measure-population",
              "code": "initial-population",
              "display": "Initial Population"
            } ]
          },
          "count": 2
        }, {
          "code": {
            "coding": [ {
              "system": "http://terminology.hl7.org/CodeSystem/measure-population",
              "code": "measure-population",
              "display": "Measure Population"
            } ]
          },
          "count": 2
        }, {
          "code": {
            "coding": [ {
              "system": "http://terminology.hl7.org/CodeSystem/measure-population",
              "code": "measure-population-observation",
              "display": "Measure Population Observation"
            } ]
          },
          "count": 1
        }, {
          "code": {
            "coding": [ {
              "system": "http://terminology.hl7.org/CodeSystem/measure-population",
              "code": "measure-population-observation",
              "display": "Measure Population Observation"
            } ]
          },
          "count": 0
        } ]
      }, {
        "population": [ {
          "code": {
            "coding": [ {
              "system": "http://terminology.hl7.org/CodeSystem/measure-population",
              "code": "initial-population",
              "display": "Initial Population"
            } ]
          },
          "count": 2
        }, {
          "code": {
            "coding": [ {
              "system": "http://terminology.hl7.org/CodeSystem/measure-population",
              "code": "measure-population",
              "display": "Measure Population"
            } ]
          },
          "count": 2
        }, {
          "code": {
            "coding": [ {
              "system": "http://terminology.hl7.org/CodeSystem/measure-population",
              "code": "measure-population-observation",
              "display": "Measure Population Observation"
            } ]
          },
          "count": 4
        }, {
          "code": {
            "coding": [ {
              "system": "http://terminology.hl7.org/CodeSystem/measure-population",
              "code": "measure-population-observation",
              "display": "Measure Population Observation"
            } ]
          },
          "count": 3
        } ]
      }, {
        "population": [ {
          "code": {
            "coding": [ {
              "system": "http://terminology.hl7.org/CodeSystem/measure-population",
              "code": "initial-population",
              "display": "Initial Population"
            } ]
          },
          "count": 2
        }, {
          "code": {
            "coding": [ {
              "system": "http://terminology.hl7.org/CodeSystem/measure-population",
              "code": "measure-population",
              "display": "Measure Population"
            } ]
          },
          "count": 2
        }, {
          "code": {
            "coding": [ {
              "system": "http://terminology.hl7.org/CodeSystem/measure-population",
              "code": "measure-population-observation",
              "display": "Measure Population Observation"
            } ]
          },
          "count": 100
        }, {
          "code": {
            "coding": [ {
              "system": "http://terminology.hl7.org/CodeSystem/measure-population",
              "code": "measure-population-observation",
              "display": "Measure Population Observation"
            } ]
          },
          "count": 75
        } ]
      } ],
      "evaluatedResource": [ {
        "reference": "Patient/37c6141e-3120-4b78-ab4a-be6eef7bca2e"
      }, {
        "reference": "Encounter/2Encountersat10075-01"
      }, {
        "reference": "Condition/2Encountersat10075-06"
      }, {
        "reference": "Observation/2Encountersat10075-18"
      }, {
        "reference": "Observation/2Encountersat10075-19"
      }, {
        "reference": "Procedure/2Encountersat10075-12"
      }, {
        "reference": "Procedure/2Encountersat10075-08"
      }, {
        "reference": "Coverage/2Encountersat10075-61"
      }, {
        "reference": "Encounter/2Encountersat10075-20"
      }, {
        "reference": "Condition/2Encountersat10075-21"
      }, {
        "reference": "Observation/2Encountersat10075-23"
      }, {
        "reference": "Procedure/2Encountersat10075-24"
      }, {
        "reference": "Coverage/2Encountersat10075-32"
      }, {
        "reference": "Organization/2Encountersat10075-98"
      } ]
    },
    "request": {
      "method": "POST",
      "url": "MeasureReport/793454f5-e62a-43d9-86fe-06f19640f2df"
    }
  } ]
}
