{"resourceType":"Bundle","id":"tests-b1b79c28-6fb7-4900-8332-1378089486dd-bundle","type":"transaction","entry":[{"fullUrl":"https://madie.cms.gov/Patient/b1b79c28-6fb7-4900-8332-1378089486dd","resource":{"resourceType":"Patient","id":"b1b79c28-6fb7-4900-8332-1378089486dd","meta":{"profile":["http://hl7.org/fhir/us/qicore/StructureDefinition/qicore-patient"]},"text":{"status":"generated","div":"<div xmlns=\"http://www.w3.org/1999/xhtml\"><div class=\"hapiHeaderText\">MultiScreAtriskNorefAsseModDxCp, , <b> </b></div><table class=\"hapiPropertyTable\"><tbody><tr><td>Identifier</td><td>MultiScreAtriskNorefAsseModDxCp</td></tr><tr><td>Date of birth</td><td><span>14 May 1950</span></td></tr></tbody></table></div>"},"extension":[{"url":"http://hl7.org/fhir/us/core/StructureDefinition/us-core-race","extension":[{"url":"ombCategory","valueCoding":{"system":"urn:oid:2.16.840.1.113883.6.238","code":"2106-3","display":"White","userSelected":true}},{"url":"text","valueString":"White"}]},{"url":"http://hl7.org/fhir/us/core/StructureDefinition/us-core-ethnicity","extension":[{"url":"ombCategory","valueCoding":{"system":"urn:oid:2.16.840.1.113883.6.238","code":"2186-5","display":"Not Hispanic or Latino","userSelected":true}},{"url":"text","valueString":"Not Hispanic or Latino"}]}],"identifier":[{"type":{"coding":[{"system":"http://terminology.hl7.org/CodeSystem/v2-0203","code":"MR"}]},"system":"https://madie.cms.gov/","value":"MultiScreAtriskNorefAsseModDxCp"}],"active":true,"name":[{"use":"usual","text":"MultiScreAtriskNorefAsseModDxCp","family":"denompass444","given":["MultiScreAtriskNorefAsseModDxCpdenompass444"]}],"gender":"male","birthDate":"1954-01-01","address":[{"text":"MultiScreAtriskNorefAsseModDxCp, Screened Not at risk Assessed Severely Malnourished Diagnosed Care Plan, ID=MultiScreAtriskNorefAsseModDxCp, DOB: 14 May 1950"}]},"request":{"method":"PUT","url":"Patient/b1b79c28-6fb7-4900-8332-1378089486dd"}},{"fullUrl":"https://madie.cms.gov/Encounter/MultiScreAtriskNorefAsseModDxCp-01","resource":{"resourceType":"Encounter","id":"e98a61e4-2afe-43e8-995a-4c628b90fb01","meta":{"profile":["http://hl7.org/fhir/us/qicore/StructureDefinition/qicore-encounter"]},"status":"finished","class":{"system":"http://terminology.hl7.org/CodeSystem/v3-ActCode","code":"IMP","display":"inpatient encounter"},"type":[{"coding":[{"system":"http://snomed.info/sct","code":"183452005"}]}],"subject":{"reference":"Patient/b1b79c28-6fb7-4900-8332-1378089486dd"},"period":{"start":"2026-02-01T08:00:00.000Z","end":"2026-02-07T08:15:00.000Z"}},"request":{"method":"PUT","url":"Encounter/e98a61e4-2afe-43e8-995a-4c628b90fb01"}},{"fullUrl":"https://madie.cms.gov/Condition/MultiScreAtriskNorefAsseModDxCp-06","resource":{"resourceType":"Condition","id":"4733f70b-3deb-44ac-9a1d-320d7fce0753","meta":{"profile":["http://hl7.org/fhir/us/qicore/StructureDefinition/qicore-condition"]},"clinicalStatus":{"coding":[{"system":"http://terminology.hl7.org/CodeSystem/condition-clinical","code":"active","display":"Active","userSelected":true}]},"verificationStatus":{"coding":[{"system":"http://terminology.hl7.org/CodeSystem/condition-ver-status","code":"confirmed","display":"Confirmed","userSelected":true}]},"category":[{"coding":[{"system":"http://terminology.hl7.org/CodeSystem/condition-category","code":"encounter-diagnosis","display":"Encounter Diagnosis","userSelected":true}]}],"code":{"coding":[{"system":"http://snomed.info/sct","code":"190606006","display":"Malnutrition (calorie) (disorder)","userSelected":true}]},"subject":{"reference":"Patient/b1b79c28-6fb7-4900-8332-1378089486dd"},"onsetPeriod":{"start":"2026-02-01T08:00:00.000+00:00"},"recordedDate":"2026-02-01T11:00:00.000+00:00"},"request":{"method":"PUT","url":"Condition/4733f70b-3deb-44ac-9a1d-320d7fce0753"}},{"fullUrl":"https://madie.cms.gov/Observation/MultiScreAtriskNorefAsseModDxCp-18","resource":{"resourceType":"Observation","id":"43c7cfa3-f4ac-4579-a1bb-9bb4e1d878b1","meta":{"profile":["http://hl7.org/fhir/us/qicore/StructureDefinition/qicore-observation"]},"status":"final","category":[{"coding":[{"system":"http://terminology.hl7.org/CodeSystem/observation-category","code":"survey","display":"Survey"}]}],"code":{"coding":[{"system":"http://loinc.org","code":"98967-3","display":"Initial Screening NRS_2002","userSelected":true}]},"subject":{"reference":"Patient/b1b79c28-6fb7-4900-8332-1378089486dd"},"effectiveDateTime":"2026-02-01T09:00:00.000+00:00","valueCodeableConcept":{"coding":[{"system":"http://snomed.info/sct","code":"129689002","display":"Normal diet (finding)","userSelected":true}]}},"request":{"method":"PUT","url":"Observation/43c7cfa3-f4ac-4579-a1bb-9bb4e1d878b1"}},{"fullUrl":"https://madie.cms.gov/Observation/MultiScreAtriskNorefAsseModDxCp-19","resource":{"resourceType":"Observation","id":"6455411a-8655-48fc-9390-ed032d409833","meta":{"profile":["http://hl7.org/fhir/us/qicore/StructureDefinition/qicore-observation"]},"status":"final","category":[{"coding":[{"system":"http://terminology.hl7.org/CodeSystem/observation-category","code":"survey","display":"Survey"}]}],"code":{"coding":[{"system":"http://loinc.org","code":"75282-4","display":"Comparative nutrition assessment standards panel","userSelected":true}]},"subject":{"reference":"Patient/b1b79c28-6fb7-4900-8332-1378089486dd"},"effectiveDateTime":"2026-02-01T10:00:00.000+00:00","valueCodeableConcept":{"coding":[{"system":"http://snomed.info/sct","code":"102636009","display":"Malnutrition (calorie) (disorder)","userSelected":true}]}},"request":{"method":"PUT","url":"Observation/6455411a-8655-48fc-9390-ed032d409833"}},{"fullUrl":"https://madie.cms.gov/Procedure/MultiScreAtriskNorefAsseModDxCp-12","resource":{"resourceType":"Procedure","id":"405c8915-7b13-491e-87e4-a44beb3d1339","meta":{"profile":["http://hl7.org/fhir/us/qicore/StructureDefinition/qicore-procedure"]},"extension":[{"url":"http://hl7.org/fhir/us/qicore/StructureDefinition/qicore-recorded","valueDateTime":"2026-02-01T11:30:00.000Z"}],"status":"completed","code":{"coding":[{"system":"http://snomed.info/sct","code":"306354000","display":"Referral to hospital-based dietitian (procedure)"}],"text":"Referral to hospital-based dietitian (procedure)"},"subject":{"reference":"Patient/b1b79c28-6fb7-4900-8332-1378089486dd"},"encounter":{"reference":"Encounter/MultiScreAtriskNorefAsseModDxCpdenompass444"},"performedPeriod":{"start":"2026-02-01T11:30:00.000Z","end":"2026-02-07T08:15:00.000Z"}},"request":{"method":"PUT","url":"Procedure/405c8915-7b13-491e-87e4-a44beb3d1339"}},{"fullUrl":"https://madie.cms.gov/Procedure/MultiScreAtriskNorefAsseModDxCp-08","resource":{"resourceType":"Procedure","id":"e2e60d69-d5d4-4366-9aa1-56a161f9f1ac","meta":{"profile":["http://hl7.org/fhir/us/qicore/StructureDefinition/qicore-procedure"]},"extension":[{"url":"http://hl7.org/fhir/us/qicore/StructureDefinition/qicore-recorded","valueDateTime":"2026-02-02T11:30:00.000Z"}],"status":"completed","code":{"coding":[{"system":"http://snomed.info/sct","code":"386372009","display":"Nutrition management (regime/therapy)"}],"text":"Nutrition management (regime/therapy)"},"subject":{"reference":"Patient/b1b79c28-6fb7-4900-8332-1378089486dd"},"encounter":{"reference":"Encounter/MultiScreAtriskNorefAsseModDxCpdenompass444"},"performedPeriod":{"start":"2026-02-01T11:30:00.000Z","end":"2026-02-07T08:15:00.000Z"}},"request":{"method":"PUT","url":"Procedure/e2e60d69-d5d4-4366-9aa1-56a161f9f1ac"}},{"fullUrl":"https://madie.cms.gov/Coverage/MultiScreAtriskNorefAsseModDxCp-61","resource":{"resourceType":"Coverage","id":"049076bf-ecef-476e-a825-325ef0fa7734","meta":{"profile":["http://hl7.org/fhir/us/qicore/StructureDefinition/qicore-coverage"]},"status":"active","type":{"coding":[{"system":"https://nahdo.org/sopt","version":"9.2","code":"11","display":"Medicare Managed Care (Includes Medicare Advantage Plans)"}]},"beneficiary":{"reference":"Patient/b1b79c28-6fb7-4900-8332-1378089486dd"},"period":{"start":"2026-10-01T00:00:00+00:00"},"payor":[{"reference":"Organization/f6075515-d38f-4624-bde8-a1ce20473a69"}]},"request":{"method":"PUT","url":"Coverage/049076bf-ecef-476e-a825-325ef0fa7734"}},{"fullUrl":"https://madie.cms.gov/Encounter/MultiScreAtriskNorefAsseModDxCp-20","resource":{"resourceType":"Encounter","id":"a481f276-434e-4588-af01-cf503604a03a","meta":{"profile":["http://hl7.org/fhir/us/qicore/StructureDefinition/qicore-encounter"]},"status":"finished","class":{"system":"http://terminology.hl7.org/CodeSystem/v3-ActCode","code":"IMP","display":"inpatient encounter"},"type":[{"coding":[{"system":"http://snomed.info/sct","code":"183452005"}]}],"subject":{"reference":"Patient/b1b79c28-6fb7-4900-8332-1378089486dd"},"period":{"start":"2026-03-01T08:00:00.000Z","end":"2026-03-07T08:15:00.000Z"}},"request":{"method":"PUT","url":"Encounter/a481f276-434e-4588-af01-cf503604a03a"}},{"fullUrl":"https://madie.cms.gov/Condition/MultiScreAtriskNorefAsseModDxCp-21","resource":{"resourceType":"Condition","id":"88dfae53-3aad-4177-9d62-311d06e20da4","meta":{"profile":["http://hl7.org/fhir/us/qicore/StructureDefinition/qicore-condition"]},"clinicalStatus":{"coding":[{"system":"http://terminology.hl7.org/CodeSystem/condition-clinical","code":"active","display":"Active","userSelected":true}]},"verificationStatus":{"coding":[{"system":"http://terminology.hl7.org/CodeSystem/condition-ver-status","code":"confirmed","display":"Confirmed","userSelected":true}]},"category":[{"coding":[{"system":"http://terminology.hl7.org/CodeSystem/condition-category","code":"encounter-diagnosis","display":"Encounter Diagnosis","userSelected":true}]}],"code":{"coding":[{"system":"http://snomed.info/sct","code":"272588001","display":"Malnutrition (calorie) (disorder)","userSelected":true}]},"subject":{"reference":"Patient/b1b79c28-6fb7-4900-8332-1378089486dd"},"onsetPeriod":{"start":"2026-03-01T08:00:00.000+00:00"},"recordedDate":"2026-03-01T11:00:00.000+00:00"},"request":{"method":"PUT","url":"Condition/88dfae53-3aad-4177-9d62-311d06e20da4"}},{"fullUrl":"https://madie.cms.gov/Observation/MultiScreAtriskNorefAsseModDxCp-22","resource":{"resourceType":"Observation","id":"8a88ec88-414b-438f-b066-c1096b1d5bd4","meta":{"profile":["http://hl7.org/fhir/us/qicore/StructureDefinition/qicore-observation"]},"status":"final","category":[{"coding":[{"system":"http://terminology.hl7.org/CodeSystem/observation-category","code":"survey","display":"Survey"}]}],"code":{"coding":[{"system":"http://loinc.org","code":"98968-1","display":"Initial Screening NRS_2002","userSelected":true}]},"subject":{"reference":"Patient/b1b79c28-6fb7-4900-8332-1378089486dd"},"effectiveDateTime":"2026-03-01T09:00:00.000+00:00","valueCodeableConcept":{"coding":[{"system":"http://snomed.info/sct","code":"36823005","display":"Normal diet (finding)","userSelected":true}]}},"request":{"method":"PUT","url":"Observation/8a88ec88-414b-438f-b066-c1096b1d5bd4"}},{"fullUrl":"https://madie.cms.gov/Observation/MultiScreAtriskNorefAsseModDxCp-23","resource":{"resourceType":"Observation","id":"de29c5be-8568-4343-ae2c-290912050fe6","meta":{"profile":["http://hl7.org/fhir/us/qicore/StructureDefinition/qicore-observation"]},"status":"final","category":[{"coding":[{"system":"http://terminology.hl7.org/CodeSystem/observation-category","code":"survey","display":"Survey"}]}],"code":{"coding":[{"system":"http://loinc.org","code":"75285-7","display":"Comparative nutrition assessment standards panel","userSelected":true}]},"subject":{"reference":"Patient/b1b79c28-6fb7-4900-8332-1378089486dd"},"effectiveDateTime":"2026-03-01T10:00:00.000+00:00","valueCodeableConcept":{"coding":[{"system":"http://snomed.info/sct","code":"272588001","display":"Malnutrition (calorie) (disorder)","userSelected":true}]}},"request":{"method":"PUT","url":"Observation/de29c5be-8568-4343-ae2c-290912050fe6"}},{"fullUrl":"https://madie.cms.gov/Procedure/MultiScreAtriskNorefAsseModDxCp-24","resource":{"resourceType":"Procedure","id":"ef590e39-2d66-4ac8-8ec0-c1e31f5884ea","meta":{"profile":["http://hl7.org/fhir/us/qicore/StructureDefinition/qicore-procedure"]},"extension":[{"url":"http://hl7.org/fhir/us/qicore/StructureDefinition/qicore-recorded","valueDateTime":"2026-03-01T11:30:00.000Z"}],"status":"completed","code":{"coding":[{"system":"http://snomed.info/sct","code":"306354000","display":"Referral to hospital-based dietitian (procedure)"}],"text":"Referral to hospital-based dietitian (procedure)"},"subject":{"reference":"Patient/b1b79c28-6fb7-4900-8332-1378089486dd"},"encounter":{"reference":"Encounter/MultiScreAtriskNorefAsseModDxCpdenompass444"},"performedPeriod":{"start":"2026-03-01T11:30:00.000Z","end":"2026-03-07T08:15:00.000Z"}},"request":{"method":"PUT","url":"Procedure/ef590e39-2d66-4ac8-8ec0-c1e31f5884ea"}},{"fullUrl":"https://madie.cms.gov/Procedure/MultiScreAtriskNorefAsseModDxCp-25","resource":{"resourceType":"Procedure","id":"49706685-ef53-4947-9baf-d840d4656430","meta":{"profile":["http://hl7.org/fhir/us/qicore/StructureDefinition/qicore-procedure"]},"extension":[{"url":"http://hl7.org/fhir/us/qicore/StructureDefinition/qicore-recorded","valueDateTime":"2026-03-02T11:30:00.000Z"}],"status":"completed","code":{"coding":[{"system":"http://snomed.info/sct","code":"386372009","display":"Nutrition management (regime/therapy)"}],"text":"Nutrition management (regime/therapy)"},"subject":{"reference":"Patient/b1b79c28-6fb7-4900-8332-1378089486dd"},"encounter":{"reference":"Encounter/MultiScreAtriskNorefAsseModDxCpdenompass444"},"performedPeriod":{"start":"2026-03-01T11:30:00.000Z","end":"2026-03-07T08:15:00.000Z"}},"request":{"method":"PUT","url":"Procedure/49706685-ef53-4947-9baf-d840d4656430"}},{"fullUrl":"https://madie.cms.gov/Encounter/MultiScreAtriskNorefAsseModDxCp-26","resource":{"resourceType":"Encounter","id":"04c25d02-638a-430b-863a-07b42d9cf9d6","meta":{"profile":["http://hl7.org/fhir/us/qicore/StructureDefinition/qicore-encounter"]},"status":"finished","class":{"system":"http://terminology.hl7.org/CodeSystem/v3-ActCode","code":"IMP","display":"inpatient encounter"},"type":[{"coding":[{"system":"http://snomed.info/sct","code":"183452005"}]}],"subject":{"reference":"Patient/b1b79c28-6fb7-4900-8332-1378089486dd"},"period":{"start":"2026-04-01T08:00:00.000Z","end":"2026-04-07T08:15:00.000Z"}},"request":{"method":"PUT","url":"Encounter/04c25d02-638a-430b-863a-07b42d9cf9d6"}},{"fullUrl":"https://madie.cms.gov/Condition/MultiScreAtriskNorefAsseModDxCp-27","resource":{"resourceType":"Condition","id":"c10d24b0-e17b-4587-b10f-171c3595b65c","meta":{"profile":["http://hl7.org/fhir/us/qicore/StructureDefinition/qicore-condition"]},"clinicalStatus":{"coding":[{"system":"http://terminology.hl7.org/CodeSystem/condition-clinical","code":"active","display":"Active","userSelected":true}]},"verificationStatus":{"coding":[{"system":"http://terminology.hl7.org/CodeSystem/condition-ver-status","code":"confirmed","display":"Confirmed","userSelected":true}]},"category":[{"coding":[{"system":"http://terminology.hl7.org/CodeSystem/condition-category","code":"encounter-diagnosis","display":"Encounter Diagnosis","userSelected":true}]}],"code":{"coding":[{"system":"http://snomed.info/sct","code":"272588001","display":"Malnutrition (calorie) (disorder)","userSelected":true}]},"subject":{"reference":"Patient/b1b79c28-6fb7-4900-8332-1378089486dd"},"onsetPeriod":{"start":"2026-04-01T08:00:00.000+00:00"},"recordedDate":"2026-04-01T11:00:00.000+00:00"},"request":{"method":"PUT","url":"Condition/c10d24b0-e17b-4587-b10f-171c3595b65c"}},{"fullUrl":"https://madie.cms.gov/Observation/MultiScreAtriskNorefAsseModDxCp-28","resource":{"resourceType":"Observation","id":"cf8f64c6-9a9b-4780-bc04-d62066326e3d","meta":{"profile":["http://hl7.org/fhir/us/qicore/StructureDefinition/qicore-observation"]},"status":"final","category":[{"coding":[{"system":"http://terminology.hl7.org/CodeSystem/observation-category","code":"survey","display":"Survey"}]}],"code":{"coding":[{"system":"http://loinc.org","code":"98968-1","display":"Initial Screening NRS_2002","userSelected":true}]},"subject":{"reference":"Patient/b1b79c28-6fb7-4900-8332-1378089486dd"},"effectiveDateTime":"2026-02-01T09:00:00.000+00:00","valueCodeableConcept":{"coding":[{"system":"http://snomed.info/sct","code":"36823005","display":"Normal diet (finding)","userSelected":true}]}},"request":{"method":"PUT","url":"Observation/cf8f64c6-9a9b-4780-bc04-d62066326e3d"}},{"fullUrl":"https://madie.cms.gov/Observation/MultiScreAtriskNorefAsseModDxCp-29","resource":{"resourceType":"Observation","id":"039c407d-5b0e-43cd-93d1-e0cb540829d0","meta":{"profile":["http://hl7.org/fhir/us/qicore/StructureDefinition/qicore-observation"]},"status":"final","category":[{"coding":[{"system":"http://terminology.hl7.org/CodeSystem/observation-category","code":"survey","display":"Survey"}]}],"code":{"coding":[{"system":"http://loinc.org","code":"75285-7","display":"Comparative nutrition assessment standards panel","userSelected":true}]},"subject":{"reference":"Patient/b1b79c28-6fb7-4900-8332-1378089486dd"},"effectiveDateTime":"2026-04-01T10:00:00.000+00:00","valueCodeableConcept":{"coding":[{"system":"http://snomed.info/sct","code":"272588001","display":"Malnutrition (calorie) (disorder)","userSelected":true}]}},"request":{"method":"PUT","url":"Observation/039c407d-5b0e-43cd-93d1-e0cb540829d0"}},{"fullUrl":"https://madie.cms.gov/Procedure/MultiScreAtriskNorefAsseModDxCp-30","resource":{"resourceType":"Procedure","id":"ea4c84a9-6eab-455a-9841-25b0f224ec36","meta":{"profile":["http://hl7.org/fhir/us/qicore/StructureDefinition/qicore-procedure"]},"extension":[{"url":"http://hl7.org/fhir/us/qicore/StructureDefinition/qicore-recorded","valueDateTime":"2026-04-01T11:30:00.000Z"}],"status":"completed","code":{"coding":[{"system":"http://snomed.info/sct","code":"306354000","display":"Referral to hospital-based dietitian (procedure)"}],"text":"Referral to hospital-based dietitian (procedure)"},"subject":{"reference":"Patient/b1b79c28-6fb7-4900-8332-1378089486dd"},"encounter":{"reference":"Encounter/MultiScreAtriskNorefAsseModDxCpdenompass444"},"performedPeriod":{"start":"2026-04-01T11:30:00.000Z","end":"2026-04-07T08:15:00.000Z"}},"request":{"method":"PUT","url":"Procedure/ea4c84a9-6eab-455a-9841-25b0f224ec36"}},{"fullUrl":"https://madie.cms.gov/Procedure/MultiScreAtriskNorefAsseModDxCp-31","resource":{"resourceType":"Procedure","id":"66ce0a2c-6076-4227-a186-0d8ee9bfe4cd","meta":{"profile":["http://hl7.org/fhir/us/qicore/StructureDefinition/qicore-procedure"]},"extension":[{"url":"http://hl7.org/fhir/us/qicore/StructureDefinition/qicore-recorded","valueDateTime":"2026-04-02T11:30:00.000Z"}],"status":"completed","code":{"coding":[{"system":"http://snomed.info/sct","code":"386372009","display":"Nutrition management (regime/therapy)"}],"text":"Nutrition management (regime/therapy)"},"subject":{"reference":"Patient/b1b79c28-6fb7-4900-8332-1378089486dd"},"encounter":{"reference":"Encounter/MultiScreAtriskNorefAsseModDxCpdenompass444"},"performedPeriod":{"start":"2026-04-01T11:30:00.000Z","end":"2026-04-07T08:15:00.000Z"}},"request":{"method":"PUT","url":"Procedure/66ce0a2c-6076-4227-a186-0d8ee9bfe4cd"}},{"fullUrl":"https://madie.cms.gov/Coverage/MultiScreAtriskNorefAsseModDxCp-32","resource":{"resourceType":"Coverage","id":"223152d3-6df8-44c8-9760-7510ad36bcbf","meta":{"profile":["http://hl7.org/fhir/us/qicore/StructureDefinition/qicore-coverage"]},"status":"active","type":{"coding":[{"system":"https://nahdo.org/sopt","version":"9.2","code":"11","display":"Medicare Managed Care (Includes Medicare Advantage Plans)"}]},"beneficiary":{"reference":"Patient/b1b79c28-6fb7-4900-8332-1378089486dd"},"period":{"start":"2026-10-01T00:00:00+00:00"},"payor":[{"reference":"Organization/f6075515-d38f-4624-bde8-a1ce20473a69"}]},"request":{"method":"PUT","url":"Coverage/223152d3-6df8-44c8-9760-7510ad36bcbf"}},{"fullUrl":"https://madie.cms.gov/Organization/MultiScreAtriskNorefAsseModDxCp-98","resource":{"resourceType":"Organization","id":"f6075515-d38f-4624-bde8-a1ce20473a69","meta":{"profile":["http://hl7.org/fhir/us/qicore/StructureDefinition/qicore-organization"]},"identifier":[{"use":"temp","system":"urn:oid:2.16.840.1.113883.4.4","value":"21-3259825"}],"active":true,"type":[{"coding":[{"system":"http://terminology.hl7.org/CodeSystem/organization-type","code":"pay","display":"Payer"}]}],"name":"Blue Cross Blue Shield of Texas","telecom":[{"system":"phone","value":"(+1) 972-766-6900"}],"address":[{"use":"billing","type":"postal","line":["P.O. Box 660044"],"city":"Dallas","state":"TX","postalCode":"75266-0044","country":"USA"}]},"request":{"method":"PUT","url":"Organization/f6075515-d38f-4624-bde8-a1ce20473a69"}},{"fullUrl":"https://madie.cms.gov/MeasureReport/bc010d40-9a7a-4c60-83de-103c67c8e754","resource":{"resourceType":"MeasureReport","id":"bc010d40-9a7a-4c60-83de-103c67c8e754","meta":{"profile":["http://hl7.org/fhir/us/cqfmeasures/StructureDefinition/test-case-cqfm"]},"contained":[{"resourceType":"Parameters","id":"2effcb68-309c-481f-b75c-cafb3c31251b-parameters","parameter":[{"name":"subject","valueString":"b1b79c28-6fb7-4900-8332-1378089486dd"}]}],"extension":[{"url":"http://hl7.org/fhir/us/cqfmeasures/StructureDefinition/cqfm-inputParameters","valueReference":{"reference":"#2effcb68-309c-481f-b75c-cafb3c31251b-parameters"}},{"url":"http://hl7.org/fhir/us/cqfmeasures/StructureDefinition/cqfm-testCaseDescription","valueMarkdown":"3 Encounters, all components met in each"}],"modifierExtension":[{"url":"http://hl7.org/fhir/us/cqfmeasures/StructureDefinition/cqfm-isTestCase","valueBoolean":true}],"status":"complete","type":"individual","measure":"https://madie.cms.gov/Measure/GlobalMalnutritionCompositeFHIR","period":{"start":"2026-01-01","end":"2026-12-31"},"group":[{"population":[{"code":{"coding":[{"system":"http://terminology.hl7.org/CodeSystem/measure-population","code":"initial-population","display":"Initial Population"}]},"count":3},{"code":{"coding":[{"system":"http://terminology.hl7.org/CodeSystem/measure-population","code":"measure-population","display":"Measure Population"}]},"count":3},{"code":{"coding":[{"system":"http://terminology.hl7.org/CodeSystem/measure-population","code":"measure-population-observation","display":"Measure Population Observation"}]},"count":1},{"code":{"coding":[{"system":"http://terminology.hl7.org/CodeSystem/measure-population","code":"measure-population-observation","display":"Measure Population Observation"}]},"count":1},{"code":{"coding":[{"system":"http://terminology.hl7.org/CodeSystem/measure-population","code":"measure-population-observation","display":"Measure Population Observation"}]},"count":1}]},{"population":[{"code":{"coding":[{"system":"http://terminology.hl7.org/CodeSystem/measure-population","code":"initial-population","display":"Initial Population"}]},"count":3},{"code":{"coding":[{"system":"http://terminology.hl7.org/CodeSystem/measure-population","code":"measure-population","display":"Measure Population"}]},"count":3},{"code":{"coding":[{"system":"http://terminology.hl7.org/CodeSystem/measure-population","code":"measure-population-observation","display":"Measure Population Observation"}]},"count":1},{"code":{"coding":[{"system":"http://terminology.hl7.org/CodeSystem/measure-population","code":"measure-population-observation","display":"Measure Population Observation"}]},"count":1},{"code":{"coding":[{"system":"http://terminology.hl7.org/CodeSystem/measure-population","code":"measure-population-observation","display":"Measure Population Observation"}]},"count":1}]},{"population":[{"code":{"coding":[{"system":"http://terminology.hl7.org/CodeSystem/measure-population","code":"initial-population","display":"Initial Population"}]},"count":3},{"code":{"coding":[{"system":"http://terminology.hl7.org/CodeSystem/measure-population","code":"measure-population","display":"Measure Population"}]},"count":3},{"code":{"coding":[{"system":"http://terminology.hl7.org/CodeSystem/measure-population","code":"measure-population-observation","display":"Measure Population Observation"}]},"count":1},{"code":{"coding":[{"system":"http://terminology.hl7.org/CodeSystem/measure-population","code":"measure-population-observation","display":"Measure Population Observation"}]},"count":1},{"code":{"coding":[{"system":"http://terminology.hl7.org/CodeSystem/measure-population","code":"measure-population-observation","display":"Measure Population Observation"}]},"count":1}]},{"population":[{"code":{"coding":[{"system":"http://terminology.hl7.org/CodeSystem/measure-population","code":"initial-population","display":"Initial Population"}]},"count":3},{"code":{"coding":[{"system":"http://terminology.hl7.org/CodeSystem/measure-population","code":"measure-population","display":"Measure Population"}]},"count":3},{"code":{"coding":[{"system":"http://terminology.hl7.org/CodeSystem/measure-population","code":"measure-population-observation","display":"Measure Population Observation"}]},"count":1},{"code":{"coding":[{"system":"http://terminology.hl7.org/CodeSystem/measure-population","code":"measure-population-observation","display":"Measure Population Observation"}]},"count":1},{"code":{"coding":[{"system":"http://terminology.hl7.org/CodeSystem/measure-population","code":"measure-population-observation","display":"Measure Population Observation"}]},"count":1}]},{"population":[{"code":{"coding":[{"system":"http://terminology.hl7.org/CodeSystem/measure-population","code":"initial-population","display":"Initial Population"}]},"count":3},{"code":{"coding":[{"system":"http://terminology.hl7.org/CodeSystem/measure-population","code":"measure-population","display":"Measure Population"}]},"count":3},{"code":{"coding":[{"system":"http://terminology.hl7.org/CodeSystem/measure-population","code":"measure-population-observation","display":"Measure Population Observation"}]},"count":4},{"code":{"coding":[{"system":"http://terminology.hl7.org/CodeSystem/measure-population","code":"measure-population-observation","display":"Measure Population Observation"}]},"count":4},{"code":{"coding":[{"system":"http://terminology.hl7.org/CodeSystem/measure-population","code":"measure-population-observation","display":"Measure Population Observation"}]},"count":4}]},{"population":[{"code":{"coding":[{"system":"http://terminology.hl7.org/CodeSystem/measure-population","code":"initial-population","display":"Initial Population"}]},"count":3},{"code":{"coding":[{"system":"http://terminology.hl7.org/CodeSystem/measure-population","code":"measure-population","display":"Measure Population"}]},"count":3},{"code":{"coding":[{"system":"http://terminology.hl7.org/CodeSystem/measure-population","code":"measure-population-observation","display":"Measure Population Observation"}]},"count":100},{"code":{"coding":[{"system":"http://terminology.hl7.org/CodeSystem/measure-population","code":"measure-population-observation","display":"Measure Population Observation"}]},"count":100},{"code":{"coding":[{"system":"http://terminology.hl7.org/CodeSystem/measure-population","code":"measure-population-observation","display":"Measure Population Observation"}]},"count":100}]}]},"request":{"method":"PUT","url":"MeasureReport/bc010d40-9a7a-4c60-83de-103c67c8e754"}}]}