{"resourceType":"Bundle","id":"tests-9c6aaf19-09db-4708-9b4e-d44c479c8892-bundle","type":"transaction","entry":[{"fullUrl":"https://madie.cms.gov/Patient/9c6aaf19-09db-4708-9b4e-d44c479c8892","resource":{"resourceType":"Patient","id":"9c6aaf19-09db-4708-9b4e-d44c479c8892","meta":{"profile":["http://hl7.org/fhir/us/qicore/StructureDefinition/qicore-patient"]},"text":{"status":"generated","div":"<div xmlns=\"http://www.w3.org/1999/xhtml\"><div class=\"hapiHeaderText\">ScreNotatriNorefAsseModNodxCP2, , <b> </b></div><table class=\"hapiPropertyTable\"><tbody><tr><td>Identifier</td><td>ScreNotatriNorefAsseModNodxCP2</td></tr><tr><td>Date of birth</td><td><span>14 May 1950</span></td></tr></tbody></table></div>"},"extension":[{"url":"http://hl7.org/fhir/us/core/StructureDefinition/us-core-race","extension":[{"url":"ombCategory","valueCoding":{"system":"urn:oid:2.16.840.1.113883.6.238","code":"2106-3","display":"White","userSelected":true}},{"url":"text","valueString":"White"}]},{"url":"http://hl7.org/fhir/us/core/StructureDefinition/us-core-ethnicity","extension":[{"url":"ombCategory","valueCoding":{"system":"urn:oid:2.16.840.1.113883.6.238","code":"2186-5","display":"Not Hispanic or Latino","userSelected":true}},{"url":"text","valueString":"Not Hispanic or Latino"}]}],"identifier":[{"type":{"coding":[{"system":"http://terminology.hl7.org/CodeSystem/v2-0203","code":"MR"}]},"system":"https://madie.cms.gov/","value":"ScreNotatriNorefAsseModNodxCP2"}],"active":true,"name":[{"use":"usual","text":"ScreNotatriNorefAsseModNodxCP2","family":"DENOMPass1","given":["ScreNotatriNorefAsseModNodxCP2DENOMPass1"]}],"gender":"male","birthDate":"1950-05-14","address":[{"text":"ScreNotatriNorefAsseModNodxCP2, Screened Not at risk Assessed Severely Malnourished Diagnosed Care Plan, ID=ScreNotatriNorefAsseModNodxCP2, DOB: 14 May 1950"}]},"request":{"method":"PUT","url":"Patient/9c6aaf19-09db-4708-9b4e-d44c479c8892"}},{"fullUrl":"https://madie.cms.gov/Encounter/ScreNotatriNorefAsseModNodxCP2-01","resource":{"resourceType":"Encounter","id":"ScreNotatriNorefAsseModNodxCP2-01","meta":{"profile":["http://hl7.org/fhir/us/qicore/StructureDefinition/qicore-encounter"]},"status":"finished","class":{"system":"http://terminology.hl7.org/CodeSystem/v3-ActCode","code":"IMP","display":"inpatient encounter"},"type":[{"coding":[{"system":"http://snomed.info/sct","code":"183452005"}]}],"subject":{"reference":"Patient/9c6aaf19-09db-4708-9b4e-d44c479c8892"},"period":{"start":"2025-02-01T08:00:00.000Z","end":"2025-02-07T08:15:00.000Z"}},"request":{"method":"PUT","url":"Encounter/ScreNotatriNorefAsseModNodxCP2-01"}},{"fullUrl":"https://madie.cms.gov/Observation/ScreNotatriNorefAsseModNodxCP2-18","resource":{"resourceType":"Observation","id":"ScreNotatriNorefAsseModNodxCP2-18","meta":{"profile":["http://hl7.org/fhir/us/qicore/StructureDefinition/qicore-observation"]},"status":"final","category":[{"coding":[{"system":"http://terminology.hl7.org/CodeSystem/observation-category","code":"survey","display":"Survey"}]}],"code":{"coding":[{"system":"http://loinc.org","code":"98968-1","display":"Initial Screening NRS_2002","userSelected":true}]},"subject":{"reference":"Patient/9c6aaf19-09db-4708-9b4e-d44c479c8892"},"effectiveDateTime":"2025-02-01T09:00:00.000+00:00","valueCodeableConcept":{"coding":[{"system":"http://snomed.info/sct","code":"36823005","display":"At risk for nutritional problem (finding)","userSelected":true}]}},"request":{"method":"PUT","url":"Observation/ScreNotatriNorefAsseModNodxCP2-18"}},{"fullUrl":"https://madie.cms.gov/Observation/ScreNotatriNorefAsseModNodxCP2-19","resource":{"resourceType":"Observation","id":"ScreNotatriNorefAsseModNodxCP2-19","meta":{"profile":["http://hl7.org/fhir/us/qicore/StructureDefinition/qicore-observation"]},"status":"final","category":[{"coding":[{"system":"http://terminology.hl7.org/CodeSystem/observation-category","code":"survey","display":"Survey"}]}],"code":{"coding":[{"system":"http://loinc.org","code":"75282-4","display":"Nutrition assessment panel","userSelected":true}]},"subject":{"reference":"Patient/9c6aaf19-09db-4708-9b4e-d44c479c8892"},"effectiveDateTime":"2025-02-01T10:00:00.000+00:00","valueCodeableConcept":{"coding":[{"system":"http://snomed.info/sct","code":"272588001","display":"Malnutrition (calorie) (disorder)","userSelected":true}]}},"request":{"method":"PUT","url":"Observation/ScreNotatriNorefAsseModNodxCP2-19"}},{"fullUrl":"https://madie.cms.gov/Procedure/ScreNotatriNorefAsseModNodxCP2-08","resource":{"resourceType":"Procedure","id":"ScreNotatriNorefAsseModNodxCP2-08","meta":{"profile":["http://hl7.org/fhir/us/qicore/StructureDefinition/qicore-procedure"]},"extension":[{"url":"http://hl7.org/fhir/us/qicore/StructureDefinition/qicore-recorded","valueDateTime":"2025-02-02T11:30:00.000Z"}],"status":"completed","code":{"coding":[{"system":"http://snomed.info/sct","code":"386373004","display":"Nutrition therapy (regime/therapy)"}],"text":"Nutrition therapy (regime/therapy)"},"subject":{"reference":"Patient/9c6aaf19-09db-4708-9b4e-d44c479c8892"},"encounter":{"reference":"Encounter/ScreNotatriNorefAsseModNodxCP2DENOMPass1"},"performedPeriod":{"start":"2025-02-01T11:30:00.000Z","end":"2025-02-07T08:15:00.000Z"}},"request":{"method":"PUT","url":"Procedure/ScreNotatriNorefAsseModNodxCP2-08"}},{"fullUrl":"https://madie.cms.gov/Coverage/ScreNotatriNorefAsseModNodxCP2-61","resource":{"resourceType":"Coverage","id":"ScreNotatriNorefAsseModNodxCP2-61","meta":{"profile":["http://hl7.org/fhir/us/qicore/StructureDefinition/qicore-coverage"]},"status":"active","type":{"coding":[{"system":"https://nahdo.org/sopt","version":"9.2","code":"11","display":"Medicare Managed Care (Includes Medicare Advantage Plans)"}]},"beneficiary":{"reference":"Patient/9c6aaf19-09db-4708-9b4e-d44c479c8892"},"period":{"start":"2024-10-01T00:00:00+00:00"},"payor":[{"reference":"Organization/ScreNotatriNorefAsseModNodxCP2-98"}]},"request":{"method":"PUT","url":"Coverage/ScreNotatriNorefAsseModNodxCP2-61"}},{"fullUrl":"https://madie.cms.gov/Organization/ScreNotatriNorefAsseModNodxCP2-98","resource":{"resourceType":"Organization","id":"ScreNotatriNorefAsseModNodxCP2-98","meta":{"profile":["http://hl7.org/fhir/us/qicore/StructureDefinition/qicore-organization"]},"identifier":[{"use":"temp","system":"urn:oid:2.16.840.1.113883.4.4","value":"21-3259825"}],"active":true,"type":[{"coding":[{"system":"http://terminology.hl7.org/CodeSystem/organization-type","code":"pay","display":"Payer"}]}],"name":"Blue Cross Blue Shield of Texas","telecom":[{"system":"phone","value":"(+1) 972-766-6900"}],"address":[{"use":"billing","type":"postal","line":["P.O. Box 660044"],"city":"Dallas","state":"TX","postalCode":"75266-0044","country":"USA"}]},"request":{"method":"PUT","url":"Organization/ScreNotatriNorefAsseModNodxCP2-98"}},{"fullUrl":"https://madie.cms.gov/MeasureReport/e13ef986-0225-4180-b21b-4c06422d8468","resource":{"resourceType":"MeasureReport","id":"e13ef986-0225-4180-b21b-4c06422d8468","meta":{"profile":["http://hl7.org/fhir/us/cqfmeasures/StructureDefinition/test-case-cqfm"]},"contained":[{"resourceType":"Parameters","id":"64fd7a15-57a1-409d-a8b8-265911b48630-parameters","parameter":[{"name":"subject","valueString":"9c6aaf19-09db-4708-9b4e-d44c479c8892"}]}],"extension":[{"url":"http://hl7.org/fhir/us/cqfmeasures/StructureDefinition/cqfm-inputParameters","valueReference":{"reference":"#64fd7a15-57a1-409d-a8b8-265911b48630-parameters"}},{"url":"http://hl7.org/fhir/us/cqfmeasures/StructureDefinition/cqfm-testCaseDescription","valueMarkdown":"Screened, Not At Risk, No Referral, Assessed, Severe Malnutrition, No Diagnosis, Nutrition Care Plan"}],"modifierExtension":[{"url":"http://hl7.org/fhir/us/cqfmeasures/StructureDefinition/cqfm-isTestCase","valueBoolean":true}],"status":"complete","type":"individual","measure":"https://madie.cms.gov/Measure/GlobalMalnutritionCompositeFHIR","period":{"start":"2025-01-01","end":"2025-12-31"},"group":[{"population":[{"code":{"coding":[{"system":"http://terminology.hl7.org/CodeSystem/measure-population","code":"initial-population","display":"Initial Population"}]},"count":1},{"code":{"coding":[{"system":"http://terminology.hl7.org/CodeSystem/measure-population","code":"measure-population","display":"Measure Population"}]},"count":1},{"code":{"coding":[{"system":"http://terminology.hl7.org/CodeSystem/measure-population","code":"measure-population-observation","display":"Measure Population Observation"}]},"count":1}]},{"population":[{"code":{"coding":[{"system":"http://terminology.hl7.org/CodeSystem/measure-population","code":"initial-population","display":"Initial Population"}]},"count":1},{"code":{"coding":[{"system":"http://terminology.hl7.org/CodeSystem/measure-population","code":"measure-population","display":"Measure Population"}]},"count":1},{"code":{"coding":[{"system":"http://terminology.hl7.org/CodeSystem/measure-population","code":"measure-population-observation","display":"Measure Population Observation"}]},"count":0}]},{"population":[{"code":{"coding":[{"system":"http://terminology.hl7.org/CodeSystem/measure-population","code":"initial-population","display":"Initial Population"}]},"count":1},{"code":{"coding":[{"system":"http://terminology.hl7.org/CodeSystem/measure-population","code":"measure-population","display":"Measure Population"}]},"count":1},{"code":{"coding":[{"system":"http://terminology.hl7.org/CodeSystem/measure-population","code":"measure-population-observation","display":"Measure Population Observation"}]},"count":0}]},{"population":[{"code":{"coding":[{"system":"http://terminology.hl7.org/CodeSystem/measure-population","code":"initial-population","display":"Initial Population"}]},"count":1},{"code":{"coding":[{"system":"http://terminology.hl7.org/CodeSystem/measure-population","code":"measure-population","display":"Measure Population"}]},"count":1},{"code":{"coding":[{"system":"http://terminology.hl7.org/CodeSystem/measure-population","code":"measure-population-observation","display":"Measure Population Observation"}]},"count":0}]},{"population":[{"code":{"coding":[{"system":"http://terminology.hl7.org/CodeSystem/measure-population","code":"initial-population","display":"Initial Population"}]},"count":1},{"code":{"coding":[{"system":"http://terminology.hl7.org/CodeSystem/measure-population","code":"measure-population","display":"Measure Population"}]},"count":1},{"code":{"coding":[{"system":"http://terminology.hl7.org/CodeSystem/measure-population","code":"measure-population-observation","display":"Measure Population Observation"}]},"count":1}]},{"population":[{"code":{"coding":[{"system":"http://terminology.hl7.org/CodeSystem/measure-population","code":"initial-population","display":"Initial Population"}]},"count":1},{"code":{"coding":[{"system":"http://terminology.hl7.org/CodeSystem/measure-population","code":"measure-population","display":"Measure Population"}]},"count":1},{"code":{"coding":[{"system":"http://terminology.hl7.org/CodeSystem/measure-population","code":"measure-population-observation","display":"Measure Population Observation"}]},"count":100}]}],"evaluatedResource":[{"reference":"Patient/9c6aaf19-09db-4708-9b4e-d44c479c8892"},{"reference":"Encounter/ScreNotatriNorefAsseModNodxCP2-01"},{"reference":"Observation/ScreNotatriNorefAsseModNodxCP2-18"},{"reference":"Observation/ScreNotatriNorefAsseModNodxCP2-19"},{"reference":"Procedure/ScreNotatriNorefAsseModNodxCP2-08"},{"reference":"Coverage/ScreNotatriNorefAsseModNodxCP2-61"},{"reference":"Organization/ScreNotatriNorefAsseModNodxCP2-98"}]},"request":{"method":"PUT","url":"MeasureReport/e13ef986-0225-4180-b21b-4c06422d8468"}}]}