{"resourceType":"Bundle","id":"tests-eb03b6f2-c098-4428-b31e-96fc9d968947-bundle","type":"transaction","entry":[{"fullUrl":"https://madie.cms.gov/Patient/eb03b6f2-c098-4428-b31e-96fc9d968947","resource":{"resourceType":"Patient","id":"eb03b6f2-c098-4428-b31e-96fc9d968947","meta":{"profile":["http://hl7.org/fhir/us/qicore/StructureDefinition/qicore-patient"]},"text":{"status":"generated","div":"<div xmlns=\"http://www.w3.org/1999/xhtml\"><div class=\"hapiHeaderText\">ScreAtriRefAsseNotmNodxCp2, , <b> </b></div><table class=\"hapiPropertyTable\"><tbody><tr><td>Identifier</td><td>ScreAtriRefAsseNotmNodxCp2</td></tr><tr><td>Date of birth</td><td><span>14 May 1950</span></td></tr></tbody></table></div>"},"extension":[{"url":"http://hl7.org/fhir/us/core/StructureDefinition/us-core-race","extension":[{"url":"ombCategory","valueCoding":{"system":"urn:oid:2.16.840.1.113883.6.238","code":"2106-3","display":"White","userSelected":true}},{"url":"text","valueString":"White"}]},{"url":"http://hl7.org/fhir/us/core/StructureDefinition/us-core-ethnicity","extension":[{"url":"ombCategory","valueCoding":{"system":"urn:oid:2.16.840.1.113883.6.238","code":"2186-5","display":"Not Hispanic or Latino","userSelected":true}},{"url":"text","valueString":"Not Hispanic or Latino"}]}],"identifier":[{"type":{"coding":[{"system":"http://terminology.hl7.org/CodeSystem/v2-0203","code":"MR"}]},"system":"https://madie.cms.gov/","value":"ScreAtriRefAsseNotmNodxCp2"}],"active":true,"name":[{"use":"usual","text":"ScreAtriRefAsseNotmNodxCp2","family":"OCCURPass2","given":["ScreAtriRefAsseNotmNodxCp2OCCURPass2"]}],"gender":"female","birthDate":"1950-05-14","address":[{"text":"ScreAtriRefAsseNotmNodxCp2, Screened Not at risk Assessed Severely Malnourished Diagnosed Care Plan, ID=ScreAtriRefAsseNotmNodxCp2, DOB: 14 May 1950"}]},"request":{"method":"PUT","url":"Patient/eb03b6f2-c098-4428-b31e-96fc9d968947"}},{"fullUrl":"https://madie.cms.gov/Encounter/ScreAtriRefAsseNotmNodxCp2-01","resource":{"resourceType":"Encounter","id":"c88ce124-fa87-409b-a574-8422e5e79a83","meta":{"profile":["http://hl7.org/fhir/us/qicore/StructureDefinition/qicore-encounter"]},"status":"finished","class":{"system":"http://terminology.hl7.org/CodeSystem/v3-ActCode","code":"IMP","display":"inpatient encounter"},"type":[{"coding":[{"system":"http://snomed.info/sct","code":"183452005"}]}],"subject":{"reference":"Patient/eb03b6f2-c098-4428-b31e-96fc9d968947"},"period":{"start":"2026-02-01T08:00:00.000Z","end":"2026-02-07T08:15:00.000Z"}},"request":{"method":"PUT","url":"Encounter/c88ce124-fa87-409b-a574-8422e5e79a83"}},{"fullUrl":"https://madie.cms.gov/Observation/ScreAtriRefAsseNotmNodxCp2-18","resource":{"resourceType":"Observation","id":"069a9588-e052-4c81-b13f-8551f24c24d9","meta":{"profile":["http://hl7.org/fhir/us/qicore/StructureDefinition/qicore-observation"]},"status":"final","category":[{"coding":[{"system":"http://terminology.hl7.org/CodeSystem/observation-category","code":"survey","display":"Survey"}]}],"code":{"coding":[{"system":"http://loinc.org","code":"98968-1","display":"Initial screening NRS_2002","userSelected":true}]},"subject":{"reference":"Patient/eb03b6f2-c098-4428-b31e-96fc9d968947"},"effectiveDateTime":"2026-02-01T09:00:00.000+00:00","valueCodeableConcept":{"coding":[{"system":"http://snomed.info/sct","code":"704361005","display":"At risk for deficient food intake (finding)","userSelected":true}]}},"request":{"method":"PUT","url":"Observation/069a9588-e052-4c81-b13f-8551f24c24d9"}},{"fullUrl":"https://madie.cms.gov/Observation/ScreAtriRefAsseNotmNodxCp2-19","resource":{"resourceType":"Observation","id":"14dfcbcb-7090-4e0e-9b64-712f26185e18","meta":{"profile":["http://hl7.org/fhir/us/qicore/StructureDefinition/qicore-observation"]},"status":"final","category":[{"coding":[{"system":"http://terminology.hl7.org/CodeSystem/observation-category","code":"survey","display":"Survey"}]}],"code":{"coding":[{"system":"http://loinc.org","code":"75303-8","display":"Nutrition assessment narrative","userSelected":true}]},"subject":{"reference":"Patient/eb03b6f2-c098-4428-b31e-96fc9d968947"},"effectiveDateTime":"2026-02-01T10:00:00.000+00:00","valueCodeableConcept":{"coding":[{"system":"http://snomed.info/sct","code":"248324001","display":"Well nourished (finding)","userSelected":true}]}},"request":{"method":"PUT","url":"Observation/14dfcbcb-7090-4e0e-9b64-712f26185e18"}},{"fullUrl":"https://madie.cms.gov/Procedure/ScreAtriRefAsseNotmNodxCp2-12","resource":{"resourceType":"Procedure","id":"af6933e8-19f3-4ae6-848b-4bd351b6e300","meta":{"profile":["http://hl7.org/fhir/us/qicore/StructureDefinition/qicore-procedure"]},"extension":[{"url":"http://hl7.org/fhir/us/qicore/StructureDefinition/qicore-recorded","valueDateTime":"2026-02-01T11:30:00.000Z"}],"status":"completed","code":{"coding":[{"system":"http://snomed.info/sct","code":"306354000","display":"Referral to hospital-based dietitian (procedure)"}],"text":"Referral to hospital-based dietitian (procedure)"},"subject":{"reference":"Patient/eb03b6f2-c098-4428-b31e-96fc9d968947"},"encounter":{"reference":"Encounter/ScreAtriRefAsseNotmNodxCp2DENOMPass2"},"performedPeriod":{"start":"2026-02-01T11:30:00.000Z","end":"2026-02-07T08:15:00.000Z"}},"request":{"method":"PUT","url":"Procedure/af6933e8-19f3-4ae6-848b-4bd351b6e300"}},{"fullUrl":"https://madie.cms.gov/Procedure/ScreAtriRefAsseNotmNodxCp2-08","resource":{"resourceType":"Procedure","id":"e588f5be-2201-4e15-ab9e-0980f21693f8","meta":{"profile":["http://hl7.org/fhir/us/qicore/StructureDefinition/qicore-procedure"]},"extension":[{"url":"http://hl7.org/fhir/us/qicore/StructureDefinition/qicore-recorded","valueDateTime":"2026-02-02T11:30:00.000Z"}],"status":"completed","code":{"coding":[{"system":"http://snomed.info/sct","code":"229912004","display":"Enteral feeding (regime/therapy)"}],"text":"Enteral feeding (regime/therapy)"},"subject":{"reference":"Patient/eb03b6f2-c098-4428-b31e-96fc9d968947"},"encounter":{"reference":"Encounter/ScreAtriRefAsseNotmNodxCp2OCCURPass2"},"performedPeriod":{"start":"2026-02-01T11:30:00.000Z","end":"2026-02-07T08:15:00.000Z"}},"request":{"method":"PUT","url":"Procedure/e588f5be-2201-4e15-ab9e-0980f21693f8"}},{"fullUrl":"https://madie.cms.gov/Coverage/ScreAtriRefAsseNotmNodxCp2-61","resource":{"resourceType":"Coverage","id":"21a6ae51-c55b-4b90-97e3-ce54dad825df","meta":{"profile":["http://hl7.org/fhir/us/qicore/StructureDefinition/qicore-coverage"]},"status":"active","type":{"coding":[{"system":"https://nahdo.org/sopt","version":"9.2","code":"11","display":"Medicare Managed Care (Includes Medicare Advantage Plans)"}]},"beneficiary":{"reference":"Patient/eb03b6f2-c098-4428-b31e-96fc9d968947"},"period":{"start":"2026-10-01T00:00:00+00:00"},"payor":[{"reference":"Organization/84b56847-ad40-4bf6-b612-9e42ad2a84e5"}]},"request":{"method":"PUT","url":"Coverage/21a6ae51-c55b-4b90-97e3-ce54dad825df"}},{"fullUrl":"https://madie.cms.gov/Organization/ScreAtriRefAsseNotmNodxCp2-98","resource":{"resourceType":"Organization","id":"84b56847-ad40-4bf6-b612-9e42ad2a84e5","meta":{"profile":["http://hl7.org/fhir/us/qicore/StructureDefinition/qicore-organization"]},"identifier":[{"use":"temp","system":"urn:oid:2.16.840.1.113883.4.4","value":"21-3259825"}],"active":true,"type":[{"coding":[{"system":"http://terminology.hl7.org/CodeSystem/organization-type","code":"pay","display":"Payer"}]}],"name":"Blue Cross Blue Shield of Texas","telecom":[{"system":"phone","value":"(+1) 972-766-6900"}],"address":[{"use":"billing","type":"postal","line":["P.O. Box 660044"],"city":"Dallas","state":"TX","postalCode":"75266-0044","country":"USA"}]},"request":{"method":"PUT","url":"Organization/84b56847-ad40-4bf6-b612-9e42ad2a84e5"}},{"fullUrl":"https://madie.cms.gov/MeasureReport/670092fb-0c77-4c7e-8cb9-9788881d2efb","resource":{"resourceType":"MeasureReport","id":"670092fb-0c77-4c7e-8cb9-9788881d2efb","meta":{"profile":["http://hl7.org/fhir/us/cqfmeasures/StructureDefinition/test-case-cqfm"]},"contained":[{"resourceType":"Parameters","id":"8f5eba9f-afcf-454f-9d44-2e2d4cf7e808-parameters","parameter":[{"name":"subject","valueString":"eb03b6f2-c098-4428-b31e-96fc9d968947"}]}],"extension":[{"url":"http://hl7.org/fhir/us/cqfmeasures/StructureDefinition/cqfm-inputParameters","valueReference":{"reference":"#8f5eba9f-afcf-454f-9d44-2e2d4cf7e808-parameters"}},{"url":"http://hl7.org/fhir/us/cqfmeasures/StructureDefinition/cqfm-testCaseDescription","valueMarkdown":"Screened, At Risk, Referral, Assessed, Not/Mild Malnutrition, No Diagnosis, Nutrition Care Plan"}],"modifierExtension":[{"url":"http://hl7.org/fhir/us/cqfmeasures/StructureDefinition/cqfm-isTestCase","valueBoolean":true}],"status":"complete","type":"individual","measure":"https://madie.cms.gov/Measure/GlobalMalnutritionCompositeFHIR","period":{"start":"2026-01-01","end":"2026-12-31"},"group":[{"population":[{"code":{"coding":[{"system":"http://terminology.hl7.org/CodeSystem/measure-population","code":"initial-population","display":"Initial Population"}]},"count":1},{"code":{"coding":[{"system":"http://terminology.hl7.org/CodeSystem/measure-population","code":"measure-population","display":"Measure Population"}]},"count":1},{"code":{"coding":[{"system":"http://terminology.hl7.org/CodeSystem/measure-population","code":"measure-population-observation","display":"Measure Population Observation"}]},"count":1}]},{"population":[{"code":{"coding":[{"system":"http://terminology.hl7.org/CodeSystem/measure-population","code":"initial-population","display":"Initial Population"}]},"count":1},{"code":{"coding":[{"system":"http://terminology.hl7.org/CodeSystem/measure-population","code":"measure-population","display":"Measure Population"}]},"count":1},{"code":{"coding":[{"system":"http://terminology.hl7.org/CodeSystem/measure-population","code":"measure-population-observation","display":"Measure Population Observation"}]},"count":1}]},{"population":[{"code":{"coding":[{"system":"http://terminology.hl7.org/CodeSystem/measure-population","code":"initial-population","display":"Initial Population"}]},"count":1},{"code":{"coding":[{"system":"http://terminology.hl7.org/CodeSystem/measure-population","code":"measure-population","display":"Measure Population"}]},"count":1},{"code":{"coding":[{"system":"http://terminology.hl7.org/CodeSystem/measure-population","code":"measure-population-observation","display":"Measure Population Observation"}]},"count":0}]},{"population":[{"code":{"coding":[{"system":"http://terminology.hl7.org/CodeSystem/measure-population","code":"initial-population","display":"Initial Population"}]},"count":1},{"code":{"coding":[{"system":"http://terminology.hl7.org/CodeSystem/measure-population","code":"measure-population","display":"Measure Population"}]},"count":1},{"code":{"coding":[{"system":"http://terminology.hl7.org/CodeSystem/measure-population","code":"measure-population-observation","display":"Measure Population Observation"}]},"count":0}]},{"population":[{"code":{"coding":[{"system":"http://terminology.hl7.org/CodeSystem/measure-population","code":"initial-population","display":"Initial Population"}]},"count":1},{"code":{"coding":[{"system":"http://terminology.hl7.org/CodeSystem/measure-population","code":"measure-population","display":"Measure Population"}]},"count":1},{"code":{"coding":[{"system":"http://terminology.hl7.org/CodeSystem/measure-population","code":"measure-population-observation","display":"Measure Population Observation"}]},"count":2}]},{"population":[{"code":{"coding":[{"system":"http://terminology.hl7.org/CodeSystem/measure-population","code":"initial-population","display":"Initial Population"}]},"count":1},{"code":{"coding":[{"system":"http://terminology.hl7.org/CodeSystem/measure-population","code":"measure-population","display":"Measure Population"}]},"count":1},{"code":{"coding":[{"system":"http://terminology.hl7.org/CodeSystem/measure-population","code":"measure-population-observation","display":"Measure Population Observation"}]},"count":100}]}]},"request":{"method":"PUT","url":"MeasureReport/670092fb-0c77-4c7e-8cb9-9788881d2efb"}}]}