{"resourceType":"Bundle","id":"tests-b0173bd1-c96c-4071-9455-a9940a8d6274-bundle","type":"transaction","entry":[{"fullUrl":"https://madie.cms.gov/Patient/b0173bd1-c96c-4071-9455-a9940a8d6274","resource":{"resourceType":"Patient","id":"b0173bd1-c96c-4071-9455-a9940a8d6274","meta":{"profile":["http://hl7.org/fhir/us/qicore/StructureDefinition/qicore-patient"]},"text":{"status":"generated","div":"<div xmlns=\"http://www.w3.org/1999/xhtml\"><div class=\"hapiHeaderText\">Not65, Screened Not at risk Assessed Severely Malnourished Diagnosed Care Plan, <b>mo1111d4p100 </b></div><table class=\"hapiPropertyTable\"><tbody><tr><td>Identifier</td><td>Not65</td></tr><tr><td>Date of birth</td><td><span>14 May 1950</span></td></tr></tbody></table></div>"},"extension":[{"url":"http://hl7.org/fhir/us/core/StructureDefinition/us-core-race","extension":[{"url":"ombCategory","valueCoding":{"system":"urn:oid:2.16.840.1.113883.6.238","code":"2106-3","display":"White","userSelected":true}},{"url":"text","valueString":"White"}]},{"url":"http://hl7.org/fhir/us/core/StructureDefinition/us-core-ethnicity","extension":[{"url":"ombCategory","valueCoding":{"system":"urn:oid:2.16.840.1.113883.6.238","code":"2186-5","display":"Not Hispanic or Latino","userSelected":true}},{"url":"text","valueString":"Not Hispanic or Latino"}]}],"identifier":[{"type":{"coding":[{"system":"http://terminology.hl7.org/CodeSystem/v2-0203","code":"MR"}]},"system":"https://madie.cms.gov/","value":"Not65"}],"active":true,"name":[{"use":"usual","text":"Not65","family":"IPPFAIL","given":["Not65IPPFAIL"]}],"gender":"male","birthDate":"1970-05-14","address":[{"text":"Not65, Screened Not at risk Assessed Severely Malnourished Diagnosed Care Plan, ID=Not65, DOB: 14 May 1950"}]},"request":{"method":"PUT","url":"Patient/b0173bd1-c96c-4071-9455-a9940a8d6274"}},{"fullUrl":"https://madie.cms.gov/Encounter/Not65-01","resource":{"resourceType":"Encounter","id":"157e34e4-70fa-4f34-850b-81628922bb1d","meta":{"profile":["http://hl7.org/fhir/us/qicore/StructureDefinition/qicore-encounter"]},"status":"finished","class":{"system":"http://terminology.hl7.org/CodeSystem/v3-ActCode","code":"IMP","display":"inpatient encounter"},"type":[{"coding":[{"system":"http://snomed.info/sct","code":"183452005"}]}],"subject":{"reference":"Patient/b0173bd1-c96c-4071-9455-a9940a8d6274"},"period":{"start":"2026-02-01T08:00:00.000Z","end":"2026-02-07T08:15:00.000Z"}},"request":{"method":"PUT","url":"Encounter/157e34e4-70fa-4f34-850b-81628922bb1d"}},{"fullUrl":"https://madie.cms.gov/Condition/Not65-06","resource":{"resourceType":"Condition","id":"89171eff-e3cc-441d-be7d-96ddcae3fda6","meta":{"profile":["http://hl7.org/fhir/us/qicore/StructureDefinition/qicore-condition"]},"clinicalStatus":{"coding":[{"system":"http://terminology.hl7.org/CodeSystem/condition-clinical","code":"active","display":"Active","userSelected":true}]},"verificationStatus":{"coding":[{"system":"http://terminology.hl7.org/CodeSystem/condition-ver-status","code":"confirmed","display":"Confirmed","userSelected":true}]},"category":[{"coding":[{"system":"http://terminology.hl7.org/CodeSystem/condition-category","code":"encounter-diagnosis","display":"Encounter Diagnosis","userSelected":true}]}],"code":{"coding":[{"system":"http://snomed.info/sct","code":"190606006","display":"Moderate protein energy malnutrition (disorder)","userSelected":true}]},"subject":{"reference":"Patient/b0173bd1-c96c-4071-9455-a9940a8d6274"},"onsetPeriod":{"start":"2026-02-01T08:00:00.000+00:00"},"recordedDate":"2026-02-01T11:00:00.000+00:00"},"request":{"method":"PUT","url":"Condition/89171eff-e3cc-441d-be7d-96ddcae3fda6"}},{"fullUrl":"https://madie.cms.gov/Observation/Not65-18","resource":{"resourceType":"Observation","id":"47f09057-6f4d-40ed-a9c0-fa822e6d225e","meta":{"profile":["http://hl7.org/fhir/us/qicore/StructureDefinition/qicore-observation"]},"status":"final","category":[{"coding":[{"system":"http://terminology.hl7.org/CodeSystem/observation-category","code":"survey","display":"Survey"}]}],"code":{"coding":[{"system":"http://loinc.org","code":"98967-3","display":"Nutritional Risk Screening 2002 panel","userSelected":true}]},"subject":{"reference":"Patient/b0173bd1-c96c-4071-9455-a9940a8d6274"},"effectiveDateTime":"2026-02-01T09:00:00.000+00:00","valueCodeableConcept":{"coding":[{"system":"http://snomed.info/sct","code":"129689002","display":"At risk for nutritional problem (finding)","userSelected":true}]}},"request":{"method":"PUT","url":"Observation/47f09057-6f4d-40ed-a9c0-fa822e6d225e"}},{"fullUrl":"https://madie.cms.gov/Observation/Not65-19","resource":{"resourceType":"Observation","id":"18fcfe6c-d62b-47e7-a5a6-931e89a85388","meta":{"profile":["http://hl7.org/fhir/us/qicore/StructureDefinition/qicore-observation"]},"status":"final","category":[{"coding":[{"system":"http://terminology.hl7.org/CodeSystem/observation-category","code":"survey","display":"Survey"}]}],"code":{"coding":[{"system":"http://loinc.org","code":"75282-4","display":"Nutrition assessment panel","userSelected":true}]},"subject":{"reference":"Patient/b0173bd1-c96c-4071-9455-a9940a8d6274"},"effectiveDateTime":"2026-02-01T10:00:00.000+00:00","valueCodeableConcept":{"coding":[{"system":"http://snomed.info/sct","code":"102635008","display":"Acute nutritional deficiency (finding)","userSelected":true}]}},"request":{"method":"PUT","url":"Observation/18fcfe6c-d62b-47e7-a5a6-931e89a85388"}},{"fullUrl":"https://madie.cms.gov/Procedure/Not65-12","resource":{"resourceType":"Procedure","id":"e48c4043-a4c6-4a7c-86b9-0ab17a3b1e08","meta":{"profile":["http://hl7.org/fhir/us/qicore/StructureDefinition/qicore-procedure"]},"extension":[{"url":"http://hl7.org/fhir/us/qicore/StructureDefinition/qicore-recorded","valueDateTime":"2025-02-01T11:30:00.000Z"}],"status":"completed","code":{"coding":[{"system":"http://snomed.info/sct","code":"306165000","display":"Referral to hospital-based dietetics service (procedure)"}],"text":"Referral to hospital-based dietetics service (procedure)"},"subject":{"reference":"Patient/b0173bd1-c96c-4071-9455-a9940a8d6274"},"encounter":{"reference":"Encounter/Not65IPPFAIL"},"performedPeriod":{"start":"2026-02-01T11:30:00.000Z","end":"2026-02-07T08:15:00.000Z"}},"request":{"method":"PUT","url":"Procedure/e48c4043-a4c6-4a7c-86b9-0ab17a3b1e08"}},{"fullUrl":"https://madie.cms.gov/Procedure/Not65-08","resource":{"resourceType":"Procedure","id":"6d857f37-9ef0-429b-b0db-fc69227fdc34","meta":{"profile":["http://hl7.org/fhir/us/qicore/StructureDefinition/qicore-procedure"]},"extension":[{"url":"http://hl7.org/fhir/us/qicore/StructureDefinition/qicore-recorded","valueDateTime":"2026-02-02T11:30:00.000Z"}],"status":"completed","code":{"coding":[{"system":"http://snomed.info/sct","code":"182922004","display":"Dietary regime (regime/therapy)"}],"text":"Dietary regime (regime/therapy)"},"subject":{"reference":"Patient/b0173bd1-c96c-4071-9455-a9940a8d6274"},"encounter":{"reference":"Encounter/Not65IPPFAIL"},"performedPeriod":{"start":"2026-02-01T11:30:00.000Z","end":"2026-02-07T08:15:00.000Z"}},"request":{"method":"PUT","url":"Procedure/6d857f37-9ef0-429b-b0db-fc69227fdc34"}},{"fullUrl":"https://madie.cms.gov/Coverage/Not65-61","resource":{"resourceType":"Coverage","id":"6be1fd08-dc0a-46be-8315-1f22db4da8fa","meta":{"profile":["http://hl7.org/fhir/us/qicore/StructureDefinition/qicore-coverage"]},"status":"active","type":{"coding":[{"system":"https://nahdo.org/sopt","version":"9.2","code":"11","display":"Medicare Managed Care (Includes Medicare Advantage Plans)"}]},"beneficiary":{"reference":"Patient/b0173bd1-c96c-4071-9455-a9940a8d6274"},"period":{"start":"2024-10-01T00:00:00+00:00"},"payor":[{"reference":"Organization/42846cc3-1db0-4bf7-b9ff-8b81fa6e835d"}]},"request":{"method":"PUT","url":"Coverage/6be1fd08-dc0a-46be-8315-1f22db4da8fa"}},{"fullUrl":"https://madie.cms.gov/Organization/Not65-98","resource":{"resourceType":"Organization","id":"42846cc3-1db0-4bf7-b9ff-8b81fa6e835d","meta":{"profile":["http://hl7.org/fhir/us/qicore/StructureDefinition/qicore-organization"]},"identifier":[{"use":"temp","system":"urn:oid:2.16.840.1.113883.4.4","value":"21-3259825"}],"active":true,"type":[{"coding":[{"system":"http://terminology.hl7.org/CodeSystem/organization-type","code":"pay","display":"Payer"}]}],"name":"Blue Cross Blue Shield of Texas","telecom":[{"system":"phone","value":"(+1) 972-766-6900"}],"address":[{"use":"billing","type":"postal","line":["P.O. Box 660044"],"city":"Dallas","state":"TX","postalCode":"75266-0044","country":"USA"}]},"request":{"method":"PUT","url":"Organization/42846cc3-1db0-4bf7-b9ff-8b81fa6e835d"}},{"fullUrl":"https://madie.cms.gov/MeasureReport/05f5dcee-2789-4eb4-be25-2b1438b780f6","resource":{"resourceType":"MeasureReport","id":"05f5dcee-2789-4eb4-be25-2b1438b780f6","meta":{"profile":["http://hl7.org/fhir/us/cqfmeasures/StructureDefinition/test-case-cqfm"]},"contained":[{"resourceType":"Parameters","id":"1274f471-9126-4ed1-beb0-68deb74a6521-parameters","parameter":[{"name":"subject","valueString":"b0173bd1-c96c-4071-9455-a9940a8d6274"}]}],"extension":[{"url":"http://hl7.org/fhir/us/cqfmeasures/StructureDefinition/cqfm-inputParameters","valueReference":{"reference":"#1274f471-9126-4ed1-beb0-68deb74a6521-parameters"}},{"url":"http://hl7.org/fhir/us/cqfmeasures/StructureDefinition/cqfm-testCaseDescription","valueMarkdown":"Not 65"}],"modifierExtension":[{"url":"http://hl7.org/fhir/us/cqfmeasures/StructureDefinition/cqfm-isTestCase","valueBoolean":true}],"status":"complete","type":"individual","measure":"https://madie.cms.gov/Measure/GlobalMalnutritionCompositeFHIR","period":{"start":"2026-01-01","end":"2026-12-31"},"group":[{"population":[{"code":{"coding":[{"system":"http://terminology.hl7.org/CodeSystem/measure-population","code":"initial-population","display":"Initial Population"}]},"count":0},{"code":{"coding":[{"system":"http://terminology.hl7.org/CodeSystem/measure-population","code":"measure-population","display":"Measure Population"}]},"count":0}]},{"population":[{"code":{"coding":[{"system":"http://terminology.hl7.org/CodeSystem/measure-population","code":"initial-population","display":"Initial Population"}]},"count":0},{"code":{"coding":[{"system":"http://terminology.hl7.org/CodeSystem/measure-population","code":"measure-population","display":"Measure Population"}]},"count":0}]},{"population":[{"code":{"coding":[{"system":"http://terminology.hl7.org/CodeSystem/measure-population","code":"initial-population","display":"Initial Population"}]},"count":0},{"code":{"coding":[{"system":"http://terminology.hl7.org/CodeSystem/measure-population","code":"measure-population","display":"Measure Population"}]},"count":0}]},{"population":[{"code":{"coding":[{"system":"http://terminology.hl7.org/CodeSystem/measure-population","code":"initial-population","display":"Initial Population"}]},"count":0},{"code":{"coding":[{"system":"http://terminology.hl7.org/CodeSystem/measure-population","code":"measure-population","display":"Measure Population"}]},"count":0}]},{"population":[{"code":{"coding":[{"system":"http://terminology.hl7.org/CodeSystem/measure-population","code":"initial-population","display":"Initial Population"}]},"count":0},{"code":{"coding":[{"system":"http://terminology.hl7.org/CodeSystem/measure-population","code":"measure-population","display":"Measure Population"}]},"count":0}]},{"population":[{"code":{"coding":[{"system":"http://terminology.hl7.org/CodeSystem/measure-population","code":"initial-population","display":"Initial Population"}]},"count":0},{"code":{"coding":[{"system":"http://terminology.hl7.org/CodeSystem/measure-population","code":"measure-population","display":"Measure Population"}]},"count":0}]}]},"request":{"method":"PUT","url":"MeasureReport/05f5dcee-2789-4eb4-be25-2b1438b780f6"}}]}