{"resourceType":"Bundle","id":"tests-49413716-ad9f-4340-b6f8-8186c602f515-bundle","type":"transaction","entry":[{"fullUrl":"https://madie.cms.gov/Patient/49413716-ad9f-4340-b6f8-8186c602f515","resource":{"resourceType":"Patient","id":"49413716-ad9f-4340-b6f8-8186c602f515","meta":{"profile":["http://hl7.org/fhir/us/qicore/StructureDefinition/qicore-patient"]},"text":{"status":"generated","div":"<div xmlns=\"http://www.w3.org/1999/xhtml\"><div class=\"hapiHeaderText\">LOS23Hours, Screened Not at risk Assessed Severely Malnourished Diagnosed Care Plan, <b>mo1111d4p100 </b></div><table class=\"hapiPropertyTable\"><tbody><tr><td>Identifier</td><td>LOS23Hours</td></tr><tr><td>Date of birth</td><td><span>14 May 1950</span></td></tr></tbody></table></div>"},"extension":[{"url":"http://hl7.org/fhir/us/core/StructureDefinition/us-core-race","extension":[{"url":"ombCategory","valueCoding":{"system":"urn:oid:2.16.840.1.113883.6.238","code":"2106-3","display":"White","userSelected":true}},{"url":"text","valueString":"White"}]},{"url":"http://hl7.org/fhir/us/core/StructureDefinition/us-core-ethnicity","extension":[{"url":"ombCategory","valueCoding":{"system":"urn:oid:2.16.840.1.113883.6.238","code":"2186-5","display":"Not Hispanic or Latino","userSelected":true}},{"url":"text","valueString":"Not Hispanic or Latino"}]}],"identifier":[{"type":{"coding":[{"system":"http://terminology.hl7.org/CodeSystem/v2-0203","code":"MR"}]},"system":"https://madie.cms.gov/","value":"LOS23Hours"}],"active":true,"name":[{"use":"usual","text":"LOS23Hours","family":"IPPFAIL","given":["LOS23HoursIPPFAIL"]}],"gender":"male","birthDate":"1950-05-14","address":[{"text":"LOS23Hours, Screened Not at risk Assessed Severely Malnourished Diagnosed Care Plan, ID=LOS23Hours, DOB: 14 May 1950"}]},"request":{"method":"PUT","url":"Patient/49413716-ad9f-4340-b6f8-8186c602f515"}},{"fullUrl":"https://madie.cms.gov/Encounter/LOS23Hours-01","resource":{"resourceType":"Encounter","id":"0e2d6cc1-5467-48e5-a28d-f8e54fc7d0bf","meta":{"profile":["http://hl7.org/fhir/us/qicore/StructureDefinition/qicore-encounter"]},"status":"finished","class":{"system":"http://terminology.hl7.org/CodeSystem/v3-ActCode","code":"IMP","display":"inpatient encounter"},"type":[{"coding":[{"system":"http://snomed.info/sct","code":"183452005"}]}],"subject":{"reference":"Patient/49413716-ad9f-4340-b6f8-8186c602f515"},"period":{"start":"2025-02-01T08:00:00.000Z","end":"2025-02-01T08:15:00.000Z"}},"request":{"method":"PUT","url":"Encounter/0e2d6cc1-5467-48e5-a28d-f8e54fc7d0bf"}},{"fullUrl":"https://madie.cms.gov/Condition/LOS23Hours-06","resource":{"resourceType":"Condition","id":"31c9b269-6506-4191-b9fc-282155686170","meta":{"profile":["http://hl7.org/fhir/us/qicore/StructureDefinition/qicore-condition"]},"clinicalStatus":{"coding":[{"system":"http://terminology.hl7.org/CodeSystem/condition-clinical","code":"active","display":"Active","userSelected":true}]},"verificationStatus":{"coding":[{"system":"http://terminology.hl7.org/CodeSystem/condition-ver-status","code":"confirmed","display":"Confirmed","userSelected":true}]},"category":[{"coding":[{"system":"http://terminology.hl7.org/CodeSystem/condition-category","code":"encounter-diagnosis","display":"Encounter Diagnosis","userSelected":true}]}],"code":{"coding":[{"system":"http://snomed.info/sct","code":"190606006","display":"Moderate protein energy malnutrition (disorder)","userSelected":true}]},"subject":{"reference":"Patient/49413716-ad9f-4340-b6f8-8186c602f515"},"onsetPeriod":{"start":"2025-02-01T08:00:00.000+00:00"},"recordedDate":"2025-02-01T08:00:00.000+00:00"},"request":{"method":"PUT","url":"Condition/31c9b269-6506-4191-b9fc-282155686170"}},{"fullUrl":"https://madie.cms.gov/Observation/LOS23Hours-18","resource":{"resourceType":"Observation","id":"e10f8e10-2fd7-44b5-b98b-2d974f28a562","meta":{"profile":["http://hl7.org/fhir/us/qicore/StructureDefinition/qicore-observation"]},"status":"final","category":[{"coding":[{"system":"http://terminology.hl7.org/CodeSystem/observation-category","code":"survey","display":"Survey"}]}],"code":{"coding":[{"system":"http://loinc.org","code":"98967-3","display":"Nutritional Risk Screening 2002 panel","userSelected":true}]},"subject":{"reference":"Patient/49413716-ad9f-4340-b6f8-8186c602f515"},"effectiveDateTime":"2025-02-01T09:00:00.000+00:00","valueCodeableConcept":{"coding":[{"system":"http://snomed.info/sct","code":"129689002","display":"At risk for nutritional problem (finding)","userSelected":true}]}},"request":{"method":"PUT","url":"Observation/e10f8e10-2fd7-44b5-b98b-2d974f28a562"}},{"fullUrl":"https://madie.cms.gov/Observation/LOS23Hours-19","resource":{"resourceType":"Observation","id":"c2ea1be9-5870-4010-950b-30f85d2c7ea0","meta":{"profile":["http://hl7.org/fhir/us/qicore/StructureDefinition/qicore-observation"]},"status":"final","category":[{"coding":[{"system":"http://terminology.hl7.org/CodeSystem/observation-category","code":"survey","display":"Survey"}]}],"code":{"coding":[{"system":"http://loinc.org","code":"75282-4","display":"Nutrition assessment panel","userSelected":true}]},"subject":{"reference":"Patient/49413716-ad9f-4340-b6f8-8186c602f515"},"effectiveDateTime":"2025-02-01T10:00:00.000+00:00","valueCodeableConcept":{"coding":[{"system":"http://snomed.info/sct","code":"102635008","display":"Acute nutritional deficiency (finding)","userSelected":true}]}},"request":{"method":"PUT","url":"Observation/c2ea1be9-5870-4010-950b-30f85d2c7ea0"}},{"fullUrl":"https://madie.cms.gov/Procedure/LOS23Hours-12","resource":{"resourceType":"Procedure","id":"d5ac0c8b-8986-4036-832f-b1d70a369ea6","meta":{"profile":["http://hl7.org/fhir/us/qicore/StructureDefinition/qicore-procedure"]},"extension":[{"url":"http://hl7.org/fhir/us/qicore/StructureDefinition/qicore-recorded","valueDateTime":"2025-02-01T08:30:00.000Z"}],"status":"completed","code":{"coding":[{"system":"http://snomed.info/sct","code":"306165000","display":"Referral to hospital-based dietetics service (procedure)"}],"text":"Referral to hospital-based dietetics service (procedure)"},"subject":{"reference":"Patient/49413716-ad9f-4340-b6f8-8186c602f515"},"encounter":{"reference":"Encounter/LOS23HoursIPPFAIL"},"performedPeriod":{"start":"2025-02-01T07:30:00.000Z","end":"2025-02-01T08:15:00.000Z"}},"request":{"method":"PUT","url":"Procedure/d5ac0c8b-8986-4036-832f-b1d70a369ea6"}},{"fullUrl":"https://madie.cms.gov/Procedure/LOS23Hours-08","resource":{"resourceType":"Procedure","id":"1c029c77-7ff0-420a-b4e3-3ecbdc03a2b2","meta":{"profile":["http://hl7.org/fhir/us/qicore/StructureDefinition/qicore-procedure"]},"extension":[{"url":"http://hl7.org/fhir/us/qicore/StructureDefinition/qicore-recorded","valueDateTime":"2025-02-01T11:30:00.000Z"}],"status":"completed","code":{"coding":[{"system":"http://snomed.info/sct","code":"182922004","display":"Dietary regime (regime/therapy)"}],"text":"Dietary regime (regime/therapy)"},"subject":{"reference":"Patient/49413716-ad9f-4340-b6f8-8186c602f515"},"encounter":{"reference":"Encounter/LOS23HoursIPPFAIL"},"performedPeriod":{"start":"2025-02-01T11:30:00.000Z","end":"2025-02-07T08:15:00.000Z"}},"request":{"method":"PUT","url":"Procedure/1c029c77-7ff0-420a-b4e3-3ecbdc03a2b2"}},{"fullUrl":"https://madie.cms.gov/Coverage/LOS23Hours-61","resource":{"resourceType":"Coverage","id":"21fc0e55-4671-4fb4-aa01-9dac76968d6b","meta":{"profile":["http://hl7.org/fhir/us/qicore/StructureDefinition/qicore-coverage"]},"status":"active","type":{"coding":[{"system":"https://nahdo.org/sopt","version":"9.2","code":"11","display":"Medicare Managed Care (Includes Medicare Advantage Plans)"}]},"beneficiary":{"reference":"Patient/49413716-ad9f-4340-b6f8-8186c602f515"},"period":{"start":"2024-10-01T00:00:00+00:00"},"payor":[{"reference":"Organization/84b56847-ad40-4bf6-b612-9e42ad2a84e5"}]},"request":{"method":"PUT","url":"Coverage/21fc0e55-4671-4fb4-aa01-9dac76968d6b"}},{"fullUrl":"https://madie.cms.gov/Organization/LOS23Hours-98","resource":{"resourceType":"Organization","id":"84b56847-ad40-4bf6-b612-9e42ad2a84e5","meta":{"profile":["http://hl7.org/fhir/us/qicore/StructureDefinition/qicore-organization"]},"identifier":[{"use":"temp","system":"urn:oid:2.16.840.1.113883.4.4","value":"21-3259825"}],"active":true,"type":[{"coding":[{"system":"http://terminology.hl7.org/CodeSystem/organization-type","code":"pay","display":"Payer"}]}],"name":"Blue Cross Blue Shield of Texas","telecom":[{"system":"phone","value":"(+1) 972-766-6900"}],"address":[{"use":"billing","type":"postal","line":["P.O. Box 660044"],"city":"Dallas","state":"TX","postalCode":"75266-0044","country":"USA"}]},"request":{"method":"PUT","url":"Organization/84b56847-ad40-4bf6-b612-9e42ad2a84e5"}},{"fullUrl":"https://madie.cms.gov/MeasureReport/9951ad5d-650a-447f-bc89-a47cc576254b","resource":{"resourceType":"MeasureReport","id":"9951ad5d-650a-447f-bc89-a47cc576254b","meta":{"profile":["http://hl7.org/fhir/us/cqfmeasures/StructureDefinition/test-case-cqfm"]},"contained":[{"resourceType":"Parameters","id":"4ab2e3bc-fe71-4c1b-a813-11999fe8c9be-parameters","parameter":[{"name":"subject","valueString":"49413716-ad9f-4340-b6f8-8186c602f515"}]}],"extension":[{"url":"http://hl7.org/fhir/us/cqfmeasures/StructureDefinition/cqfm-inputParameters","valueReference":{"reference":"#4ab2e3bc-fe71-4c1b-a813-11999fe8c9be-parameters"}},{"url":"http://hl7.org/fhir/us/cqfmeasures/StructureDefinition/cqfm-testCaseDescription","valueMarkdown":"LOS <24 hours"}],"modifierExtension":[{"url":"http://hl7.org/fhir/us/cqfmeasures/StructureDefinition/cqfm-isTestCase","valueBoolean":true}],"status":"complete","type":"individual","measure":"https://madie.cms.gov/Measure/GlobalMalnutritionCompositeFHIR","period":{"start":"2026-01-01","end":"2026-12-31"},"group":[{"population":[{"code":{"coding":[{"system":"http://terminology.hl7.org/CodeSystem/measure-population","code":"initial-population","display":"Initial Population"}]},"count":0},{"code":{"coding":[{"system":"http://terminology.hl7.org/CodeSystem/measure-population","code":"measure-population","display":"Measure Population"}]},"count":0}]},{"population":[{"code":{"coding":[{"system":"http://terminology.hl7.org/CodeSystem/measure-population","code":"initial-population","display":"Initial Population"}]},"count":0},{"code":{"coding":[{"system":"http://terminology.hl7.org/CodeSystem/measure-population","code":"measure-population","display":"Measure Population"}]},"count":0}]},{"population":[{"code":{"coding":[{"system":"http://terminology.hl7.org/CodeSystem/measure-population","code":"initial-population","display":"Initial Population"}]},"count":0},{"code":{"coding":[{"system":"http://terminology.hl7.org/CodeSystem/measure-population","code":"measure-population","display":"Measure Population"}]},"count":0}]},{"population":[{"code":{"coding":[{"system":"http://terminology.hl7.org/CodeSystem/measure-population","code":"initial-population","display":"Initial Population"}]},"count":0},{"code":{"coding":[{"system":"http://terminology.hl7.org/CodeSystem/measure-population","code":"measure-population","display":"Measure Population"}]},"count":0}]},{"population":[{"code":{"coding":[{"system":"http://terminology.hl7.org/CodeSystem/measure-population","code":"initial-population","display":"Initial Population"}]},"count":0},{"code":{"coding":[{"system":"http://terminology.hl7.org/CodeSystem/measure-population","code":"measure-population","display":"Measure Population"}]},"count":0}]},{"population":[{"code":{"coding":[{"system":"http://terminology.hl7.org/CodeSystem/measure-population","code":"initial-population","display":"Initial Population"}]},"count":0},{"code":{"coding":[{"system":"http://terminology.hl7.org/CodeSystem/measure-population","code":"measure-population","display":"Measure Population"}]},"count":0}]}]},"request":{"method":"PUT","url":"MeasureReport/9951ad5d-650a-447f-bc89-a47cc576254b"}}]}