{"resourceType":"Bundle","id":"tests-b1b79c28-6fb7-4900-8332-1378089486dd-bundle","type":"transaction","entry":[{"fullUrl":"https://madie.cms.gov/Patient/b1b79c28-6fb7-4900-8332-1378089486dd","resource":{"resourceType":"Patient","id":"b1b79c28-6fb7-4900-8332-1378089486dd","meta":{"profile":["http://hl7.org/fhir/us/qicore/StructureDefinition/qicore-patient"]},"text":{"status":"generated","div":"<div xmlns=\"http://www.w3.org/1999/xhtml\"><div class=\"hapiHeaderText\">MultiScreAtriskNorefAsseModDxCp, , <b> </b></div><table class=\"hapiPropertyTable\"><tbody><tr><td>Identifier</td><td>MultiScreAtriskNorefAsseModDxCp</td></tr><tr><td>Date of birth</td><td><span>14 May 1950</span></td></tr></tbody></table></div>"},"extension":[{"url":"http://hl7.org/fhir/us/core/StructureDefinition/us-core-race","extension":[{"url":"ombCategory","valueCoding":{"system":"urn:oid:2.16.840.1.113883.6.238","code":"2106-3","display":"White","userSelected":true}},{"url":"text","valueString":"White"}]},{"url":"http://hl7.org/fhir/us/core/StructureDefinition/us-core-ethnicity","extension":[{"url":"ombCategory","valueCoding":{"system":"urn:oid:2.16.840.1.113883.6.238","code":"2186-5","display":"Not Hispanic or Latino","userSelected":true}},{"url":"text","valueString":"Not Hispanic or Latino"}]}],"identifier":[{"type":{"coding":[{"system":"http://terminology.hl7.org/CodeSystem/v2-0203","code":"MR"}]},"system":"https://madie.cms.gov/","value":"MultiScreAtriskNorefAsseModDxCp"}],"active":true,"name":[{"use":"usual","text":"MultiScreAtriskNorefAsseModDxCp","family":"denompass444","given":["MultiScreAtriskNorefAsseModDxCpdenompass444"]}],"gender":"male","birthDate":"1954-01-01","address":[{"text":"MultiScreAtriskNorefAsseModDxCp, Screened Not at risk Assessed Severely Malnourished Diagnosed Care Plan, ID=MultiScreAtriskNorefAsseModDxCp, DOB: 14 May 1950"}]},"request":{"method":"PUT","url":"Patient/b1b79c28-6fb7-4900-8332-1378089486dd"}},{"fullUrl":"https://madie.cms.gov/Encounter/MultiScreAtriskNorefAsseModDxCp-01","resource":{"resourceType":"Encounter","id":"72743f9d-d088-4bb4-9d67-ae1db63165b4","meta":{"profile":["http://hl7.org/fhir/us/qicore/StructureDefinition/qicore-encounter"]},"status":"finished","class":{"system":"http://terminology.hl7.org/CodeSystem/v3-ActCode","code":"IMP","display":"inpatient encounter"},"type":[{"coding":[{"system":"http://snomed.info/sct","code":"183452005"}]}],"subject":{"reference":"Patient/b1b79c28-6fb7-4900-8332-1378089486dd"},"period":{"start":"2026-02-01T08:00:00.000Z","end":"2026-02-07T08:15:00.000Z"}},"request":{"method":"PUT","url":"Encounter/72743f9d-d088-4bb4-9d67-ae1db63165b4"}},{"fullUrl":"https://madie.cms.gov/Condition/MultiScreAtriskNorefAsseModDxCp-06","resource":{"resourceType":"Condition","id":"5a7fb1d3-7ebe-4a9c-b55d-b97cee2effad","meta":{"profile":["http://hl7.org/fhir/us/qicore/StructureDefinition/qicore-condition"]},"clinicalStatus":{"coding":[{"system":"http://terminology.hl7.org/CodeSystem/condition-clinical","code":"active","display":"Active","userSelected":true}]},"verificationStatus":{"coding":[{"system":"http://terminology.hl7.org/CodeSystem/condition-ver-status","code":"confirmed","display":"Confirmed","userSelected":true}]},"category":[{"coding":[{"system":"http://terminology.hl7.org/CodeSystem/condition-category","code":"encounter-diagnosis","display":"Encounter Diagnosis","userSelected":true}]}],"code":{"coding":[{"system":"http://snomed.info/sct","code":"190606006","display":"Malnutrition (calorie) (disorder)","userSelected":true}]},"subject":{"reference":"Patient/b1b79c28-6fb7-4900-8332-1378089486dd"},"onsetPeriod":{"start":"2026-02-01T08:00:00.000+00:00"},"recordedDate":"2026-02-01T11:00:00.000+00:00"},"request":{"method":"PUT","url":"Condition/5a7fb1d3-7ebe-4a9c-b55d-b97cee2effad"}},{"fullUrl":"https://madie.cms.gov/Observation/MultiScreAtriskNorefAsseModDxCp-18","resource":{"resourceType":"Observation","id":"5cc1d9ce-c67a-4af7-962d-781ed2363916","meta":{"profile":["http://hl7.org/fhir/us/qicore/StructureDefinition/qicore-observation"]},"status":"final","category":[{"coding":[{"system":"http://terminology.hl7.org/CodeSystem/observation-category","code":"survey","display":"Survey"}]}],"code":{"coding":[{"system":"http://loinc.org","code":"98967-3","display":"Initial Screening NRS_2002","userSelected":true}]},"subject":{"reference":"Patient/b1b79c28-6fb7-4900-8332-1378089486dd"},"effectiveDateTime":"2026-02-01T09:00:00.000+00:00","valueCodeableConcept":{"coding":[{"system":"http://snomed.info/sct","code":"129689002","display":"Normal diet (finding)","userSelected":true}]}},"request":{"method":"PUT","url":"Observation/5cc1d9ce-c67a-4af7-962d-781ed2363916"}},{"fullUrl":"https://madie.cms.gov/Observation/MultiScreAtriskNorefAsseModDxCp-19","resource":{"resourceType":"Observation","id":"9add7178-72eb-42f9-a819-88a1482e218c","meta":{"profile":["http://hl7.org/fhir/us/qicore/StructureDefinition/qicore-observation"]},"status":"final","category":[{"coding":[{"system":"http://terminology.hl7.org/CodeSystem/observation-category","code":"survey","display":"Survey"}]}],"code":{"coding":[{"system":"http://loinc.org","code":"75282-4","display":"Comparative nutrition assessment standards panel","userSelected":true}]},"subject":{"reference":"Patient/b1b79c28-6fb7-4900-8332-1378089486dd"},"effectiveDateTime":"2026-02-01T10:00:00.000+00:00","valueCodeableConcept":{"coding":[{"system":"http://snomed.info/sct","code":"102636009","display":"Malnutrition (calorie) (disorder)","userSelected":true}]}},"request":{"method":"PUT","url":"Observation/9add7178-72eb-42f9-a819-88a1482e218c"}},{"fullUrl":"https://madie.cms.gov/Procedure/MultiScreAtriskNorefAsseModDxCp-12","resource":{"resourceType":"Procedure","id":"f47c3888-56b6-41da-8927-bfc8af110242","meta":{"profile":["http://hl7.org/fhir/us/qicore/StructureDefinition/qicore-procedure"]},"extension":[{"url":"http://hl7.org/fhir/us/qicore/StructureDefinition/qicore-recorded","valueDateTime":"2026-02-01T11:30:00.000Z"}],"status":"completed","code":{"coding":[{"system":"http://snomed.info/sct","code":"306354000","display":"Referral to hospital-based dietitian (procedure)"}],"text":"Referral to hospital-based dietitian (procedure)"},"subject":{"reference":"Patient/b1b79c28-6fb7-4900-8332-1378089486dd"},"encounter":{"reference":"Encounter/MultiScreAtriskNorefAsseModDxCpdenompass444"},"performedPeriod":{"start":"2026-02-01T11:30:00.000Z","end":"2026-02-07T08:15:00.000Z"}},"request":{"method":"PUT","url":"Procedure/f47c3888-56b6-41da-8927-bfc8af110242"}},{"fullUrl":"https://madie.cms.gov/Procedure/MultiScreAtriskNorefAsseModDxCp-08","resource":{"resourceType":"Procedure","id":"604cb1c1-d08e-47a4-8648-65b2becc5cb0","meta":{"profile":["http://hl7.org/fhir/us/qicore/StructureDefinition/qicore-procedure"]},"extension":[{"url":"http://hl7.org/fhir/us/qicore/StructureDefinition/qicore-recorded","valueDateTime":"2026-02-02T11:30:00.000Z"}],"status":"completed","code":{"coding":[{"system":"http://snomed.info/sct","code":"386372009","display":"Nutrition management (regime/therapy)"}],"text":"Nutrition management (regime/therapy)"},"subject":{"reference":"Patient/b1b79c28-6fb7-4900-8332-1378089486dd"},"encounter":{"reference":"Encounter/MultiScreAtriskNorefAsseModDxCpdenompass444"},"performedPeriod":{"start":"2026-02-01T11:30:00.000Z","end":"2026-02-07T08:15:00.000Z"}},"request":{"method":"PUT","url":"Procedure/604cb1c1-d08e-47a4-8648-65b2becc5cb0"}},{"fullUrl":"https://madie.cms.gov/Coverage/MultiScreAtriskNorefAsseModDxCp-61","resource":{"resourceType":"Coverage","id":"da7dd757-2651-463b-b7bc-e552f2e3dfc8","meta":{"profile":["http://hl7.org/fhir/us/qicore/StructureDefinition/qicore-coverage"]},"status":"active","type":{"coding":[{"system":"https://nahdo.org/sopt","version":"9.2","code":"11","display":"Medicare Managed Care (Includes Medicare Advantage Plans)"}]},"beneficiary":{"reference":"Patient/b1b79c28-6fb7-4900-8332-1378089486dd"},"period":{"start":"2026-10-01T00:00:00+00:00"},"payor":[{"reference":"Organization/41c75c00-82d9-4ab2-98f6-cfaf7fc3381d"}]},"request":{"method":"PUT","url":"Coverage/da7dd757-2651-463b-b7bc-e552f2e3dfc8"}},{"fullUrl":"https://madie.cms.gov/Encounter/MultiScreAtriskNorefAsseModDxCp-20","resource":{"resourceType":"Encounter","id":"0a906425-8e6c-4612-b432-42089e324517","meta":{"profile":["http://hl7.org/fhir/us/qicore/StructureDefinition/qicore-encounter"]},"status":"finished","class":{"system":"http://terminology.hl7.org/CodeSystem/v3-ActCode","code":"IMP","display":"inpatient encounter"},"type":[{"coding":[{"system":"http://snomed.info/sct","code":"183452005"}]}],"subject":{"reference":"Patient/b1b79c28-6fb7-4900-8332-1378089486dd"},"period":{"start":"2026-03-01T08:00:00.000Z","end":"2026-03-07T08:15:00.000Z"}},"request":{"method":"PUT","url":"Encounter/0a906425-8e6c-4612-b432-42089e324517"}},{"fullUrl":"https://madie.cms.gov/Condition/MultiScreAtriskNorefAsseModDxCp-21","resource":{"resourceType":"Condition","id":"291495af-dccd-47ec-9ce9-5c448b4c6ad5","meta":{"profile":["http://hl7.org/fhir/us/qicore/StructureDefinition/qicore-condition"]},"clinicalStatus":{"coding":[{"system":"http://terminology.hl7.org/CodeSystem/condition-clinical","code":"active","display":"Active","userSelected":true}]},"verificationStatus":{"coding":[{"system":"http://terminology.hl7.org/CodeSystem/condition-ver-status","code":"confirmed","display":"Confirmed","userSelected":true}]},"category":[{"coding":[{"system":"http://terminology.hl7.org/CodeSystem/condition-category","code":"encounter-diagnosis","display":"Encounter Diagnosis","userSelected":true}]}],"code":{"coding":[{"system":"http://snomed.info/sct","code":"272588001","display":"Malnutrition (calorie) (disorder)","userSelected":true}]},"subject":{"reference":"Patient/b1b79c28-6fb7-4900-8332-1378089486dd"},"onsetPeriod":{"start":"2026-03-01T08:00:00.000+00:00"},"recordedDate":"2026-03-01T11:00:00.000+00:00"},"request":{"method":"PUT","url":"Condition/291495af-dccd-47ec-9ce9-5c448b4c6ad5"}},{"fullUrl":"https://madie.cms.gov/Observation/MultiScreAtriskNorefAsseModDxCp-22","resource":{"resourceType":"Observation","id":"d3b69d66-e4ae-4f4e-afe1-805ed3e3035b","meta":{"profile":["http://hl7.org/fhir/us/qicore/StructureDefinition/qicore-observation"]},"status":"final","category":[{"coding":[{"system":"http://terminology.hl7.org/CodeSystem/observation-category","code":"survey","display":"Survey"}]}],"code":{"coding":[{"system":"http://loinc.org","code":"98968-1","display":"Initial Screening NRS_2002","userSelected":true}]},"subject":{"reference":"Patient/b1b79c28-6fb7-4900-8332-1378089486dd"},"effectiveDateTime":"2026-03-01T09:00:00.000+00:00","valueCodeableConcept":{"coding":[{"system":"http://snomed.info/sct","code":"36823005","display":"Normal diet (finding)","userSelected":true}]}},"request":{"method":"PUT","url":"Observation/d3b69d66-e4ae-4f4e-afe1-805ed3e3035b"}},{"fullUrl":"https://madie.cms.gov/Observation/MultiScreAtriskNorefAsseModDxCp-23","resource":{"resourceType":"Observation","id":"bffb59e9-eee5-4180-9f7b-3da0926fb173","meta":{"profile":["http://hl7.org/fhir/us/qicore/StructureDefinition/qicore-observation"]},"status":"final","category":[{"coding":[{"system":"http://terminology.hl7.org/CodeSystem/observation-category","code":"survey","display":"Survey"}]}],"code":{"coding":[{"system":"http://loinc.org","code":"75285-7","display":"Comparative nutrition assessment standards panel","userSelected":true}]},"subject":{"reference":"Patient/b1b79c28-6fb7-4900-8332-1378089486dd"},"effectiveDateTime":"2026-03-01T10:00:00.000+00:00","valueCodeableConcept":{"coding":[{"system":"http://snomed.info/sct","code":"272588001","display":"Malnutrition (calorie) (disorder)","userSelected":true}]}},"request":{"method":"PUT","url":"Observation/bffb59e9-eee5-4180-9f7b-3da0926fb173"}},{"fullUrl":"https://madie.cms.gov/Procedure/MultiScreAtriskNorefAsseModDxCp-24","resource":{"resourceType":"Procedure","id":"6145b8c4-3f34-4d46-aa59-f3827f22518a","meta":{"profile":["http://hl7.org/fhir/us/qicore/StructureDefinition/qicore-procedure"]},"extension":[{"url":"http://hl7.org/fhir/us/qicore/StructureDefinition/qicore-recorded","valueDateTime":"2026-03-01T11:30:00.000Z"}],"status":"completed","code":{"coding":[{"system":"http://snomed.info/sct","code":"306354000","display":"Referral to hospital-based dietitian (procedure)"}],"text":"Referral to hospital-based dietitian (procedure)"},"subject":{"reference":"Patient/b1b79c28-6fb7-4900-8332-1378089486dd"},"encounter":{"reference":"Encounter/MultiScreAtriskNorefAsseModDxCpdenompass444"},"performedPeriod":{"start":"2026-03-01T11:30:00.000Z","end":"2026-03-07T08:15:00.000Z"}},"request":{"method":"PUT","url":"Procedure/6145b8c4-3f34-4d46-aa59-f3827f22518a"}},{"fullUrl":"https://madie.cms.gov/Procedure/MultiScreAtriskNorefAsseModDxCp-25","resource":{"resourceType":"Procedure","id":"10bd8331-db80-4aa6-95c9-6c25beb16da3","meta":{"profile":["http://hl7.org/fhir/us/qicore/StructureDefinition/qicore-procedure"]},"extension":[{"url":"http://hl7.org/fhir/us/qicore/StructureDefinition/qicore-recorded","valueDateTime":"2026-03-02T11:30:00.000Z"}],"status":"completed","code":{"coding":[{"system":"http://snomed.info/sct","code":"386372009","display":"Nutrition management (regime/therapy)"}],"text":"Nutrition management (regime/therapy)"},"subject":{"reference":"Patient/b1b79c28-6fb7-4900-8332-1378089486dd"},"encounter":{"reference":"Encounter/MultiScreAtriskNorefAsseModDxCpdenompass444"},"performedPeriod":{"start":"2026-03-01T11:30:00.000Z","end":"2026-03-07T08:15:00.000Z"}},"request":{"method":"PUT","url":"Procedure/10bd8331-db80-4aa6-95c9-6c25beb16da3"}},{"fullUrl":"https://madie.cms.gov/Encounter/MultiScreAtriskNorefAsseModDxCp-26","resource":{"resourceType":"Encounter","id":"a7e7c394-68e9-4ee5-ab4a-e8185fba9a81","meta":{"profile":["http://hl7.org/fhir/us/qicore/StructureDefinition/qicore-encounter"]},"status":"finished","class":{"system":"http://terminology.hl7.org/CodeSystem/v3-ActCode","code":"IMP","display":"inpatient encounter"},"type":[{"coding":[{"system":"http://snomed.info/sct","code":"183452005"}]}],"subject":{"reference":"Patient/b1b79c28-6fb7-4900-8332-1378089486dd"},"period":{"start":"2026-04-01T08:00:00.000Z","end":"2026-04-07T08:15:00.000Z"}},"request":{"method":"PUT","url":"Encounter/a7e7c394-68e9-4ee5-ab4a-e8185fba9a81"}},{"fullUrl":"https://madie.cms.gov/Condition/MultiScreAtriskNorefAsseModDxCp-27","resource":{"resourceType":"Condition","id":"f300d2c5-f2dd-4deb-b068-124bcd69c0b5","meta":{"profile":["http://hl7.org/fhir/us/qicore/StructureDefinition/qicore-condition"]},"clinicalStatus":{"coding":[{"system":"http://terminology.hl7.org/CodeSystem/condition-clinical","code":"active","display":"Active","userSelected":true}]},"verificationStatus":{"coding":[{"system":"http://terminology.hl7.org/CodeSystem/condition-ver-status","code":"confirmed","display":"Confirmed","userSelected":true}]},"category":[{"coding":[{"system":"http://terminology.hl7.org/CodeSystem/condition-category","code":"encounter-diagnosis","display":"Encounter Diagnosis","userSelected":true}]}],"code":{"coding":[{"system":"http://snomed.info/sct","code":"272588001","display":"Malnutrition (calorie) (disorder)","userSelected":true}]},"subject":{"reference":"Patient/b1b79c28-6fb7-4900-8332-1378089486dd"},"onsetPeriod":{"start":"2026-04-01T08:00:00.000+00:00"},"recordedDate":"2026-04-01T11:00:00.000+00:00"},"request":{"method":"PUT","url":"Condition/f300d2c5-f2dd-4deb-b068-124bcd69c0b5"}},{"fullUrl":"https://madie.cms.gov/Observation/MultiScreAtriskNorefAsseModDxCp-28","resource":{"resourceType":"Observation","id":"11b1b147-229f-4a03-bfca-c0844b896baa","meta":{"profile":["http://hl7.org/fhir/us/qicore/StructureDefinition/qicore-observation"]},"status":"final","category":[{"coding":[{"system":"http://terminology.hl7.org/CodeSystem/observation-category","code":"survey","display":"Survey"}]}],"code":{"coding":[{"system":"http://loinc.org","code":"98968-1","display":"Initial Screening NRS_2002","userSelected":true}]},"subject":{"reference":"Patient/b1b79c28-6fb7-4900-8332-1378089486dd"},"effectiveDateTime":"2026-02-01T09:00:00.000+00:00","valueCodeableConcept":{"coding":[{"system":"http://snomed.info/sct","code":"36823005","display":"Normal diet (finding)","userSelected":true}]}},"request":{"method":"PUT","url":"Observation/11b1b147-229f-4a03-bfca-c0844b896baa"}},{"fullUrl":"https://madie.cms.gov/Observation/MultiScreAtriskNorefAsseModDxCp-29","resource":{"resourceType":"Observation","id":"422232bb-84af-4cac-b64b-45be57939caa","meta":{"profile":["http://hl7.org/fhir/us/qicore/StructureDefinition/qicore-observation"]},"status":"final","category":[{"coding":[{"system":"http://terminology.hl7.org/CodeSystem/observation-category","code":"survey","display":"Survey"}]}],"code":{"coding":[{"system":"http://loinc.org","code":"75285-7","display":"Comparative nutrition assessment standards panel","userSelected":true}]},"subject":{"reference":"Patient/b1b79c28-6fb7-4900-8332-1378089486dd"},"effectiveDateTime":"2026-04-01T10:00:00.000+00:00","valueCodeableConcept":{"coding":[{"system":"http://snomed.info/sct","code":"272588001","display":"Malnutrition (calorie) (disorder)","userSelected":true}]}},"request":{"method":"PUT","url":"Observation/422232bb-84af-4cac-b64b-45be57939caa"}},{"fullUrl":"https://madie.cms.gov/Procedure/MultiScreAtriskNorefAsseModDxCp-30","resource":{"resourceType":"Procedure","id":"50dca71e-b948-4a5b-9747-3afe8eb89252","meta":{"profile":["http://hl7.org/fhir/us/qicore/StructureDefinition/qicore-procedure"]},"extension":[{"url":"http://hl7.org/fhir/us/qicore/StructureDefinition/qicore-recorded","valueDateTime":"2026-04-01T11:30:00.000Z"}],"status":"completed","code":{"coding":[{"system":"http://snomed.info/sct","code":"306354000","display":"Referral to hospital-based dietitian (procedure)"}],"text":"Referral to hospital-based dietitian (procedure)"},"subject":{"reference":"Patient/b1b79c28-6fb7-4900-8332-1378089486dd"},"encounter":{"reference":"Encounter/MultiScreAtriskNorefAsseModDxCpdenompass444"},"performedPeriod":{"start":"2026-04-01T11:30:00.000Z","end":"2026-04-07T08:15:00.000Z"}},"request":{"method":"PUT","url":"Procedure/50dca71e-b948-4a5b-9747-3afe8eb89252"}},{"fullUrl":"https://madie.cms.gov/Procedure/MultiScreAtriskNorefAsseModDxCp-31","resource":{"resourceType":"Procedure","id":"fbe8f272-5d66-469b-a9f3-b7b73855e882","meta":{"profile":["http://hl7.org/fhir/us/qicore/StructureDefinition/qicore-procedure"]},"extension":[{"url":"http://hl7.org/fhir/us/qicore/StructureDefinition/qicore-recorded","valueDateTime":"2026-04-02T11:30:00.000Z"}],"status":"completed","code":{"coding":[{"system":"http://snomed.info/sct","code":"386372009","display":"Nutrition management (regime/therapy)"}],"text":"Nutrition management (regime/therapy)"},"subject":{"reference":"Patient/b1b79c28-6fb7-4900-8332-1378089486dd"},"encounter":{"reference":"Encounter/MultiScreAtriskNorefAsseModDxCpdenompass444"},"performedPeriod":{"start":"2026-04-01T11:30:00.000Z","end":"2026-04-07T08:15:00.000Z"}},"request":{"method":"PUT","url":"Procedure/fbe8f272-5d66-469b-a9f3-b7b73855e882"}},{"fullUrl":"https://madie.cms.gov/Coverage/MultiScreAtriskNorefAsseModDxCp-32","resource":{"resourceType":"Coverage","id":"89148caf-7509-418f-af05-1ca58174d83f","meta":{"profile":["http://hl7.org/fhir/us/qicore/StructureDefinition/qicore-coverage"]},"status":"active","type":{"coding":[{"system":"https://nahdo.org/sopt","version":"9.2","code":"11","display":"Medicare Managed Care (Includes Medicare Advantage Plans)"}]},"beneficiary":{"reference":"Patient/b1b79c28-6fb7-4900-8332-1378089486dd"},"period":{"start":"2026-10-01T00:00:00+00:00"},"payor":[{"reference":"Organization/41c75c00-82d9-4ab2-98f6-cfaf7fc3381d"}]},"request":{"method":"PUT","url":"Coverage/89148caf-7509-418f-af05-1ca58174d83f"}},{"fullUrl":"https://madie.cms.gov/Organization/MultiScreAtriskNorefAsseModDxCp-98","resource":{"resourceType":"Organization","id":"41c75c00-82d9-4ab2-98f6-cfaf7fc3381d","meta":{"profile":["http://hl7.org/fhir/us/qicore/StructureDefinition/qicore-organization"]},"identifier":[{"use":"temp","system":"urn:oid:2.16.840.1.113883.4.4","value":"21-3259825"}],"active":true,"type":[{"coding":[{"system":"http://terminology.hl7.org/CodeSystem/organization-type","code":"pay","display":"Payer"}]}],"name":"Blue Cross Blue Shield of Texas","telecom":[{"system":"phone","value":"(+1) 972-766-6900"}],"address":[{"use":"billing","type":"postal","line":["P.O. Box 660044"],"city":"Dallas","state":"TX","postalCode":"75266-0044","country":"USA"}]},"request":{"method":"PUT","url":"Organization/41c75c00-82d9-4ab2-98f6-cfaf7fc3381d"}},{"fullUrl":"https://madie.cms.gov/MeasureReport/bc010d40-9a7a-4c60-83de-103c67c8e754","resource":{"resourceType":"MeasureReport","id":"bc010d40-9a7a-4c60-83de-103c67c8e754","meta":{"profile":["http://hl7.org/fhir/us/cqfmeasures/StructureDefinition/test-case-cqfm"]},"contained":[{"resourceType":"Parameters","id":"2effcb68-309c-481f-b75c-cafb3c31251b-parameters","parameter":[{"name":"subject","valueString":"b1b79c28-6fb7-4900-8332-1378089486dd"}]}],"extension":[{"url":"http://hl7.org/fhir/us/cqfmeasures/StructureDefinition/cqfm-inputParameters","valueReference":{"reference":"#2effcb68-309c-481f-b75c-cafb3c31251b-parameters"}},{"url":"http://hl7.org/fhir/us/cqfmeasures/StructureDefinition/cqfm-testCaseDescription","valueMarkdown":"3 Encounters, all components met in each"}],"modifierExtension":[{"url":"http://hl7.org/fhir/us/cqfmeasures/StructureDefinition/cqfm-isTestCase","valueBoolean":true}],"status":"complete","type":"individual","measure":"https://madie.cms.gov/Measure/GlobalMalnutritionCompositeFHIR","period":{"start":"2026-01-01","end":"2026-12-31"},"group":[{"population":[{"code":{"coding":[{"system":"http://terminology.hl7.org/CodeSystem/measure-population","code":"initial-population","display":"Initial Population"}]},"count":3},{"code":{"coding":[{"system":"http://terminology.hl7.org/CodeSystem/measure-population","code":"measure-population","display":"Measure Population"}]},"count":3},{"code":{"coding":[{"system":"http://terminology.hl7.org/CodeSystem/measure-population","code":"measure-population-observation","display":"Measure Population Observation"}]},"count":1},{"code":{"coding":[{"system":"http://terminology.hl7.org/CodeSystem/measure-population","code":"measure-population-observation","display":"Measure Population Observation"}]},"count":1},{"code":{"coding":[{"system":"http://terminology.hl7.org/CodeSystem/measure-population","code":"measure-population-observation","display":"Measure Population Observation"}]},"count":1}]},{"population":[{"code":{"coding":[{"system":"http://terminology.hl7.org/CodeSystem/measure-population","code":"initial-population","display":"Initial Population"}]},"count":3},{"code":{"coding":[{"system":"http://terminology.hl7.org/CodeSystem/measure-population","code":"measure-population","display":"Measure Population"}]},"count":3},{"code":{"coding":[{"system":"http://terminology.hl7.org/CodeSystem/measure-population","code":"measure-population-observation","display":"Measure Population Observation"}]},"count":1},{"code":{"coding":[{"system":"http://terminology.hl7.org/CodeSystem/measure-population","code":"measure-population-observation","display":"Measure Population Observation"}]},"count":1},{"code":{"coding":[{"system":"http://terminology.hl7.org/CodeSystem/measure-population","code":"measure-population-observation","display":"Measure Population Observation"}]},"count":1}]},{"population":[{"code":{"coding":[{"system":"http://terminology.hl7.org/CodeSystem/measure-population","code":"initial-population","display":"Initial Population"}]},"count":3},{"code":{"coding":[{"system":"http://terminology.hl7.org/CodeSystem/measure-population","code":"measure-population","display":"Measure Population"}]},"count":3},{"code":{"coding":[{"system":"http://terminology.hl7.org/CodeSystem/measure-population","code":"measure-population-observation","display":"Measure Population Observation"}]},"count":1},{"code":{"coding":[{"system":"http://terminology.hl7.org/CodeSystem/measure-population","code":"measure-population-observation","display":"Measure Population Observation"}]},"count":1},{"code":{"coding":[{"system":"http://terminology.hl7.org/CodeSystem/measure-population","code":"measure-population-observation","display":"Measure Population Observation"}]},"count":1}]},{"population":[{"code":{"coding":[{"system":"http://terminology.hl7.org/CodeSystem/measure-population","code":"initial-population","display":"Initial Population"}]},"count":3},{"code":{"coding":[{"system":"http://terminology.hl7.org/CodeSystem/measure-population","code":"measure-population","display":"Measure Population"}]},"count":3},{"code":{"coding":[{"system":"http://terminology.hl7.org/CodeSystem/measure-population","code":"measure-population-observation","display":"Measure Population Observation"}]},"count":1},{"code":{"coding":[{"system":"http://terminology.hl7.org/CodeSystem/measure-population","code":"measure-population-observation","display":"Measure Population Observation"}]},"count":1},{"code":{"coding":[{"system":"http://terminology.hl7.org/CodeSystem/measure-population","code":"measure-population-observation","display":"Measure Population Observation"}]},"count":1}]},{"population":[{"code":{"coding":[{"system":"http://terminology.hl7.org/CodeSystem/measure-population","code":"initial-population","display":"Initial Population"}]},"count":3},{"code":{"coding":[{"system":"http://terminology.hl7.org/CodeSystem/measure-population","code":"measure-population","display":"Measure Population"}]},"count":3},{"code":{"coding":[{"system":"http://terminology.hl7.org/CodeSystem/measure-population","code":"measure-population-observation","display":"Measure Population Observation"}]},"count":4},{"code":{"coding":[{"system":"http://terminology.hl7.org/CodeSystem/measure-population","code":"measure-population-observation","display":"Measure Population Observation"}]},"count":4},{"code":{"coding":[{"system":"http://terminology.hl7.org/CodeSystem/measure-population","code":"measure-population-observation","display":"Measure Population Observation"}]},"count":4}]},{"population":[{"code":{"coding":[{"system":"http://terminology.hl7.org/CodeSystem/measure-population","code":"initial-population","display":"Initial Population"}]},"count":3},{"code":{"coding":[{"system":"http://terminology.hl7.org/CodeSystem/measure-population","code":"measure-population","display":"Measure Population"}]},"count":3},{"code":{"coding":[{"system":"http://terminology.hl7.org/CodeSystem/measure-population","code":"measure-population-observation","display":"Measure Population Observation"}]},"count":100},{"code":{"coding":[{"system":"http://terminology.hl7.org/CodeSystem/measure-population","code":"measure-population-observation","display":"Measure Population Observation"}]},"count":100},{"code":{"coding":[{"system":"http://terminology.hl7.org/CodeSystem/measure-population","code":"measure-population-observation","display":"Measure Population Observation"}]},"count":100}]}]},"request":{"method":"PUT","url":"MeasureReport/bc010d40-9a7a-4c60-83de-103c67c8e754"}}]}