{"resourceType":"Bundle","id":"tests-95c5116d-15f0-4367-b467-dca152f6b43c-bundle","type":"transaction","entry":[{"fullUrl":"https://madie.cms.gov/Patient/95c5116d-15f0-4367-b467-dca152f6b43c","resource":{"resourceType":"Patient","id":"95c5116d-15f0-4367-b467-dca152f6b43c","meta":{"profile":["http://hl7.org/fhir/us/qicore/StructureDefinition/qicore-patient"]},"text":{"status":"generated","div":"<div xmlns=\"http://www.w3.org/1999/xhtml\"><div class=\"hapiHeaderText\">2Encountersat100752, , <b> </b></div><table class=\"hapiPropertyTable\"><tbody><tr><td>Identifier</td><td>2Encountersat100752</td></tr><tr><td>Date of birth</td><td><span>14 May 1950</span></td></tr></tbody></table></div>"},"extension":[{"url":"http://hl7.org/fhir/us/core/StructureDefinition/us-core-race","extension":[{"url":"ombCategory","valueCoding":{"system":"urn:oid:2.16.840.1.113883.6.238","code":"2106-3","display":"White","userSelected":true}},{"url":"text","valueString":"White"}]},{"url":"http://hl7.org/fhir/us/core/StructureDefinition/us-core-ethnicity","extension":[{"url":"ombCategory","valueCoding":{"system":"urn:oid:2.16.840.1.113883.6.238","code":"2186-5","display":"Not Hispanic or Latino","userSelected":true}},{"url":"text","valueString":"Not Hispanic or Latino"}]}],"identifier":[{"type":{"coding":[{"system":"http://terminology.hl7.org/CodeSystem/v2-0203","code":"MR"}]},"system":"https://madie.cms.gov/","value":"2Encountersat100752"}],"active":true,"name":[{"use":"usual","text":"2Encountersat100752","family":"DENOMPass44","given":["2Encountersat100752DENOMPass44"]}],"gender":"male","birthDate":"1950-05-14","address":[{"text":"2Encountersat100752, Screened Not at risk Assessed Severely Malnourished Diagnosed Care Plan, ID=2Encountersat100752, DOB: 14 May 1950"}]},"request":{"method":"PUT","url":"Patient/95c5116d-15f0-4367-b467-dca152f6b43c"}},{"fullUrl":"https://madie.cms.gov/Encounter/2Encountersat100752-01","resource":{"resourceType":"Encounter","id":"623427bb-e306-4a8a-9dac-86f4841d18dc","meta":{"profile":["http://hl7.org/fhir/us/qicore/StructureDefinition/qicore-encounter"]},"status":"finished","class":{"system":"http://terminology.hl7.org/CodeSystem/v3-ActCode","code":"IMP","display":"inpatient encounter"},"type":[{"coding":[{"system":"http://snomed.info/sct","code":"183452005"}]}],"subject":{"reference":"Patient/95c5116d-15f0-4367-b467-dca152f6b43c"},"period":{"start":"2026-02-01T08:00:00.000Z","end":"2026-02-07T08:15:00.000Z"}},"request":{"method":"PUT","url":"Encounter/623427bb-e306-4a8a-9dac-86f4841d18dc"}},{"fullUrl":"https://madie.cms.gov/Condition/2Encountersat100752-06","resource":{"resourceType":"Condition","id":"25addf79-c5d3-4f10-93b6-1d377ab05af6","meta":{"profile":["http://hl7.org/fhir/us/qicore/StructureDefinition/qicore-condition"]},"clinicalStatus":{"coding":[{"system":"http://terminology.hl7.org/CodeSystem/condition-clinical","code":"active","display":"Active","userSelected":true}]},"verificationStatus":{"coding":[{"system":"http://terminology.hl7.org/CodeSystem/condition-ver-status","code":"confirmed","display":"Confirmed","userSelected":true}]},"category":[{"coding":[{"system":"http://terminology.hl7.org/CodeSystem/condition-category","code":"encounter-diagnosis","display":"Encounter Diagnosis","userSelected":true}]}],"code":{"coding":[{"system":"http://snomed.info/sct","code":"272588001","display":"Malnutrition (calorie) (disorder)","userSelected":true}]},"subject":{"reference":"Patient/95c5116d-15f0-4367-b467-dca152f6b43c"},"onsetPeriod":{"start":"2026-02-01T08:00:00.000+00:00","end":"2026-02-06T08:00:00.000+00:00"},"recordedDate":"2026-02-01T11:00:00.000+00:00"},"request":{"method":"PUT","url":"Condition/25addf79-c5d3-4f10-93b6-1d377ab05af6"}},{"fullUrl":"https://madie.cms.gov/Observation/2Encountersat100752-18","resource":{"resourceType":"Observation","id":"236b0d7e-3b72-4c8c-aac9-73ce87583e80","meta":{"profile":["http://hl7.org/fhir/us/qicore/StructureDefinition/qicore-observation"]},"status":"final","category":[{"coding":[{"system":"http://terminology.hl7.org/CodeSystem/observation-category","code":"survey","display":"Survey"}]}],"code":{"coding":[{"system":"http://loinc.org","code":"98968-1","display":"Initial Screening NRS_2002","userSelected":true}]},"subject":{"reference":"Patient/95c5116d-15f0-4367-b467-dca152f6b43c"},"effectiveDateTime":"2026-02-01T09:00:00.000+00:00","valueCodeableConcept":{"coding":[{"system":"http://loinc.org","code":"LA33699-2","display":"Not at risk for malnutrition","userSelected":true}]}},"request":{"method":"PUT","url":"Observation/236b0d7e-3b72-4c8c-aac9-73ce87583e80"}},{"fullUrl":"https://madie.cms.gov/Observation/2Encountersat100752-19","resource":{"resourceType":"Observation","id":"82c85c4b-ae9f-4a78-8614-99f34b0b6263","meta":{"profile":["http://hl7.org/fhir/us/qicore/StructureDefinition/qicore-observation"]},"status":"final","category":[{"coding":[{"system":"http://terminology.hl7.org/CodeSystem/observation-category","code":"survey","display":"Survey"}]}],"code":{"coding":[{"system":"http://loinc.org","code":"75285-7","display":"Comparative nutrition assessment standards panel","userSelected":true}]},"subject":{"reference":"Patient/95c5116d-15f0-4367-b467-dca152f6b43c"},"effectiveDateTime":"2026-02-01T10:00:00.000+00:00","valueCodeableConcept":{"coding":[{"system":"http://snomed.info/sct","code":"272588001","display":"Malnutrition (calorie) (disorder)","userSelected":true}]}},"request":{"method":"PUT","url":"Observation/82c85c4b-ae9f-4a78-8614-99f34b0b6263"}},{"fullUrl":"https://madie.cms.gov/Procedure/2Encountersat100752-12","resource":{"resourceType":"Procedure","id":"e31aeeb9-8839-4571-895e-c6f9e58584c8","meta":{"profile":["http://hl7.org/fhir/us/qicore/StructureDefinition/qicore-procedure"]},"extension":[{"url":"http://hl7.org/fhir/us/qicore/StructureDefinition/qicore-recorded","valueDateTime":"2025-02-01T11:30:00.000Z"}],"status":"completed","code":{"coding":[{"system":"http://snomed.info/sct","code":"306354000","display":"Referral to hospital-based dietitian (procedure)"}],"text":"Referral to hospital-based dietitian (procedure)"},"subject":{"reference":"Patient/95c5116d-15f0-4367-b467-dca152f6b43c"},"encounter":{"reference":"Encounter/2Encountersat100752DENOMPass44"},"performedPeriod":{"start":"2026-02-01T11:30:00.000Z","end":"2026-02-07T08:15:00.000Z"}},"request":{"method":"PUT","url":"Procedure/e31aeeb9-8839-4571-895e-c6f9e58584c8"}},{"fullUrl":"https://madie.cms.gov/Procedure/2Encountersat100752-08","resource":{"resourceType":"Procedure","id":"fd3a9230-2232-4fd5-a363-cf3328d7c47a","meta":{"profile":["http://hl7.org/fhir/us/qicore/StructureDefinition/qicore-procedure"]},"extension":[{"url":"http://hl7.org/fhir/us/qicore/StructureDefinition/qicore-recorded","valueDateTime":"2025-02-02T11:30:00.000Z"}],"status":"completed","code":{"coding":[{"system":"http://snomed.info/sct","code":"386372009","display":"Nutrition management (regime/therapy)"}],"text":"Nutrition management (regime/therapy)"},"subject":{"reference":"Patient/95c5116d-15f0-4367-b467-dca152f6b43c"},"encounter":{"reference":"Encounter/2Encountersat100752DENOMPass44"},"performedPeriod":{"start":"2026-02-01T11:30:00.000Z","end":"2026-02-07T08:15:00.000Z"}},"request":{"method":"PUT","url":"Procedure/fd3a9230-2232-4fd5-a363-cf3328d7c47a"}},{"fullUrl":"https://madie.cms.gov/Coverage/2Encountersat100752-61","resource":{"resourceType":"Coverage","id":"f99d4d51-d59c-4e13-a776-1b1427ce6340","meta":{"profile":["http://hl7.org/fhir/us/qicore/StructureDefinition/qicore-coverage"]},"status":"active","type":{"coding":[{"system":"https://nahdo.org/sopt","version":"9.2","code":"11","display":"Medicare Managed Care (Includes Medicare Advantage Plans)"}]},"beneficiary":{"reference":"Patient/95c5116d-15f0-4367-b467-dca152f6b43c"},"period":{"start":"2024-10-01T00:00:00+00:00"},"payor":[{"reference":"Organization/84b56847-ad40-4bf6-b612-9e42ad2a84e5"}]},"request":{"method":"PUT","url":"Coverage/f99d4d51-d59c-4e13-a776-1b1427ce6340"}},{"fullUrl":"https://madie.cms.gov/Encounter/2Encountersat100752-20","resource":{"resourceType":"Encounter","id":"79af3d39-5523-4af1-a507-47765e9bdc3a","meta":{"profile":["http://hl7.org/fhir/us/qicore/StructureDefinition/qicore-encounter"]},"status":"finished","class":{"system":"http://terminology.hl7.org/CodeSystem/v3-ActCode","code":"IMP","display":"inpatient encounter"},"type":[{"coding":[{"system":"http://snomed.info/sct","code":"183452005"}]}],"subject":{"reference":"Patient/95c5116d-15f0-4367-b467-dca152f6b43c"},"period":{"start":"2026-03-01T08:00:00.000Z","end":"2026-03-07T08:15:00.000Z"}},"request":{"method":"PUT","url":"Encounter/79af3d39-5523-4af1-a507-47765e9bdc3a"}},{"fullUrl":"https://madie.cms.gov/Observation/2Encountersat100752-23","resource":{"resourceType":"Observation","id":"e908cc9d-629e-4fab-aa20-3cce0e3f5297","meta":{"profile":["http://hl7.org/fhir/us/qicore/StructureDefinition/qicore-observation"]},"status":"final","category":[{"coding":[{"system":"http://terminology.hl7.org/CodeSystem/observation-category","code":"survey","display":"Survey"}]}],"code":{"coding":[{"system":"http://loinc.org","code":"75285-7","display":"Comparative nutrition assessment standards panel","userSelected":true}]},"subject":{"reference":"Patient/95c5116d-15f0-4367-b467-dca152f6b43c"},"effectiveDateTime":"2026-03-01T10:00:00.000+00:00","valueCodeableConcept":{"coding":[{"system":"http://snomed.info/sct","code":"272588001","display":"Malnutrition (calorie) (disorder)","userSelected":true}]}},"request":{"method":"PUT","url":"Observation/e908cc9d-629e-4fab-aa20-3cce0e3f5297"}},{"fullUrl":"https://madie.cms.gov/Procedure/2Encountersat100752-24","resource":{"resourceType":"Procedure","id":"4b4e4466-34a0-4b4d-9d77-4170cb2344f2","meta":{"profile":["http://hl7.org/fhir/us/qicore/StructureDefinition/qicore-procedure"]},"extension":[{"url":"http://hl7.org/fhir/us/qicore/StructureDefinition/qicore-recorded","valueDateTime":"2025-03-01T11:30:00.000Z"}],"status":"completed","code":{"coding":[{"system":"http://snomed.info/sct","code":"306354000","display":"Referral to hospital-based dietitian (procedure)"}],"text":"Referral to hospital-based dietitian (procedure)"},"subject":{"reference":"Patient/95c5116d-15f0-4367-b467-dca152f6b43c"},"encounter":{"reference":"Encounter/2Encountersat100752DENOMPass44"},"performedPeriod":{"start":"2026-03-01T11:30:00.000Z","end":"2026-03-07T08:15:00.000Z"}},"request":{"method":"PUT","url":"Procedure/4b4e4466-34a0-4b4d-9d77-4170cb2344f2"}},{"fullUrl":"https://madie.cms.gov/Procedure/2Encountersat100752-30","resource":{"resourceType":"Procedure","id":"a8a8b52d-248b-416a-adea-a7a5234b4302","meta":{"profile":["http://hl7.org/fhir/us/qicore/StructureDefinition/qicore-procedure"]},"extension":[{"url":"http://hl7.org/fhir/us/qicore/StructureDefinition/qicore-recorded","valueDateTime":"2026-02-02T11:30:00.000Z"}],"status":"completed","code":{"coding":[{"system":"http://snomed.info/sct","code":"386372009","display":"Nutrition management (regime/therapy)"}],"text":"Nutrition management (regime/therapy)"},"subject":{"reference":"Patient/95c5116d-15f0-4367-b467-dca152f6b43c"},"encounter":{"reference":"Encounter/2Encountersat100752DENOMPass44"},"performedPeriod":{"start":"2026-03-01T11:30:00.000Z","end":"2026-03-07T08:15:00.000Z"}},"request":{"method":"PUT","url":"Procedure/a8a8b52d-248b-416a-adea-a7a5234b4302"}},{"fullUrl":"https://madie.cms.gov/Coverage/2Encountersat100752-32","resource":{"resourceType":"Coverage","id":"15ce553a-067a-41a9-8f35-462698bb15ea","meta":{"profile":["http://hl7.org/fhir/us/qicore/StructureDefinition/qicore-coverage"]},"status":"active","type":{"coding":[{"system":"https://nahdo.org/sopt","version":"9.2","code":"11","display":"Medicare Managed Care (Includes Medicare Advantage Plans)"}]},"beneficiary":{"reference":"Patient/95c5116d-15f0-4367-b467-dca152f6b43c"},"period":{"start":"2024-10-01T00:00:00+00:00"},"payor":[{"reference":"Organization/84b56847-ad40-4bf6-b612-9e42ad2a84e5"}]},"request":{"method":"PUT","url":"Coverage/15ce553a-067a-41a9-8f35-462698bb15ea"}},{"fullUrl":"https://madie.cms.gov/Organization/2Encountersat100752-98","resource":{"resourceType":"Organization","id":"84b56847-ad40-4bf6-b612-9e42ad2a84e5","meta":{"profile":["http://hl7.org/fhir/us/qicore/StructureDefinition/qicore-organization"]},"identifier":[{"use":"temp","system":"urn:oid:2.16.840.1.113883.4.4","value":"21-3259825"}],"active":true,"type":[{"coding":[{"system":"http://terminology.hl7.org/CodeSystem/organization-type","code":"pay","display":"Payer"}]}],"name":"Blue Cross Blue Shield of Texas","telecom":[{"system":"phone","value":"(+1) 972-766-6900"}],"address":[{"use":"billing","type":"postal","line":["P.O. Box 660044"],"city":"Dallas","state":"TX","postalCode":"75266-0044","country":"USA"}]},"request":{"method":"PUT","url":"Organization/84b56847-ad40-4bf6-b612-9e42ad2a84e5"}},{"fullUrl":"https://madie.cms.gov/MeasureReport/814ddf37-0edf-42e8-bb93-628837c00355","resource":{"resourceType":"MeasureReport","id":"814ddf37-0edf-42e8-bb93-628837c00355","meta":{"profile":["http://hl7.org/fhir/us/cqfmeasures/StructureDefinition/test-case-cqfm"]},"contained":[{"resourceType":"Parameters","id":"b2ea5f33-ead3-48ed-9228-19eba7212bbd-parameters","parameter":[{"name":"subject","valueString":"95c5116d-15f0-4367-b467-dca152f6b43c"}]}],"extension":[{"url":"http://hl7.org/fhir/us/cqfmeasures/StructureDefinition/cqfm-inputParameters","valueReference":{"reference":"#b2ea5f33-ead3-48ed-9228-19eba7212bbd-parameters"}},{"url":"http://hl7.org/fhir/us/cqfmeasures/StructureDefinition/cqfm-testCaseDescription","valueMarkdown":"Multiple Encounters"}],"modifierExtension":[{"url":"http://hl7.org/fhir/us/cqfmeasures/StructureDefinition/cqfm-isTestCase","valueBoolean":true}],"status":"complete","type":"individual","measure":"https://madie.cms.gov/Measure/GlobalMalnutritionCompositeFHIR","period":{"start":"2026-01-01","end":"2026-12-31"},"group":[{"population":[{"code":{"coding":[{"system":"http://terminology.hl7.org/CodeSystem/measure-population","code":"initial-population","display":"Initial Population"}]},"count":2},{"code":{"coding":[{"system":"http://terminology.hl7.org/CodeSystem/measure-population","code":"measure-population","display":"Measure Population"}]},"count":2},{"code":{"coding":[{"system":"http://terminology.hl7.org/CodeSystem/measure-population","code":"measure-population-observation","display":"Measure Population Observation"}]},"count":1},{"code":{"coding":[{"system":"http://terminology.hl7.org/CodeSystem/measure-population","code":"measure-population-observation","display":"Measure Population Observation"}]},"count":1}]},{"population":[{"code":{"coding":[{"system":"http://terminology.hl7.org/CodeSystem/measure-population","code":"initial-population","display":"Initial Population"}]},"count":2},{"code":{"coding":[{"system":"http://terminology.hl7.org/CodeSystem/measure-population","code":"measure-population","display":"Measure Population"}]},"count":2},{"code":{"coding":[{"system":"http://terminology.hl7.org/CodeSystem/measure-population","code":"measure-population-observation","display":"Measure Population Observation"}]},"count":1},{"code":{"coding":[{"system":"http://terminology.hl7.org/CodeSystem/measure-population","code":"measure-population-observation","display":"Measure Population Observation"}]},"count":1}]},{"population":[{"code":{"coding":[{"system":"http://terminology.hl7.org/CodeSystem/measure-population","code":"initial-population","display":"Initial Population"}]},"count":2},{"code":{"coding":[{"system":"http://terminology.hl7.org/CodeSystem/measure-population","code":"measure-population","display":"Measure Population"}]},"count":2},{"code":{"coding":[{"system":"http://terminology.hl7.org/CodeSystem/measure-population","code":"measure-population-observation","display":"Measure Population Observation"}]},"count":1},{"code":{"coding":[{"system":"http://terminology.hl7.org/CodeSystem/measure-population","code":"measure-population-observation","display":"Measure Population Observation"}]},"count":1}]},{"population":[{"code":{"coding":[{"system":"http://terminology.hl7.org/CodeSystem/measure-population","code":"initial-population","display":"Initial Population"}]},"count":2},{"code":{"coding":[{"system":"http://terminology.hl7.org/CodeSystem/measure-population","code":"measure-population","display":"Measure Population"}]},"count":2},{"code":{"coding":[{"system":"http://terminology.hl7.org/CodeSystem/measure-population","code":"measure-population-observation","display":"Measure Population Observation"}]},"count":1},{"code":{"coding":[{"system":"http://terminology.hl7.org/CodeSystem/measure-population","code":"measure-population-observation","display":"Measure Population Observation"}]},"count":1}]},{"population":[{"code":{"coding":[{"system":"http://terminology.hl7.org/CodeSystem/measure-population","code":"initial-population","display":"Initial Population"}]},"count":2},{"code":{"coding":[{"system":"http://terminology.hl7.org/CodeSystem/measure-population","code":"measure-population","display":"Measure Population"}]},"count":2},{"code":{"coding":[{"system":"http://terminology.hl7.org/CodeSystem/measure-population","code":"measure-population-observation","display":"Measure Population Observation"}]},"count":4},{"code":{"coding":[{"system":"http://terminology.hl7.org/CodeSystem/measure-population","code":"measure-population-observation","display":"Measure Population Observation"}]},"count":4}]},{"population":[{"code":{"coding":[{"system":"http://terminology.hl7.org/CodeSystem/measure-population","code":"initial-population","display":"Initial Population"}]},"count":2},{"code":{"coding":[{"system":"http://terminology.hl7.org/CodeSystem/measure-population","code":"measure-population","display":"Measure Population"}]},"count":2},{"code":{"coding":[{"system":"http://terminology.hl7.org/CodeSystem/measure-population","code":"measure-population-observation","display":"Measure Population Observation"}]},"count":100},{"code":{"coding":[{"system":"http://terminology.hl7.org/CodeSystem/measure-population","code":"measure-population-observation","display":"Measure Population Observation"}]},"count":100}]}]},"request":{"method":"PUT","url":"MeasureReport/814ddf37-0edf-42e8-bb93-628837c00355"}}]}