{"resourceType":"Bundle","id":"tests-33592e78-771b-4ed2-85e0-67aeb0175fbe-bundle","type":"transaction","entry":[{"fullUrl":"https://madie.cms.gov/Patient/33592e78-771b-4ed2-85e0-67aeb0175fbe","resource":{"resourceType":"Patient","id":"33592e78-771b-4ed2-85e0-67aeb0175fbe","meta":{"profile":["http://hl7.org/fhir/us/qicore/StructureDefinition/qicore-patient"]},"text":{"status":"generated","div":"<div xmlns=\"http://www.w3.org/1999/xhtml\"><div class=\"hapiHeaderText\">ChemoWithInvalidCode<b>DENOMFailPop1</b></div><table class=\"hapiPropertyTable\"><tbody><tr><td>Identifier</td><td>67ad815355114076cc7c6714ee69f465</td></tr><tr><td>Date of birth</td><td><span>14 June 1937</span></td></tr></tbody></table></div>"},"extension":[{"url":"http://hl7.org/fhir/us/core/StructureDefinition/us-core-race","extension":[{"url":"ombCategory","valueCoding":{"system":"urn:oid:2.16.840.1.113883.6.238","code":"1002-5","display":"American Indian or Alaska Native","userSelected":true}},{"url":"text","valueString":"American Indian or Alaska Native"}]},{"url":"http://hl7.org/fhir/us/core/StructureDefinition/us-core-ethnicity","extension":[{"url":"ombCategory","valueCoding":{"system":"urn:oid:2.16.840.1.113883.6.238","code":"2135-2","display":"Hispanic or Latino","userSelected":true}},{"url":"text","valueString":"Hispanic or Latino"}]}],"identifier":[{"type":{"coding":[{"system":"http://terminology.hl7.org/CodeSystem/v2-0203","code":"MR"}]},"system":"https://bonnie-fhir.healthit.gov/","value":"62c880ec0111a60120dc21ee"}],"active":true,"name":[{"use":"usual","family":"DENOMFailPop1","given":["ChemoWithInvalidCode"]}],"gender":"male","birthDate":"1937-06-14"},"request":{"method":"PUT","url":"Patient/33592e78-771b-4ed2-85e0-67aeb0175fbe"}},{"fullUrl":"https://madie.cms.gov/Observation/5ca5260cb8484613a555a980","resource":{"resourceType":"Observation","id":"398ee8f8-1eed-4ea6-ac24-c557adabab39","meta":{"profile":["http://hl7.org/fhir/us/qicore/StructureDefinition/qicore-observation"]},"status":"final","category":[{"coding":[{"system":"http://terminology.hl7.org/CodeSystem/observation-category","code":"survey","display":"Survey"}],"text":"Survey"}],"code":{"coding":[{"system":"http://loinc.org","code":"38208-5","display":"Pain severity - Reported"}],"text":"Pain severity - Reported"},"subject":{"reference":"Patient/33592e78-771b-4ed2-85e0-67aeb0175fbe"},"effectiveDateTime":"2025-06-23T11:15:00.000+00:00","valueInteger":5},"request":{"method":"PUT","url":"Observation/398ee8f8-1eed-4ea6-ac24-c557adabab39"}},{"fullUrl":"https://madie.cms.gov/Condition/5ca5260cb8484613a555a97b","resource":{"resourceType":"Condition","id":"7f2f8211-e465-48ab-a329-d72a9b768334","meta":{"profile":["http://hl7.org/fhir/us/qicore/StructureDefinition/qicore-condition"]},"clinicalStatus":{"coding":[{"system":"http://terminology.hl7.org/CodeSystem/condition-clinical","code":"active","display":"active","userSelected":true}]},"category":[{"coding":[{"system":"http://terminology.hl7.org/CodeSystem/condition-category","code":"problem-list-item","display":"Problem List Item"}]}],"code":{"coding":[{"system":"http://hl7.org/fhir/sid/icd-10-cm","code":"C07"}]},"subject":{"reference":"Patient/33592e78-771b-4ed2-85e0-67aeb0175fbe"},"onsetDateTime":"2008-02-21T13:00:00.000Z"},"request":{"method":"PUT","url":"Condition/7f2f8211-e465-48ab-a329-d72a9b768334"}},{"fullUrl":"https://madie.cms.gov/Condition/5ca5260cb8484613a555a97c","resource":{"resourceType":"Condition","id":"cd1fac9e-6fd1-41fb-87ee-f327eb9522b7","meta":{"profile":["http://hl7.org/fhir/us/qicore/StructureDefinition/qicore-condition"]},"clinicalStatus":{"coding":[{"system":"http://terminology.hl7.org/CodeSystem/condition-clinical","code":"active","display":"active","userSelected":true}]},"category":[{"coding":[{"system":"http://terminology.hl7.org/CodeSystem/condition-category","code":"problem-list-item","display":"Problem List Item"}]}],"code":{"coding":[{"system":"http://hl7.org/fhir/sid/icd-10-cm","code":"C00.0"}]},"subject":{"reference":"Patient/33592e78-771b-4ed2-85e0-67aeb0175fbe"},"onsetDateTime":"2008-02-21T13:00:00.000Z"},"request":{"method":"PUT","url":"Condition/cd1fac9e-6fd1-41fb-87ee-f327eb9522b7"}},{"fullUrl":"https://madie.cms.gov/Encounter/5ca5260cb8484613a555a97d","resource":{"resourceType":"Encounter","id":"1d3e03be-94b8-48ee-a5fa-2065398d3889","meta":{"profile":["http://hl7.org/fhir/us/qicore/StructureDefinition/qicore-encounter"]},"status":"finished","class":{"system":"http://terminology.hl7.org/CodeSystem/v3-ActCode","code":"AMB","display":"ambulatory","userSelected":true},"type":[{"coding":[{"system":"http://www.ama-assn.org/go/cpt","code":"99213"}]}],"subject":{"reference":"Patient/33592e78-771b-4ed2-85e0-67aeb0175fbe"},"period":{"start":"2025-06-23T10:00:00.000Z","end":"2025-06-23T12:00:00.000Z"}},"request":{"method":"PUT","url":"Encounter/1d3e03be-94b8-48ee-a5fa-2065398d3889"}},{"fullUrl":"https://madie.cms.gov/Coverage/60099ac71c76ba64612b0655","resource":{"resourceType":"Coverage","id":"fb37df2f-0107-4e6a-916f-330374cde540","meta":{"profile":["http://hl7.org/fhir/us/qicore/StructureDefinition/qicore-coverage"]},"status":"active","beneficiary":{"reference":"Patient/33592e78-771b-4ed2-85e0-67aeb0175fbe"},"period":{"start":"1937-06-14T08:00:00.000Z"},"payor":[{"reference":"Organization/f6075515-d38f-4624-bde8-a1ce20473a69"}]},"request":{"method":"PUT","url":"Coverage/fb37df2f-0107-4e6a-916f-330374cde540"}},{"fullUrl":"https://madie.cms.gov/Procedure/5ca5260cb8484613a555a97e","resource":{"resourceType":"Procedure","id":"c08658e9-cb46-4106-9ba6-c0e16431ec94","meta":{"profile":["http://hl7.org/fhir/us/qicore/StructureDefinition/qicore-procedure"]},"extension":[{"url":"http://hl7.org/fhir/us/qicore/StructureDefinition/qicore-recorded","valueDateTime":"2025-05-29T12:35:00.000Z"}],"status":"completed","code":{"coding":[{"system":"http://www.ama-assn.org/go/cpt","code":"00000"}]},"subject":{"reference":"Patient/33592e78-771b-4ed2-85e0-67aeb0175fbe"},"performedPeriod":{"start":"2025-05-29T13:30:00.000Z","end":"2025-05-29T13:30:00.000Z"}},"request":{"method":"PUT","url":"Procedure/c08658e9-cb46-4106-9ba6-c0e16431ec94"}},{"fullUrl":"https://madie.cms.gov/Procedure/5ca5260cb8484613a555a97f","resource":{"resourceType":"Procedure","id":"bee6437e-ad92-42e2-aff2-cd4c78a04619","meta":{"profile":["http://hl7.org/fhir/us/qicore/StructureDefinition/qicore-procedure"]},"extension":[{"url":"http://hl7.org/fhir/us/qicore/StructureDefinition/qicore-recorded","valueDateTime":"2025-07-08T12:35:00.000Z"}],"status":"completed","code":{"coding":[{"system":"http://www.ama-assn.org/go/cpt","code":"11111"}]},"subject":{"reference":"Patient/33592e78-771b-4ed2-85e0-67aeb0175fbe"},"performedPeriod":{"start":"2025-07-08T10:45:00.000Z","end":"2025-07-08T10:45:00.000Z"}},"request":{"method":"PUT","url":"Procedure/bee6437e-ad92-42e2-aff2-cd4c78a04619"}},{"fullUrl":"https://madie.cms.gov/Organization/123456","resource":{"resourceType":"Organization","id":"f6075515-d38f-4624-bde8-a1ce20473a69","meta":{"profile":["http://hl7.org/fhir/us/qicore/StructureDefinition/qicore-organization"]},"identifier":[{"use":"temp","system":"urn:oid:2.16.840.1.113883.4.4","value":"21-3259825"}],"active":true,"type":[{"coding":[{"system":"http://terminology.hl7.org/CodeSystem/organization-type","code":"pay","display":"Payer"}]}],"name":"Blue Cross Blue Shield of Texas","telecom":[{"system":"phone","value":"(+1) 972-766-6900"}],"address":[{"use":"billing","type":"postal","line":["P.O. Box 660044"],"city":"Dallas","state":"TX","postalCode":"75266-0044","country":"USA"}]},"request":{"method":"PUT","url":"Organization/f6075515-d38f-4624-bde8-a1ce20473a69"}},{"fullUrl":"https://madie.cms.gov/Practitioner/practitioner-123456","resource":{"resourceType":"Practitioner","id":"fe1e10d6-313a-4b9d-881e-6671e335179d","meta":{"profile":["http://hl7.org/fhir/us/qicore/StructureDefinition/qicore-practitioner"]},"identifier":[{"system":"http://hl7.org/fhir/sid/us-npi","value":"123456"}],"name":[{"family":"Evil","prefix":["Dr"]}]},"request":{"method":"PUT","url":"Practitioner/fe1e10d6-313a-4b9d-881e-6671e335179d"}},{"fullUrl":"https://madie.cms.gov/MeasureReport/76d201e5-102a-443d-b063-5c46f5371276","resource":{"resourceType":"MeasureReport","id":"76d201e5-102a-443d-b063-5c46f5371276","meta":{"profile":["http://hl7.org/fhir/us/cqfmeasures/StructureDefinition/test-case-cqfm"]},"contained":[{"resourceType":"Parameters","id":"194c451c-e799-47d1-83f0-4661fca152e3-parameters","parameter":[{"name":"subject","valueString":"33592e78-771b-4ed2-85e0-67aeb0175fbe"}]}],"extension":[{"url":"http://hl7.org/fhir/us/cqfmeasures/StructureDefinition/cqfm-inputParameters","valueReference":{"reference":"#194c451c-e799-47d1-83f0-4661fca152e3-parameters"}},{"url":"http://hl7.org/fhir/us/cqfmeasures/StructureDefinition/cqfm-testCaseDescription","valueMarkdown":"Patient with cancer diagnosis that overlaps the office visit during measurement period, but chemotherapy administration with invalid code. \n"}],"modifierExtension":[{"url":"http://hl7.org/fhir/us/cqfmeasures/StructureDefinition/cqfm-isTestCase","valueBoolean":true}],"status":"complete","type":"individual","measure":"https://madie.cms.gov/Measure/OncologyPainIntensityQuantifiedFHIR","period":{"start":"2025-01-01","end":"2025-12-31"},"group":[{"population":[{"code":{"coding":[{"system":"http://terminology.hl7.org/CodeSystem/measure-population","code":"initial-population","display":"Initial Population"}]},"count":0},{"code":{"coding":[{"system":"http://terminology.hl7.org/CodeSystem/measure-population","code":"denominator","display":"Denominator"}]},"count":0},{"code":{"coding":[{"system":"http://terminology.hl7.org/CodeSystem/measure-population","code":"numerator","display":"Numerator"}]},"count":0}]},{"population":[{"code":{"coding":[{"system":"http://terminology.hl7.org/CodeSystem/measure-population","code":"initial-population","display":"Initial Population"}]},"count":0},{"code":{"coding":[{"system":"http://terminology.hl7.org/CodeSystem/measure-population","code":"denominator","display":"Denominator"}]},"count":0},{"code":{"coding":[{"system":"http://terminology.hl7.org/CodeSystem/measure-population","code":"numerator","display":"Numerator"}]},"count":0}]}]},"request":{"method":"PUT","url":"MeasureReport/76d201e5-102a-443d-b063-5c46f5371276"}}]}