{"resourceType":"Bundle","id":"tests-64e6ec83-91f3-49be-8a32-cce1f3468a2e-bundle","type":"transaction","entry":[{"fullUrl":"https://madie.cms.gov/Patient/64e6ec83-91f3-49be-8a32-cce1f3468a2e","resource":{"resourceType":"Patient","id":"64e6ec83-91f3-49be-8a32-cce1f3468a2e","meta":{"profile":["http://hl7.org/fhir/us/qicore/StructureDefinition/qicore-patient"]},"text":{"status":"generated","div":"<div xmlns=\"http://www.w3.org/1999/xhtml\"><div class=\"hapiHeaderText\">MultCancerDx<b>DENOMPassPop2</b></div><table class=\"hapiPropertyTable\"><tbody><tr><td>Date of birth</td><td><span>04 March 1978</span></td></tr></tbody></table></div>"},"extension":[{"url":"http://hl7.org/fhir/us/core/StructureDefinition/us-core-race","extension":[{"url":"ombCategory","valueCoding":{"system":"urn:oid:2.16.840.1.113883.6.238","code":"1002-5","display":"American Indian or Alaska Native","userSelected":true}},{"url":"text","valueString":"American Indian or Alaska Native"}]},{"url":"http://hl7.org/fhir/us/core/StructureDefinition/us-core-ethnicity","extension":[{"url":"ombCategory","valueCoding":{"system":"urn:oid:2.16.840.1.113883.6.238","code":"2135-2","display":"Hispanic or Latino","userSelected":true}},{"url":"text","valueString":"Hispanic or Latino"}]}],"identifier":[{"type":{"coding":[{"system":"http://terminology.hl7.org/CodeSystem/v2-0203","code":"MR"}]},"system":"https://bonnie-fhir.healthit.gov/","value":"62c880ec0111a60120dc220c"}],"active":true,"name":[{"use":"usual","family":"DENOMPassPop2","given":["MultCancerDx"]}],"gender":"female","birthDate":"1978-03-04"},"request":{"method":"PUT","url":"Patient/64e6ec83-91f3-49be-8a32-cce1f3468a2e"}},{"fullUrl":"https://madie.cms.gov/Condition/5e41aa14a9c22a0000b32084","resource":{"resourceType":"Condition","id":"36c2e30a-0c35-48a5-97a7-843a93e78b97","meta":{"profile":["http://hl7.org/fhir/us/qicore/StructureDefinition/qicore-condition"]},"clinicalStatus":{"coding":[{"system":"http://terminology.hl7.org/CodeSystem/condition-clinical","code":"active","display":"active","userSelected":true}]},"verificationStatus":{"coding":[{"system":"http://terminology.hl7.org/CodeSystem/condition-ver-status","code":"confirmed","display":"Confirmed"}]},"category":[{"coding":[{"system":"http://terminology.hl7.org/CodeSystem/condition-category","code":"problem-list-item","display":"Problem List Item"}]}],"code":{"coding":[{"system":"http://snomed.info/sct","code":"107691000119101"}]},"subject":{"reference":"Patient/64e6ec83-91f3-49be-8a32-cce1f3468a2e"},"onsetDateTime":"2025-01-10T08:00:00.000Z"},"request":{"method":"PUT","url":"Condition/36c2e30a-0c35-48a5-97a7-843a93e78b97"}},{"fullUrl":"https://madie.cms.gov/Condition/5e41ab3ca9c22a0000b3219d","resource":{"resourceType":"Condition","id":"2328f43d-acb3-46c3-aef6-493fd1c5586c","meta":{"profile":["http://hl7.org/fhir/us/qicore/StructureDefinition/qicore-condition"]},"clinicalStatus":{"coding":[{"system":"http://terminology.hl7.org/CodeSystem/condition-clinical","code":"remission","display":"remission","userSelected":true}]},"verificationStatus":{"coding":[{"system":"http://terminology.hl7.org/CodeSystem/condition-ver-status","code":"confirmed","display":"Confirmed"}]},"category":[{"coding":[{"system":"http://terminology.hl7.org/CodeSystem/condition-category","code":"problem-list-item","display":"Problem List Item"}]}],"code":{"coding":[{"system":"http://hl7.org/fhir/sid/icd-10-cm","code":"C02.3"}]},"subject":{"reference":"Patient/64e6ec83-91f3-49be-8a32-cce1f3468a2e"},"onsetDateTime":"2025-03-10T08:00:00.000Z","abatementDateTime":"2025-03-10T08:15:00.000Z"},"request":{"method":"PUT","url":"Condition/2328f43d-acb3-46c3-aef6-493fd1c5586c"}},{"fullUrl":"https://madie.cms.gov/Coverage/60099acb1c76ba64612b069a","resource":{"resourceType":"Coverage","id":"557c3f35-3325-4357-b49d-92c41908523c","meta":{"profile":["http://hl7.org/fhir/us/qicore/StructureDefinition/qicore-coverage"]},"status":"active","beneficiary":{"reference":"Patient/64e6ec83-91f3-49be-8a32-cce1f3468a2e"},"period":{"start":"1978-03-04T08:00:00.000Z"},"payor":[{"reference":"Organization/80573fa1-cf83-4e9a-8f21-86a018689678"}]},"request":{"method":"PUT","url":"Coverage/557c3f35-3325-4357-b49d-92c41908523c"}},{"fullUrl":"https://madie.cms.gov/Encounter/radiation-treatment-management-445b","resource":{"resourceType":"Encounter","id":"1ba991b8-4ba3-4d2d-b986-b5d9fee23835","meta":{"profile":["http://hl7.org/fhir/us/qicore/StructureDefinition/qicore-encounter"]},"status":"finished","class":{"system":"http://terminology.hl7.org/CodeSystem/v3-ActCode","code":"AMB","display":"ambulatory","userSelected":true},"type":[{"coding":[{"system":"http://www.ama-assn.org/go/cpt","version":"2023","code":"77427","display":"Radiation treatment management, 5 treatments","userSelected":true}]}],"subject":{"reference":"Patient/64e6ec83-91f3-49be-8a32-cce1f3468a2e"},"period":{"start":"2025-02-10T08:00:00.000+00:00","end":"2025-02-10T08:15:00.000+00:00"}},"request":{"method":"PUT","url":"Encounter/1ba991b8-4ba3-4d2d-b986-b5d9fee23835"}},{"fullUrl":"https://madie.cms.gov/Organization/123456","resource":{"resourceType":"Organization","id":"80573fa1-cf83-4e9a-8f21-86a018689678","meta":{"profile":["http://hl7.org/fhir/us/qicore/StructureDefinition/qicore-organization"]},"identifier":[{"use":"temp","system":"urn:oid:2.16.840.1.113883.4.4","value":"21-3259825"}],"active":true,"type":[{"coding":[{"system":"http://terminology.hl7.org/CodeSystem/organization-type","code":"pay","display":"Payer"}]}],"name":"Blue Cross Blue Shield of Texas","telecom":[{"system":"phone","value":"(+1) 972-766-6900"}],"address":[{"use":"billing","type":"postal","line":["P.O. Box 660044"],"city":"Dallas","state":"TX","postalCode":"75266-0044","country":"USA"}]},"request":{"method":"PUT","url":"Organization/80573fa1-cf83-4e9a-8f21-86a018689678"}},{"fullUrl":"https://madie.cms.gov/Practitioner/practitioner-123456","resource":{"resourceType":"Practitioner","id":"748be804-3e44-46b9-9db4-0f344822a13f","meta":{"profile":["http://hl7.org/fhir/us/qicore/StructureDefinition/qicore-practitioner"]},"identifier":[{"system":"http://hl7.org/fhir/sid/us-npi","value":"123456"}],"name":[{"family":"Evil","prefix":["Dr"]}]},"request":{"method":"PUT","url":"Practitioner/748be804-3e44-46b9-9db4-0f344822a13f"}},{"fullUrl":"https://madie.cms.gov/MeasureReport/b63294df-6bfb-4be3-90c6-4143d5991bf0","resource":{"resourceType":"MeasureReport","id":"b63294df-6bfb-4be3-90c6-4143d5991bf0","meta":{"profile":["http://hl7.org/fhir/us/cqfmeasures/StructureDefinition/test-case-cqfm"]},"contained":[{"resourceType":"Parameters","id":"383ff767-fc81-4172-abf5-50d3f898dcdf-parameters","parameter":[{"name":"subject","valueString":"64e6ec83-91f3-49be-8a32-cce1f3468a2e"}]}],"extension":[{"url":"http://hl7.org/fhir/us/cqfmeasures/StructureDefinition/cqfm-inputParameters","valueReference":{"reference":"#383ff767-fc81-4172-abf5-50d3f898dcdf-parameters"}},{"url":"http://hl7.org/fhir/us/cqfmeasures/StructureDefinition/cqfm-testCaseDescription","valueMarkdown":"Patient with multiple cancer diagnoses on different dates that overlap a radiation treatment management during measurement period.\n"}],"modifierExtension":[{"url":"http://hl7.org/fhir/us/cqfmeasures/StructureDefinition/cqfm-isTestCase","valueBoolean":true}],"status":"complete","type":"individual","measure":"https://madie.cms.gov/Measure/OncologyPainIntensityQuantifiedFHIR","period":{"start":"2025-01-01","end":"2025-12-31"},"group":[{"population":[{"code":{"coding":[{"system":"http://terminology.hl7.org/CodeSystem/measure-population","code":"initial-population","display":"Initial Population"}]},"count":0},{"code":{"coding":[{"system":"http://terminology.hl7.org/CodeSystem/measure-population","code":"denominator","display":"Denominator"}]},"count":0},{"code":{"coding":[{"system":"http://terminology.hl7.org/CodeSystem/measure-population","code":"numerator","display":"Numerator"}]},"count":0}]},{"population":[{"code":{"coding":[{"system":"http://terminology.hl7.org/CodeSystem/measure-population","code":"initial-population","display":"Initial Population"}]},"count":1},{"code":{"coding":[{"system":"http://terminology.hl7.org/CodeSystem/measure-population","code":"denominator","display":"Denominator"}]},"count":1},{"code":{"coding":[{"system":"http://terminology.hl7.org/CodeSystem/measure-population","code":"numerator","display":"Numerator"}]},"count":0}]}]},"request":{"method":"PUT","url":"MeasureReport/b63294df-6bfb-4be3-90c6-4143d5991bf0"}}]}