{"resourceType":"Bundle","id":"tests-6c1a8557-73be-4026-9ec6-f0699bfcbfda-bundle","type":"transaction","entry":[{"fullUrl":"https://madie.cms.gov/Patient/6c1a8557-73be-4026-9ec6-f0699bfcbfda","resource":{"resourceType":"Patient","id":"6c1a8557-73be-4026-9ec6-f0699bfcbfda","meta":{"profile":["http://hl7.org/fhir/us/qicore/StructureDefinition/qicore-patient"]},"text":{"status":"generated","div":"<div xmlns=\"http://www.w3.org/1999/xhtml\"><div class=\"hapiHeaderText\">CancerDxStartsAfterEncAndChemo<b>IPPFailPop1</b></div><table class=\"hapiPropertyTable\"><tbody><tr><td>Identifier</td><td>972778dfe42618990e47340420092399</td></tr><tr><td>Date of birth</td><td><span>17 August 1951</span></td></tr></tbody></table></div>"},"extension":[{"url":"http://hl7.org/fhir/us/core/StructureDefinition/us-core-race","extension":[{"url":"ombCategory","valueCoding":{"system":"urn:oid:2.16.840.1.113883.6.238","code":"2054-5","display":"Black or African American","userSelected":true}},{"url":"text","valueString":"Black or African American"}]},{"url":"http://hl7.org/fhir/us/core/StructureDefinition/us-core-ethnicity","extension":[{"url":"ombCategory","valueCoding":{"system":"urn:oid:2.16.840.1.113883.6.238","code":"2186-5","display":"Not Hispanic or Latino","userSelected":true}},{"url":"text","valueString":"Not Hispanic or Latino"}]}],"identifier":[{"type":{"coding":[{"system":"http://terminology.hl7.org/CodeSystem/v2-0203","code":"MR"}]},"system":"https://bonnie-fhir.healthit.gov/","value":"62c880ec0111a60120dc2207"}],"active":true,"name":[{"use":"usual","family":"IPPFailPop1","given":["CancerDxStartsAfterEncAndChemo"]}],"gender":"female","birthDate":"1951-08-17"},"request":{"method":"PUT","url":"Patient/6c1a8557-73be-4026-9ec6-f0699bfcbfda"}},{"fullUrl":"https://madie.cms.gov/Condition/5ca5260db8484613a555a99a","resource":{"resourceType":"Condition","id":"7d3c62a5-444d-42e1-86bc-3e98f06c8a21","meta":{"profile":["http://hl7.org/fhir/us/qicore/StructureDefinition/qicore-condition"]},"clinicalStatus":{"coding":[{"system":"http://terminology.hl7.org/CodeSystem/condition-clinical","code":"active","display":"active"}]},"verificationStatus":{"coding":[{"system":"http://terminology.hl7.org/CodeSystem/condition-ver-status","code":"confirmed","display":"Confirmed"}]},"category":[{"coding":[{"system":"http://terminology.hl7.org/CodeSystem/condition-category","code":"problem-list-item","display":"Problem List Item"}]}],"code":{"coding":[{"system":"http://hl7.org/fhir/sid/icd-10-cm","code":"C00.0"}]},"subject":{"reference":"Patient/6c1a8557-73be-4026-9ec6-f0699bfcbfda"},"onsetDateTime":"2025-11-24T08:00:00.000Z"},"request":{"method":"PUT","url":"Condition/7d3c62a5-444d-42e1-86bc-3e98f06c8a21"}},{"fullUrl":"https://madie.cms.gov/Encounter/5ca5260db8484613a555a99b","resource":{"resourceType":"Encounter","id":"599b7dc3-37f3-4919-a8ec-68ddb1187eef","meta":{"profile":["http://hl7.org/fhir/us/qicore/StructureDefinition/qicore-encounter"]},"status":"finished","class":{"system":"http://terminology.hl7.org/CodeSystem/v3-ActCode","code":"AMB","display":"ambulatory","userSelected":true},"type":[{"coding":[{"system":"http://www.ama-assn.org/go/cpt","code":"99213"}]}],"subject":{"reference":"Patient/6c1a8557-73be-4026-9ec6-f0699bfcbfda"},"period":{"start":"2025-05-25T14:20:00.000Z","end":"2025-05-25T14:20:00.000Z"}},"request":{"method":"PUT","url":"Encounter/599b7dc3-37f3-4919-a8ec-68ddb1187eef"}},{"fullUrl":"https://madie.cms.gov/Coverage/60099ac51c76ba64612b0628","resource":{"resourceType":"Coverage","id":"97bf3145-151b-4a8e-ada4-d969cc80b5c2","meta":{"profile":["http://hl7.org/fhir/us/qicore/StructureDefinition/qicore-coverage"]},"status":"active","beneficiary":{"reference":"Patient/6c1a8557-73be-4026-9ec6-f0699bfcbfda"},"period":{"start":"1951-08-17T08:00:00.000Z"},"payor":[{"reference":"Organization/f6075515-d38f-4624-bde8-a1ce20473a69"}]},"request":{"method":"PUT","url":"Coverage/97bf3145-151b-4a8e-ada4-d969cc80b5c2"}},{"fullUrl":"https://madie.cms.gov/Procedure/5ca5260db8484613a555a99c","resource":{"resourceType":"Procedure","id":"45dc0c6b-54af-4b5d-a1ad-08e032cbd0f9","meta":{"profile":["http://hl7.org/fhir/us/qicore/StructureDefinition/qicore-procedure"]},"extension":[{"url":"http://hl7.org/fhir/us/qicore/StructureDefinition/qicore-recorded","valueDateTime":"2025-04-20T11:35:00.000Z"}],"status":"completed","code":{"coding":[{"system":"http://snomed.info/sct","code":"169396008"}]},"subject":{"reference":"Patient/6c1a8557-73be-4026-9ec6-f0699bfcbfda"},"performedPeriod":{"start":"2025-04-20T11:00:00.000Z","end":"2025-04-20T11:00:00.000Z"}},"request":{"method":"PUT","url":"Procedure/45dc0c6b-54af-4b5d-a1ad-08e032cbd0f9"}},{"fullUrl":"https://madie.cms.gov/Procedure/5ca5260db8484613a555a99e","resource":{"resourceType":"Procedure","id":"88949cb1-2780-4bf1-a696-88a2044369b7","meta":{"profile":["http://hl7.org/fhir/us/qicore/StructureDefinition/qicore-procedure"]},"extension":[{"url":"http://hl7.org/fhir/us/qicore/StructureDefinition/qicore-recorded","valueDateTime":"2025-06-10T14:50:00.000Z"}],"status":"completed","code":{"coding":[{"system":"http://snomed.info/sct","code":"169396008"}]},"subject":{"reference":"Patient/6c1a8557-73be-4026-9ec6-f0699bfcbfda"},"performedPeriod":{"start":"2025-06-10T14:45:00.000Z","end":"2025-06-10T14:45:00.000Z"}},"request":{"method":"PUT","url":"Procedure/88949cb1-2780-4bf1-a696-88a2044369b7"}},{"fullUrl":"https://madie.cms.gov/Organization/123456","resource":{"resourceType":"Organization","id":"f6075515-d38f-4624-bde8-a1ce20473a69","meta":{"profile":["http://hl7.org/fhir/us/qicore/StructureDefinition/qicore-organization"]},"identifier":[{"use":"temp","system":"urn:oid:2.16.840.1.113883.4.4","value":"21-3259825"}],"active":true,"type":[{"coding":[{"system":"http://terminology.hl7.org/CodeSystem/organization-type","code":"pay","display":"Payer"}]}],"name":"Blue Cross Blue Shield of Texas","telecom":[{"system":"phone","value":"(+1) 972-766-6900"}],"address":[{"use":"billing","type":"postal","line":["P.O. Box 660044"],"city":"Dallas","state":"TX","postalCode":"75266-0044","country":"USA"}]},"request":{"method":"PUT","url":"Organization/f6075515-d38f-4624-bde8-a1ce20473a69"}},{"fullUrl":"https://madie.cms.gov/Practitioner/practitioner-123456","resource":{"resourceType":"Practitioner","id":"abe61bd8-3f9a-4dd5-a5f0-bd8988ec1e23","meta":{"profile":["http://hl7.org/fhir/us/qicore/StructureDefinition/qicore-practitioner"]},"identifier":[{"system":"http://hl7.org/fhir/sid/us-npi","value":"123456"}],"name":[{"family":"Evil","prefix":["Dr"]}]},"request":{"method":"PUT","url":"Practitioner/abe61bd8-3f9a-4dd5-a5f0-bd8988ec1e23"}},{"fullUrl":"https://madie.cms.gov/MeasureReport/8be566ce-862c-4619-aa46-aa0157e5ef7d","resource":{"resourceType":"MeasureReport","id":"8be566ce-862c-4619-aa46-aa0157e5ef7d","meta":{"profile":["http://hl7.org/fhir/us/cqfmeasures/StructureDefinition/test-case-cqfm"]},"contained":[{"resourceType":"Parameters","id":"99c7f63e-f9bf-420d-9d23-481495b1b0b5-parameters","parameter":[{"name":"subject","valueString":"6c1a8557-73be-4026-9ec6-f0699bfcbfda"}]}],"extension":[{"url":"http://hl7.org/fhir/us/cqfmeasures/StructureDefinition/cqfm-inputParameters","valueReference":{"reference":"#99c7f63e-f9bf-420d-9d23-481495b1b0b5-parameters"}},{"url":"http://hl7.org/fhir/us/cqfmeasures/StructureDefinition/cqfm-testCaseDescription","valueMarkdown":"Patient with cancer diagnosis that starts after office visit and chemotherapy. \n"}],"modifierExtension":[{"url":"http://hl7.org/fhir/us/cqfmeasures/StructureDefinition/cqfm-isTestCase","valueBoolean":true}],"status":"complete","type":"individual","measure":"https://madie.cms.gov/Measure/OncologyPainIntensityQuantifiedFHIR","period":{"start":"2025-01-01","end":"2025-12-31"},"group":[{"population":[{"code":{"coding":[{"system":"http://terminology.hl7.org/CodeSystem/measure-population","code":"initial-population","display":"Initial Population"}]},"count":0},{"code":{"coding":[{"system":"http://terminology.hl7.org/CodeSystem/measure-population","code":"denominator","display":"Denominator"}]},"count":0},{"code":{"coding":[{"system":"http://terminology.hl7.org/CodeSystem/measure-population","code":"numerator","display":"Numerator"}]},"count":0}]},{"population":[{"code":{"coding":[{"system":"http://terminology.hl7.org/CodeSystem/measure-population","code":"initial-population","display":"Initial Population"}]},"count":0},{"code":{"coding":[{"system":"http://terminology.hl7.org/CodeSystem/measure-population","code":"denominator","display":"Denominator"}]},"count":0},{"code":{"coding":[{"system":"http://terminology.hl7.org/CodeSystem/measure-population","code":"numerator","display":"Numerator"}]},"count":0}]}]},"request":{"method":"PUT","url":"MeasureReport/8be566ce-862c-4619-aa46-aa0157e5ef7d"}}]}