{"resourceType":"Bundle","id":"tests-21096f8d-bfa3-4abe-a9b0-150e6dd8a615-bundle","type":"transaction","entry":[{"fullUrl":"https://madie.cms.gov/Patient/21096f8d-bfa3-4abe-a9b0-150e6dd8a615","resource":{"resourceType":"Patient","id":"21096f8d-bfa3-4abe-a9b0-150e6dd8a615","meta":{"profile":["http://hl7.org/fhir/us/qicore/StructureDefinition/qicore-patient"]},"text":{"status":"generated","div":"<div xmlns=\"http://www.w3.org/1999/xhtml\"><div class=\"hapiHeaderText\">PainAssessPriorEnc<b>NUMERFailPop1</b></div><table class=\"hapiPropertyTable\"><tbody><tr><td>Identifier</td><td>c5811190716b8b84140e328b999eea5f</td></tr><tr><td>Date of birth</td><td><span>09 January 1956</span></td></tr></tbody></table></div>"},"extension":[{"url":"http://hl7.org/fhir/us/core/StructureDefinition/us-core-race","extension":[{"url":"ombCategory","valueCoding":{"system":"urn:oid:2.16.840.1.113883.6.238","code":"1002-5","display":"American Indian or Alaska Native","userSelected":true}},{"url":"text","valueString":"American Indian or Alaska Native"}]},{"url":"http://hl7.org/fhir/us/core/StructureDefinition/us-core-ethnicity","extension":[{"url":"ombCategory","valueCoding":{"system":"urn:oid:2.16.840.1.113883.6.238","code":"2135-2","display":"Hispanic or Latino","userSelected":true}},{"url":"text","valueString":"Hispanic or Latino"}]}],"identifier":[{"type":{"coding":[{"system":"http://terminology.hl7.org/CodeSystem/v2-0203","code":"MR"}]},"system":"https://bonnie-fhir.healthit.gov/","value":"62c880ed0111a60120dc2220"}],"active":true,"name":[{"use":"usual","family":"NUMERFailPop1","given":["PainAssessPriorEnc"]}],"gender":"female","birthDate":"1956-01-09"},"request":{"method":"PUT","url":"Patient/21096f8d-bfa3-4abe-a9b0-150e6dd8a615"}},{"fullUrl":"https://madie.cms.gov/Observation/5e41c5a1a9c22a0000b32a28","resource":{"resourceType":"Observation","id":"20a07cab-c641-4b12-b9ab-df068bdbaaeb","meta":{"profile":["http://hl7.org/fhir/us/qicore/StructureDefinition/qicore-observation"]},"status":"final","category":[{"coding":[{"system":"http://terminology.hl7.org/CodeSystem/observation-category","code":"survey","display":"Survey"}],"text":"Survey"}],"code":{"coding":[{"system":"http://loinc.org","code":"38208-5","display":"Pain severity - Reported"}],"text":"Pain severity - Reported"},"subject":{"reference":"Patient/21096f8d-bfa3-4abe-a9b0-150e6dd8a615"},"effectiveDateTime":"2025-02-10T08:00:00.000Z","valueInteger":6},"request":{"method":"PUT","url":"Observation/20a07cab-c641-4b12-b9ab-df068bdbaaeb"}},{"fullUrl":"https://madie.cms.gov/Condition/5ca5260eb8484613a555a99f","resource":{"resourceType":"Condition","id":"622b5401-2a2d-467f-808b-2007e2716e18","meta":{"profile":["http://hl7.org/fhir/us/qicore/StructureDefinition/qicore-condition"]},"clinicalStatus":{"coding":[{"system":"http://terminology.hl7.org/CodeSystem/condition-clinical","code":"active","display":"active","userSelected":true}]},"verificationStatus":{"coding":[{"system":"http://terminology.hl7.org/CodeSystem/condition-ver-status","code":"confirmed","display":"Confirmed"}]},"category":[{"coding":[{"system":"http://terminology.hl7.org/CodeSystem/condition-category","code":"problem-list-item","display":"Problem List Item"}]}],"code":{"coding":[{"system":"http://snomed.info/sct","code":"107691000119101"}]},"subject":{"reference":"Patient/21096f8d-bfa3-4abe-a9b0-150e6dd8a615"},"onsetDateTime":"2025-01-11T14:45:00.000Z"},"request":{"method":"PUT","url":"Condition/622b5401-2a2d-467f-808b-2007e2716e18"}},{"fullUrl":"https://madie.cms.gov/Encounter/5ca5260eb8484613a555a9a0","resource":{"resourceType":"Encounter","id":"6548e302-2629-492d-b6c6-ceaa62468d2f","meta":{"profile":["http://hl7.org/fhir/us/qicore/StructureDefinition/qicore-encounter"]},"status":"finished","class":{"system":"http://terminology.hl7.org/CodeSystem/v3-ActCode","code":"AMB","display":"ambulatory","userSelected":true},"type":[{"coding":[{"system":"http://www.ama-assn.org/go/cpt","code":"99202"}]}],"subject":{"reference":"Patient/21096f8d-bfa3-4abe-a9b0-150e6dd8a615"},"period":{"start":"2025-07-01T14:45:00.000Z","end":"2025-07-01T14:45:00.000Z"}},"request":{"method":"PUT","url":"Encounter/6548e302-2629-492d-b6c6-ceaa62468d2f"}},{"fullUrl":"https://madie.cms.gov/Coverage/60099ac71c76ba64612b0646","resource":{"resourceType":"Coverage","id":"4ddd9507-9bf0-44e9-8ee8-bb9b9daf3f00","meta":{"profile":["http://hl7.org/fhir/us/qicore/StructureDefinition/qicore-coverage"]},"status":"active","beneficiary":{"reference":"Patient/21096f8d-bfa3-4abe-a9b0-150e6dd8a615"},"period":{"start":"1956-01-09T08:00:00.000Z"},"payor":[{"reference":"Organization/41c75c00-82d9-4ab2-98f6-cfaf7fc3381d"}]},"request":{"method":"PUT","url":"Coverage/4ddd9507-9bf0-44e9-8ee8-bb9b9daf3f00"}},{"fullUrl":"https://madie.cms.gov/Procedure/5ca5260eb8484613a555a9a2","resource":{"resourceType":"Procedure","id":"33e4a4b4-f220-4202-afa2-690b2d72c205","meta":{"profile":["http://hl7.org/fhir/us/qicore/StructureDefinition/qicore-procedure"]},"extension":[{"url":"http://hl7.org/fhir/us/qicore/StructureDefinition/qicore-recorded","valueDateTime":"2025-06-02T14:35:00.000Z"}],"status":"completed","code":{"coding":[{"system":"http://www.ama-assn.org/go/cpt","code":"96409"}]},"subject":{"reference":"Patient/21096f8d-bfa3-4abe-a9b0-150e6dd8a615"},"performedPeriod":{"start":"2025-06-02T14:00:00.000Z","end":"2025-06-02T14:00:00.000Z"}},"request":{"method":"PUT","url":"Procedure/33e4a4b4-f220-4202-afa2-690b2d72c205"}},{"fullUrl":"https://madie.cms.gov/Procedure/5ca5260eb8484613a555a9a3","resource":{"resourceType":"Procedure","id":"f9d1388f-115f-4305-bf1a-162253685021","meta":{"profile":["http://hl7.org/fhir/us/qicore/StructureDefinition/qicore-procedure"]},"extension":[{"url":"http://hl7.org/fhir/us/qicore/StructureDefinition/qicore-recorded","valueDateTime":"2025-07-30T09:35:00.000Z"}],"status":"completed","code":{"coding":[{"system":"http://www.ama-assn.org/go/cpt","code":"96409"}]},"subject":{"reference":"Patient/21096f8d-bfa3-4abe-a9b0-150e6dd8a615"},"performedPeriod":{"start":"2025-07-30T09:30:00.000Z","end":"2025-07-30T09:30:00.000Z"}},"request":{"method":"PUT","url":"Procedure/f9d1388f-115f-4305-bf1a-162253685021"}},{"fullUrl":"https://madie.cms.gov/Organization/123456","resource":{"resourceType":"Organization","id":"41c75c00-82d9-4ab2-98f6-cfaf7fc3381d","meta":{"profile":["http://hl7.org/fhir/us/qicore/StructureDefinition/qicore-organization"]},"identifier":[{"use":"temp","system":"urn:oid:2.16.840.1.113883.4.4","value":"21-3259825"}],"active":true,"type":[{"coding":[{"system":"http://terminology.hl7.org/CodeSystem/organization-type","code":"pay","display":"Payer"}]}],"name":"Blue Cross Blue Shield of Texas","telecom":[{"system":"phone","value":"(+1) 972-766-6900"}],"address":[{"use":"billing","type":"postal","line":["P.O. Box 660044"],"city":"Dallas","state":"TX","postalCode":"75266-0044","country":"USA"}]},"request":{"method":"PUT","url":"Organization/41c75c00-82d9-4ab2-98f6-cfaf7fc3381d"}},{"fullUrl":"https://madie.cms.gov/Practitioner/practitioner-123456","resource":{"resourceType":"Practitioner","id":"75665de6-a567-4504-91a1-da603f1eeb48","meta":{"profile":["http://hl7.org/fhir/us/qicore/StructureDefinition/qicore-practitioner"]},"identifier":[{"system":"http://hl7.org/fhir/sid/us-npi","value":"123456"}],"name":[{"family":"Evil","prefix":["Dr"]}]},"request":{"method":"PUT","url":"Practitioner/75665de6-a567-4504-91a1-da603f1eeb48"}},{"fullUrl":"https://madie.cms.gov/MeasureReport/1f5fed53-f10d-4c05-9aba-28cd1bdd0212","resource":{"resourceType":"MeasureReport","id":"1f5fed53-f10d-4c05-9aba-28cd1bdd0212","meta":{"profile":["http://hl7.org/fhir/us/cqfmeasures/StructureDefinition/test-case-cqfm"]},"contained":[{"resourceType":"Parameters","id":"5f264477-ec89-4a7b-82ca-14163cc26949-parameters","parameter":[{"name":"subject","valueString":"21096f8d-bfa3-4abe-a9b0-150e6dd8a615"}]}],"extension":[{"url":"http://hl7.org/fhir/us/cqfmeasures/StructureDefinition/cqfm-inputParameters","valueReference":{"reference":"#5f264477-ec89-4a7b-82ca-14163cc26949-parameters"}},{"url":"http://hl7.org/fhir/us/cqfmeasures/StructureDefinition/cqfm-testCaseDescription","valueMarkdown":"Patient with cancer diagnosis overlaps the office visit during measurement period. Chemotherapy administered but pain intensity assessment was performed prior to the office visit.   \n"}],"modifierExtension":[{"url":"http://hl7.org/fhir/us/cqfmeasures/StructureDefinition/cqfm-isTestCase","valueBoolean":true}],"status":"complete","type":"individual","measure":"https://madie.cms.gov/Measure/OncologyPainIntensityQuantifiedFHIR","period":{"start":"2025-01-01","end":"2025-12-31"},"group":[{"population":[{"code":{"coding":[{"system":"http://terminology.hl7.org/CodeSystem/measure-population","code":"initial-population","display":"Initial Population"}]},"count":1},{"code":{"coding":[{"system":"http://terminology.hl7.org/CodeSystem/measure-population","code":"denominator","display":"Denominator"}]},"count":1},{"code":{"coding":[{"system":"http://terminology.hl7.org/CodeSystem/measure-population","code":"numerator","display":"Numerator"}]},"count":0}]},{"population":[{"code":{"coding":[{"system":"http://terminology.hl7.org/CodeSystem/measure-population","code":"initial-population","display":"Initial Population"}]},"count":0},{"code":{"coding":[{"system":"http://terminology.hl7.org/CodeSystem/measure-population","code":"denominator","display":"Denominator"}]},"count":0},{"code":{"coding":[{"system":"http://terminology.hl7.org/CodeSystem/measure-population","code":"numerator","display":"Numerator"}]},"count":0}]}]},"request":{"method":"PUT","url":"MeasureReport/1f5fed53-f10d-4c05-9aba-28cd1bdd0212"}}]}