{"resourceType":"Bundle","id":"tests-37eca1e7-49b2-40ae-a3fd-1581c030b62c-bundle","type":"transaction","entry":[{"fullUrl":"https://madie.cms.gov/Patient/37eca1e7-49b2-40ae-a3fd-1581c030b62c","resource":{"resourceType":"Patient","id":"37eca1e7-49b2-40ae-a3fd-1581c030b62c","meta":{"profile":["http://hl7.org/fhir/us/qicore/StructureDefinition/qicore-patient"]},"text":{"status":"generated","div":"<div xmlns=\"http://www.w3.org/1999/xhtml\"><div class=\"hapiHeaderText\">RadTxAfterMP<b>IPPFailPop2</b></div><table class=\"hapiPropertyTable\"><tbody><tr><td>Identifier</td><td>1f01974ad5705dc04fcdd89fe28a6a3b</td></tr><tr><td>Date of birth</td><td><span>20 November 1936</span></td></tr></tbody></table></div>"},"extension":[{"url":"http://hl7.org/fhir/us/core/StructureDefinition/us-core-race","extension":[{"url":"ombCategory","valueCoding":{"system":"urn:oid:2.16.840.1.113883.6.238","code":"1002-5","display":"American Indian or Alaska Native","userSelected":true}},{"url":"text","valueString":"American Indian or Alaska Native"}]},{"url":"http://hl7.org/fhir/us/core/StructureDefinition/us-core-ethnicity","extension":[{"url":"ombCategory","valueCoding":{"system":"urn:oid:2.16.840.1.113883.6.238","code":"2135-2","display":"Hispanic or Latino","userSelected":true}},{"url":"text","valueString":"Hispanic or Latino"}]}],"identifier":[{"type":{"coding":[{"system":"http://terminology.hl7.org/CodeSystem/v2-0203","code":"MR"}]},"system":"https://bonnie-fhir.healthit.gov/","value":"62c880ec0111a60120dc21f2"}],"active":true,"name":[{"use":"usual","family":"IPPFailPop2","given":["RadTxAfterMP"]}],"gender":"female","birthDate":"1936-11-20"},"request":{"method":"PUT","url":"Patient/37eca1e7-49b2-40ae-a3fd-1581c030b62c"}},{"fullUrl":"https://madie.cms.gov/Condition/5ca52604b8484613a555a8ec","resource":{"resourceType":"Condition","id":"6623a058-d095-4db4-9a6d-fa5f8ecee800","meta":{"profile":["http://hl7.org/fhir/us/qicore/StructureDefinition/qicore-condition"]},"clinicalStatus":{"coding":[{"system":"http://terminology.hl7.org/CodeSystem/condition-clinical","code":"active","display":"active","userSelected":true}]},"verificationStatus":{"coding":[{"system":"http://terminology.hl7.org/CodeSystem/condition-ver-status","code":"confirmed","display":"Confirmed"}]},"category":[{"coding":[{"system":"http://terminology.hl7.org/CodeSystem/condition-category","code":"problem-list-item","display":"Problem List Item"}]}],"code":{"coding":[{"system":"http://hl7.org/fhir/sid/icd-10-cm","code":"C74.91"}]},"subject":{"reference":"Patient/37eca1e7-49b2-40ae-a3fd-1581c030b62c"},"onsetDateTime":"2022-08-19T14:00:00.000Z"},"request":{"method":"PUT","url":"Condition/6623a058-d095-4db4-9a6d-fa5f8ecee800"}},{"fullUrl":"https://madie.cms.gov/Coverage/60099ac61c76ba64612b0634","resource":{"resourceType":"Coverage","id":"f8c60295-e14c-45e0-abd3-ccb5324145ff","meta":{"profile":["http://hl7.org/fhir/us/qicore/StructureDefinition/qicore-coverage"]},"status":"active","beneficiary":{"reference":"Patient/37eca1e7-49b2-40ae-a3fd-1581c030b62c"},"period":{"start":"1936-11-20T08:00:00.000Z"},"payor":[{"reference":"Organization/806b0255-13cb-4f2b-9412-571554dd2169"}]},"request":{"method":"PUT","url":"Coverage/f8c60295-e14c-45e0-abd3-ccb5324145ff"}},{"fullUrl":"https://madie.cms.gov/Encounter/5ca52604b8484613a555a8ed","resource":{"resourceType":"Encounter","id":"e6b4c57a-4ffe-460c-bbb8-4e4fc0434135","meta":{"profile":["http://hl7.org/fhir/us/qicore/StructureDefinition/qicore-encounter"]},"status":"finished","class":{"system":"http://terminology.hl7.org/CodeSystem/v3-ActCode","code":"AMB","display":"ambulatory","userSelected":true},"type":[{"coding":[{"system":"http://www.ama-assn.org/go/cpt","code":"77431","userSelected":true}]}],"subject":{"reference":"Patient/37eca1e7-49b2-40ae-a3fd-1581c030b62c"},"period":{"start":"2026-01-02T13:15:00.000Z","end":"2026-01-02T13:15:00.000Z"}},"request":{"method":"PUT","url":"Encounter/e6b4c57a-4ffe-460c-bbb8-4e4fc0434135"}},{"fullUrl":"https://madie.cms.gov/Organization/123456","resource":{"resourceType":"Organization","id":"806b0255-13cb-4f2b-9412-571554dd2169","meta":{"profile":["http://hl7.org/fhir/us/qicore/StructureDefinition/qicore-organization"]},"identifier":[{"use":"temp","system":"urn:oid:2.16.840.1.113883.4.4","value":"21-3259825"}],"active":true,"type":[{"coding":[{"system":"http://terminology.hl7.org/CodeSystem/organization-type","code":"pay","display":"Payer"}]}],"name":"Blue Cross Blue Shield of Texas","telecom":[{"system":"phone","value":"(+1) 972-766-6900"}],"address":[{"use":"billing","type":"postal","line":["P.O. Box 660044"],"city":"Dallas","state":"TX","postalCode":"75266-0044","country":"USA"}]},"request":{"method":"PUT","url":"Organization/806b0255-13cb-4f2b-9412-571554dd2169"}},{"fullUrl":"https://madie.cms.gov/Practitioner/practitioner-123456","resource":{"resourceType":"Practitioner","id":"daa88517-7677-436e-a608-15a91b38c7dc","meta":{"profile":["http://hl7.org/fhir/us/qicore/StructureDefinition/qicore-practitioner"]},"identifier":[{"system":"http://hl7.org/fhir/sid/us-npi","value":"123456"}],"name":[{"family":"Evil","prefix":["Dr"]}]},"request":{"method":"PUT","url":"Practitioner/daa88517-7677-436e-a608-15a91b38c7dc"}},{"fullUrl":"https://madie.cms.gov/MeasureReport/16cdf50c-d73d-44ce-a737-35cf0c9f212f","resource":{"resourceType":"MeasureReport","id":"16cdf50c-d73d-44ce-a737-35cf0c9f212f","meta":{"profile":["http://hl7.org/fhir/us/cqfmeasures/StructureDefinition/test-case-cqfm"]},"contained":[{"resourceType":"Parameters","id":"01f39a03-b547-449c-b92b-764122338dfa-parameters","parameter":[{"name":"subject","valueString":"37eca1e7-49b2-40ae-a3fd-1581c030b62c"}]}],"extension":[{"url":"http://hl7.org/fhir/us/cqfmeasures/StructureDefinition/cqfm-inputParameters","valueReference":{"reference":"#01f39a03-b547-449c-b92b-764122338dfa-parameters"}},{"url":"http://hl7.org/fhir/us/cqfmeasures/StructureDefinition/cqfm-testCaseDescription","valueMarkdown":"Patient with cancer diagnosis that overlaps radiation treatment management, but radiation treatment management occurs after the measurement period.\n"}],"modifierExtension":[{"url":"http://hl7.org/fhir/us/cqfmeasures/StructureDefinition/cqfm-isTestCase","valueBoolean":true}],"status":"complete","type":"individual","measure":"https://madie.cms.gov/Measure/OncologyPainIntensityQuantifiedFHIR","period":{"start":"2025-01-01","end":"2025-12-31"},"group":[{"population":[{"code":{"coding":[{"system":"http://terminology.hl7.org/CodeSystem/measure-population","code":"initial-population","display":"Initial Population"}]},"count":0},{"code":{"coding":[{"system":"http://terminology.hl7.org/CodeSystem/measure-population","code":"denominator","display":"Denominator"}]},"count":0},{"code":{"coding":[{"system":"http://terminology.hl7.org/CodeSystem/measure-population","code":"numerator","display":"Numerator"}]},"count":0}]},{"population":[{"code":{"coding":[{"system":"http://terminology.hl7.org/CodeSystem/measure-population","code":"initial-population","display":"Initial Population"}]},"count":0},{"code":{"coding":[{"system":"http://terminology.hl7.org/CodeSystem/measure-population","code":"denominator","display":"Denominator"}]},"count":0},{"code":{"coding":[{"system":"http://terminology.hl7.org/CodeSystem/measure-population","code":"numerator","display":"Numerator"}]},"count":0}]}]},"request":{"method":"PUT","url":"MeasureReport/16cdf50c-d73d-44ce-a737-35cf0c9f212f"}}]}