{"resourceType":"Bundle","id":"tests-28f57404-e619-4b1e-905f-5d89fffeffcd-bundle","type":"transaction","entry":[{"fullUrl":"https://madie.cms.gov/Patient/28f57404-e619-4b1e-905f-5d89fffeffcd","resource":{"resourceType":"Patient","id":"28f57404-e619-4b1e-905f-5d89fffeffcd","meta":{"profile":["http://hl7.org/fhir/us/qicore/StructureDefinition/qicore-patient"]},"text":{"status":"generated","div":"<div xmlns=\"http://www.w3.org/1999/xhtml\"><div class=\"hapiHeaderText\">TwiceDailyChemo<b>DENOMPASSPOP1</b></div><table class=\"hapiPropertyTable\"><tbody><tr><td>Date of birth</td><td><span>12 February 1978</span></td></tr></tbody></table></div>"},"extension":[{"url":"http://hl7.org/fhir/us/core/StructureDefinition/us-core-race","extension":[{"url":"ombCategory","valueCoding":{"system":"urn:oid:2.16.840.1.113883.6.238","code":"1002-5","display":"American Indian or Alaska Native","userSelected":true}},{"url":"text","valueString":"American Indian or Alaska Native"}]},{"url":"http://hl7.org/fhir/us/core/StructureDefinition/us-core-ethnicity","extension":[{"url":"ombCategory","valueCoding":{"system":"urn:oid:2.16.840.1.113883.6.238","code":"2135-2","display":"Hispanic or Latino","userSelected":true}},{"url":"text","valueString":"Hispanic or Latino"}]}],"identifier":[{"type":{"coding":[{"system":"http://terminology.hl7.org/CodeSystem/v2-0203","code":"MR"}]},"system":"https://bonnie-fhir.healthit.gov/","value":"62c880ec0111a60120dc220d"}],"active":true,"name":[{"use":"usual","family":"DENOMFailPop1","given":["TwiceDailyChemo"]}],"gender":"female","birthDate":"1978-02-12"},"request":{"method":"PUT","url":"Patient/28f57404-e619-4b1e-905f-5d89fffeffcd"}},{"fullUrl":"https://madie.cms.gov/Condition/602707c30df1fb00002a2a82","resource":{"resourceType":"Condition","id":"6eb535cd-6325-4d4e-bc0e-a5cc93e903c1","meta":{"profile":["http://hl7.org/fhir/us/qicore/StructureDefinition/qicore-condition"]},"clinicalStatus":{"coding":[{"system":"http://terminology.hl7.org/CodeSystem/condition-clinical","code":"active","display":"active","userSelected":true}]},"category":[{"coding":[{"system":"http://terminology.hl7.org/CodeSystem/condition-category","code":"problem-list-item","display":"Problem List Item"}]}],"code":{"coding":[{"system":"http://snomed.info/sct","code":"107691000119101"}]},"subject":{"reference":"Patient/28f57404-e619-4b1e-905f-5d89fffeffcd"},"onsetDateTime":"2025-01-31T08:00:00.000Z"},"request":{"method":"PUT","url":"Condition/6eb535cd-6325-4d4e-bc0e-a5cc93e903c1"}},{"fullUrl":"https://madie.cms.gov/Encounter/602707d20df1fb00002a2aa4","resource":{"resourceType":"Encounter","id":"0f9b6390-b37c-46b0-b9af-a38096f36714","meta":{"profile":["http://hl7.org/fhir/us/qicore/StructureDefinition/qicore-encounter"]},"status":"finished","class":{"system":"http://terminology.hl7.org/CodeSystem/v3-ActCode","code":"AMB","display":"ambulatory","userSelected":true},"type":[{"coding":[{"system":"http://snomed.info/sct","code":"185463005"}]}],"subject":{"reference":"Patient/28f57404-e619-4b1e-905f-5d89fffeffcd"},"period":{"start":"2025-01-31T08:00:00.000Z","end":"2025-01-31T08:15:00.000Z"}},"request":{"method":"PUT","url":"Encounter/0f9b6390-b37c-46b0-b9af-a38096f36714"}},{"fullUrl":"https://madie.cms.gov/Encounter/602707e10df1fb00002a2ac1","resource":{"resourceType":"Encounter","id":"add3ad62-92bc-45e0-a0cf-59cc3f629344","meta":{"profile":["http://hl7.org/fhir/us/qicore/StructureDefinition/qicore-encounter"]},"status":"finished","class":{"system":"http://terminology.hl7.org/CodeSystem/v3-ActCode","code":"AMB","display":"ambulatory","userSelected":true},"type":[{"coding":[{"system":"http://snomed.info/sct","code":"185463005"}]}],"subject":{"reference":"Patient/28f57404-e619-4b1e-905f-5d89fffeffcd"},"period":{"start":"2025-02-09T08:00:00.000Z","end":"2025-02-09T08:15:00.000Z"}},"request":{"method":"PUT","url":"Encounter/add3ad62-92bc-45e0-a0cf-59cc3f629344"}},{"fullUrl":"https://madie.cms.gov/Coverage/61043692a2f9161878c53ab7","resource":{"resourceType":"Coverage","id":"29aa2fc1-28ae-4d0e-8be8-75b6a9b3e816","meta":{"profile":["http://hl7.org/fhir/us/qicore/StructureDefinition/qicore-coverage"]},"status":"active","beneficiary":{"reference":"Patient/28f57404-e619-4b1e-905f-5d89fffeffcd"},"period":{"start":"1978-02-12T08:00:00.000Z"},"payor":[{"reference":"Organization/e75793c9-fdf6-463a-8c1d-4ee44320dc25"}]},"request":{"method":"PUT","url":"Coverage/29aa2fc1-28ae-4d0e-8be8-75b6a9b3e816"}},{"fullUrl":"https://madie.cms.gov/Procedure/602707fa0df1fb00002a2aeb","resource":{"resourceType":"Procedure","id":"e006b0b1-a910-4ca8-a58b-5905e1dd760e","meta":{"profile":["http://hl7.org/fhir/us/qicore/StructureDefinition/qicore-procedure"]},"extension":[{"url":"http://hl7.org/fhir/us/qicore/StructureDefinition/qicore-recorded","valueDateTime":"2025-02-09T12:35:00.000Z"}],"status":"completed","code":{"coding":[{"system":"http://snomed.info/sct","code":"169396008"}]},"subject":{"reference":"Patient/28f57404-e619-4b1e-905f-5d89fffeffcd"},"performedPeriod":{"start":"2025-02-09T08:00:00.000Z","end":"2025-02-09T08:15:00.000Z"}},"request":{"method":"PUT","url":"Procedure/e006b0b1-a910-4ca8-a58b-5905e1dd760e"}},{"fullUrl":"https://madie.cms.gov/Procedure/602707ff0df1fb00002a2b05","resource":{"resourceType":"Procedure","id":"f11edd39-e93c-4d8c-ba7a-fda109137484","meta":{"profile":["http://hl7.org/fhir/us/qicore/StructureDefinition/qicore-procedure"]},"extension":[{"url":"http://hl7.org/fhir/us/qicore/StructureDefinition/qicore-recorded","valueDateTime":"2025-02-09T12:35:00.000Z"}],"status":"completed","code":{"coding":[{"system":"http://snomed.info/sct","code":"169396008"}]},"subject":{"reference":"Patient/28f57404-e619-4b1e-905f-5d89fffeffcd"},"performedPeriod":{"start":"2025-02-09T08:00:00.000Z","end":"2025-02-09T08:15:00.000Z"}},"request":{"method":"PUT","url":"Procedure/f11edd39-e93c-4d8c-ba7a-fda109137484"}},{"fullUrl":"https://madie.cms.gov/Organization/123456","resource":{"resourceType":"Organization","id":"e75793c9-fdf6-463a-8c1d-4ee44320dc25","meta":{"profile":["http://hl7.org/fhir/us/qicore/StructureDefinition/qicore-organization"]},"identifier":[{"use":"temp","system":"urn:oid:2.16.840.1.113883.4.4","value":"21-3259825"}],"active":true,"type":[{"coding":[{"system":"http://terminology.hl7.org/CodeSystem/organization-type","code":"pay","display":"Payer"}]}],"name":"Blue Cross Blue Shield of Texas","telecom":[{"system":"phone","value":"(+1) 972-766-6900"}],"address":[{"use":"billing","type":"postal","line":["P.O. Box 660044"],"city":"Dallas","state":"TX","postalCode":"75266-0044","country":"USA"}]},"request":{"method":"PUT","url":"Organization/e75793c9-fdf6-463a-8c1d-4ee44320dc25"}},{"fullUrl":"https://madie.cms.gov/Practitioner/practitioner-123456","resource":{"resourceType":"Practitioner","id":"0cc414a5-3339-43ab-9e94-2749d2ebc267","meta":{"profile":["http://hl7.org/fhir/us/qicore/StructureDefinition/qicore-practitioner"]},"identifier":[{"system":"http://hl7.org/fhir/sid/us-npi","value":"123456"}],"name":[{"family":"Evil","prefix":["Dr"]}]},"request":{"method":"PUT","url":"Practitioner/0cc414a5-3339-43ab-9e94-2749d2ebc267"}},{"fullUrl":"https://madie.cms.gov/MeasureReport/f00b0d4e-d2f9-4aac-85a5-685e307f46a6","resource":{"resourceType":"MeasureReport","id":"f00b0d4e-d2f9-4aac-85a5-685e307f46a6","meta":{"profile":["http://hl7.org/fhir/us/cqfmeasures/StructureDefinition/test-case-cqfm"]},"contained":[{"resourceType":"Parameters","id":"ef83c21f-1f6e-49a4-ae37-64ed5d65dc57-parameters","parameter":[{"name":"subject","valueString":"28f57404-e619-4b1e-905f-5d89fffeffcd"}]}],"extension":[{"url":"http://hl7.org/fhir/us/cqfmeasures/StructureDefinition/cqfm-inputParameters","valueReference":{"reference":"#ef83c21f-1f6e-49a4-ae37-64ed5d65dc57-parameters"}},{"url":"http://hl7.org/fhir/us/cqfmeasures/StructureDefinition/cqfm-testCaseDescription","valueMarkdown":"Patient with cancer diagnosis that overlaps the office visits during measurement period. Patient received twice daily chemotherapy. \n"}],"modifierExtension":[{"url":"http://hl7.org/fhir/us/cqfmeasures/StructureDefinition/cqfm-isTestCase","valueBoolean":true}],"status":"complete","type":"individual","measure":"https://madie.cms.gov/Measure/OncologyPainIntensityQuantifiedFHIR","period":{"start":"2025-01-01","end":"2025-12-31"},"group":[{"population":[{"code":{"coding":[{"system":"http://terminology.hl7.org/CodeSystem/measure-population","code":"initial-population","display":"Initial Population"}]},"count":0},{"code":{"coding":[{"system":"http://terminology.hl7.org/CodeSystem/measure-population","code":"denominator","display":"Denominator"}]},"count":0},{"code":{"coding":[{"system":"http://terminology.hl7.org/CodeSystem/measure-population","code":"numerator","display":"Numerator"}]},"count":0}]},{"population":[{"code":{"coding":[{"system":"http://terminology.hl7.org/CodeSystem/measure-population","code":"initial-population","display":"Initial Population"}]},"count":0},{"code":{"coding":[{"system":"http://terminology.hl7.org/CodeSystem/measure-population","code":"denominator","display":"Denominator"}]},"count":0},{"code":{"coding":[{"system":"http://terminology.hl7.org/CodeSystem/measure-population","code":"numerator","display":"Numerator"}]},"count":0}]}]},"request":{"method":"PUT","url":"MeasureReport/f00b0d4e-d2f9-4aac-85a5-685e307f46a6"}}]}