{"resourceType":"Bundle","id":"tests-719a6ae4-ac86-406f-a762-380383e4a74d-bundle","type":"transaction","entry":[{"fullUrl":"https://madie.cms.gov/Patient/719a6ae4-ac86-406f-a762-380383e4a74d","resource":{"resourceType":"Patient","id":"719a6ae4-ac86-406f-a762-380383e4a74d","meta":{"profile":["http://hl7.org/fhir/us/qicore/StructureDefinition/qicore-patient"]},"text":{"status":"generated","div":"<div xmlns=\"http://www.w3.org/1999/xhtml\"><div class=\"hapiHeaderText\">MultEp2Num1Den2<b>NUMERPassPop1</b></div><table class=\"hapiPropertyTable\"><tbody><tr><td>Identifier</td><td>3d64e5f7a37d9e8f441d6730bc0bb02c10b4ee6481741cad529c3ff180eab3d3</td></tr><tr><td>Date of birth</td><td><span>13 May 1937</span></td></tr></tbody></table></div>"},"extension":[{"url":"http://hl7.org/fhir/us/core/StructureDefinition/us-core-race","extension":[{"url":"ombCategory","valueCoding":{"system":"urn:oid:2.16.840.1.113883.6.238","code":"1002-5","display":"American Indian or Alaska Native","userSelected":true}},{"url":"text","valueString":"American Indian or Alaska Native"}]},{"url":"http://hl7.org/fhir/us/core/StructureDefinition/us-core-ethnicity","extension":[{"url":"ombCategory","valueCoding":{"system":"urn:oid:2.16.840.1.113883.6.238","code":"2135-2","display":"Hispanic or Latino","userSelected":true}},{"url":"text","valueString":"Hispanic or Latino"}]}],"identifier":[{"type":{"coding":[{"system":"http://terminology.hl7.org/CodeSystem/v2-0203","code":"MR"}]},"system":"https://bonnie-fhir.healthit.gov/","value":"62c880ec0111a60120dc21f0"}],"active":true,"name":[{"use":"usual","family":"NUMERPassPop1","given":["MultEp1Num1Den2"]}],"gender":"female","birthDate":"1937-05-13"},"request":{"method":"PUT","url":"Patient/719a6ae4-ac86-406f-a762-380383e4a74d"}},{"fullUrl":"https://madie.cms.gov/Observation/5ca5260fb8484613a555a9c0","resource":{"resourceType":"Observation","id":"6e6be428-2bc9-4dd9-b30d-83911591f02f","meta":{"profile":["http://hl7.org/fhir/us/qicore/StructureDefinition/qicore-observation"]},"status":"final","category":[{"coding":[{"system":"http://terminology.hl7.org/CodeSystem/observation-category","code":"survey","display":"Survey"}],"text":"Survey"}],"code":{"coding":[{"system":"http://loinc.org","code":"38208-5","display":"Pain severity - Reported"}],"text":"Pain severity - Reported"},"subject":{"reference":"Patient/719a6ae4-ac86-406f-a762-380383e4a74d"},"effectiveDateTime":"2025-03-03T14:00:00.000+00:00","valueInteger":10},"request":{"method":"PUT","url":"Observation/6e6be428-2bc9-4dd9-b30d-83911591f02f"}},{"fullUrl":"https://madie.cms.gov/Observation/5ca5260fb8484613a555a9c2","resource":{"resourceType":"Observation","id":"3a3e17e3-fb28-4848-984e-5ffad76d8014","meta":{"profile":["http://hl7.org/fhir/us/qicore/StructureDefinition/qicore-observation"]},"status":"final","category":[{"coding":[{"system":"http://terminology.hl7.org/CodeSystem/observation-category","code":"survey","display":"Survey"}],"text":"Survey"}],"code":{"coding":[{"system":"http://loinc.org","code":"38208-5","display":"Pain severity - Reported"}],"text":"Pain severity - Reported"},"subject":{"reference":"Patient/719a6ae4-ac86-406f-a762-380383e4a74d"},"effectiveDateTime":"2025-05-22T08:00:00.000+00:00"},"request":{"method":"PUT","url":"Observation/3a3e17e3-fb28-4848-984e-5ffad76d8014"}},{"fullUrl":"https://madie.cms.gov/Condition/5ca5260fb8484613a555a9b7","resource":{"resourceType":"Condition","id":"0a5e2cc3-22db-42aa-8f75-d169eb62ddc7","meta":{"profile":["http://hl7.org/fhir/us/qicore/StructureDefinition/qicore-condition"]},"clinicalStatus":{"coding":[{"system":"http://terminology.hl7.org/CodeSystem/condition-clinical","code":"active","display":"active","userSelected":true}]},"verificationStatus":{"coding":[{"system":"http://terminology.hl7.org/CodeSystem/condition-ver-status","code":"confirmed","display":"Confirmed"}]},"category":[{"coding":[{"system":"http://terminology.hl7.org/CodeSystem/condition-category","code":"problem-list-item","display":"Problem List Item"}]}],"code":{"coding":[{"system":"http://hl7.org/fhir/sid/icd-10-cm","code":"C00.0"}]},"subject":{"reference":"Patient/719a6ae4-ac86-406f-a762-380383e4a74d"},"onsetDateTime":"2023-11-01T13:30:00.000Z"},"request":{"method":"PUT","url":"Condition/0a5e2cc3-22db-42aa-8f75-d169eb62ddc7"}},{"fullUrl":"https://madie.cms.gov/Encounter/5ca5260fb8484613a555a9b8","resource":{"resourceType":"Encounter","id":"aba757b6-207e-423e-9a56-812659f472b5","meta":{"profile":["http://hl7.org/fhir/us/qicore/StructureDefinition/qicore-encounter"]},"status":"finished","class":{"system":"http://terminology.hl7.org/CodeSystem/v3-ActCode","code":"AMB","display":"ambulatory","userSelected":true},"type":[{"coding":[{"system":"http://snomed.info/sct","code":"185463005"}]}],"subject":{"reference":"Patient/719a6ae4-ac86-406f-a762-380383e4a74d"},"period":{"start":"2025-01-30T14:00:00.000Z","end":"2025-01-30T15:00:00.000Z"}},"request":{"method":"PUT","url":"Encounter/aba757b6-207e-423e-9a56-812659f472b5"}},{"fullUrl":"https://madie.cms.gov/Encounter/5ca5260fb8484613a555a9b9","resource":{"resourceType":"Encounter","id":"484bf569-6b91-4d10-aa6e-ae48945433f1","meta":{"profile":["http://hl7.org/fhir/us/qicore/StructureDefinition/qicore-encounter"]},"status":"finished","class":{"system":"http://terminology.hl7.org/CodeSystem/v3-ActCode","code":"AMB","display":"ambulatory","userSelected":true},"type":[{"coding":[{"system":"http://snomed.info/sct","code":"185463005"}]}],"subject":{"reference":"Patient/719a6ae4-ac86-406f-a762-380383e4a74d"},"period":{"start":"2025-03-03T13:30:00.000Z","end":"2025-03-03T14:30:00.000Z"}},"request":{"method":"PUT","url":"Encounter/484bf569-6b91-4d10-aa6e-ae48945433f1"}},{"fullUrl":"https://madie.cms.gov/Encounter/5ca5260fb8484613a555a9ba","resource":{"resourceType":"Encounter","id":"175651d8-48c0-48df-9971-72bc1a0c6933","meta":{"profile":["http://hl7.org/fhir/us/qicore/StructureDefinition/qicore-encounter"]},"status":"finished","class":{"system":"http://terminology.hl7.org/CodeSystem/v3-ActCode","code":"AMB","display":"ambulatory","userSelected":true},"type":[{"coding":[{"system":"http://www.ama-assn.org/go/cpt","code":"99203"}]}],"subject":{"reference":"Patient/719a6ae4-ac86-406f-a762-380383e4a74d"},"period":{"start":"2025-05-30T12:45:00.000Z","end":"2025-05-30T13:45:00.000Z"}},"request":{"method":"PUT","url":"Encounter/175651d8-48c0-48df-9971-72bc1a0c6933"}},{"fullUrl":"https://madie.cms.gov/Encounter/5ca5260fb8484613a555a9bb","resource":{"resourceType":"Encounter","id":"1f567f26-aae3-42a9-9764-06109903f0d5","meta":{"profile":["http://hl7.org/fhir/us/qicore/StructureDefinition/qicore-encounter"]},"status":"finished","class":{"system":"http://terminology.hl7.org/CodeSystem/v3-ActCode","code":"AMB","display":"ambulatory","userSelected":true},"type":[{"coding":[{"system":"http://www.ama-assn.org/go/cpt","code":"99202"}]}],"subject":{"reference":"Patient/719a6ae4-ac86-406f-a762-380383e4a74d"},"period":{"start":"2025-07-03T10:45:00.000Z","end":"2025-07-03T11:45:00.000Z"}},"request":{"method":"PUT","url":"Encounter/1f567f26-aae3-42a9-9764-06109903f0d5"}},{"fullUrl":"https://madie.cms.gov/Coverage/60099aca1c76ba64612b0685","resource":{"resourceType":"Coverage","id":"8a4e4985-80e9-4bfb-944c-633f9e5f7eff","meta":{"profile":["http://hl7.org/fhir/us/qicore/StructureDefinition/qicore-coverage"]},"status":"active","beneficiary":{"reference":"Patient/719a6ae4-ac86-406f-a762-380383e4a74d"},"period":{"start":"1937-05-13T08:00:00.000Z"},"payor":[{"reference":"Organization/33ead57e-5e04-40e4-95ea-bc3cdbd58917"}]},"request":{"method":"PUT","url":"Coverage/8a4e4985-80e9-4bfb-944c-633f9e5f7eff"}},{"fullUrl":"https://madie.cms.gov/Procedure/5ca5260fb8484613a555a9bc","resource":{"resourceType":"Procedure","id":"35bf03cb-0cec-4d5d-a2ae-e001010ce14b","meta":{"profile":["http://hl7.org/fhir/us/qicore/StructureDefinition/qicore-procedure"]},"extension":[{"url":"http://hl7.org/fhir/us/qicore/StructureDefinition/qicore-recorded","valueDateTime":"2025-02-27T11:35:00.000Z"}],"status":"completed","code":{"coding":[{"system":"http://www.ama-assn.org/go/cpt","code":"96409"}]},"subject":{"reference":"Patient/719a6ae4-ac86-406f-a762-380383e4a74d"},"performedPeriod":{"start":"2025-02-27T11:30:00.000Z","end":"2025-02-27T11:30:00.000Z"}},"request":{"method":"PUT","url":"Procedure/35bf03cb-0cec-4d5d-a2ae-e001010ce14b"}},{"fullUrl":"https://madie.cms.gov/Procedure/5ca5260fb8484613a555a9bd","resource":{"resourceType":"Procedure","id":"72d71769-ae58-419f-9e2a-40aa31c6e99e","meta":{"profile":["http://hl7.org/fhir/us/qicore/StructureDefinition/qicore-procedure"]},"extension":[{"url":"http://hl7.org/fhir/us/qicore/StructureDefinition/qicore-recorded","valueDateTime":"2025-04-01T12:35:00.000Z"}],"status":"completed","code":{"coding":[{"system":"http://www.ama-assn.org/go/cpt","code":"96409"}]},"subject":{"reference":"Patient/719a6ae4-ac86-406f-a762-380383e4a74d"},"performedPeriod":{"start":"2025-04-01T12:30:00.000Z","end":"2025-04-01T12:30:00.000Z"}},"request":{"method":"PUT","url":"Procedure/72d71769-ae58-419f-9e2a-40aa31c6e99e"}},{"fullUrl":"https://madie.cms.gov/Procedure/5ca5260fb8484613a555a9be","resource":{"resourceType":"Procedure","id":"7df32595-026c-4384-bf2e-2c3e73967fb5","meta":{"profile":["http://hl7.org/fhir/us/qicore/StructureDefinition/qicore-procedure"]},"extension":[{"url":"http://hl7.org/fhir/us/qicore/StructureDefinition/qicore-recorded","valueDateTime":"2025-05-30T12:35:00.000Z"}],"status":"completed","code":{"coding":[{"system":"http://snomed.info/sct","code":"169396008"}]},"subject":{"reference":"Patient/719a6ae4-ac86-406f-a762-380383e4a74d"},"performedPeriod":{"start":"2025-05-30T12:45:00.000Z","end":"2025-05-30T13:45:00.000Z"}},"request":{"method":"PUT","url":"Procedure/7df32595-026c-4384-bf2e-2c3e73967fb5"}},{"fullUrl":"https://madie.cms.gov/Procedure/5ca5260fb8484613a555a9bf","resource":{"resourceType":"Procedure","id":"63aca7a0-16c4-4a50-be1c-d6f2df4215a7","meta":{"profile":["http://hl7.org/fhir/us/qicore/StructureDefinition/qicore-procedure"]},"extension":[{"url":"http://hl7.org/fhir/us/qicore/StructureDefinition/qicore-recorded","valueDateTime":"2025-06-04T12:35:00.000Z"}],"status":"completed","code":{"coding":[{"system":"http://www.ama-assn.org/go/cpt","code":"51720"}]},"subject":{"reference":"Patient/719a6ae4-ac86-406f-a762-380383e4a74d"},"performedPeriod":{"start":"2025-06-04T15:30:00.000Z","end":"2025-06-04T15:30:00.000Z"}},"request":{"method":"PUT","url":"Procedure/63aca7a0-16c4-4a50-be1c-d6f2df4215a7"}},{"fullUrl":"https://madie.cms.gov/Organization/123456","resource":{"resourceType":"Organization","id":"33ead57e-5e04-40e4-95ea-bc3cdbd58917","meta":{"profile":["http://hl7.org/fhir/us/qicore/StructureDefinition/qicore-organization"]},"identifier":[{"use":"temp","system":"urn:oid:2.16.840.1.113883.4.4","value":"21-3259825"}],"active":true,"type":[{"coding":[{"system":"http://terminology.hl7.org/CodeSystem/organization-type","code":"pay","display":"Payer"}]}],"name":"Blue Cross Blue Shield of Texas","telecom":[{"system":"phone","value":"(+1) 972-766-6900"}],"address":[{"use":"billing","type":"postal","line":["P.O. Box 660044"],"city":"Dallas","state":"TX","postalCode":"75266-0044","country":"USA"}]},"request":{"method":"PUT","url":"Organization/33ead57e-5e04-40e4-95ea-bc3cdbd58917"}},{"fullUrl":"https://madie.cms.gov/Practitioner/practitioner-123456","resource":{"resourceType":"Practitioner","id":"b2366883-eb4c-4a54-9af5-5eeac6884206","meta":{"profile":["http://hl7.org/fhir/us/qicore/StructureDefinition/qicore-practitioner"]},"identifier":[{"system":"http://hl7.org/fhir/sid/us-npi","value":"123456"}],"name":[{"family":"Evil","prefix":["Dr"]}]},"request":{"method":"PUT","url":"Practitioner/b2366883-eb4c-4a54-9af5-5eeac6884206"}},{"fullUrl":"https://madie.cms.gov/MeasureReport/9e972d16-b4f6-4625-9f28-c926ee1126d8","resource":{"resourceType":"MeasureReport","id":"9e972d16-b4f6-4625-9f28-c926ee1126d8","meta":{"profile":["http://hl7.org/fhir/us/cqfmeasures/StructureDefinition/test-case-cqfm"]},"contained":[{"resourceType":"Parameters","id":"9d5fda4b-5686-4ea6-8446-280fd247e8e2-parameters","parameter":[{"name":"subject","valueString":"719a6ae4-ac86-406f-a762-380383e4a74d"}]}],"extension":[{"url":"http://hl7.org/fhir/us/cqfmeasures/StructureDefinition/cqfm-inputParameters","valueReference":{"reference":"#9d5fda4b-5686-4ea6-8446-280fd247e8e2-parameters"}},{"url":"http://hl7.org/fhir/us/cqfmeasures/StructureDefinition/cqfm-testCaseDescription","valueMarkdown":"Patient with cancer diagnosis overlaps multiple office visits during measurement period. Multiple chemotherapy administrations prior and after office visits. Pain intensity assessment was performed during 1 office visit."}],"modifierExtension":[{"url":"http://hl7.org/fhir/us/cqfmeasures/StructureDefinition/cqfm-isTestCase","valueBoolean":true}],"status":"complete","type":"individual","measure":"https://madie.cms.gov/Measure/OncologyPainIntensityQuantifiedFHIR","period":{"start":"2025-01-01","end":"2025-12-31"},"group":[{"population":[{"code":{"coding":[{"system":"http://terminology.hl7.org/CodeSystem/measure-population","code":"initial-population","display":"Initial Population"}]},"count":2},{"code":{"coding":[{"system":"http://terminology.hl7.org/CodeSystem/measure-population","code":"denominator","display":"Denominator"}]},"count":2},{"code":{"coding":[{"system":"http://terminology.hl7.org/CodeSystem/measure-population","code":"numerator","display":"Numerator"}]},"count":1}]},{"population":[{"code":{"coding":[{"system":"http://terminology.hl7.org/CodeSystem/measure-population","code":"initial-population","display":"Initial Population"}]},"count":0},{"code":{"coding":[{"system":"http://terminology.hl7.org/CodeSystem/measure-population","code":"denominator","display":"Denominator"}]},"count":0},{"code":{"coding":[{"system":"http://terminology.hl7.org/CodeSystem/measure-population","code":"numerator","display":"Numerator"}]},"count":0}]}]},"request":{"method":"PUT","url":"MeasureReport/9e972d16-b4f6-4625-9f28-c926ee1126d8"}}]}