{"resourceType":"Bundle","id":"tests-99b8fe18-bd93-4c05-ad65-028460e98398-bundle","type":"transaction","entry":[{"fullUrl":"https://madie.cms.gov/Patient/99b8fe18-bd93-4c05-ad65-028460e98398","resource":{"resourceType":"Patient","id":"99b8fe18-bd93-4c05-ad65-028460e98398","meta":{"profile":["http://hl7.org/fhir/us/qicore/StructureDefinition/qicore-patient"]},"text":{"status":"generated","div":"<div xmlns=\"http://www.w3.org/1999/xhtml\"><div class=\"hapiHeaderText\">PainAssessSameDayF2FAndRadTx<b>NUMERPassPop2</b></div><table class=\"hapiPropertyTable\"><tbody><tr><td>Identifier</td><td>5bf13d9f68257ca8bfe6d3b34a3d7b01</td></tr><tr><td>Date of birth</td><td><span>25 April 1930</span></td></tr></tbody></table></div>"},"extension":[{"url":"http://hl7.org/fhir/us/core/StructureDefinition/us-core-race","extension":[{"url":"ombCategory","valueCoding":{"system":"urn:oid:2.16.840.1.113883.6.238","code":"1002-5","display":"American Indian or Alaska Native","userSelected":true}},{"url":"text","valueString":"American Indian or Alaska Native"}]},{"url":"http://hl7.org/fhir/us/core/StructureDefinition/us-core-ethnicity","extension":[{"url":"ombCategory","valueCoding":{"system":"urn:oid:2.16.840.1.113883.6.238","code":"2135-2","display":"Hispanic or Latino","userSelected":true}},{"url":"text","valueString":"Hispanic or Latino"}]}],"identifier":[{"type":{"coding":[{"system":"http://terminology.hl7.org/CodeSystem/v2-0203","code":"MR"}]},"system":"https://bonnie-fhir.healthit.gov/","value":"62c880ec0111a60120dc21f8"}],"active":true,"name":[{"use":"usual","family":"NUMERPassPop2","given":["PainAssessSameDayF2FAndRadTx"]}],"gender":"male","birthDate":"1930-04-25"},"request":{"method":"PUT","url":"Patient/99b8fe18-bd93-4c05-ad65-028460e98398"}},{"fullUrl":"https://madie.cms.gov/Observation/5ca5260ab8484613a555a951","resource":{"resourceType":"Observation","id":"ad927182-069f-4974-9750-a6bf64d7d509","meta":{"profile":["http://hl7.org/fhir/us/qicore/StructureDefinition/qicore-observation"]},"status":"final","category":[{"coding":[{"system":"http://terminology.hl7.org/CodeSystem/observation-category","code":"survey","display":"Survey"}],"text":"Survey"}],"code":{"coding":[{"system":"http://loinc.org","code":"38208-5"}]},"subject":{"reference":"Patient/99b8fe18-bd93-4c05-ad65-028460e98398"},"effectiveDateTime":"2025-05-06T12:45:00.000+00:00","valueInteger":6},"request":{"method":"PUT","url":"Observation/ad927182-069f-4974-9750-a6bf64d7d509"}},{"fullUrl":"https://madie.cms.gov/Condition/5ca5260ab8484613a555a94e","resource":{"resourceType":"Condition","id":"04c179d4-8b37-4bed-83f4-1ed3799c3618","meta":{"profile":["http://hl7.org/fhir/us/qicore/StructureDefinition/qicore-condition"]},"clinicalStatus":{"coding":[{"system":"http://terminology.hl7.org/CodeSystem/condition-clinical","code":"active","display":"active","userSelected":true}]},"verificationStatus":{"coding":[{"system":"http://terminology.hl7.org/CodeSystem/condition-ver-status","code":"confirmed","display":"Confirmed"}]},"category":[{"coding":[{"system":"http://terminology.hl7.org/CodeSystem/condition-category","code":"problem-list-item","display":"Problem List Item"}]}],"code":{"coding":[{"system":"http://snomed.info/sct","code":"107691000119101"}]},"subject":{"reference":"Patient/99b8fe18-bd93-4c05-ad65-028460e98398"},"onsetDateTime":"2021-05-06T12:45:00.000Z"},"request":{"method":"PUT","url":"Condition/04c179d4-8b37-4bed-83f4-1ed3799c3618"}},{"fullUrl":"https://madie.cms.gov/Coverage/60099ac81c76ba64612b065e","resource":{"resourceType":"Coverage","id":"ccef8e2e-c1f7-41db-ac84-be74c9b37510","meta":{"profile":["http://hl7.org/fhir/us/qicore/StructureDefinition/qicore-coverage"]},"status":"active","beneficiary":{"reference":"Patient/99b8fe18-bd93-4c05-ad65-028460e98398"},"period":{"start":"1930-04-25T08:00:00.000Z"},"payor":[{"reference":"Organization/9e9b3f13-a353-4173-b29b-947d6f1f2031"}]},"request":{"method":"PUT","url":"Coverage/ccef8e2e-c1f7-41db-ac84-be74c9b37510"}},{"fullUrl":"https://madie.cms.gov/Encounter/radiation-treatment-management-7c18","resource":{"resourceType":"Encounter","id":"ab6928b2-f158-4c0d-8de9-5a44c3519945","meta":{"profile":["http://hl7.org/fhir/us/qicore/StructureDefinition/qicore-encounter"]},"status":"finished","class":{"system":"http://terminology.hl7.org/CodeSystem/v3-ActCode","code":"AMB","display":"ambulatory","userSelected":true},"type":[{"coding":[{"system":"http://www.ama-assn.org/go/cpt","version":"2023","code":"77427","display":"Radiation treatment management, 5 treatments","userSelected":true}]}],"subject":{"reference":"Patient/99b8fe18-bd93-4c05-ad65-028460e98398"},"period":{"start":"2025-05-06T08:00:00.000+00:00","end":"2025-05-06T08:15:00.000+00:00"}},"request":{"method":"PUT","url":"Encounter/ab6928b2-f158-4c0d-8de9-5a44c3519945"}},{"fullUrl":"https://madie.cms.gov/Encounter/OfficeVisit-7c18","resource":{"resourceType":"Encounter","id":"26304721-14d9-45e7-9d7b-02faf5a789dd","meta":{"profile":["http://hl7.org/fhir/us/qicore/StructureDefinition/qicore-encounter"]},"status":"finished","class":{"system":"http://terminology.hl7.org/CodeSystem/v3-ActCode","code":"AMB","display":"ambulatory","userSelected":true},"type":[{"coding":[{"system":"http://www.ama-assn.org/go/cpt","version":"2023","code":"99204","userSelected":true}]}],"subject":{"reference":"Patient/99b8fe18-bd93-4c05-ad65-028460e98398"},"period":{"start":"2025-05-06T12:45:00.000+00:00","end":"2025-05-06T13:00:00.000+00:00"}},"request":{"method":"PUT","url":"Encounter/26304721-14d9-45e7-9d7b-02faf5a789dd"}},{"fullUrl":"https://madie.cms.gov/Encounter/OfficeVisit-7c19","resource":{"resourceType":"Encounter","id":"1f5a4026-73ca-4cd9-b82a-389b94940cb8","meta":{"profile":["http://hl7.org/fhir/us/qicore/StructureDefinition/qicore-encounter"]},"status":"finished","class":{"system":"http://terminology.hl7.org/CodeSystem/v3-ActCode","code":"AMB","display":"ambulatory","userSelected":true},"type":[{"coding":[{"system":"http://www.ama-assn.org/go/cpt","version":"2023","code":"99204","userSelected":true}]}],"subject":{"reference":"Patient/99b8fe18-bd93-4c05-ad65-028460e98398"},"period":{"start":"2025-07-06T12:45:00.000+00:00","end":"2025-07-06T13:00:00.000+00:00"}},"request":{"method":"PUT","url":"Encounter/1f5a4026-73ca-4cd9-b82a-389b94940cb8"}},{"fullUrl":"https://madie.cms.gov/Organization/123456","resource":{"resourceType":"Organization","id":"9e9b3f13-a353-4173-b29b-947d6f1f2031","meta":{"profile":["http://hl7.org/fhir/us/qicore/StructureDefinition/qicore-organization"]},"identifier":[{"use":"temp","system":"urn:oid:2.16.840.1.113883.4.4","value":"21-3259825"}],"active":true,"type":[{"coding":[{"system":"http://terminology.hl7.org/CodeSystem/organization-type","code":"pay","display":"Payer"}]}],"name":"Blue Cross Blue Shield of Texas","telecom":[{"system":"phone","value":"(+1) 972-766-6900"}],"address":[{"use":"billing","type":"postal","line":["P.O. Box 660044"],"city":"Dallas","state":"TX","postalCode":"75266-0044","country":"USA"}]},"request":{"method":"PUT","url":"Organization/9e9b3f13-a353-4173-b29b-947d6f1f2031"}},{"fullUrl":"https://madie.cms.gov/Practitioner/practitioner-123456","resource":{"resourceType":"Practitioner","id":"9e728808-f361-47c0-ab47-3dd4e5914bb4","meta":{"profile":["http://hl7.org/fhir/us/qicore/StructureDefinition/qicore-practitioner"]},"identifier":[{"system":"http://hl7.org/fhir/sid/us-npi","value":"123456"}],"name":[{"family":"Evil","prefix":["Dr"]}]},"request":{"method":"PUT","url":"Practitioner/9e728808-f361-47c0-ab47-3dd4e5914bb4"}},{"fullUrl":"https://madie.cms.gov/MeasureReport/1bef7d6b-aab3-4b82-a903-34f382a8c928","resource":{"resourceType":"MeasureReport","id":"1bef7d6b-aab3-4b82-a903-34f382a8c928","meta":{"profile":["http://hl7.org/fhir/us/cqfmeasures/StructureDefinition/test-case-cqfm"]},"contained":[{"resourceType":"Parameters","id":"18dbe0bf-83f2-40fd-90b8-42f71ef2a4b7-parameters","parameter":[{"name":"subject","valueString":"99b8fe18-bd93-4c05-ad65-028460e98398"}]}],"extension":[{"url":"http://hl7.org/fhir/us/cqfmeasures/StructureDefinition/cqfm-inputParameters","valueReference":{"reference":"#18dbe0bf-83f2-40fd-90b8-42f71ef2a4b7-parameters"}},{"url":"http://hl7.org/fhir/us/cqfmeasures/StructureDefinition/cqfm-testCaseDescription","valueMarkdown":"Patient with cancer diagnosis that overlaps radiation treatment management during measurement period. Pain intensity assessment was performed same day as face-to-face encounter and radiation treatment management encounter.\n"}],"modifierExtension":[{"url":"http://hl7.org/fhir/us/cqfmeasures/StructureDefinition/cqfm-isTestCase","valueBoolean":true}],"status":"complete","type":"individual","measure":"https://madie.cms.gov/Measure/OncologyPainIntensityQuantifiedFHIR","period":{"start":"2025-01-01","end":"2025-12-31"},"group":[{"population":[{"code":{"coding":[{"system":"http://terminology.hl7.org/CodeSystem/measure-population","code":"initial-population","display":"Initial Population"}]},"count":0},{"code":{"coding":[{"system":"http://terminology.hl7.org/CodeSystem/measure-population","code":"denominator","display":"Denominator"}]},"count":0},{"code":{"coding":[{"system":"http://terminology.hl7.org/CodeSystem/measure-population","code":"numerator","display":"Numerator"}]},"count":0}]},{"population":[{"code":{"coding":[{"system":"http://terminology.hl7.org/CodeSystem/measure-population","code":"initial-population","display":"Initial Population"}]},"count":1},{"code":{"coding":[{"system":"http://terminology.hl7.org/CodeSystem/measure-population","code":"denominator","display":"Denominator"}]},"count":1},{"code":{"coding":[{"system":"http://terminology.hl7.org/CodeSystem/measure-population","code":"numerator","display":"Numerator"}]},"count":1}]}]},"request":{"method":"PUT","url":"MeasureReport/1bef7d6b-aab3-4b82-a903-34f382a8c928"}}]}