{"resourceType":"Bundle","id":"tests-c97c9ecf-6c31-4868-bbd3-7a5509bb3882-bundle","type":"transaction","entry":[{"fullUrl":"https://madie.cms.gov/Patient/c97c9ecf-6c31-4868-bbd3-7a5509bb3882","resource":{"resourceType":"Patient","id":"c97c9ecf-6c31-4868-bbd3-7a5509bb3882","meta":{"profile":["http://hl7.org/fhir/us/qicore/StructureDefinition/qicore-patient"]},"text":{"status":"generated","div":"<div xmlns=\"http://www.w3.org/1999/xhtml\"><div class=\"hapiHeaderText\">ChemoWithin30DaysPriorAndAfterEnc<b>IPPPassPop1</b></div><table class=\"hapiPropertyTable\"><tbody><tr><td>Identifier</td><td>d5fa107024042175d86d813d9f3278123f01630b11769a6127ee8a990f85bdc2</td></tr><tr><td>Date of birth</td><td><span>19 October 1961</span></td></tr></tbody></table></div>"},"extension":[{"url":"http://hl7.org/fhir/us/core/StructureDefinition/us-core-race","extension":[{"url":"ombCategory","valueCoding":{"system":"urn:oid:2.16.840.1.113883.6.238","code":"1002-5","display":"American Indian or Alaska Native","userSelected":true}},{"url":"text","valueString":"American Indian or Alaska Native"}]},{"url":"http://hl7.org/fhir/us/core/StructureDefinition/us-core-ethnicity","extension":[{"url":"ombCategory","valueCoding":{"system":"urn:oid:2.16.840.1.113883.6.238","code":"2135-2","display":"Hispanic or Latino","userSelected":true}},{"url":"text","valueString":"Hispanic or Latino"}]}],"identifier":[{"type":{"coding":[{"system":"http://terminology.hl7.org/CodeSystem/v2-0203","code":"MR"}]},"system":"https://bonnie-fhir.healthit.gov/","value":"62c880ec0111a60120dc2212"}],"active":true,"name":[{"use":"usual","family":"IPPPassPop1","given":["ChemoWithin30DaysPriorAndAfterEnc"]}],"gender":"female","birthDate":"1961-10-19"},"request":{"method":"PUT","url":"Patient/c97c9ecf-6c31-4868-bbd3-7a5509bb3882"}},{"fullUrl":"https://madie.cms.gov/Condition/5ca5260db8484613a555a992","resource":{"resourceType":"Condition","id":"bf60d811-2ceb-4678-a504-fb5b04e99955","meta":{"profile":["http://hl7.org/fhir/us/qicore/StructureDefinition/qicore-condition"]},"clinicalStatus":{"coding":[{"system":"http://terminology.hl7.org/CodeSystem/condition-clinical","code":"active","display":"active","userSelected":true}]},"verificationStatus":{"coding":[{"system":"http://terminology.hl7.org/CodeSystem/condition-ver-status","code":"confirmed","display":"Confirmed"}]},"category":[{"coding":[{"system":"http://terminology.hl7.org/CodeSystem/condition-category","code":"encounter-diagnosis","display":"Encounter Diagnosis"},{"system":"http://terminology.hl7.org/CodeSystem/condition-category","code":"problem-list-item","display":"Problem List Item"}]}],"code":{"coding":[{"system":"http://snomed.info/sct","code":"80914001"}]},"subject":{"reference":"Patient/c97c9ecf-6c31-4868-bbd3-7a5509bb3882"},"onsetDateTime":"2009-01-11T10:00:00.000Z"},"request":{"method":"PUT","url":"Condition/bf60d811-2ceb-4678-a504-fb5b04e99955"}},{"fullUrl":"https://madie.cms.gov/Encounter/5ca5260db8484613a555a993","resource":{"resourceType":"Encounter","id":"50b5c01e-f757-4604-bd23-8baed5000dd6","meta":{"profile":["http://hl7.org/fhir/us/qicore/StructureDefinition/qicore-encounter"]},"status":"finished","class":{"system":"http://terminology.hl7.org/CodeSystem/v3-ActCode","code":"AMB","display":"ambulatory","userSelected":true},"type":[{"coding":[{"system":"http://snomed.info/sct","code":"185463005"}]}],"subject":{"reference":"Patient/c97c9ecf-6c31-4868-bbd3-7a5509bb3882"},"period":{"start":"2025-02-15T13:00:00.000Z","end":"2025-02-15T14:00:00.000Z"}},"request":{"method":"PUT","url":"Encounter/50b5c01e-f757-4604-bd23-8baed5000dd6"}},{"fullUrl":"https://madie.cms.gov/Coverage/60099aca1c76ba64612b068b","resource":{"resourceType":"Coverage","id":"bf7354b0-fedd-4552-a6e1-78383f080d86","meta":{"profile":["http://hl7.org/fhir/us/qicore/StructureDefinition/qicore-coverage"]},"status":"active","beneficiary":{"reference":"Patient/c97c9ecf-6c31-4868-bbd3-7a5509bb3882"},"period":{"start":"1961-10-19T08:00:00.000Z"},"payor":[{"reference":"Organization/607fdef9-3983-4cef-ab1a-95434d29b463"}]},"request":{"method":"PUT","url":"Coverage/bf7354b0-fedd-4552-a6e1-78383f080d86"}},{"fullUrl":"https://madie.cms.gov/Procedure/5ca5260db8484613a555a994","resource":{"resourceType":"Procedure","id":"3af4d1b3-fa5a-461e-8a34-9b98a193619c","meta":{"profile":["http://hl7.org/fhir/us/qicore/StructureDefinition/qicore-procedure"]},"extension":[{"url":"http://hl7.org/fhir/us/qicore/StructureDefinition/qicore-recorded","valueDateTime":"2025-01-19T12:35:00.000Z"}],"status":"completed","code":{"coding":[{"system":"http://snomed.info/sct","code":"169396008"}]},"subject":{"reference":"Patient/c97c9ecf-6c31-4868-bbd3-7a5509bb3882"},"performedPeriod":{"start":"2025-01-19T08:00:00.000Z","end":"2025-01-19T08:15:00.000Z"}},"request":{"method":"PUT","url":"Procedure/3af4d1b3-fa5a-461e-8a34-9b98a193619c"}},{"fullUrl":"https://madie.cms.gov/Procedure/5ca5260db8484613a555a996","resource":{"resourceType":"Procedure","id":"a01ec1c9-6b5a-42ae-9658-11a14bf14b98","meta":{"profile":["http://hl7.org/fhir/us/qicore/StructureDefinition/qicore-procedure"]},"extension":[{"url":"http://hl7.org/fhir/us/qicore/StructureDefinition/qicore-recorded","valueDateTime":"2025-03-14T14:35:00.000Z"}],"status":"completed","code":{"coding":[{"system":"http://snomed.info/sct","code":"169396008"}]},"subject":{"reference":"Patient/c97c9ecf-6c31-4868-bbd3-7a5509bb3882"},"performedPeriod":{"start":"2025-03-14T13:00:00.000Z","end":"2025-03-14T14:00:00.000Z"}},"request":{"method":"PUT","url":"Procedure/a01ec1c9-6b5a-42ae-9658-11a14bf14b98"}},{"fullUrl":"https://madie.cms.gov/Organization/123456","resource":{"resourceType":"Organization","id":"607fdef9-3983-4cef-ab1a-95434d29b463","meta":{"profile":["http://hl7.org/fhir/us/qicore/StructureDefinition/qicore-organization"]},"identifier":[{"use":"temp","system":"urn:oid:2.16.840.1.113883.4.4","value":"21-3259825"}],"active":true,"type":[{"coding":[{"system":"http://terminology.hl7.org/CodeSystem/organization-type","code":"pay","display":"Payer"}]}],"name":"Blue Cross Blue Shield of Texas","telecom":[{"system":"phone","value":"(+1) 972-766-6900"}],"address":[{"use":"billing","type":"postal","line":["P.O. Box 660044"],"city":"Dallas","state":"TX","postalCode":"75266-0044","country":"USA"}]},"request":{"method":"PUT","url":"Organization/607fdef9-3983-4cef-ab1a-95434d29b463"}},{"fullUrl":"https://madie.cms.gov/Practitioner/practitioner-123456","resource":{"resourceType":"Practitioner","id":"9dae7993-921a-4bc4-a23c-96d9f52af5b6","meta":{"profile":["http://hl7.org/fhir/us/qicore/StructureDefinition/qicore-practitioner"]},"identifier":[{"system":"http://hl7.org/fhir/sid/us-npi","value":"123456"}],"name":[{"family":"Evil","prefix":["Dr"]}]},"request":{"method":"PUT","url":"Practitioner/9dae7993-921a-4bc4-a23c-96d9f52af5b6"}},{"fullUrl":"https://madie.cms.gov/MeasureReport/c0acfcaf-6b2f-49fd-add4-ee1e59a919c3","resource":{"resourceType":"MeasureReport","id":"c0acfcaf-6b2f-49fd-add4-ee1e59a919c3","meta":{"profile":["http://hl7.org/fhir/us/cqfmeasures/StructureDefinition/test-case-cqfm"]},"contained":[{"resourceType":"Parameters","id":"0c04971d-b28e-4745-82f1-c819f93453a6-parameters","parameter":[{"name":"subject","valueString":"c97c9ecf-6c31-4868-bbd3-7a5509bb3882"}]}],"extension":[{"url":"http://hl7.org/fhir/us/cqfmeasures/StructureDefinition/cqfm-inputParameters","valueReference":{"reference":"#0c04971d-b28e-4745-82f1-c819f93453a6-parameters"}},{"url":"http://hl7.org/fhir/us/cqfmeasures/StructureDefinition/cqfm-testCaseDescription","valueMarkdown":"Patient with cancer diagnosis that overlaps the office visit during measurement period. Chemotherapy received less than 30 days before office visit and another within 30 days after the office visit. \n"}],"modifierExtension":[{"url":"http://hl7.org/fhir/us/cqfmeasures/StructureDefinition/cqfm-isTestCase","valueBoolean":true}],"status":"complete","type":"individual","measure":"https://madie.cms.gov/Measure/OncologyPainIntensityQuantifiedFHIR","period":{"start":"2025-01-01","end":"2025-12-31"},"group":[{"population":[{"code":{"coding":[{"system":"http://terminology.hl7.org/CodeSystem/measure-population","code":"initial-population","display":"Initial Population"}]},"count":1},{"code":{"coding":[{"system":"http://terminology.hl7.org/CodeSystem/measure-population","code":"denominator","display":"Denominator"}]},"count":1},{"code":{"coding":[{"system":"http://terminology.hl7.org/CodeSystem/measure-population","code":"numerator","display":"Numerator"}]},"count":0}]},{"population":[{"code":{"coding":[{"system":"http://terminology.hl7.org/CodeSystem/measure-population","code":"initial-population","display":"Initial Population"}]},"count":0},{"code":{"coding":[{"system":"http://terminology.hl7.org/CodeSystem/measure-population","code":"denominator","display":"Denominator"}]},"count":0},{"code":{"coding":[{"system":"http://terminology.hl7.org/CodeSystem/measure-population","code":"numerator","display":"Numerator"}]},"count":0}]}]},"request":{"method":"PUT","url":"MeasureReport/c0acfcaf-6b2f-49fd-add4-ee1e59a919c3"}}]}