{"resourceType":"Bundle","id":"tests-4bf7c1f5-8c25-4cd9-9ca8-d67e9f1283cb-bundle","type":"transaction","entry":[{"fullUrl":"https://madie.cms.gov/Patient/4bf7c1f5-8c25-4cd9-9ca8-d67e9f1283cb","resource":{"resourceType":"Patient","id":"4bf7c1f5-8c25-4cd9-9ca8-d67e9f1283cb","meta":{"profile":["http://hl7.org/fhir/us/qicore/StructureDefinition/qicore-patient"]},"text":{"status":"generated","div":"<div xmlns=\"http://www.w3.org/1999/xhtml\"><div class=\"hapiHeaderText\">OneChemoAdministered<b>IPPFailPop1</b></div><table class=\"hapiPropertyTable\"><tbody><tr><td>Identifier</td><td>4206cb6373f43f924a14fc3f870f2e65432862568ee58c4ad128c68855defc5c</td></tr><tr><td>Date of birth</td><td><span>13 May 1937</span></td></tr></tbody></table></div>"},"extension":[{"url":"http://hl7.org/fhir/us/core/StructureDefinition/us-core-race","extension":[{"url":"ombCategory","valueCoding":{"system":"urn:oid:2.16.840.1.113883.6.238","code":"1002-5","display":"American Indian or Alaska Native","userSelected":true}},{"url":"text","valueString":"American Indian or Alaska Native"}]},{"url":"http://hl7.org/fhir/us/core/StructureDefinition/us-core-ethnicity","extension":[{"url":"ombCategory","valueCoding":{"system":"urn:oid:2.16.840.1.113883.6.238","code":"2135-2","display":"Hispanic or Latino","userSelected":true}},{"url":"text","valueString":"Hispanic or Latino"}]}],"identifier":[{"type":{"coding":[{"system":"http://terminology.hl7.org/CodeSystem/v2-0203","code":"MR"}]},"system":"https://bonnie-fhir.healthit.gov/","value":"62c880ec0111a60120dc2206"}],"active":true,"name":[{"use":"usual","family":"IPPFailPop1","given":["OneChemoAdministered"]}],"gender":"female","birthDate":"1937-05-13"},"request":{"method":"PUT","url":"Patient/4bf7c1f5-8c25-4cd9-9ca8-d67e9f1283cb"}},{"fullUrl":"https://madie.cms.gov/Condition/5ca5260cb8484613a555a987","resource":{"resourceType":"Condition","id":"558c85dc-b3dc-496d-aa9b-de2e5c6bd407","meta":{"profile":["http://hl7.org/fhir/us/qicore/StructureDefinition/qicore-condition"]},"clinicalStatus":{"coding":[{"system":"http://terminology.hl7.org/CodeSystem/condition-clinical","code":"active","display":"active"}]},"verificationStatus":{"coding":[{"system":"http://terminology.hl7.org/CodeSystem/condition-ver-status","code":"confirmed","display":"Confirmed"}]},"category":[{"coding":[{"system":"http://terminology.hl7.org/CodeSystem/condition-category","code":"problem-list-item","display":"Problem List Item"}]}],"code":{"coding":[{"system":"http://snomed.info/sct","version":"2022-09","code":"80914001"}]},"subject":{"reference":"Patient/4bf7c1f5-8c25-4cd9-9ca8-d67e9f1283cb"},"onsetDateTime":"2023-05-01T13:30:00.000Z"},"request":{"method":"PUT","url":"Condition/558c85dc-b3dc-496d-aa9b-de2e5c6bd407"}},{"fullUrl":"https://madie.cms.gov/Encounter/5ca5260cb8484613a555a988","resource":{"resourceType":"Encounter","id":"8bef85cd-8f5b-40b2-aa30-4428b8b1afb7","meta":{"profile":["http://hl7.org/fhir/us/qicore/StructureDefinition/qicore-encounter"]},"status":"finished","class":{"system":"http://terminology.hl7.org/CodeSystem/v3-ActCode","code":"AMB","display":"ambulatory","userSelected":true},"type":[{"coding":[{"system":"http://www.ama-assn.org/go/cpt","code":"99205"}]}],"subject":{"reference":"Patient/4bf7c1f5-8c25-4cd9-9ca8-d67e9f1283cb"},"period":{"start":"2025-01-01T14:00:00.000Z","end":"2025-01-01T15:00:00.000Z"}},"request":{"method":"PUT","url":"Encounter/8bef85cd-8f5b-40b2-aa30-4428b8b1afb7"}},{"fullUrl":"https://madie.cms.gov/Coverage/60099ac91c76ba64612b066d","resource":{"resourceType":"Coverage","id":"76e6d776-cb13-47b4-b1fd-74bf133d675c","meta":{"profile":["http://hl7.org/fhir/us/qicore/StructureDefinition/qicore-coverage"]},"status":"active","beneficiary":{"reference":"Patient/4bf7c1f5-8c25-4cd9-9ca8-d67e9f1283cb"},"period":{"start":"1937-05-13T08:00:00.000Z"},"payor":[{"reference":"Organization/41c75c00-82d9-4ab2-98f6-cfaf7fc3381d"}]},"request":{"method":"PUT","url":"Coverage/76e6d776-cb13-47b4-b1fd-74bf133d675c"}},{"fullUrl":"https://madie.cms.gov/Procedure/5ca5260cb8484613a555a989","resource":{"resourceType":"Procedure","id":"3f0eb0d8-7911-46fc-86cc-13bee0b74f1d","meta":{"profile":["http://hl7.org/fhir/us/qicore/StructureDefinition/qicore-procedure"]},"extension":[{"url":"http://hl7.org/fhir/us/qicore/StructureDefinition/qicore-recorded","valueDateTime":"2023-12-02T08:35:00.000Z"}],"status":"completed","code":{"coding":[{"system":"http://snomed.info/sct","code":"169396008"}]},"subject":{"reference":"Patient/4bf7c1f5-8c25-4cd9-9ca8-d67e9f1283cb"},"performedPeriod":{"start":"2023-12-02T08:00:00.000Z","end":"2023-12-02T08:15:00.000Z"}},"request":{"method":"PUT","url":"Procedure/3f0eb0d8-7911-46fc-86cc-13bee0b74f1d"}},{"fullUrl":"https://madie.cms.gov/Organization/123456","resource":{"resourceType":"Organization","id":"41c75c00-82d9-4ab2-98f6-cfaf7fc3381d","meta":{"profile":["http://hl7.org/fhir/us/qicore/StructureDefinition/qicore-organization"]},"identifier":[{"use":"temp","system":"urn:oid:2.16.840.1.113883.4.4","value":"21-3259825"}],"active":true,"type":[{"coding":[{"system":"http://terminology.hl7.org/CodeSystem/organization-type","code":"pay","display":"Payer"}]}],"name":"Blue Cross Blue Shield of Texas","telecom":[{"system":"phone","value":"(+1) 972-766-6900"}],"address":[{"use":"billing","type":"postal","line":["P.O. Box 660044"],"city":"Dallas","state":"TX","postalCode":"75266-0044","country":"USA"}]},"request":{"method":"PUT","url":"Organization/41c75c00-82d9-4ab2-98f6-cfaf7fc3381d"}},{"fullUrl":"https://madie.cms.gov/Practitioner/practitioner-123456","resource":{"resourceType":"Practitioner","id":"47fabdbc-a303-44f2-8886-969e5d1234d6","meta":{"profile":["http://hl7.org/fhir/us/qicore/StructureDefinition/qicore-practitioner"]},"identifier":[{"system":"http://hl7.org/fhir/sid/us-npi","value":"123456"}],"name":[{"family":"Evil","prefix":["Dr"]}]},"request":{"method":"PUT","url":"Practitioner/47fabdbc-a303-44f2-8886-969e5d1234d6"}},{"fullUrl":"https://madie.cms.gov/MeasureReport/0f249c41-4cf4-41bf-886b-68d3b215e497","resource":{"resourceType":"MeasureReport","id":"0f249c41-4cf4-41bf-886b-68d3b215e497","meta":{"profile":["http://hl7.org/fhir/us/cqfmeasures/StructureDefinition/test-case-cqfm"]},"contained":[{"resourceType":"Parameters","id":"4802f221-8cf5-4001-8aaf-3c99b51b149e-parameters","parameter":[{"name":"subject","valueString":"4bf7c1f5-8c25-4cd9-9ca8-d67e9f1283cb"}]}],"extension":[{"url":"http://hl7.org/fhir/us/cqfmeasures/StructureDefinition/cqfm-inputParameters","valueReference":{"reference":"#4802f221-8cf5-4001-8aaf-3c99b51b149e-parameters"}},{"url":"http://hl7.org/fhir/us/cqfmeasures/StructureDefinition/cqfm-testCaseDescription","valueMarkdown":"Patient with cancer diagnosis that overlaps the office visit during measurement period, received one administration of chemotherapy. \n"}],"modifierExtension":[{"url":"http://hl7.org/fhir/us/cqfmeasures/StructureDefinition/cqfm-isTestCase","valueBoolean":true}],"status":"complete","type":"individual","measure":"https://madie.cms.gov/Measure/OncologyPainIntensityQuantifiedFHIR","period":{"start":"2025-01-01","end":"2025-12-31"},"group":[{"population":[{"code":{"coding":[{"system":"http://terminology.hl7.org/CodeSystem/measure-population","code":"initial-population","display":"Initial Population"}]},"count":0},{"code":{"coding":[{"system":"http://terminology.hl7.org/CodeSystem/measure-population","code":"denominator","display":"Denominator"}]},"count":0},{"code":{"coding":[{"system":"http://terminology.hl7.org/CodeSystem/measure-population","code":"numerator","display":"Numerator"}]},"count":0}]},{"population":[{"code":{"coding":[{"system":"http://terminology.hl7.org/CodeSystem/measure-population","code":"initial-population","display":"Initial Population"}]},"count":0},{"code":{"coding":[{"system":"http://terminology.hl7.org/CodeSystem/measure-population","code":"denominator","display":"Denominator"}]},"count":0},{"code":{"coding":[{"system":"http://terminology.hl7.org/CodeSystem/measure-population","code":"numerator","display":"Numerator"}]},"count":0}]}]},"request":{"method":"PUT","url":"MeasureReport/0f249c41-4cf4-41bf-886b-68d3b215e497"}}]}