{"resourceType":"Bundle","id":"tests-ae0726cf-ea31-4527-95b4-ed5da7b381bf-bundle","type":"transaction","entry":[{"fullUrl":"https://madie.cms.gov/Patient/ae0726cf-ea31-4527-95b4-ed5da7b381bf","resource":{"resourceType":"Patient","id":"ae0726cf-ea31-4527-95b4-ed5da7b381bf","meta":{"profile":["http://hl7.org/fhir/us/qicore/StructureDefinition/qicore-patient"]},"text":{"status":"generated","div":"<div xmlns=\"http://www.w3.org/1999/xhtml\"><div class=\"hapiHeaderText\">ChemoSameDayAsAnd1DayAfterEnc<b>IPPPassPOP1</b></div><table class=\"hapiPropertyTable\"><tbody><tr><td>Identifier</td><td>60e349100edd633ca8f54b90369c7513</td></tr><tr><td>Date of birth</td><td><span>13 May 1937</span></td></tr></tbody></table></div>"},"extension":[{"url":"http://hl7.org/fhir/us/core/StructureDefinition/us-core-race","extension":[{"url":"ombCategory","valueCoding":{"system":"urn:oid:2.16.840.1.113883.6.238","code":"2028-9","display":"Asian","userSelected":true}},{"url":"text","valueString":"Asian"}]},{"url":"http://hl7.org/fhir/us/core/StructureDefinition/us-core-ethnicity","extension":[{"url":"ombCategory","valueCoding":{"system":"urn:oid:2.16.840.1.113883.6.238","code":"2186-5","display":"Not Hispanic or Latino","userSelected":true}},{"url":"text","valueString":"Not Hispanic or Latino"}]}],"identifier":[{"type":{"coding":[{"system":"http://terminology.hl7.org/CodeSystem/v2-0203","code":"MR"}]},"system":"https://bonnie-fhir.healthit.gov/","value":"62c880ec0111a60120dc21f9"}],"active":true,"name":[{"use":"usual","family":"IPPPassPop1","given":["ChemoSameDayAsAnd1DayAfterEnc"]}],"gender":"female","birthDate":"1937-05-13"},"request":{"method":"PUT","url":"Patient/ae0726cf-ea31-4527-95b4-ed5da7b381bf"}},{"fullUrl":"https://madie.cms.gov/Condition/5ca52605b8484613a555a8fc","resource":{"resourceType":"Condition","id":"f2cd0bad-3f92-4d27-a785-137c7def4bcf","meta":{"profile":["http://hl7.org/fhir/us/qicore/StructureDefinition/qicore-condition"]},"clinicalStatus":{"coding":[{"system":"http://terminology.hl7.org/CodeSystem/condition-clinical","code":"active","display":"Active"}]},"verificationStatus":{"coding":[{"system":"http://terminology.hl7.org/CodeSystem/condition-ver-status","code":"confirmed","display":"Confirmed"}]},"category":[{"coding":[{"system":"http://terminology.hl7.org/CodeSystem/condition-category","code":"encounter-diagnosis","display":"Encounter Diagnosis"},{"system":"http://terminology.hl7.org/CodeSystem/condition-category","code":"problem-list-item","display":"Problem List Item"}]}],"code":{"coding":[{"system":"http://snomed.info/sct","code":"109264009"}]},"subject":{"reference":"Patient/ae0726cf-ea31-4527-95b4-ed5da7b381bf"},"onsetDateTime":"2023-05-01T13:30:00.000Z"},"request":{"method":"PUT","url":"Condition/f2cd0bad-3f92-4d27-a785-137c7def4bcf"}},{"fullUrl":"https://madie.cms.gov/Encounter/5ca52605b8484613a555a8fd","resource":{"resourceType":"Encounter","id":"b48d07ea-0f31-4011-9efe-66eb289d1642","meta":{"profile":["http://hl7.org/fhir/us/qicore/StructureDefinition/qicore-encounter"]},"status":"finished","class":{"system":"http://terminology.hl7.org/CodeSystem/v3-ActCode","code":"AMB","display":"ambulatory","userSelected":true},"type":[{"coding":[{"system":"http://www.ama-assn.org/go/cpt","code":"99202"}]}],"subject":{"reference":"Patient/ae0726cf-ea31-4527-95b4-ed5da7b381bf"},"period":{"start":"2025-01-01T14:00:00.000Z","end":"2025-01-01T15:00:00.000Z"}},"request":{"method":"PUT","url":"Encounter/b48d07ea-0f31-4011-9efe-66eb289d1642"}},{"fullUrl":"https://madie.cms.gov/Coverage/60099acc1c76ba64612b06b8","resource":{"resourceType":"Coverage","id":"79e5d7e2-4c90-43d9-a8e3-ffe2eeb79455","meta":{"profile":["http://hl7.org/fhir/us/qicore/StructureDefinition/qicore-coverage"]},"status":"active","beneficiary":{"reference":"Patient/ae0726cf-ea31-4527-95b4-ed5da7b381bf"},"period":{"start":"1937-05-13T08:00:00.000Z"},"payor":[{"reference":"Organization/5224cb12-ed64-4d6d-ab28-40a64f0800f1"}]},"request":{"method":"PUT","url":"Coverage/79e5d7e2-4c90-43d9-a8e3-ffe2eeb79455"}},{"fullUrl":"https://madie.cms.gov/Procedure/5fc8fa5fdb9b370000f5acca","resource":{"resourceType":"Procedure","id":"bb3e968c-b19d-455d-b5dd-be7f023ef091","meta":{"profile":["http://hl7.org/fhir/us/qicore/StructureDefinition/qicore-procedure"]},"extension":[{"url":"http://hl7.org/fhir/us/qicore/StructureDefinition/qicore-recorded","valueDateTime":"2025-01-01T12:35:00.000Z"}],"status":"completed","code":{"coding":[{"system":"http://snomed.info/sct","code":"169396008"}]},"subject":{"reference":"Patient/ae0726cf-ea31-4527-95b4-ed5da7b381bf"},"performedPeriod":{"start":"2025-01-01T08:00:00.000Z","end":"2025-01-01T08:15:00.000Z"}},"request":{"method":"PUT","url":"Procedure/bb3e968c-b19d-455d-b5dd-be7f023ef091"}},{"fullUrl":"https://madie.cms.gov/Procedure/5fc8fb58db9b370000f5ae4c","resource":{"resourceType":"Procedure","id":"403c8aee-672c-4fd0-9a70-d26dc710fa5d","meta":{"profile":["http://hl7.org/fhir/us/qicore/StructureDefinition/qicore-procedure"]},"extension":[{"url":"http://hl7.org/fhir/us/qicore/StructureDefinition/qicore-recorded","valueDateTime":"2025-01-01T12:35:00.000Z"}],"status":"completed","code":{"coding":[{"system":"http://snomed.info/sct","code":"169396008"}]},"subject":{"reference":"Patient/ae0726cf-ea31-4527-95b4-ed5da7b381bf"},"performedPeriod":{"start":"2025-01-01T08:00:00.000Z","end":"2025-01-01T08:15:00.000Z"}},"request":{"method":"PUT","url":"Procedure/403c8aee-672c-4fd0-9a70-d26dc710fa5d"}},{"fullUrl":"https://madie.cms.gov/Procedure/6002201a18fa49000035eda2","resource":{"resourceType":"Procedure","id":"7cc780cf-570e-482c-a551-02e93655cc18","meta":{"profile":["http://hl7.org/fhir/us/qicore/StructureDefinition/qicore-procedure"]},"extension":[{"url":"http://hl7.org/fhir/us/qicore/StructureDefinition/qicore-recorded","valueDateTime":"2025-01-02T12:35:00.000Z"}],"status":"completed","code":{"coding":[{"system":"http://snomed.info/sct","code":"169396008"}]},"subject":{"reference":"Patient/ae0726cf-ea31-4527-95b4-ed5da7b381bf"},"performedPeriod":{"start":"2025-01-02T08:00:00.000Z","end":"2025-01-02T08:15:00.000Z"}},"request":{"method":"PUT","url":"Procedure/7cc780cf-570e-482c-a551-02e93655cc18"}},{"fullUrl":"https://madie.cms.gov/Organization/123456","resource":{"resourceType":"Organization","id":"5224cb12-ed64-4d6d-ab28-40a64f0800f1","meta":{"profile":["http://hl7.org/fhir/us/qicore/StructureDefinition/qicore-organization"]},"identifier":[{"use":"temp","system":"urn:oid:2.16.840.1.113883.4.4","value":"21-3259825"}],"active":true,"type":[{"coding":[{"system":"http://terminology.hl7.org/CodeSystem/organization-type","code":"pay","display":"Payer"}]}],"name":"Blue Cross Blue Shield of Texas","telecom":[{"system":"phone","value":"(+1) 972-766-6900"}],"address":[{"use":"billing","type":"postal","line":["P.O. Box 660044"],"city":"Dallas","state":"TX","postalCode":"75266-0044","country":"USA"}]},"request":{"method":"PUT","url":"Organization/5224cb12-ed64-4d6d-ab28-40a64f0800f1"}},{"fullUrl":"https://madie.cms.gov/Practitioner/practitioner-123456","resource":{"resourceType":"Practitioner","id":"f267f7ae-742f-4a96-baa8-93ac1e8623bf","meta":{"profile":["http://hl7.org/fhir/us/qicore/StructureDefinition/qicore-practitioner"]},"identifier":[{"system":"http://hl7.org/fhir/sid/us-npi","value":"123456"}],"name":[{"family":"Evil","prefix":["Dr"]}]},"request":{"method":"PUT","url":"Practitioner/f267f7ae-742f-4a96-baa8-93ac1e8623bf"}},{"fullUrl":"https://madie.cms.gov/MeasureReport/66df8723-8e73-421b-a463-627c690c8db1","resource":{"resourceType":"MeasureReport","id":"66df8723-8e73-421b-a463-627c690c8db1","meta":{"profile":["http://hl7.org/fhir/us/cqfmeasures/StructureDefinition/test-case-cqfm"]},"contained":[{"resourceType":"Parameters","id":"46bb9f62-ffb2-464b-b98e-c019e737edd3-parameters","parameter":[{"name":"subject","valueString":"ae0726cf-ea31-4527-95b4-ed5da7b381bf"}]}],"extension":[{"url":"http://hl7.org/fhir/us/cqfmeasures/StructureDefinition/cqfm-inputParameters","valueReference":{"reference":"#46bb9f62-ffb2-464b-b98e-c019e737edd3-parameters"}},{"url":"http://hl7.org/fhir/us/cqfmeasures/StructureDefinition/cqfm-testCaseDescription","valueMarkdown":"Patient with cancer diagnosis that overlaps the office visit during measurement period. Chemotherapy received same day of office visit and another chemo 1 day after office visit. \n"}],"modifierExtension":[{"url":"http://hl7.org/fhir/us/cqfmeasures/StructureDefinition/cqfm-isTestCase","valueBoolean":true}],"status":"complete","type":"individual","measure":"https://madie.cms.gov/Measure/OncologyPainIntensityQuantifiedFHIR","period":{"start":"2025-01-01","end":"2025-12-31"},"group":[{"population":[{"code":{"coding":[{"system":"http://terminology.hl7.org/CodeSystem/measure-population","code":"initial-population","display":"Initial Population"}]},"count":1},{"code":{"coding":[{"system":"http://terminology.hl7.org/CodeSystem/measure-population","code":"denominator","display":"Denominator"}]},"count":1},{"code":{"coding":[{"system":"http://terminology.hl7.org/CodeSystem/measure-population","code":"numerator","display":"Numerator"}]},"count":0}]},{"population":[{"code":{"coding":[{"system":"http://terminology.hl7.org/CodeSystem/measure-population","code":"initial-population","display":"Initial Population"}]},"count":0},{"code":{"coding":[{"system":"http://terminology.hl7.org/CodeSystem/measure-population","code":"denominator","display":"Denominator"}]},"count":0},{"code":{"coding":[{"system":"http://terminology.hl7.org/CodeSystem/measure-population","code":"numerator","display":"Numerator"}]},"count":0}]}]},"request":{"method":"PUT","url":"MeasureReport/66df8723-8e73-421b-a463-627c690c8db1"}}]}