{"resourceType":"Bundle","id":"tests-e529e266-033b-4aec-abbc-d7fb27b7286c-bundle","type":"transaction","entry":[{"fullUrl":"https://madie.cms.gov/Patient/e529e266-033b-4aec-abbc-d7fb27b7286c","resource":{"resourceType":"Patient","id":"e529e266-033b-4aec-abbc-d7fb27b7286c","meta":{"profile":["http://hl7.org/fhir/us/qicore/StructureDefinition/qicore-patient"]},"text":{"status":"generated","div":"<div xmlns=\"http://www.w3.org/1999/xhtml\"><div class=\"hapiHeaderText\">CancerDxStarts1DayAfterMP<b>IPPFailPop1</b></div><table class=\"hapiPropertyTable\"><tbody><tr><td>Identifier</td><td>d5fa107024042175d86d813d9f3278123f01630b11769a6127ee8a990f85bdc2</td></tr><tr><td>Date of birth</td><td><span>19 October 1961</span></td></tr></tbody></table></div>"},"extension":[{"url":"http://hl7.org/fhir/us/core/StructureDefinition/us-core-race","extension":[{"url":"ombCategory","valueCoding":{"system":"urn:oid:2.16.840.1.113883.6.238","code":"2076-8","display":"Native Hawaiian or Other Pacific Islander","userSelected":true}},{"url":"text","valueString":"Native Hawaiian or Other Pacific Islander"}]},{"url":"http://hl7.org/fhir/us/core/StructureDefinition/us-core-ethnicity","extension":[{"url":"ombCategory","valueCoding":{"system":"urn:oid:2.16.840.1.113883.6.238","code":"2186-5","display":"Not Hispanic or Latino","userSelected":true}},{"url":"text","valueString":"Not Hispanic or Latino"}]}],"identifier":[{"type":{"coding":[{"system":"http://terminology.hl7.org/CodeSystem/v2-0203","code":"MR"}]},"system":"https://bonnie-fhir.healthit.gov/","value":"62c880ec0111a60120dc2208"}],"active":true,"name":[{"use":"usual","family":"IPPFailPop1","given":["CancerDxStarts1DayAfterMP"]}],"gender":"female","birthDate":"1961-10-19"},"request":{"method":"PUT","url":"Patient/e529e266-033b-4aec-abbc-d7fb27b7286c"}},{"fullUrl":"https://madie.cms.gov/Condition/5ca5260db8484613a555a992","resource":{"resourceType":"Condition","id":"d9463711-86f0-422f-b5f8-7c92beabb3cc","meta":{"profile":["http://hl7.org/fhir/us/qicore/StructureDefinition/qicore-condition"]},"clinicalStatus":{"coding":[{"system":"http://terminology.hl7.org/CodeSystem/condition-clinical","code":"active","display":"active"}]},"verificationStatus":{"coding":[{"system":"http://terminology.hl7.org/CodeSystem/condition-ver-status","code":"confirmed","display":"Confirmed"}]},"category":[{"coding":[{"system":"http://terminology.hl7.org/CodeSystem/condition-category","code":"problem-list-item","display":"Problem List Item"}]}],"code":{"coding":[{"system":"http://snomed.info/sct","code":"80914001"}]},"subject":{"reference":"Patient/e529e266-033b-4aec-abbc-d7fb27b7286c"},"onsetDateTime":"2025-01-01T10:00:00.000Z"},"request":{"method":"PUT","url":"Condition/d9463711-86f0-422f-b5f8-7c92beabb3cc"}},{"fullUrl":"https://madie.cms.gov/Encounter/5ca5260db8484613a555a993","resource":{"resourceType":"Encounter","id":"e3b3d52f-2f66-43f1-b077-ecc3a97e619d","meta":{"profile":["http://hl7.org/fhir/us/qicore/StructureDefinition/qicore-encounter"]},"status":"finished","class":{"system":"http://terminology.hl7.org/CodeSystem/v3-ActCode","code":"AMB","display":"ambulatory","userSelected":true},"type":[{"coding":[{"system":"http://snomed.info/sct","code":"185463005"}]}],"subject":{"reference":"Patient/e529e266-033b-4aec-abbc-d7fb27b7286c"},"period":{"start":"2025-12-31T13:00:00.000Z","end":"2025-12-31T14:00:00.000Z"}},"request":{"method":"PUT","url":"Encounter/e3b3d52f-2f66-43f1-b077-ecc3a97e619d"}},{"fullUrl":"https://madie.cms.gov/Coverage/60099acb1c76ba64612b0694","resource":{"resourceType":"Coverage","id":"76789ded-edc6-47c7-9dd5-ff9f2e195ac9","meta":{"profile":["http://hl7.org/fhir/us/qicore/StructureDefinition/qicore-coverage"]},"status":"active","beneficiary":{"reference":"Patient/e529e266-033b-4aec-abbc-d7fb27b7286c"},"period":{"start":"1961-10-19T08:00:00.000Z"},"payor":[{"reference":"Organization/5224cb12-ed64-4d6d-ab28-40a64f0800f1"}]},"request":{"method":"PUT","url":"Coverage/76789ded-edc6-47c7-9dd5-ff9f2e195ac9"}},{"fullUrl":"https://madie.cms.gov/Procedure/5ca5260db8484613a555a994","resource":{"resourceType":"Procedure","id":"445cfc47-9a87-41e1-bd16-ea597b848c19","meta":{"profile":["http://hl7.org/fhir/us/qicore/StructureDefinition/qicore-procedure"]},"extension":[{"url":"http://hl7.org/fhir/us/qicore/StructureDefinition/qicore-recorded","valueDateTime":"2025-01-17T12:35:00.000Z"}],"status":"completed","code":{"coding":[{"system":"http://snomed.info/sct","code":"169396008"}]},"subject":{"reference":"Patient/e529e266-033b-4aec-abbc-d7fb27b7286c"},"performedPeriod":{"start":"2025-01-17T11:00:00.000Z","end":"2025-01-17T11:00:00.000Z"}},"request":{"method":"PUT","url":"Procedure/445cfc47-9a87-41e1-bd16-ea597b848c19"}},{"fullUrl":"https://madie.cms.gov/Procedure/5ca5260db8484613a555a996","resource":{"resourceType":"Procedure","id":"f72ab688-6394-420c-94cf-8d8d437761aa","meta":{"profile":["http://hl7.org/fhir/us/qicore/StructureDefinition/qicore-procedure"]},"extension":[{"url":"http://hl7.org/fhir/us/qicore/StructureDefinition/qicore-recorded","valueDateTime":"2025-12-14T14:45:00.000Z"}],"status":"completed","code":{"coding":[{"system":"http://snomed.info/sct","code":"169396008"}]},"subject":{"reference":"Patient/e529e266-033b-4aec-abbc-d7fb27b7286c"},"performedPeriod":{"start":"2025-12-14T14:40:00.000Z","end":"2025-12-14T14:40:00.000Z"}},"request":{"method":"PUT","url":"Procedure/f72ab688-6394-420c-94cf-8d8d437761aa"}},{"fullUrl":"https://madie.cms.gov/Organization/123456","resource":{"resourceType":"Organization","id":"5224cb12-ed64-4d6d-ab28-40a64f0800f1","meta":{"profile":["http://hl7.org/fhir/us/qicore/StructureDefinition/qicore-organization"]},"identifier":[{"use":"temp","system":"urn:oid:2.16.840.1.113883.4.4","value":"21-3259825"}],"active":true,"type":[{"coding":[{"system":"http://terminology.hl7.org/CodeSystem/organization-type","code":"pay","display":"Payer"}]}],"name":"Blue Cross Blue Shield of Texas","telecom":[{"system":"phone","value":"(+1) 972-766-6900"}],"address":[{"use":"billing","type":"postal","line":["P.O. Box 660044"],"city":"Dallas","state":"TX","postalCode":"75266-0044","country":"USA"}]},"request":{"method":"PUT","url":"Organization/5224cb12-ed64-4d6d-ab28-40a64f0800f1"}},{"fullUrl":"https://madie.cms.gov/Practitioner/practitioner-123456","resource":{"resourceType":"Practitioner","id":"da44aa21-d8da-4d86-a04c-d3653d9aa77c","meta":{"profile":["http://hl7.org/fhir/us/qicore/StructureDefinition/qicore-practitioner"]},"identifier":[{"system":"http://hl7.org/fhir/sid/us-npi","value":"123456"}],"name":[{"family":"Evil","prefix":["Dr"]}]},"request":{"method":"PUT","url":"Practitioner/da44aa21-d8da-4d86-a04c-d3653d9aa77c"}},{"fullUrl":"https://madie.cms.gov/MeasureReport/f9442140-5c36-4b52-ae60-af7ffb6b3c35","resource":{"resourceType":"MeasureReport","id":"f9442140-5c36-4b52-ae60-af7ffb6b3c35","meta":{"profile":["http://hl7.org/fhir/us/cqfmeasures/StructureDefinition/test-case-cqfm"]},"contained":[{"resourceType":"Parameters","id":"5f88ed72-d9f7-49fe-8219-f63eb40f0c37-parameters","parameter":[{"name":"subject","valueString":"e529e266-033b-4aec-abbc-d7fb27b7286c"}]}],"extension":[{"url":"http://hl7.org/fhir/us/cqfmeasures/StructureDefinition/cqfm-inputParameters","valueReference":{"reference":"#5f88ed72-d9f7-49fe-8219-f63eb40f0c37-parameters"}},{"url":"http://hl7.org/fhir/us/cqfmeasures/StructureDefinition/cqfm-testCaseDescription","valueMarkdown":"Patient with cancer diagnosis that starts a day after the measurement period. \n"}],"modifierExtension":[{"url":"http://hl7.org/fhir/us/cqfmeasures/StructureDefinition/cqfm-isTestCase","valueBoolean":true}],"status":"complete","type":"individual","measure":"https://madie.cms.gov/Measure/OncologyPainIntensityQuantifiedFHIR","period":{"start":"2025-01-01","end":"2025-12-31"},"group":[{"population":[{"code":{"coding":[{"system":"http://terminology.hl7.org/CodeSystem/measure-population","code":"initial-population","display":"Initial Population"}]},"count":0},{"code":{"coding":[{"system":"http://terminology.hl7.org/CodeSystem/measure-population","code":"denominator","display":"Denominator"}]},"count":0},{"code":{"coding":[{"system":"http://terminology.hl7.org/CodeSystem/measure-population","code":"numerator","display":"Numerator"}]},"count":0}]},{"population":[{"code":{"coding":[{"system":"http://terminology.hl7.org/CodeSystem/measure-population","code":"initial-population","display":"Initial Population"}]},"count":0},{"code":{"coding":[{"system":"http://terminology.hl7.org/CodeSystem/measure-population","code":"denominator","display":"Denominator"}]},"count":0},{"code":{"coding":[{"system":"http://terminology.hl7.org/CodeSystem/measure-population","code":"numerator","display":"Numerator"}]},"count":0}]}]},"request":{"method":"PUT","url":"MeasureReport/f9442140-5c36-4b52-ae60-af7ffb6b3c35"}}]}