{"resourceType":"Bundle","id":"tests-33592e78-771b-4ed2-85e0-67aeb0175fbe-bundle","type":"transaction","entry":[{"fullUrl":"https://madie.cms.gov/Patient/33592e78-771b-4ed2-85e0-67aeb0175fbe","resource":{"resourceType":"Patient","id":"33592e78-771b-4ed2-85e0-67aeb0175fbe","meta":{"profile":["http://hl7.org/fhir/us/qicore/StructureDefinition/qicore-patient"]},"text":{"status":"generated","div":"<div xmlns=\"http://www.w3.org/1999/xhtml\"><div class=\"hapiHeaderText\">ChemoWithInvalidCode<b>DENOMFailPop1</b></div><table class=\"hapiPropertyTable\"><tbody><tr><td>Identifier</td><td>67ad815355114076cc7c6714ee69f465</td></tr><tr><td>Date of birth</td><td><span>14 June 1937</span></td></tr></tbody></table></div>"},"extension":[{"url":"http://hl7.org/fhir/us/core/StructureDefinition/us-core-race","extension":[{"url":"ombCategory","valueCoding":{"system":"urn:oid:2.16.840.1.113883.6.238","code":"1002-5","display":"American Indian or Alaska Native","userSelected":true}},{"url":"text","valueString":"American Indian or Alaska Native"}]},{"url":"http://hl7.org/fhir/us/core/StructureDefinition/us-core-ethnicity","extension":[{"url":"ombCategory","valueCoding":{"system":"urn:oid:2.16.840.1.113883.6.238","code":"2135-2","display":"Hispanic or Latino","userSelected":true}},{"url":"text","valueString":"Hispanic or Latino"}]}],"identifier":[{"type":{"coding":[{"system":"http://terminology.hl7.org/CodeSystem/v2-0203","code":"MR"}]},"system":"https://bonnie-fhir.healthit.gov/","value":"62c880ec0111a60120dc21ee"}],"active":true,"name":[{"use":"usual","family":"DENOMFailPop1","given":["ChemoWithInvalidCode"]}],"gender":"male","birthDate":"1937-06-14"},"request":{"method":"PUT","url":"Patient/33592e78-771b-4ed2-85e0-67aeb0175fbe"}},{"fullUrl":"https://madie.cms.gov/Observation/5ca5260cb8484613a555a980","resource":{"resourceType":"Observation","id":"02bc6fe6-b220-4601-9c74-072ae8ab6513","meta":{"profile":["http://hl7.org/fhir/us/qicore/StructureDefinition/qicore-observation"]},"status":"final","category":[{"coding":[{"system":"http://terminology.hl7.org/CodeSystem/observation-category","code":"survey","display":"Survey"}],"text":"Survey"}],"code":{"coding":[{"system":"http://loinc.org","code":"38208-5","display":"Pain severity - Reported"}],"text":"Pain severity - Reported"},"subject":{"reference":"Patient/33592e78-771b-4ed2-85e0-67aeb0175fbe"},"effectiveDateTime":"2025-06-23T11:15:00.000+00:00","valueInteger":5},"request":{"method":"PUT","url":"Observation/02bc6fe6-b220-4601-9c74-072ae8ab6513"}},{"fullUrl":"https://madie.cms.gov/Condition/5ca5260cb8484613a555a97b","resource":{"resourceType":"Condition","id":"712c06ec-e9d3-40ea-aed2-ace71e19d7d9","meta":{"profile":["http://hl7.org/fhir/us/qicore/StructureDefinition/qicore-condition"]},"clinicalStatus":{"coding":[{"system":"http://terminology.hl7.org/CodeSystem/condition-clinical","code":"active","display":"active","userSelected":true}]},"category":[{"coding":[{"system":"http://terminology.hl7.org/CodeSystem/condition-category","code":"problem-list-item","display":"Problem List Item"}]}],"code":{"coding":[{"system":"http://hl7.org/fhir/sid/icd-10-cm","code":"C07"}]},"subject":{"reference":"Patient/33592e78-771b-4ed2-85e0-67aeb0175fbe"},"onsetDateTime":"2008-02-21T13:00:00.000Z"},"request":{"method":"PUT","url":"Condition/712c06ec-e9d3-40ea-aed2-ace71e19d7d9"}},{"fullUrl":"https://madie.cms.gov/Condition/5ca5260cb8484613a555a97c","resource":{"resourceType":"Condition","id":"08582785-2112-47e3-8860-021ef7900801","meta":{"profile":["http://hl7.org/fhir/us/qicore/StructureDefinition/qicore-condition"]},"clinicalStatus":{"coding":[{"system":"http://terminology.hl7.org/CodeSystem/condition-clinical","code":"active","display":"active","userSelected":true}]},"category":[{"coding":[{"system":"http://terminology.hl7.org/CodeSystem/condition-category","code":"problem-list-item","display":"Problem List Item"}]}],"code":{"coding":[{"system":"http://hl7.org/fhir/sid/icd-10-cm","code":"C00.0"}]},"subject":{"reference":"Patient/33592e78-771b-4ed2-85e0-67aeb0175fbe"},"onsetDateTime":"2008-02-21T13:00:00.000Z"},"request":{"method":"PUT","url":"Condition/08582785-2112-47e3-8860-021ef7900801"}},{"fullUrl":"https://madie.cms.gov/Encounter/5ca5260cb8484613a555a97d","resource":{"resourceType":"Encounter","id":"f6b1bd37-7698-4423-ae8e-2d58bfcafe39","meta":{"profile":["http://hl7.org/fhir/us/qicore/StructureDefinition/qicore-encounter"]},"status":"finished","class":{"system":"http://terminology.hl7.org/CodeSystem/v3-ActCode","code":"AMB","display":"ambulatory","userSelected":true},"type":[{"coding":[{"system":"http://www.ama-assn.org/go/cpt","code":"99213"}]}],"subject":{"reference":"Patient/33592e78-771b-4ed2-85e0-67aeb0175fbe"},"period":{"start":"2025-06-23T10:00:00.000Z","end":"2025-06-23T12:00:00.000Z"}},"request":{"method":"PUT","url":"Encounter/f6b1bd37-7698-4423-ae8e-2d58bfcafe39"}},{"fullUrl":"https://madie.cms.gov/Coverage/60099ac71c76ba64612b0655","resource":{"resourceType":"Coverage","id":"341acb05-8106-4c96-87f3-5cc0cb7c0f09","meta":{"profile":["http://hl7.org/fhir/us/qicore/StructureDefinition/qicore-coverage"]},"status":"active","beneficiary":{"reference":"Patient/33592e78-771b-4ed2-85e0-67aeb0175fbe"},"period":{"start":"1937-06-14T08:00:00.000Z"},"payor":[{"reference":"Organization/f7da4368-fb6d-4d73-a75b-f78024cbb18d"}]},"request":{"method":"PUT","url":"Coverage/341acb05-8106-4c96-87f3-5cc0cb7c0f09"}},{"fullUrl":"https://madie.cms.gov/Procedure/5ca5260cb8484613a555a97e","resource":{"resourceType":"Procedure","id":"d4b9b9e5-52c0-46fe-9207-0906137e4f12","meta":{"profile":["http://hl7.org/fhir/us/qicore/StructureDefinition/qicore-procedure"]},"extension":[{"url":"http://hl7.org/fhir/us/qicore/StructureDefinition/qicore-recorded","valueDateTime":"2025-05-29T12:35:00.000Z"}],"status":"completed","code":{"coding":[{"system":"http://www.ama-assn.org/go/cpt","code":"00000"}]},"subject":{"reference":"Patient/33592e78-771b-4ed2-85e0-67aeb0175fbe"},"performedPeriod":{"start":"2025-05-29T13:30:00.000Z","end":"2025-05-29T13:30:00.000Z"}},"request":{"method":"PUT","url":"Procedure/d4b9b9e5-52c0-46fe-9207-0906137e4f12"}},{"fullUrl":"https://madie.cms.gov/Procedure/5ca5260cb8484613a555a97f","resource":{"resourceType":"Procedure","id":"453a3d47-d9b7-46e0-8da2-d89d8ae4c72d","meta":{"profile":["http://hl7.org/fhir/us/qicore/StructureDefinition/qicore-procedure"]},"extension":[{"url":"http://hl7.org/fhir/us/qicore/StructureDefinition/qicore-recorded","valueDateTime":"2025-07-08T12:35:00.000Z"}],"status":"completed","code":{"coding":[{"system":"http://www.ama-assn.org/go/cpt","code":"11111"}]},"subject":{"reference":"Patient/33592e78-771b-4ed2-85e0-67aeb0175fbe"},"performedPeriod":{"start":"2025-07-08T10:45:00.000Z","end":"2025-07-08T10:45:00.000Z"}},"request":{"method":"PUT","url":"Procedure/453a3d47-d9b7-46e0-8da2-d89d8ae4c72d"}},{"fullUrl":"https://madie.cms.gov/Organization/123456","resource":{"resourceType":"Organization","id":"f7da4368-fb6d-4d73-a75b-f78024cbb18d","meta":{"profile":["http://hl7.org/fhir/us/qicore/StructureDefinition/qicore-organization"]},"identifier":[{"use":"temp","system":"urn:oid:2.16.840.1.113883.4.4","value":"21-3259825"}],"active":true,"type":[{"coding":[{"system":"http://terminology.hl7.org/CodeSystem/organization-type","code":"pay","display":"Payer"}]}],"name":"Blue Cross Blue Shield of Texas","telecom":[{"system":"phone","value":"(+1) 972-766-6900"}],"address":[{"use":"billing","type":"postal","line":["P.O. Box 660044"],"city":"Dallas","state":"TX","postalCode":"75266-0044","country":"USA"}]},"request":{"method":"PUT","url":"Organization/f7da4368-fb6d-4d73-a75b-f78024cbb18d"}},{"fullUrl":"https://madie.cms.gov/Practitioner/practitioner-123456","resource":{"resourceType":"Practitioner","id":"4dd756ad-17d0-41f3-9d53-d8508a78486b","meta":{"profile":["http://hl7.org/fhir/us/qicore/StructureDefinition/qicore-practitioner"]},"identifier":[{"system":"http://hl7.org/fhir/sid/us-npi","value":"123456"}],"name":[{"family":"Evil","prefix":["Dr"]}]},"request":{"method":"PUT","url":"Practitioner/4dd756ad-17d0-41f3-9d53-d8508a78486b"}},{"fullUrl":"https://madie.cms.gov/MeasureReport/76d201e5-102a-443d-b063-5c46f5371276","resource":{"resourceType":"MeasureReport","id":"76d201e5-102a-443d-b063-5c46f5371276","meta":{"profile":["http://hl7.org/fhir/us/cqfmeasures/StructureDefinition/test-case-cqfm"]},"contained":[{"resourceType":"Parameters","id":"194c451c-e799-47d1-83f0-4661fca152e3-parameters","parameter":[{"name":"subject","valueString":"33592e78-771b-4ed2-85e0-67aeb0175fbe"}]}],"extension":[{"url":"http://hl7.org/fhir/us/cqfmeasures/StructureDefinition/cqfm-inputParameters","valueReference":{"reference":"#194c451c-e799-47d1-83f0-4661fca152e3-parameters"}},{"url":"http://hl7.org/fhir/us/cqfmeasures/StructureDefinition/cqfm-testCaseDescription","valueMarkdown":"Patient with cancer diagnosis that overlaps the office visit during measurement period, but chemotherapy administration with invalid code. \n"}],"modifierExtension":[{"url":"http://hl7.org/fhir/us/cqfmeasures/StructureDefinition/cqfm-isTestCase","valueBoolean":true}],"status":"complete","type":"individual","measure":"https://madie.cms.gov/Measure/OncologyPainIntensityQuantifiedFHIR","period":{"start":"2025-01-01","end":"2025-12-31"},"group":[{"population":[{"code":{"coding":[{"system":"http://terminology.hl7.org/CodeSystem/measure-population","code":"initial-population","display":"Initial Population"}]},"count":0},{"code":{"coding":[{"system":"http://terminology.hl7.org/CodeSystem/measure-population","code":"denominator","display":"Denominator"}]},"count":0},{"code":{"coding":[{"system":"http://terminology.hl7.org/CodeSystem/measure-population","code":"numerator","display":"Numerator"}]},"count":0}]},{"population":[{"code":{"coding":[{"system":"http://terminology.hl7.org/CodeSystem/measure-population","code":"initial-population","display":"Initial Population"}]},"count":0},{"code":{"coding":[{"system":"http://terminology.hl7.org/CodeSystem/measure-population","code":"denominator","display":"Denominator"}]},"count":0},{"code":{"coding":[{"system":"http://terminology.hl7.org/CodeSystem/measure-population","code":"numerator","display":"Numerator"}]},"count":0}]}]},"request":{"method":"PUT","url":"MeasureReport/76d201e5-102a-443d-b063-5c46f5371276"}}]}