{"resourceType":"Bundle","id":"tests-d4b441fb-5b3a-40f7-ada1-ecf06376f4fb-bundle","type":"transaction","entry":[{"fullUrl":"https://madie.cms.gov/Patient/d4b441fb-5b3a-40f7-ada1-ecf06376f4fb","resource":{"resourceType":"Patient","id":"d4b441fb-5b3a-40f7-ada1-ecf06376f4fb","meta":{"profile":["http://hl7.org/fhir/us/qicore/StructureDefinition/qicore-patient"]},"text":{"status":"generated","div":"<div xmlns=\"http://www.w3.org/1999/xhtml\"><div class=\"hapiHeaderText\">Chemo30DaysBeforeAndSameDayAsEnc<b>IPPPassPop1</b></div><table class=\"hapiPropertyTable\"><tbody><tr><td>Identifier</td><td>60e349100edd633ca8f54b90369c7513</td></tr><tr><td>Date of birth</td><td><span>13 May 1937</span></td></tr></tbody></table></div>"},"extension":[{"url":"http://hl7.org/fhir/us/core/StructureDefinition/us-core-race","extension":[{"url":"ombCategory","valueCoding":{"system":"urn:oid:2.16.840.1.113883.6.238","code":"1002-5","display":"American Indian or Alaska Native","userSelected":true}},{"url":"text","valueString":"American Indian or Alaska Native"}]},{"url":"http://hl7.org/fhir/us/core/StructureDefinition/us-core-ethnicity","extension":[{"url":"ombCategory","valueCoding":{"system":"urn:oid:2.16.840.1.113883.6.238","code":"2135-2","display":"Hispanic or Latino","userSelected":true}},{"url":"text","valueString":"Hispanic or Latino"}]}],"identifier":[{"type":{"coding":[{"system":"http://terminology.hl7.org/CodeSystem/v2-0203","code":"MR"}]},"system":"https://bonnie-fhir.healthit.gov/","value":"62c880ec0111a60120dc21fb"}],"active":true,"name":[{"use":"usual","family":"IPPPassPop1","given":["Chemo30DaysBeforeANDSameDayAsEnc"]}],"gender":"female","birthDate":"1937-05-13"},"request":{"method":"PUT","url":"Patient/d4b441fb-5b3a-40f7-ada1-ecf06376f4fb"}},{"fullUrl":"https://madie.cms.gov/Condition/5ca52605b8484613a555a8fc","resource":{"resourceType":"Condition","id":"01710bc6-fdde-4feb-a1df-295dbed25f9b","meta":{"profile":["http://hl7.org/fhir/us/qicore/StructureDefinition/qicore-condition"]},"clinicalStatus":{"coding":[{"system":"http://terminology.hl7.org/CodeSystem/condition-clinical","code":"active","display":"active","userSelected":true}]},"verificationStatus":{"coding":[{"system":"http://terminology.hl7.org/CodeSystem/condition-ver-status","code":"confirmed","display":"Confirmed"}]},"category":[{"coding":[{"system":"http://terminology.hl7.org/CodeSystem/condition-category","code":"encounter-diagnosis","display":"Encounter Diagnosis"},{"system":"http://terminology.hl7.org/CodeSystem/condition-category","code":"problem-list-item","display":"Problem List Item"}]}],"code":{"coding":[{"system":"http://hl7.org/fhir/sid/icd-10-cm","code":"C40.00"}]},"subject":{"reference":"Patient/d4b441fb-5b3a-40f7-ada1-ecf06376f4fb"},"onsetDateTime":"2023-05-01T13:30:00.000Z"},"request":{"method":"PUT","url":"Condition/01710bc6-fdde-4feb-a1df-295dbed25f9b"}},{"fullUrl":"https://madie.cms.gov/Encounter/5ca52605b8484613a555a8fd","resource":{"resourceType":"Encounter","id":"730f4429-c60f-4034-9601-f6e71b7932e7","meta":{"profile":["http://hl7.org/fhir/us/qicore/StructureDefinition/qicore-encounter"]},"status":"finished","class":{"system":"http://terminology.hl7.org/CodeSystem/v3-ActCode","code":"AMB","display":"ambulatory","userSelected":true},"type":[{"coding":[{"system":"http://www.ama-assn.org/go/cpt","code":"99203"}]}],"subject":{"reference":"Patient/d4b441fb-5b3a-40f7-ada1-ecf06376f4fb"},"period":{"start":"2025-01-31T14:00:00.000Z","end":"2025-01-31T15:00:00.000Z"}},"request":{"method":"PUT","url":"Encounter/730f4429-c60f-4034-9601-f6e71b7932e7"}},{"fullUrl":"https://madie.cms.gov/Coverage/60099acd1c76ba64612b06bb","resource":{"resourceType":"Coverage","id":"ea0a1d9d-4ef0-431f-8a06-08656d6c58d8","meta":{"profile":["http://hl7.org/fhir/us/qicore/StructureDefinition/qicore-coverage"]},"status":"active","beneficiary":{"reference":"Patient/d4b441fb-5b3a-40f7-ada1-ecf06376f4fb"},"period":{"start":"1937-05-13T08:00:00.000Z"},"payor":[{"reference":"Organization/4da248b0-6e59-49b7-b80e-338aa21d299f"}]},"request":{"method":"PUT","url":"Coverage/ea0a1d9d-4ef0-431f-8a06-08656d6c58d8"}},{"fullUrl":"https://madie.cms.gov/Procedure/5fc8fa5fdb9b370000f5acca","resource":{"resourceType":"Procedure","id":"8d42af21-1154-4fa3-8720-ae927c1d8f81","meta":{"profile":["http://hl7.org/fhir/us/qicore/StructureDefinition/qicore-procedure"]},"extension":[{"url":"http://hl7.org/fhir/us/qicore/StructureDefinition/qicore-recorded","valueDateTime":"2025-01-01T12:35:00.000Z"}],"status":"completed","code":{"coding":[{"system":"http://snomed.info/sct","code":"169396008"}]},"subject":{"reference":"Patient/d4b441fb-5b3a-40f7-ada1-ecf06376f4fb"},"performedPeriod":{"start":"2025-01-01T08:00:00.000Z","end":"2025-01-01T08:15:00.000Z"}},"request":{"method":"PUT","url":"Procedure/8d42af21-1154-4fa3-8720-ae927c1d8f81"}},{"fullUrl":"https://madie.cms.gov/Procedure/5fc8fb58db9b370000f5ae4c","resource":{"resourceType":"Procedure","id":"cf55ff43-bb6e-4cb8-b5c4-15fcb70b17d1","meta":{"profile":["http://hl7.org/fhir/us/qicore/StructureDefinition/qicore-procedure"]},"extension":[{"url":"http://hl7.org/fhir/us/qicore/StructureDefinition/qicore-recorded","valueDateTime":"2025-01-31T12:35:00.000Z"}],"status":"completed","code":{"coding":[{"system":"http://snomed.info/sct","code":"169396008"}]},"subject":{"reference":"Patient/d4b441fb-5b3a-40f7-ada1-ecf06376f4fb"},"performedPeriod":{"start":"2025-01-31T08:00:00.000Z","end":"2025-01-31T08:15:00.000Z"}},"request":{"method":"PUT","url":"Procedure/cf55ff43-bb6e-4cb8-b5c4-15fcb70b17d1"}},{"fullUrl":"https://madie.cms.gov/Organization/123456","resource":{"resourceType":"Organization","id":"4da248b0-6e59-49b7-b80e-338aa21d299f","meta":{"profile":["http://hl7.org/fhir/us/qicore/StructureDefinition/qicore-organization"]},"identifier":[{"use":"temp","system":"urn:oid:2.16.840.1.113883.4.4","value":"21-3259825"}],"active":true,"type":[{"coding":[{"system":"http://terminology.hl7.org/CodeSystem/organization-type","code":"pay","display":"Payer"}]}],"name":"Blue Cross Blue Shield of Texas","telecom":[{"system":"phone","value":"(+1) 972-766-6900"}],"address":[{"use":"billing","type":"postal","line":["P.O. Box 660044"],"city":"Dallas","state":"TX","postalCode":"75266-0044","country":"USA"}]},"request":{"method":"PUT","url":"Organization/4da248b0-6e59-49b7-b80e-338aa21d299f"}},{"fullUrl":"https://madie.cms.gov/Practitioner/practitioner-123456","resource":{"resourceType":"Practitioner","id":"227f1a46-4e9b-4d20-9b05-13a9a2252204","meta":{"profile":["http://hl7.org/fhir/us/qicore/StructureDefinition/qicore-practitioner"]},"identifier":[{"system":"http://hl7.org/fhir/sid/us-npi","value":"123456"}],"name":[{"family":"Evil","prefix":["Dr"]}]},"request":{"method":"PUT","url":"Practitioner/227f1a46-4e9b-4d20-9b05-13a9a2252204"}},{"fullUrl":"https://madie.cms.gov/MeasureReport/2d75eaad-1d88-497b-b30b-1b3e67960519","resource":{"resourceType":"MeasureReport","id":"2d75eaad-1d88-497b-b30b-1b3e67960519","meta":{"profile":["http://hl7.org/fhir/us/cqfmeasures/StructureDefinition/test-case-cqfm"]},"contained":[{"resourceType":"Parameters","id":"b291c9b3-d9f5-417e-870a-8d2d2d6d0980-parameters","parameter":[{"name":"subject","valueString":"d4b441fb-5b3a-40f7-ada1-ecf06376f4fb"}]}],"extension":[{"url":"http://hl7.org/fhir/us/cqfmeasures/StructureDefinition/cqfm-inputParameters","valueReference":{"reference":"#b291c9b3-d9f5-417e-870a-8d2d2d6d0980-parameters"}},{"url":"http://hl7.org/fhir/us/cqfmeasures/StructureDefinition/cqfm-testCaseDescription","valueMarkdown":"Patient with cancer diagnosis that overlaps the office visit during measurement period. Chemotherapy received 30 days before the office visit and another chemo same day of office visit. "}],"modifierExtension":[{"url":"http://hl7.org/fhir/us/cqfmeasures/StructureDefinition/cqfm-isTestCase","valueBoolean":true}],"status":"complete","type":"individual","measure":"https://madie.cms.gov/Measure/OncologyPainIntensityQuantifiedFHIR","period":{"start":"2025-01-01","end":"2025-12-31"},"group":[{"population":[{"code":{"coding":[{"system":"http://terminology.hl7.org/CodeSystem/measure-population","code":"initial-population","display":"Initial Population"}]},"count":1},{"code":{"coding":[{"system":"http://terminology.hl7.org/CodeSystem/measure-population","code":"denominator","display":"Denominator"}]},"count":1},{"code":{"coding":[{"system":"http://terminology.hl7.org/CodeSystem/measure-population","code":"numerator","display":"Numerator"}]},"count":0}]},{"population":[{"code":{"coding":[{"system":"http://terminology.hl7.org/CodeSystem/measure-population","code":"initial-population","display":"Initial Population"}]},"count":0},{"code":{"coding":[{"system":"http://terminology.hl7.org/CodeSystem/measure-population","code":"denominator","display":"Denominator"}]},"count":0},{"code":{"coding":[{"system":"http://terminology.hl7.org/CodeSystem/measure-population","code":"numerator","display":"Numerator"}]},"count":0}]}]},"request":{"method":"PUT","url":"MeasureReport/2d75eaad-1d88-497b-b30b-1b3e67960519"}}]}