{"resourceType":"Bundle","id":"tests-5327f324-e0f7-4e95-92ea-a534864a978b-bundle","type":"transaction","entry":[{"fullUrl":"https://madie.cms.gov/Patient/5327f324-e0f7-4e95-92ea-a534864a978b","resource":{"resourceType":"Patient","id":"5327f324-e0f7-4e95-92ea-a534864a978b","meta":{"profile":["http://hl7.org/fhir/us/qicore/StructureDefinition/qicore-patient"]},"text":{"status":"generated","div":"<div xmlns=\"http://www.w3.org/1999/xhtml\"><div class=\"hapiHeaderText\">MultEncChemo30DaysAfterAndWithinMP<b>DENOMPassPOP1</b></div><table class=\"hapiPropertyTable\"><tbody><tr><td>Date of birth</td><td><span>18 February 1970</span></td></tr></tbody></table></div>"},"extension":[{"url":"http://hl7.org/fhir/us/core/StructureDefinition/us-core-race","extension":[{"url":"ombCategory","valueCoding":{"system":"urn:oid:2.16.840.1.113883.6.238","code":"1002-5","display":"American Indian or Alaska Native","userSelected":true}},{"url":"text","valueString":"American Indian or Alaska Native"}]},{"url":"http://hl7.org/fhir/us/core/StructureDefinition/us-core-ethnicity","extension":[{"url":"ombCategory","valueCoding":{"system":"urn:oid:2.16.840.1.113883.6.238","code":"2135-2","display":"Hispanic or Latino","userSelected":true}},{"url":"text","valueString":"Hispanic or Latino"}]}],"identifier":[{"type":{"coding":[{"system":"http://terminology.hl7.org/CodeSystem/v2-0203","code":"MR"}]},"system":"https://bonnie-fhir.healthit.gov/","value":"62c880eb0111a60120dc21eb"}],"active":true,"name":[{"use":"usual","family":"DENOMPassPop1","given":["MultEncChemo30DaysAfterAndWithinMP"]}],"gender":"female","birthDate":"1970-02-18"},"request":{"method":"PUT","url":"Patient/5327f324-e0f7-4e95-92ea-a534864a978b"}},{"fullUrl":"https://madie.cms.gov/Condition/602703030df1fb00002a24b1","resource":{"resourceType":"Condition","id":"35c3e6ea-ead6-4ad3-ba76-6b7cebe68b57","meta":{"profile":["http://hl7.org/fhir/us/qicore/StructureDefinition/qicore-condition"]},"clinicalStatus":{"coding":[{"system":"http://terminology.hl7.org/CodeSystem/condition-clinical","code":"active","display":"active","userSelected":true}]},"verificationStatus":{"coding":[{"system":"http://terminology.hl7.org/CodeSystem/condition-ver-status","code":"confirmed","display":"Confirmed"}]},"category":[{"coding":[{"system":"http://terminology.hl7.org/CodeSystem/condition-category","code":"encounter-diagnosis","display":"Encounter Diagnosis"},{"system":"http://terminology.hl7.org/CodeSystem/condition-category","code":"problem-list-item","display":"Problem List Item"}]}],"code":{"coding":[{"system":"http://snomed.info/sct","code":"107691000119101"},{"system":"http://hl7.org/fhir/sid/icd-10-cm","code":"C48.0"}]},"subject":{"reference":"Patient/5327f324-e0f7-4e95-92ea-a534864a978b"},"onsetDateTime":"2025-11-01T08:00:00.000Z"},"request":{"method":"PUT","url":"Condition/35c3e6ea-ead6-4ad3-ba76-6b7cebe68b57"}},{"fullUrl":"https://madie.cms.gov/Encounter/6027038b0df1fb00002a252b","resource":{"resourceType":"Encounter","id":"d7b8e647-f0a8-40d7-bbc2-d4bc5cdfb6c7","meta":{"profile":["http://hl7.org/fhir/us/qicore/StructureDefinition/qicore-encounter"]},"status":"finished","class":{"system":"http://terminology.hl7.org/CodeSystem/v3-ActCode","code":"AMB","display":"ambulatory","userSelected":true},"type":[{"coding":[{"system":"http://snomed.info/sct","code":"185463005"}]}],"subject":{"reference":"Patient/5327f324-e0f7-4e95-92ea-a534864a978b"},"period":{"start":"2025-12-06T08:00:00.000Z","end":"2025-12-06T08:15:00.000Z"}},"request":{"method":"PUT","url":"Encounter/d7b8e647-f0a8-40d7-bbc2-d4bc5cdfb6c7"}},{"fullUrl":"https://madie.cms.gov/Encounter/602703cf0df1fb00002a25b9","resource":{"resourceType":"Encounter","id":"c93ff444-e3e9-4d0e-b3e2-3bc4133ecc9f","meta":{"profile":["http://hl7.org/fhir/us/qicore/StructureDefinition/qicore-encounter"]},"status":"finished","class":{"system":"http://terminology.hl7.org/CodeSystem/v3-ActCode","code":"AMB","display":"ambulatory","userSelected":true},"type":[{"coding":[{"system":"http://snomed.info/sct","code":"185463005"}]}],"subject":{"reference":"Patient/5327f324-e0f7-4e95-92ea-a534864a978b"},"period":{"start":"2025-01-02T08:00:00.000Z","end":"2025-01-02T08:15:00.000Z"}},"request":{"method":"PUT","url":"Encounter/c93ff444-e3e9-4d0e-b3e2-3bc4133ecc9f"}},{"fullUrl":"https://madie.cms.gov/Coverage/61043692a2f9161878c53ab1","resource":{"resourceType":"Coverage","id":"faee4de1-e51a-4000-834e-e5e35029ed46","meta":{"profile":["http://hl7.org/fhir/us/qicore/StructureDefinition/qicore-coverage"]},"status":"active","beneficiary":{"reference":"Patient/5327f324-e0f7-4e95-92ea-a534864a978b"},"period":{"start":"1970-02-18T08:00:00.000Z"},"payor":[{"reference":"Organization/a6c3e6fa-301e-4714-9d04-3dde9a7e7c49"}]},"request":{"method":"PUT","url":"Coverage/faee4de1-e51a-4000-834e-e5e35029ed46"}},{"fullUrl":"https://madie.cms.gov/Procedure/602703ac0df1fb00002a2563","resource":{"resourceType":"Procedure","id":"48043432-2077-4a3e-8e20-64f662a188c2","meta":{"profile":["http://hl7.org/fhir/us/qicore/StructureDefinition/qicore-procedure"]},"extension":[{"url":"http://hl7.org/fhir/us/qicore/StructureDefinition/qicore-recorded","valueDateTime":"2025-12-06T12:35:00.000Z"}],"status":"completed","code":{"coding":[{"system":"http://snomed.info/sct","code":"169396008"}]},"subject":{"reference":"Patient/5327f324-e0f7-4e95-92ea-a534864a978b"},"performedPeriod":{"start":"2025-12-06T08:00:00.000Z","end":"2025-12-06T08:15:00.000Z"}},"request":{"method":"PUT","url":"Procedure/48043432-2077-4a3e-8e20-64f662a188c2"}},{"fullUrl":"https://madie.cms.gov/Procedure/602703ba0df1fb00002a257b","resource":{"resourceType":"Procedure","id":"3b583beb-6019-46d0-b40c-35eadccb87f5","meta":{"profile":["http://hl7.org/fhir/us/qicore/StructureDefinition/qicore-procedure"]},"extension":[{"url":"http://hl7.org/fhir/us/qicore/StructureDefinition/qicore-recorded","valueDateTime":"2025-12-31T08:35:00.000Z"}],"status":"completed","code":{"coding":[{"system":"http://snomed.info/sct","code":"169396008"}]},"subject":{"reference":"Patient/5327f324-e0f7-4e95-92ea-a534864a978b"},"performedPeriod":{"start":"2025-12-31T08:00:00.000Z","end":"2025-12-31T08:15:00.000Z"}},"request":{"method":"PUT","url":"Procedure/3b583beb-6019-46d0-b40c-35eadccb87f5"}},{"fullUrl":"https://madie.cms.gov/Procedure/602703e10df1fb00002a25e2","resource":{"resourceType":"Procedure","id":"2e53c23e-868a-4430-82ce-bc8ea641fbfe","meta":{"profile":["http://hl7.org/fhir/us/qicore/StructureDefinition/qicore-procedure"]},"extension":[{"url":"http://hl7.org/fhir/us/qicore/StructureDefinition/qicore-recorded","valueDateTime":"2025-01-02T12:35:00.000Z"}],"status":"completed","code":{"coding":[{"system":"http://snomed.info/sct","code":"169396008"}]},"subject":{"reference":"Patient/5327f324-e0f7-4e95-92ea-a534864a978b"},"performedPeriod":{"start":"2025-01-02T08:00:00.000Z","end":"2025-01-02T08:15:00.000Z"}},"request":{"method":"PUT","url":"Procedure/2e53c23e-868a-4430-82ce-bc8ea641fbfe"}},{"fullUrl":"https://madie.cms.gov/Procedure/602703f50df1fb00002a261c","resource":{"resourceType":"Procedure","id":"2b2b1145-b610-4198-a750-6b33b54472fc","meta":{"profile":["http://hl7.org/fhir/us/qicore/StructureDefinition/qicore-procedure"]},"extension":[{"url":"http://hl7.org/fhir/us/qicore/StructureDefinition/qicore-recorded","valueDateTime":"2025-01-09T12:35:00.000Z"}],"status":"completed","code":{"coding":[{"system":"http://snomed.info/sct","code":"169396008"}]},"subject":{"reference":"Patient/5327f324-e0f7-4e95-92ea-a534864a978b"},"performedPeriod":{"start":"2025-01-09T08:00:00.000Z","end":"2025-01-09T08:15:00.000Z"}},"request":{"method":"PUT","url":"Procedure/2b2b1145-b610-4198-a750-6b33b54472fc"}},{"fullUrl":"https://madie.cms.gov/Procedure/602704110df1fb00002a264b","resource":{"resourceType":"Procedure","id":"28569284-2166-4038-af2f-4596a86d9830","meta":{"profile":["http://hl7.org/fhir/us/qicore/StructureDefinition/qicore-procedure"]},"extension":[{"url":"http://hl7.org/fhir/us/qicore/StructureDefinition/qicore-recorded","valueDateTime":"2025-01-16T12:35:00.000Z"}],"status":"completed","code":{"coding":[{"system":"http://snomed.info/sct","code":"169396008"}]},"subject":{"reference":"Patient/5327f324-e0f7-4e95-92ea-a534864a978b"},"performedPeriod":{"start":"2025-01-16T08:00:00.000Z","end":"2025-01-16T08:15:00.000Z"}},"request":{"method":"PUT","url":"Procedure/28569284-2166-4038-af2f-4596a86d9830"}},{"fullUrl":"https://madie.cms.gov/Procedure/602704540df1fb00002a26a0","resource":{"resourceType":"Procedure","id":"08159acc-30f4-4df7-bd7c-a57b60ca72d0","meta":{"profile":["http://hl7.org/fhir/us/qicore/StructureDefinition/qicore-procedure"]},"extension":[{"url":"http://hl7.org/fhir/us/qicore/StructureDefinition/qicore-recorded","valueDateTime":"2025-01-23T12:35:00.000Z"}],"status":"completed","code":{"coding":[{"system":"http://snomed.info/sct","code":"169396008"}]},"subject":{"reference":"Patient/5327f324-e0f7-4e95-92ea-a534864a978b"},"performedPeriod":{"start":"2025-01-23T08:00:00.000Z","end":"2025-01-23T08:15:00.000Z"}},"request":{"method":"PUT","url":"Procedure/08159acc-30f4-4df7-bd7c-a57b60ca72d0"}},{"fullUrl":"https://madie.cms.gov/Organization/123456","resource":{"resourceType":"Organization","id":"a6c3e6fa-301e-4714-9d04-3dde9a7e7c49","meta":{"profile":["http://hl7.org/fhir/us/qicore/StructureDefinition/qicore-organization"]},"identifier":[{"use":"temp","system":"urn:oid:2.16.840.1.113883.4.4","value":"21-3259825"}],"active":true,"type":[{"coding":[{"system":"http://terminology.hl7.org/CodeSystem/organization-type","code":"pay","display":"Payer"}]}],"name":"Blue Cross Blue Shield of Texas","telecom":[{"system":"phone","value":"(+1) 972-766-6900"}],"address":[{"use":"billing","type":"postal","line":["P.O. Box 660044"],"city":"Dallas","state":"TX","postalCode":"75266-0044","country":"USA"}]},"request":{"method":"PUT","url":"Organization/a6c3e6fa-301e-4714-9d04-3dde9a7e7c49"}},{"fullUrl":"https://madie.cms.gov/MeasureReport/66b9bc81-7d88-49bb-89ce-32f790c3a926","resource":{"resourceType":"MeasureReport","id":"66b9bc81-7d88-49bb-89ce-32f790c3a926","meta":{"profile":["http://hl7.org/fhir/us/cqfmeasures/StructureDefinition/test-case-cqfm"]},"contained":[{"resourceType":"Parameters","id":"1469a2fe-6244-44d0-b82a-71ea489c4076-parameters","parameter":[{"name":"subject","valueString":"5327f324-e0f7-4e95-92ea-a534864a978b"}]}],"extension":[{"url":"http://hl7.org/fhir/us/cqfmeasures/StructureDefinition/cqfm-inputParameters","valueReference":{"reference":"#1469a2fe-6244-44d0-b82a-71ea489c4076-parameters"}},{"url":"http://hl7.org/fhir/us/cqfmeasures/StructureDefinition/cqfm-testCaseDescription","valueMarkdown":"Patient encounter and chemo within 30 days after the measurement period, and has encounter and treatment during measurement period. "}],"modifierExtension":[{"url":"http://hl7.org/fhir/us/cqfmeasures/StructureDefinition/cqfm-isTestCase","valueBoolean":true}],"status":"complete","type":"individual","measure":"https://madie.cms.gov/Measure/OncologyPainIntensityQuantifiedFHIR","period":{"start":"2025-01-01","end":"2025-12-31"},"group":[{"population":[{"code":{"coding":[{"system":"http://terminology.hl7.org/CodeSystem/measure-population","code":"initial-population","display":"Initial Population"}]},"count":1},{"code":{"coding":[{"system":"http://terminology.hl7.org/CodeSystem/measure-population","code":"denominator","display":"Denominator"}]},"count":1},{"code":{"coding":[{"system":"http://terminology.hl7.org/CodeSystem/measure-population","code":"numerator","display":"Numerator"}]},"count":0}]},{"population":[{"code":{"coding":[{"system":"http://terminology.hl7.org/CodeSystem/measure-population","code":"initial-population","display":"Initial Population"}]},"count":0},{"code":{"coding":[{"system":"http://terminology.hl7.org/CodeSystem/measure-population","code":"denominator","display":"Denominator"}]},"count":0},{"code":{"coding":[{"system":"http://terminology.hl7.org/CodeSystem/measure-population","code":"numerator","display":"Numerator"}]},"count":0}]}]},"request":{"method":"PUT","url":"MeasureReport/66b9bc81-7d88-49bb-89ce-32f790c3a926"}}]}