{"resourceType":"Bundle","id":"tests-33bdb226-a5fb-4c20-a429-8dac3875b722-bundle","type":"transaction","entry":[{"fullUrl":"https://madie.cms.gov/Patient/33bdb226-a5fb-4c20-a429-8dac3875b722","resource":{"resourceType":"Patient","id":"33bdb226-a5fb-4c20-a429-8dac3875b722","meta":{"profile":["http://hl7.org/fhir/us/qicore/StructureDefinition/qicore-patient"]},"text":{"status":"generated","div":"<div xmlns=\"http://www.w3.org/1999/xhtml\"><div class=\"hapiHeaderText\">RadTxInvalidCode<b>IPPFailPop2</b></div><table class=\"hapiPropertyTable\"><tbody><tr><td>Identifier</td><td>d1b8aaec1bc687c93a6007331530738b</td></tr><tr><td>Date of birth</td><td><span>25 April 1981</span></td></tr></tbody></table></div>"},"extension":[{"url":"http://hl7.org/fhir/us/core/StructureDefinition/us-core-race","extension":[{"url":"ombCategory","valueCoding":{"system":"urn:oid:2.16.840.1.113883.6.238","code":"1002-5","display":"American Indian or Alaska Native","userSelected":true}},{"url":"text","valueString":"American Indian or Alaska Native"}]},{"url":"http://hl7.org/fhir/us/core/StructureDefinition/us-core-ethnicity","extension":[{"url":"ombCategory","valueCoding":{"system":"urn:oid:2.16.840.1.113883.6.238","code":"2135-2","display":"Hispanic or Latino","userSelected":true}},{"url":"text","valueString":"Hispanic or Latino"}]}],"identifier":[{"type":{"coding":[{"system":"http://terminology.hl7.org/CodeSystem/v2-0203","code":"MR"}]},"system":"https://bonnie-fhir.healthit.gov/","value":"62c880ec0111a60120dc21ff"}],"active":true,"name":[{"use":"usual","family":"IPPFailPop2","given":["RadTxInvalidCode"]}],"gender":"male","birthDate":"1981-04-25"},"request":{"method":"PUT","url":"Patient/33bdb226-a5fb-4c20-a429-8dac3875b722"}},{"fullUrl":"https://madie.cms.gov/Condition/5ca5260cb8484613a555a982","resource":{"resourceType":"Condition","id":"e898a56b-3818-41cb-b710-ce5829a7c34c","meta":{"profile":["http://hl7.org/fhir/us/qicore/StructureDefinition/qicore-condition"]},"clinicalStatus":{"coding":[{"system":"http://terminology.hl7.org/CodeSystem/condition-clinical","code":"active","display":"Active"}]},"verificationStatus":{"coding":[{"system":"http://terminology.hl7.org/CodeSystem/condition-ver-status","code":"confirmed","display":"Confirmed"}]},"category":[{"coding":[{"system":"http://terminology.hl7.org/CodeSystem/condition-category","code":"problem-list-item","display":"Problem List Item"}]}],"code":{"coding":[{"system":"http://hl7.org/fhir/sid/icd-10-cm","code":"C00.0"}]},"subject":{"reference":"Patient/33bdb226-a5fb-4c20-a429-8dac3875b722"},"onsetDateTime":"2021-01-06T12:45:00.000Z"},"request":{"method":"PUT","url":"Condition/e898a56b-3818-41cb-b710-ce5829a7c34c"}},{"fullUrl":"https://madie.cms.gov/Encounter/5ca5260cb8484613a555a983","resource":{"resourceType":"Encounter","id":"a9e058e7-093e-433b-851f-e7ff4e40a49b","meta":{"profile":["http://hl7.org/fhir/us/qicore/StructureDefinition/qicore-encounter"]},"status":"finished","class":{"system":"http://terminology.hl7.org/CodeSystem/v3-ActCode","code":"AMB","display":"ambulatory","userSelected":true},"type":[{"coding":[{"system":"http://snomed.info/sct","code":"185463005"},{"system":"http://www.ama-assn.org/go/cpt","code":"99202"}]}],"subject":{"reference":"Patient/33bdb226-a5fb-4c20-a429-8dac3875b722"},"period":{"start":"2025-05-06T12:45:00.000Z","end":"2025-05-06T13:00:00.000Z"}},"request":{"method":"PUT","url":"Encounter/a9e058e7-093e-433b-851f-e7ff4e40a49b"}},{"fullUrl":"https://madie.cms.gov/Coverage/60099ac81c76ba64612b065b","resource":{"resourceType":"Coverage","id":"b73bd095-5cc0-4f1d-9d12-26383f0329f7","meta":{"profile":["http://hl7.org/fhir/us/qicore/StructureDefinition/qicore-coverage"]},"status":"active","beneficiary":{"reference":"Patient/33bdb226-a5fb-4c20-a429-8dac3875b722"},"period":{"start":"1981-04-25T08:00:00.000Z"},"payor":[{"reference":"Organization/3e899f33-84eb-4634-a770-a5a0bd7a80e7"}]},"request":{"method":"PUT","url":"Coverage/b73bd095-5cc0-4f1d-9d12-26383f0329f7"}},{"fullUrl":"https://madie.cms.gov/Encounter/5ca5260cb8484613a555a984","resource":{"resourceType":"Encounter","id":"97aa548b-2b2d-468c-bc65-2f4bc6f95e2e","meta":{"profile":["http://hl7.org/fhir/us/qicore/StructureDefinition/qicore-encounter"]},"status":"finished","class":{"system":"http://terminology.hl7.org/CodeSystem/v3-ActCode","code":"AMB","display":"ambulatory","userSelected":true},"type":[{"coding":[{"system":"http://www.ama-assn.org/go/cpt","code":"00000"}]}],"subject":{"reference":"Patient/33bdb226-a5fb-4c20-a429-8dac3875b722"},"period":{"start":"2025-05-06T13:30:00.000Z","end":"2025-05-06T16:30:00.000Z"}},"request":{"method":"PUT","url":"Encounter/97aa548b-2b2d-468c-bc65-2f4bc6f95e2e"}},{"fullUrl":"https://madie.cms.gov/Organization/123456","resource":{"resourceType":"Organization","id":"3e899f33-84eb-4634-a770-a5a0bd7a80e7","meta":{"profile":["http://hl7.org/fhir/us/qicore/StructureDefinition/qicore-organization"]},"identifier":[{"use":"temp","system":"urn:oid:2.16.840.1.113883.4.4","value":"21-3259825"}],"active":true,"type":[{"coding":[{"system":"http://terminology.hl7.org/CodeSystem/organization-type","code":"pay","display":"Payer"}]}],"name":"Blue Cross Blue Shield of Texas","telecom":[{"system":"phone","value":"(+1) 972-766-6900"}],"address":[{"use":"billing","type":"postal","line":["P.O. Box 660044"],"city":"Dallas","state":"TX","postalCode":"75266-0044","country":"USA"}]},"request":{"method":"PUT","url":"Organization/3e899f33-84eb-4634-a770-a5a0bd7a80e7"}},{"fullUrl":"https://madie.cms.gov/Practitioner/practitioner-123456","resource":{"resourceType":"Practitioner","id":"1ab13895-fae4-4673-bb3d-0600c607fd6e","meta":{"profile":["http://hl7.org/fhir/us/qicore/StructureDefinition/qicore-practitioner"]},"identifier":[{"system":"http://hl7.org/fhir/sid/us-npi","value":"123456"}],"name":[{"family":"Evil","prefix":["Dr"]}]},"request":{"method":"PUT","url":"Practitioner/1ab13895-fae4-4673-bb3d-0600c607fd6e"}},{"fullUrl":"https://madie.cms.gov/MeasureReport/af4c12a9-36ab-465e-a8d6-83e5285aabe3","resource":{"resourceType":"MeasureReport","id":"af4c12a9-36ab-465e-a8d6-83e5285aabe3","meta":{"profile":["http://hl7.org/fhir/us/cqfmeasures/StructureDefinition/test-case-cqfm"]},"contained":[{"resourceType":"Parameters","id":"0013ba1f-ffe3-4154-bcd2-24d30741302d-parameters","parameter":[{"name":"subject","valueString":"33bdb226-a5fb-4c20-a429-8dac3875b722"}]}],"extension":[{"url":"http://hl7.org/fhir/us/cqfmeasures/StructureDefinition/cqfm-inputParameters","valueReference":{"reference":"#0013ba1f-ffe3-4154-bcd2-24d30741302d-parameters"}},{"url":"http://hl7.org/fhir/us/cqfmeasures/StructureDefinition/cqfm-testCaseDescription","valueMarkdown":"Patient with cancer diagnosis that overlaps radiation treatment management during measurement period, but radiation treatment management contains invalid code.\n"}],"modifierExtension":[{"url":"http://hl7.org/fhir/us/cqfmeasures/StructureDefinition/cqfm-isTestCase","valueBoolean":true}],"status":"complete","type":"individual","measure":"https://madie.cms.gov/Measure/OncologyPainIntensityQuantifiedFHIR","period":{"start":"2025-01-01","end":"2025-12-31"},"group":[{"population":[{"code":{"coding":[{"system":"http://terminology.hl7.org/CodeSystem/measure-population","code":"initial-population","display":"Initial Population"}]},"count":0},{"code":{"coding":[{"system":"http://terminology.hl7.org/CodeSystem/measure-population","code":"denominator","display":"Denominator"}]},"count":0},{"code":{"coding":[{"system":"http://terminology.hl7.org/CodeSystem/measure-population","code":"numerator","display":"Numerator"}]},"count":0}]},{"population":[{"code":{"coding":[{"system":"http://terminology.hl7.org/CodeSystem/measure-population","code":"initial-population","display":"Initial Population"}]},"count":0},{"code":{"coding":[{"system":"http://terminology.hl7.org/CodeSystem/measure-population","code":"denominator","display":"Denominator"}]},"count":0},{"code":{"coding":[{"system":"http://terminology.hl7.org/CodeSystem/measure-population","code":"numerator","display":"Numerator"}]},"count":0}]}]},"request":{"method":"PUT","url":"MeasureReport/af4c12a9-36ab-465e-a8d6-83e5285aabe3"}}]}