{"resourceType":"Bundle","id":"tests-9a55bc28-43ac-4af0-8fc6-833acf9776e0-bundle","type":"transaction","entry":[{"fullUrl":"https://madie.cms.gov/Patient/9a55bc28-43ac-4af0-8fc6-833acf9776e0","resource":{"resourceType":"Patient","id":"9a55bc28-43ac-4af0-8fc6-833acf9776e0","meta":{"profile":["http://hl7.org/fhir/us/qicore/StructureDefinition/qicore-patient"]},"text":{"status":"generated","div":"<div xmlns=\"http://www.w3.org/1999/xhtml\"><div class=\"hapiHeaderText\">OV&amp;ChemoNoPainAssess<b>NUMERFAILPOP1</b></div><table class=\"hapiPropertyTable\"><tbody><tr><td>Identifier</td><td>478f763041c33091d5d812e99efd9a27</td></tr><tr><td>Date of birth</td><td><span>24 March 1986</span></td></tr></tbody></table></div>"},"extension":[{"url":"http://hl7.org/fhir/us/core/StructureDefinition/us-core-race","extension":[{"url":"ombCategory","valueCoding":{"system":"urn:oid:2.16.840.1.113883.6.238","code":"1002-5","display":"American Indian or Alaska Native","userSelected":true}},{"url":"text","valueString":"American Indian or Alaska Native"}]},{"url":"http://hl7.org/fhir/us/core/StructureDefinition/us-core-ethnicity","extension":[{"url":"ombCategory","valueCoding":{"system":"urn:oid:2.16.840.1.113883.6.238","code":"2135-2","display":"Hispanic or Latino","userSelected":true}},{"url":"text","valueString":"Hispanic or Latino"}]}],"identifier":[{"type":{"coding":[{"system":"http://terminology.hl7.org/CodeSystem/v2-0203","code":"MR"}]},"system":"https://bonnie-fhir.healthit.gov/","value":"62c880ed0111a60120dc2223"}],"active":true,"name":[{"use":"usual","family":"NUMERFailPop1","given":["OV&ChemoNoPainAssess"]}],"gender":"female","birthDate":"1986-03-24"},"request":{"method":"PUT","url":"Patient/9a55bc28-43ac-4af0-8fc6-833acf9776e0"}},{"fullUrl":"https://madie.cms.gov/Condition/5ca52605b8484613a555a90e","resource":{"resourceType":"Condition","id":"0783d4c4-a126-4ff4-9206-0ca7e2b8663f","meta":{"profile":["http://hl7.org/fhir/us/qicore/StructureDefinition/qicore-condition"]},"clinicalStatus":{"coding":[{"system":"http://terminology.hl7.org/CodeSystem/condition-clinical","code":"active","display":"active","userSelected":true}]},"verificationStatus":{"coding":[{"system":"http://terminology.hl7.org/CodeSystem/condition-ver-status","code":"confirmed","display":"Confirmed"}]},"category":[{"coding":[{"system":"http://terminology.hl7.org/CodeSystem/condition-category","code":"problem-list-item","display":"Problem List Item"}]}],"code":{"coding":[{"system":"http://snomed.info/sct","code":"107691000119101"}]},"subject":{"reference":"Patient/9a55bc28-43ac-4af0-8fc6-833acf9776e0"},"onsetDateTime":"2020-02-15T10:00:00.000Z"},"request":{"method":"PUT","url":"Condition/0783d4c4-a126-4ff4-9206-0ca7e2b8663f"}},{"fullUrl":"https://madie.cms.gov/Condition/5ca52605b8484613a555a90f","resource":{"resourceType":"Condition","id":"9128eebc-17d7-4ffa-a548-7229d952c703","meta":{"profile":["http://hl7.org/fhir/us/qicore/StructureDefinition/qicore-condition"]},"clinicalStatus":{"coding":[{"system":"http://terminology.hl7.org/CodeSystem/condition-clinical","code":"active","display":"active","userSelected":true}]},"verificationStatus":{"coding":[{"system":"http://terminology.hl7.org/CodeSystem/condition-ver-status","code":"confirmed","display":"Confirmed"}]},"category":[{"coding":[{"system":"http://terminology.hl7.org/CodeSystem/condition-category","code":"problem-list-item","display":"Problem List Item"}]}],"code":{"coding":[{"system":"http://hl7.org/fhir/sid/icd-10-cm","code":"C00.0"}]},"subject":{"reference":"Patient/9a55bc28-43ac-4af0-8fc6-833acf9776e0"},"onsetDateTime":"2020-11-24T08:00:00.000Z"},"request":{"method":"PUT","url":"Condition/9128eebc-17d7-4ffa-a548-7229d952c703"}},{"fullUrl":"https://madie.cms.gov/Encounter/5ca52605b8484613a555a910","resource":{"resourceType":"Encounter","id":"39c5d3b0-db7b-4c44-a28b-cf617c3d9e0d","meta":{"profile":["http://hl7.org/fhir/us/qicore/StructureDefinition/qicore-encounter"]},"status":"finished","class":{"system":"http://terminology.hl7.org/CodeSystem/v3-ActCode","code":"AMB","display":"ambulatory","userSelected":true},"type":[{"coding":[{"system":"http://www.ama-assn.org/go/cpt","code":"99213"}]}],"subject":{"reference":"Patient/9a55bc28-43ac-4af0-8fc6-833acf9776e0"},"period":{"start":"2025-07-15T16:00:00.000Z","end":"2025-07-15T16:00:00.000Z"}},"request":{"method":"PUT","url":"Encounter/39c5d3b0-db7b-4c44-a28b-cf617c3d9e0d"}},{"fullUrl":"https://madie.cms.gov/Coverage/60099ac61c76ba64612b0640","resource":{"resourceType":"Coverage","id":"c73f5a25-c858-4d75-ae5e-37b35d6bf3ec","meta":{"profile":["http://hl7.org/fhir/us/qicore/StructureDefinition/qicore-coverage"]},"status":"active","beneficiary":{"reference":"Patient/9a55bc28-43ac-4af0-8fc6-833acf9776e0"},"period":{"start":"1986-03-24T08:00:00.000Z"},"payor":[{"reference":"Organization/80573fa1-cf83-4e9a-8f21-86a018689678"}]},"request":{"method":"PUT","url":"Coverage/c73f5a25-c858-4d75-ae5e-37b35d6bf3ec"}},{"fullUrl":"https://madie.cms.gov/Procedure/5ca52605b8484613a555a911","resource":{"resourceType":"Procedure","id":"620b7383-8272-426f-a46d-f0dc087fcae5","meta":{"profile":["http://hl7.org/fhir/us/qicore/StructureDefinition/qicore-procedure"]},"extension":[{"url":"http://hl7.org/fhir/us/qicore/StructureDefinition/qicore-recorded","valueDateTime":"2025-06-16T12:35:00.000Z"}],"status":"completed","code":{"coding":[{"system":"http://www.ama-assn.org/go/cpt","code":"96409"}]},"subject":{"reference":"Patient/9a55bc28-43ac-4af0-8fc6-833acf9776e0"},"performedPeriod":{"start":"2025-06-16T14:45:00.000Z","end":"2025-06-16T15:45:00.000Z"}},"request":{"method":"PUT","url":"Procedure/620b7383-8272-426f-a46d-f0dc087fcae5"}},{"fullUrl":"https://madie.cms.gov/Procedure/5ca52605b8484613a555a912","resource":{"resourceType":"Procedure","id":"7e34d32e-85ce-47a3-b372-4f3ec5a59e94","meta":{"profile":["http://hl7.org/fhir/us/qicore/StructureDefinition/qicore-procedure"]},"extension":[{"url":"http://hl7.org/fhir/us/qicore/StructureDefinition/qicore-recorded","valueDateTime":"2025-08-12T12:35:00.000Z"}],"status":"completed","code":{"coding":[{"system":"http://www.ama-assn.org/go/cpt","code":"96409"}]},"subject":{"reference":"Patient/9a55bc28-43ac-4af0-8fc6-833acf9776e0"},"performedPeriod":{"start":"2025-08-12T14:00:00.000Z","end":"2025-08-12T14:00:00.000Z"}},"request":{"method":"PUT","url":"Procedure/7e34d32e-85ce-47a3-b372-4f3ec5a59e94"}},{"fullUrl":"https://madie.cms.gov/Organization/123456","resource":{"resourceType":"Organization","id":"80573fa1-cf83-4e9a-8f21-86a018689678","meta":{"profile":["http://hl7.org/fhir/us/qicore/StructureDefinition/qicore-organization"]},"identifier":[{"use":"temp","system":"urn:oid:2.16.840.1.113883.4.4","value":"21-3259825"}],"active":true,"type":[{"coding":[{"system":"http://terminology.hl7.org/CodeSystem/organization-type","code":"pay","display":"Payer"}]}],"name":"Blue Cross Blue Shield of Texas","telecom":[{"system":"phone","value":"(+1) 972-766-6900"}],"address":[{"use":"billing","type":"postal","line":["P.O. Box 660044"],"city":"Dallas","state":"TX","postalCode":"75266-0044","country":"USA"}]},"request":{"method":"PUT","url":"Organization/80573fa1-cf83-4e9a-8f21-86a018689678"}},{"fullUrl":"https://madie.cms.gov/Practitioner/practitioner-123456","resource":{"resourceType":"Practitioner","id":"aaf56e11-f3d5-496b-8662-37ffcaa22875","meta":{"profile":["http://hl7.org/fhir/us/qicore/StructureDefinition/qicore-practitioner"]},"identifier":[{"system":"http://hl7.org/fhir/sid/us-npi","value":"123456"}],"name":[{"family":"Evil","prefix":["Dr"]}]},"request":{"method":"PUT","url":"Practitioner/aaf56e11-f3d5-496b-8662-37ffcaa22875"}},{"fullUrl":"https://madie.cms.gov/MeasureReport/b34d532b-d746-4078-be31-2ed02f79734f","resource":{"resourceType":"MeasureReport","id":"b34d532b-d746-4078-be31-2ed02f79734f","meta":{"profile":["http://hl7.org/fhir/us/cqfmeasures/StructureDefinition/test-case-cqfm"]},"contained":[{"resourceType":"Parameters","id":"167a6e67-42f3-448d-809a-19f2084f7e69-parameters","parameter":[{"name":"subject","valueString":"9a55bc28-43ac-4af0-8fc6-833acf9776e0"}]}],"extension":[{"url":"http://hl7.org/fhir/us/cqfmeasures/StructureDefinition/cqfm-inputParameters","valueReference":{"reference":"#167a6e67-42f3-448d-809a-19f2084f7e69-parameters"}},{"url":"http://hl7.org/fhir/us/cqfmeasures/StructureDefinition/cqfm-testCaseDescription","valueMarkdown":"Patient with cancer diagnosis overlaps the office visit during measurement period. Chemotherapy administered but no pain intensity assessment was performed. \n"}],"modifierExtension":[{"url":"http://hl7.org/fhir/us/cqfmeasures/StructureDefinition/cqfm-isTestCase","valueBoolean":true}],"status":"complete","type":"individual","measure":"https://madie.cms.gov/Measure/OncologyPainIntensityQuantifiedFHIR","period":{"start":"2025-01-01","end":"2025-12-31"},"group":[{"population":[{"code":{"coding":[{"system":"http://terminology.hl7.org/CodeSystem/measure-population","code":"initial-population","display":"Initial Population"}]},"count":1},{"code":{"coding":[{"system":"http://terminology.hl7.org/CodeSystem/measure-population","code":"denominator","display":"Denominator"}]},"count":1},{"code":{"coding":[{"system":"http://terminology.hl7.org/CodeSystem/measure-population","code":"numerator","display":"Numerator"}]},"count":0}]},{"population":[{"code":{"coding":[{"system":"http://terminology.hl7.org/CodeSystem/measure-population","code":"initial-population","display":"Initial Population"}]},"count":0},{"code":{"coding":[{"system":"http://terminology.hl7.org/CodeSystem/measure-population","code":"denominator","display":"Denominator"}]},"count":0},{"code":{"coding":[{"system":"http://terminology.hl7.org/CodeSystem/measure-population","code":"numerator","display":"Numerator"}]},"count":0}]}]},"request":{"method":"PUT","url":"MeasureReport/b34d532b-d746-4078-be31-2ed02f79734f"}}]}