{"resourceType":"Bundle","id":"tests-66c60f6c-2a7b-4868-b9bd-5ede60b61463-bundle","type":"transaction","entry":[{"fullUrl":"https://madie.cms.gov/Patient/66c60f6c-2a7b-4868-b9bd-5ede60b61463","resource":{"resourceType":"Patient","id":"66c60f6c-2a7b-4868-b9bd-5ede60b61463","meta":{"profile":["http://hl7.org/fhir/us/qicore/StructureDefinition/qicore-patient"]},"text":{"status":"generated","div":"<div xmlns=\"http://www.w3.org/1999/xhtml\"><div class=\"hapiHeaderText\">PainAssessAfterRadTx<b>NUMERFailPop2</b></div><table class=\"hapiPropertyTable\"><tbody><tr><td>Identifier</td><td>108ca9ccb4a98e1577b2d9bbb79712df</td></tr><tr><td>Date of birth</td><td><span>12 April 1941</span></td></tr></tbody></table></div>"},"extension":[{"url":"http://hl7.org/fhir/us/core/StructureDefinition/us-core-race","extension":[{"url":"ombCategory","valueCoding":{"system":"urn:oid:2.16.840.1.113883.6.238","code":"1002-5","display":"American Indian or Alaska Native","userSelected":true}},{"url":"text","valueString":"American Indian or Alaska Native"}]},{"url":"http://hl7.org/fhir/us/core/StructureDefinition/us-core-ethnicity","extension":[{"url":"ombCategory","valueCoding":{"system":"urn:oid:2.16.840.1.113883.6.238","code":"2135-2","display":"Hispanic or Latino","userSelected":true}},{"url":"text","valueString":"Hispanic or Latino"}]}],"identifier":[{"type":{"coding":[{"system":"http://terminology.hl7.org/CodeSystem/v2-0203","code":"MR"}]},"system":"https://bonnie-fhir.healthit.gov/","value":"62c880ed0111a60120dc221d"}],"active":true,"name":[{"use":"usual","family":"NUMERFailPop2","given":["PainAssessAfterRadTx"]}],"gender":"male","birthDate":"1941-04-12"},"request":{"method":"PUT","url":"Patient/66c60f6c-2a7b-4868-b9bd-5ede60b61463"}},{"fullUrl":"https://madie.cms.gov/Observation/5e41c5eaa9c22a0000b32a85","resource":{"resourceType":"Observation","id":"eb3a5b98-7375-4814-8536-e7d7d6d4b3f4","meta":{"profile":["http://hl7.org/fhir/us/qicore/StructureDefinition/qicore-observation"]},"status":"final","category":[{"coding":[{"system":"http://terminology.hl7.org/CodeSystem/observation-category","code":"survey","display":"Survey"}],"text":"Survey"}],"code":{"coding":[{"system":"http://loinc.org","code":"38208-5","display":"Pain severity - Reported"}],"text":"Pain severity - Reported"},"subject":{"reference":"Patient/66c60f6c-2a7b-4868-b9bd-5ede60b61463"},"effectiveDateTime":"2025-03-10T08:00:00.000Z","valueInteger":7},"request":{"method":"PUT","url":"Observation/eb3a5b98-7375-4814-8536-e7d7d6d4b3f4"}},{"fullUrl":"https://madie.cms.gov/Condition/5ca52609b8484613a555a944","resource":{"resourceType":"Condition","id":"167635ef-704f-4f6e-b51b-844061da9211","meta":{"profile":["http://hl7.org/fhir/us/qicore/StructureDefinition/qicore-condition"]},"clinicalStatus":{"coding":[{"system":"http://terminology.hl7.org/CodeSystem/condition-clinical","code":"active","display":"Active","userSelected":true}]},"verificationStatus":{"coding":[{"system":"http://terminology.hl7.org/CodeSystem/condition-ver-status","code":"confirmed","display":"Confirmed"}]},"category":[{"coding":[{"system":"http://terminology.hl7.org/CodeSystem/condition-category","code":"problem-list-item","display":"Problem List Item"}]}],"code":{"coding":[{"system":"http://hl7.org/fhir/sid/icd-10-cm","code":"C00.0"}]},"subject":{"reference":"Patient/66c60f6c-2a7b-4868-b9bd-5ede60b61463"},"onsetDateTime":"2022-06-01T14:00:00.000Z"},"request":{"method":"PUT","url":"Condition/167635ef-704f-4f6e-b51b-844061da9211"}},{"fullUrl":"https://madie.cms.gov/Coverage/60099ac71c76ba64612b064f","resource":{"resourceType":"Coverage","id":"9dfabd37-23fd-4d13-a6ae-72742f149825","meta":{"profile":["http://hl7.org/fhir/us/qicore/StructureDefinition/qicore-coverage"]},"status":"active","beneficiary":{"reference":"Patient/66c60f6c-2a7b-4868-b9bd-5ede60b61463"},"period":{"start":"1941-04-12T08:00:00.000Z"},"payor":[{"reference":"Organization/db141f66-a1cc-407b-9e95-adac27adee14"}]},"request":{"method":"PUT","url":"Coverage/9dfabd37-23fd-4d13-a6ae-72742f149825"}},{"fullUrl":"https://madie.cms.gov/Encounter/radiation-treatment-management-1893","resource":{"resourceType":"Encounter","id":"474052f4-5044-4da9-8cc0-61615b29dde9","meta":{"profile":["http://hl7.org/fhir/us/qicore/StructureDefinition/qicore-encounter"]},"status":"finished","class":{"system":"http://terminology.hl7.org/CodeSystem/v3-ActCode","code":"AMB","display":"ambulatory","userSelected":true},"type":[{"coding":[{"system":"http://snomed.info/sct","code":"84755001","userSelected":true}]}],"subject":{"reference":"Patient/66c60f6c-2a7b-4868-b9bd-5ede60b61463"},"period":{"start":"2025-02-01T14:00:00.000+00:00","end":"2025-02-01T14:15:00.000+00:00"}},"request":{"method":"PUT","url":"Encounter/474052f4-5044-4da9-8cc0-61615b29dde9"}},{"fullUrl":"https://madie.cms.gov/Organization/123456","resource":{"resourceType":"Organization","id":"db141f66-a1cc-407b-9e95-adac27adee14","meta":{"profile":["http://hl7.org/fhir/us/qicore/StructureDefinition/qicore-organization"]},"identifier":[{"use":"temp","system":"urn:oid:2.16.840.1.113883.4.4","value":"21-3259825"}],"active":true,"type":[{"coding":[{"system":"http://terminology.hl7.org/CodeSystem/organization-type","code":"pay","display":"Payer"}]}],"name":"Blue Cross Blue Shield of Texas","telecom":[{"system":"phone","value":"(+1) 972-766-6900"}],"address":[{"use":"billing","type":"postal","line":["P.O. Box 660044"],"city":"Dallas","state":"TX","postalCode":"75266-0044","country":"USA"}]},"request":{"method":"PUT","url":"Organization/db141f66-a1cc-407b-9e95-adac27adee14"}},{"fullUrl":"https://madie.cms.gov/Practitioner/practitioner-123456","resource":{"resourceType":"Practitioner","id":"5f90a449-412d-4368-b938-70f32a1b5f4d","meta":{"profile":["http://hl7.org/fhir/us/qicore/StructureDefinition/qicore-practitioner"]},"identifier":[{"system":"http://hl7.org/fhir/sid/us-npi","value":"123456"}],"name":[{"family":"Evil","prefix":["Dr"]}]},"request":{"method":"PUT","url":"Practitioner/5f90a449-412d-4368-b938-70f32a1b5f4d"}},{"fullUrl":"https://madie.cms.gov/MeasureReport/663b6159-5eb4-45f3-944e-e6c7e3e10616","resource":{"resourceType":"MeasureReport","id":"663b6159-5eb4-45f3-944e-e6c7e3e10616","meta":{"profile":["http://hl7.org/fhir/us/cqfmeasures/StructureDefinition/test-case-cqfm"]},"contained":[{"resourceType":"Parameters","id":"e4ffcafb-03ae-41fd-ba74-0ec0b3a59ad3-parameters","parameter":[{"name":"subject","valueString":"66c60f6c-2a7b-4868-b9bd-5ede60b61463"}]}],"extension":[{"url":"http://hl7.org/fhir/us/cqfmeasures/StructureDefinition/cqfm-inputParameters","valueReference":{"reference":"#e4ffcafb-03ae-41fd-ba74-0ec0b3a59ad3-parameters"}},{"url":"http://hl7.org/fhir/us/cqfmeasures/StructureDefinition/cqfm-testCaseDescription","valueMarkdown":"Patient with cancer diagnosis that overlaps radiation treatment management during measurement period. Pain intensity assessment was performed after radiation treatment management encounter."}],"modifierExtension":[{"url":"http://hl7.org/fhir/us/cqfmeasures/StructureDefinition/cqfm-isTestCase","valueBoolean":true}],"status":"complete","type":"individual","measure":"https://madie.cms.gov/Measure/OncologyPainIntensityQuantifiedFHIR","period":{"start":"2025-01-01","end":"2025-12-31"},"group":[{"population":[{"code":{"coding":[{"system":"http://terminology.hl7.org/CodeSystem/measure-population","code":"initial-population","display":"Initial Population"}]},"count":0},{"code":{"coding":[{"system":"http://terminology.hl7.org/CodeSystem/measure-population","code":"denominator","display":"Denominator"}]},"count":0},{"code":{"coding":[{"system":"http://terminology.hl7.org/CodeSystem/measure-population","code":"numerator","display":"Numerator"}]},"count":0}]},{"population":[{"code":{"coding":[{"system":"http://terminology.hl7.org/CodeSystem/measure-population","code":"initial-population","display":"Initial Population"}]},"count":1},{"code":{"coding":[{"system":"http://terminology.hl7.org/CodeSystem/measure-population","code":"denominator","display":"Denominator"}]},"count":1},{"code":{"coding":[{"system":"http://terminology.hl7.org/CodeSystem/measure-population","code":"numerator","display":"Numerator"}]},"count":0}]}]},"request":{"method":"PUT","url":"MeasureReport/663b6159-5eb4-45f3-944e-e6c7e3e10616"}}]}