{"resourceType":"Bundle","id":"tests-b0729673-76ed-4c08-ae06-acd214ad203d-bundle","type":"transaction","entry":[{"fullUrl":"https://madie.cms.gov/Patient/b0729673-76ed-4c08-ae06-acd214ad203d","resource":{"resourceType":"Patient","id":"b0729673-76ed-4c08-ae06-acd214ad203d","meta":{"profile":["http://hl7.org/fhir/us/qicore/StructureDefinition/qicore-patient"]},"text":{"status":"generated","div":"<div xmlns=\"http://www.w3.org/1999/xhtml\"><div class=\"hapiHeaderText\">PainAssessDuringEnc<b>NUMERPassPop1</b></div><table class=\"hapiPropertyTable\"><tbody><tr><td>Date of birth</td><td><span>18 February 1970</span></td></tr></tbody></table></div>"},"extension":[{"url":"http://hl7.org/fhir/us/core/StructureDefinition/us-core-race","extension":[{"url":"ombCategory","valueCoding":{"system":"urn:oid:2.16.840.1.113883.6.238","code":"1002-5","display":"American Indian or Alaska Native","userSelected":true}},{"url":"text","valueString":"American Indian or Alaska Native"}]},{"url":"http://hl7.org/fhir/us/core/StructureDefinition/us-core-ethnicity","extension":[{"url":"ombCategory","valueCoding":{"system":"urn:oid:2.16.840.1.113883.6.238","code":"2135-2","display":"Hispanic or Latino","userSelected":true}},{"url":"text","valueString":"Hispanic or Latino"}]}],"identifier":[{"type":{"coding":[{"system":"http://terminology.hl7.org/CodeSystem/v2-0203","code":"MR"}]},"system":"https://bonnie-fhir.healthit.gov/","value":"62c880eb0111a60120dc21eb"}],"active":true,"name":[{"use":"usual","family":"NUMERPassPop1","given":["PainAssessDuringEnc"]}],"gender":"female","birthDate":"1970-02-18"},"request":{"method":"PUT","url":"Patient/b0729673-76ed-4c08-ae06-acd214ad203d"}},{"fullUrl":"https://madie.cms.gov/Condition/602703030df1fb00002a24b1","resource":{"resourceType":"Condition","id":"6c1a2818-d89a-4f52-88e8-5acc13df622b","meta":{"profile":["http://hl7.org/fhir/us/qicore/StructureDefinition/qicore-condition"]},"clinicalStatus":{"coding":[{"system":"http://terminology.hl7.org/CodeSystem/condition-clinical","code":"active","display":"active","userSelected":true}]},"verificationStatus":{"coding":[{"system":"http://terminology.hl7.org/CodeSystem/condition-ver-status","code":"confirmed","display":"Confirmed"}]},"category":[{"coding":[{"system":"http://terminology.hl7.org/CodeSystem/condition-category","code":"encounter-diagnosis","display":"Encounter Diagnosis"},{"system":"http://terminology.hl7.org/CodeSystem/condition-category","code":"problem-list-item","display":"Problem List Item"}]}],"code":{"coding":[{"system":"http://snomed.info/sct","code":"107691000119101"},{"system":"http://hl7.org/fhir/sid/icd-10-cm","code":"C48.0"}]},"subject":{"reference":"Patient/b0729673-76ed-4c08-ae06-acd214ad203d"},"onsetDateTime":"2023-11-01T08:00:00.000Z"},"request":{"method":"PUT","url":"Condition/6c1a2818-d89a-4f52-88e8-5acc13df622b"}},{"fullUrl":"https://madie.cms.gov/Encounter/6027038b0df1fb00002a252b","resource":{"resourceType":"Encounter","id":"baef8323-2bcc-470a-8bdf-f7dd06303e82","meta":{"profile":["http://hl7.org/fhir/us/qicore/StructureDefinition/qicore-encounter"]},"status":"finished","class":{"system":"http://terminology.hl7.org/CodeSystem/v3-ActCode","code":"AMB","display":"ambulatory","userSelected":true},"type":[{"coding":[{"system":"http://snomed.info/sct","code":"185463005"}]}],"subject":{"reference":"Patient/b0729673-76ed-4c08-ae06-acd214ad203d"},"period":{"start":"2025-01-30T08:00:00.000Z","end":"2025-01-30T08:15:00.000Z"}},"request":{"method":"PUT","url":"Encounter/baef8323-2bcc-470a-8bdf-f7dd06303e82"}},{"fullUrl":"https://madie.cms.gov/Encounter/602703cf0df1fb00002a25b9","resource":{"resourceType":"Encounter","id":"0a09cbd4-f831-4bae-bb20-15905cb1daa7","meta":{"profile":["http://hl7.org/fhir/us/qicore/StructureDefinition/qicore-encounter"]},"status":"finished","class":{"system":"http://terminology.hl7.org/CodeSystem/v3-ActCode","code":"AMB","display":"ambulatory","userSelected":true},"type":[{"coding":[{"system":"http://snomed.info/sct","code":"185463005"}]}],"subject":{"reference":"Patient/b0729673-76ed-4c08-ae06-acd214ad203d"},"period":{"start":"2025-03-03T13:30:00.000Z","end":"2025-03-03T14:30:00.000Z"}},"request":{"method":"PUT","url":"Encounter/0a09cbd4-f831-4bae-bb20-15905cb1daa7"}},{"fullUrl":"https://madie.cms.gov/Encounter/602703cf0df1fb00002a25c9","resource":{"resourceType":"Encounter","id":"7e5a413d-4298-47bb-aee5-7916e0aa8785","meta":{"profile":["http://hl7.org/fhir/us/qicore/StructureDefinition/qicore-encounter"]},"status":"finished","class":{"system":"http://terminology.hl7.org/CodeSystem/v3-ActCode","code":"AMB","display":"ambulatory","userSelected":true},"type":[{"coding":[{"system":"http://snomed.info/sct","code":"185463005"}]}],"subject":{"reference":"Patient/b0729673-76ed-4c08-ae06-acd214ad203d"},"period":{"start":"2025-05-30T08:00:00.000Z","end":"2025-05-30T08:15:00.000Z"}},"request":{"method":"PUT","url":"Encounter/7e5a413d-4298-47bb-aee5-7916e0aa8785"}},{"fullUrl":"https://madie.cms.gov/Encounter/602703cf0df1fb00002a25d9","resource":{"resourceType":"Encounter","id":"50af4e1f-7420-44a9-8645-39c9a39b9a7a","meta":{"profile":["http://hl7.org/fhir/us/qicore/StructureDefinition/qicore-encounter"]},"status":"finished","class":{"system":"http://terminology.hl7.org/CodeSystem/v3-ActCode","code":"AMB","display":"ambulatory","userSelected":true},"type":[{"coding":[{"system":"http://snomed.info/sct","code":"185463005"}]}],"subject":{"reference":"Patient/b0729673-76ed-4c08-ae06-acd214ad203d"},"period":{"start":"2025-07-03T08:00:00.000Z","end":"2025-07-03T08:15:00.000Z"}},"request":{"method":"PUT","url":"Encounter/50af4e1f-7420-44a9-8645-39c9a39b9a7a"}},{"fullUrl":"https://madie.cms.gov/Coverage/61043692a2f9161878c53ab1","resource":{"resourceType":"Coverage","id":"cee7b974-92c4-432c-89a1-7682412e6e13","meta":{"profile":["http://hl7.org/fhir/us/qicore/StructureDefinition/qicore-coverage"]},"status":"active","beneficiary":{"reference":"Patient/b0729673-76ed-4c08-ae06-acd214ad203d"},"period":{"start":"1970-02-18T08:00:00.000Z"},"payor":[{"reference":"Organization/80573fa1-cf83-4e9a-8f21-86a018689678"}]},"request":{"method":"PUT","url":"Coverage/cee7b974-92c4-432c-89a1-7682412e6e13"}},{"fullUrl":"https://madie.cms.gov/Procedure/602703ac0df1fb00002a2563","resource":{"resourceType":"Procedure","id":"b12691c2-88a1-431f-acee-db1cd9032fa8","meta":{"profile":["http://hl7.org/fhir/us/qicore/StructureDefinition/qicore-procedure"]},"extension":[{"url":"http://hl7.org/fhir/us/qicore/StructureDefinition/qicore-recorded","valueDateTime":"2025-02-27T12:35:00.000Z"}],"status":"completed","code":{"coding":[{"system":"http://snomed.info/sct","code":"169396008"}]},"subject":{"reference":"Patient/b0729673-76ed-4c08-ae06-acd214ad203d"},"performedPeriod":{"start":"2025-02-27T08:00:00.000Z","end":"2025-02-27T08:15:00.000Z"}},"request":{"method":"PUT","url":"Procedure/b12691c2-88a1-431f-acee-db1cd9032fa8"}},{"fullUrl":"https://madie.cms.gov/Procedure/602703ba0df1fb00002a257b","resource":{"resourceType":"Procedure","id":"fc164801-3fb9-4c60-9ddf-32fb501e8620","meta":{"profile":["http://hl7.org/fhir/us/qicore/StructureDefinition/qicore-procedure"]},"extension":[{"url":"http://hl7.org/fhir/us/qicore/StructureDefinition/qicore-recorded","valueDateTime":"2025-04-01T12:35:00.000Z"}],"status":"completed","code":{"coding":[{"system":"http://snomed.info/sct","code":"169396008"}]},"subject":{"reference":"Patient/b0729673-76ed-4c08-ae06-acd214ad203d"},"performedPeriod":{"start":"2025-04-01T08:00:00.000Z","end":"2025-04-01T08:15:00.000Z"}},"request":{"method":"PUT","url":"Procedure/fc164801-3fb9-4c60-9ddf-32fb501e8620"}},{"fullUrl":"https://madie.cms.gov/Procedure/602703e10df1fb00002a25e2","resource":{"resourceType":"Procedure","id":"59d42404-2002-42ef-aad1-ad3b111611f5","meta":{"profile":["http://hl7.org/fhir/us/qicore/StructureDefinition/qicore-procedure"]},"extension":[{"url":"http://hl7.org/fhir/us/qicore/StructureDefinition/qicore-recorded","valueDateTime":"2025-06-04T12:35:00.000Z"}],"status":"completed","code":{"coding":[{"system":"http://snomed.info/sct","code":"169396008"}]},"subject":{"reference":"Patient/b0729673-76ed-4c08-ae06-acd214ad203d"},"performedPeriod":{"start":"2025-06-04T08:00:00.000Z","end":"2025-06-04T08:15:00.000Z"}},"request":{"method":"PUT","url":"Procedure/59d42404-2002-42ef-aad1-ad3b111611f5"}},{"fullUrl":"https://madie.cms.gov/Observation/5ca5260bb8484613a555a963","resource":{"resourceType":"Observation","id":"98e63054-3796-445c-9722-fcfd1c754292","meta":{"profile":["http://hl7.org/fhir/us/qicore/StructureDefinition/qicore-observation"]},"status":"final","category":[{"coding":[{"system":"http://terminology.hl7.org/CodeSystem/observation-category","code":"survey","display":"Survey"}],"text":"Survey"}],"code":{"coding":[{"system":"http://loinc.org","code":"38208-5","display":"Pain severity - Reported"}],"text":"Pain severity - Reported"},"subject":{"reference":"Patient/b0729673-76ed-4c08-ae06-acd214ad203d"},"effectiveDateTime":"2025-03-03T14:00:00.000Z","valueInteger":10},"request":{"method":"PUT","url":"Observation/98e63054-3796-445c-9722-fcfd1c754292"}},{"fullUrl":"https://madie.cms.gov/Observation/5ca5260bb8484613a555a964","resource":{"resourceType":"Observation","id":"8edf1eaf-e695-4cd8-94af-2a6f764a2fdd","meta":{"profile":["http://hl7.org/fhir/us/qicore/StructureDefinition/qicore-observation"]},"status":"final","category":[{"coding":[{"system":"http://terminology.hl7.org/CodeSystem/observation-category","code":"survey","display":"Survey"}],"text":"Survey"}],"code":{"coding":[{"system":"http://loinc.org","code":"38208-5","display":"Pain severity - Reported"}],"text":"Pain severity - Reported"},"subject":{"reference":"Patient/b0729673-76ed-4c08-ae06-acd214ad203d"},"effectiveDateTime":"2025-05-22T08:00:00.000Z"},"request":{"method":"PUT","url":"Observation/8edf1eaf-e695-4cd8-94af-2a6f764a2fdd"}},{"fullUrl":"https://madie.cms.gov/Observation/5ca5260bb8484613a555a965","resource":{"resourceType":"Observation","id":"aa6f9f2c-3383-4988-8124-e21da453caaf","meta":{"profile":["http://hl7.org/fhir/us/qicore/StructureDefinition/qicore-observation"]},"status":"final","category":[{"coding":[{"system":"http://terminology.hl7.org/CodeSystem/observation-category","code":"survey","display":"Survey"}],"text":"Survey"}],"code":{"coding":[{"system":"http://loinc.org","code":"38208-5","display":"Pain severity - Reported"}],"text":"Pain severity - Reported"},"subject":{"reference":"Patient/b0729673-76ed-4c08-ae06-acd214ad203d"},"effectiveDateTime":"2025-06-01T11:30:00.000Z"},"request":{"method":"PUT","url":"Observation/aa6f9f2c-3383-4988-8124-e21da453caaf"}},{"fullUrl":"https://madie.cms.gov/Organization/123456","resource":{"resourceType":"Organization","id":"80573fa1-cf83-4e9a-8f21-86a018689678","meta":{"profile":["http://hl7.org/fhir/us/qicore/StructureDefinition/qicore-organization"]},"identifier":[{"use":"temp","system":"urn:oid:2.16.840.1.113883.4.4","value":"21-3259825"}],"active":true,"type":[{"coding":[{"system":"http://terminology.hl7.org/CodeSystem/organization-type","code":"pay","display":"Payer"}]}],"name":"Blue Cross Blue Shield of Texas","telecom":[{"system":"phone","value":"(+1) 972-766-6900"}],"address":[{"use":"billing","type":"postal","line":["P.O. Box 660044"],"city":"Dallas","state":"TX","postalCode":"75266-0044","country":"USA"}]},"request":{"method":"PUT","url":"Organization/80573fa1-cf83-4e9a-8f21-86a018689678"}},{"fullUrl":"https://madie.cms.gov/MeasureReport/db05e022-9fea-4ec1-a2eb-cd9bb0587a56","resource":{"resourceType":"MeasureReport","id":"db05e022-9fea-4ec1-a2eb-cd9bb0587a56","meta":{"profile":["http://hl7.org/fhir/us/cqfmeasures/StructureDefinition/test-case-cqfm"]},"contained":[{"resourceType":"Parameters","id":"72452a3f-fcf3-4736-8438-292dc8c7c7ae-parameters","parameter":[{"name":"subject","valueString":"b0729673-76ed-4c08-ae06-acd214ad203d"}]}],"extension":[{"url":"http://hl7.org/fhir/us/cqfmeasures/StructureDefinition/cqfm-inputParameters","valueReference":{"reference":"#72452a3f-fcf3-4736-8438-292dc8c7c7ae-parameters"}},{"url":"http://hl7.org/fhir/us/cqfmeasures/StructureDefinition/cqfm-testCaseDescription","valueMarkdown":"Patient with cancer diagnosis overlaps the office visits during measurement period. Chemotherapy administered, and pain intensity assessment was performed during an office visit.   \n\n"}],"modifierExtension":[{"url":"http://hl7.org/fhir/us/cqfmeasures/StructureDefinition/cqfm-isTestCase","valueBoolean":true}],"status":"complete","type":"individual","measure":"https://madie.cms.gov/Measure/OncologyPainIntensityQuantifiedFHIR","period":{"start":"2025-01-01","end":"2025-12-31"},"group":[{"population":[{"code":{"coding":[{"system":"http://terminology.hl7.org/CodeSystem/measure-population","code":"initial-population","display":"Initial Population"}]},"count":1},{"code":{"coding":[{"system":"http://terminology.hl7.org/CodeSystem/measure-population","code":"denominator","display":"Denominator"}]},"count":1},{"code":{"coding":[{"system":"http://terminology.hl7.org/CodeSystem/measure-population","code":"numerator","display":"Numerator"}]},"count":1}]},{"population":[{"code":{"coding":[{"system":"http://terminology.hl7.org/CodeSystem/measure-population","code":"initial-population","display":"Initial Population"}]},"count":0},{"code":{"coding":[{"system":"http://terminology.hl7.org/CodeSystem/measure-population","code":"denominator","display":"Denominator"}]},"count":0},{"code":{"coding":[{"system":"http://terminology.hl7.org/CodeSystem/measure-population","code":"numerator","display":"Numerator"}]},"count":0}]}]},"request":{"method":"PUT","url":"MeasureReport/db05e022-9fea-4ec1-a2eb-cd9bb0587a56"}}]}