{"resourceType":"Bundle","id":"tests-8e23417a-471a-45bb-b936-57466dc6592c-bundle","type":"transaction","entry":[{"fullUrl":"https://madie.cms.gov/Patient/8e23417a-471a-45bb-b936-57466dc6592c","resource":{"resourceType":"Patient","id":"8e23417a-471a-45bb-b936-57466dc6592c","meta":{"profile":["http://hl7.org/fhir/us/qicore/StructureDefinition/qicore-patient"]},"text":{"status":"generated","div":"<div xmlns=\"http://www.w3.org/1999/xhtml\"><div class=\"hapiHeaderText\">MultEpNum1Den2<b>NUMERPassPop1</b></div><table class=\"hapiPropertyTable\"><tbody><tr><td>Identifier</td><td>3d64e5f7a37d9e8f441d6730bc0bb02c10b4ee6481741cad529c3ff180eab3d3</td></tr><tr><td>Date of birth</td><td><span>13 May 1937</span></td></tr></tbody></table></div>"},"extension":[{"url":"http://hl7.org/fhir/us/core/StructureDefinition/us-core-race","extension":[{"url":"ombCategory","valueCoding":{"system":"urn:oid:2.16.840.1.113883.6.238","code":"1002-5","display":"American Indian or Alaska Native","userSelected":true}},{"url":"text","valueString":"American Indian or Alaska Native"}]},{"url":"http://hl7.org/fhir/us/core/StructureDefinition/us-core-ethnicity","extension":[{"url":"ombCategory","valueCoding":{"system":"urn:oid:2.16.840.1.113883.6.238","code":"2135-2","display":"Hispanic or Latino","userSelected":true}},{"url":"text","valueString":"Hispanic or Latino"}]}],"identifier":[{"type":{"coding":[{"system":"http://terminology.hl7.org/CodeSystem/v2-0203","code":"MR"}]},"system":"https://bonnie-fhir.healthit.gov/","value":"62c880ec0111a60120dc21f0"}],"active":true,"name":[{"use":"usual","family":"NUMERPassPop1","given":["MultEp1Num1Den2"]}],"gender":"female","birthDate":"1937-05-13"},"request":{"method":"PUT","url":"Patient/8e23417a-471a-45bb-b936-57466dc6592c"}},{"fullUrl":"https://madie.cms.gov/Observation/5ca5260fb8484613a555a9c0","resource":{"resourceType":"Observation","id":"e55e8ead-8fb9-4a0f-b0a3-ff29d2c630eb","meta":{"profile":["http://hl7.org/fhir/us/qicore/StructureDefinition/qicore-observation"]},"status":"final","category":[{"coding":[{"system":"http://terminology.hl7.org/CodeSystem/observation-category","code":"survey","display":"Survey"}],"text":"Survey"}],"code":{"coding":[{"system":"http://loinc.org","code":"38208-5","display":"Pain severity - Reported"}],"text":"Pain severity - Reported"},"subject":{"reference":"Patient/8e23417a-471a-45bb-b936-57466dc6592c"},"effectiveDateTime":"2025-03-03T14:00:00.000+00:00","valueInteger":10},"request":{"method":"PUT","url":"Observation/e55e8ead-8fb9-4a0f-b0a3-ff29d2c630eb"}},{"fullUrl":"https://madie.cms.gov/Observation/5ca5260fb8484613a555a9c2","resource":{"resourceType":"Observation","id":"355265a3-ab72-4022-b619-270e2af905d7","meta":{"profile":["http://hl7.org/fhir/us/qicore/StructureDefinition/qicore-observation"]},"status":"final","category":[{"coding":[{"system":"http://terminology.hl7.org/CodeSystem/observation-category","code":"survey","display":"Survey"}],"text":"Survey"}],"code":{"coding":[{"system":"http://loinc.org","code":"38208-5","display":"Pain severity - Reported"}],"text":"Pain severity - Reported"},"subject":{"reference":"Patient/8e23417a-471a-45bb-b936-57466dc6592c"},"effectiveDateTime":"2025-05-22T08:00:00.000+00:00"},"request":{"method":"PUT","url":"Observation/355265a3-ab72-4022-b619-270e2af905d7"}},{"fullUrl":"https://madie.cms.gov/Observation/5ca5260fb8484613a555a9c21","resource":{"resourceType":"Observation","id":"9045a10a-f420-41c2-a272-7439d20a75fd","meta":{"profile":["http://hl7.org/fhir/us/qicore/StructureDefinition/qicore-observation"]},"status":"final","category":[{"coding":[{"system":"http://terminology.hl7.org/CodeSystem/observation-category","code":"survey","display":"Survey"}],"text":"Survey"}],"code":{"coding":[{"system":"http://loinc.org","code":"38208-5","display":"Pain severity - Reported"}],"text":"Pain severity - Reported"},"subject":{"reference":"Patient/8e23417a-471a-45bb-b936-57466dc6592c"},"effectiveDateTime":"2025-05-30T13:00:00.000+00:00"},"request":{"method":"PUT","url":"Observation/9045a10a-f420-41c2-a272-7439d20a75fd"}},{"fullUrl":"https://madie.cms.gov/Condition/5ca5260fb8484613a555a9b7","resource":{"resourceType":"Condition","id":"f4f840c5-b223-4cd2-87ca-7907c5ccf0cc","meta":{"profile":["http://hl7.org/fhir/us/qicore/StructureDefinition/qicore-condition"]},"clinicalStatus":{"coding":[{"system":"http://terminology.hl7.org/CodeSystem/condition-clinical","code":"active","display":"active","userSelected":true}]},"verificationStatus":{"coding":[{"system":"http://terminology.hl7.org/CodeSystem/condition-ver-status","code":"confirmed","display":"Confirmed"}]},"category":[{"coding":[{"system":"http://terminology.hl7.org/CodeSystem/condition-category","code":"problem-list-item","display":"Problem List Item"}]}],"code":{"coding":[{"system":"http://hl7.org/fhir/sid/icd-10-cm","code":"C00.0"}]},"subject":{"reference":"Patient/8e23417a-471a-45bb-b936-57466dc6592c"},"onsetDateTime":"2011-11-01T13:30:00.000Z"},"request":{"method":"PUT","url":"Condition/f4f840c5-b223-4cd2-87ca-7907c5ccf0cc"}},{"fullUrl":"https://madie.cms.gov/Encounter/5ca5260fb8484613a555a9b8","resource":{"resourceType":"Encounter","id":"e21b40bf-36c2-4e62-8353-63981d4b74e6","meta":{"profile":["http://hl7.org/fhir/us/qicore/StructureDefinition/qicore-encounter"]},"status":"finished","class":{"system":"http://terminology.hl7.org/CodeSystem/v3-ActCode","code":"AMB","display":"ambulatory","userSelected":true},"type":[{"coding":[{"system":"http://snomed.info/sct","code":"185463005"}]}],"subject":{"reference":"Patient/8e23417a-471a-45bb-b936-57466dc6592c"},"period":{"start":"2025-01-30T14:00:00.000Z","end":"2025-01-30T15:00:00.000Z"}},"request":{"method":"PUT","url":"Encounter/e21b40bf-36c2-4e62-8353-63981d4b74e6"}},{"fullUrl":"https://madie.cms.gov/Encounter/5ca5260fb8484613a555a9b9","resource":{"resourceType":"Encounter","id":"4fa62504-a6a8-4322-b068-29b41c121414","meta":{"profile":["http://hl7.org/fhir/us/qicore/StructureDefinition/qicore-encounter"]},"status":"finished","class":{"system":"http://terminology.hl7.org/CodeSystem/v3-ActCode","code":"AMB","display":"ambulatory","userSelected":true},"type":[{"coding":[{"system":"http://snomed.info/sct","code":"185463005"}]}],"subject":{"reference":"Patient/8e23417a-471a-45bb-b936-57466dc6592c"},"period":{"start":"2025-03-03T13:30:00.000Z","end":"2025-03-03T14:30:00.000Z"}},"request":{"method":"PUT","url":"Encounter/4fa62504-a6a8-4322-b068-29b41c121414"}},{"fullUrl":"https://madie.cms.gov/Encounter/5ca5260fb8484613a555a9ba","resource":{"resourceType":"Encounter","id":"708b5e86-6d67-4652-ab17-2a5430910ac4","meta":{"profile":["http://hl7.org/fhir/us/qicore/StructureDefinition/qicore-encounter"]},"status":"finished","class":{"system":"http://terminology.hl7.org/CodeSystem/v3-ActCode","code":"AMB","display":"ambulatory","userSelected":true},"type":[{"coding":[{"system":"http://www.ama-assn.org/go/cpt","code":"99202"}]}],"subject":{"reference":"Patient/8e23417a-471a-45bb-b936-57466dc6592c"},"period":{"start":"2025-05-30T12:45:00.000Z","end":"2025-05-30T13:45:00.000Z"}},"request":{"method":"PUT","url":"Encounter/708b5e86-6d67-4652-ab17-2a5430910ac4"}},{"fullUrl":"https://madie.cms.gov/Encounter/5ca5260fb8484613a555a9bb","resource":{"resourceType":"Encounter","id":"3bdd1315-d728-490e-ad16-6045ab6a2f18","meta":{"profile":["http://hl7.org/fhir/us/qicore/StructureDefinition/qicore-encounter"]},"status":"finished","class":{"system":"http://terminology.hl7.org/CodeSystem/v3-ActCode","code":"AMB","display":"ambulatory","userSelected":true},"type":[{"coding":[{"system":"http://www.ama-assn.org/go/cpt","code":"99201"}]}],"subject":{"reference":"Patient/8e23417a-471a-45bb-b936-57466dc6592c"},"period":{"start":"2025-07-03T10:45:00.000Z","end":"2025-07-03T11:45:00.000Z"}},"request":{"method":"PUT","url":"Encounter/3bdd1315-d728-490e-ad16-6045ab6a2f18"}},{"fullUrl":"https://madie.cms.gov/Coverage/60099aca1c76ba64612b0685","resource":{"resourceType":"Coverage","id":"2a443613-7749-49ef-a5fc-8ccdc565dbae","meta":{"profile":["http://hl7.org/fhir/us/qicore/StructureDefinition/qicore-coverage"]},"status":"active","beneficiary":{"reference":"Patient/8e23417a-471a-45bb-b936-57466dc6592c"},"period":{"start":"1937-05-13T08:00:00.000Z"},"payor":[{"reference":"Organization/880a275e-1cf2-4fb9-869b-f1d2173fdc2b"}]},"request":{"method":"PUT","url":"Coverage/2a443613-7749-49ef-a5fc-8ccdc565dbae"}},{"fullUrl":"https://madie.cms.gov/Procedure/5ca5260fb8484613a555a9bc","resource":{"resourceType":"Procedure","id":"efd51b57-4ae0-49d1-845c-19e8bb0ae1ae","meta":{"profile":["http://hl7.org/fhir/us/qicore/StructureDefinition/qicore-procedure"]},"extension":[{"url":"http://hl7.org/fhir/us/qicore/StructureDefinition/qicore-recorded","valueDateTime":"2025-02-27T12:35:00.000Z"}],"status":"completed","code":{"coding":[{"system":"http://www.ama-assn.org/go/cpt","code":"96409"}]},"subject":{"reference":"Patient/8e23417a-471a-45bb-b936-57466dc6592c"},"performedPeriod":{"start":"2025-02-27T11:30:00.000Z","end":"2025-02-27T11:30:00.000Z"}},"request":{"method":"PUT","url":"Procedure/efd51b57-4ae0-49d1-845c-19e8bb0ae1ae"}},{"fullUrl":"https://madie.cms.gov/Procedure/5ca5260fb8484613a555a9bd","resource":{"resourceType":"Procedure","id":"1db24bd4-d7fe-4c2e-961c-090bb608e6c1","meta":{"profile":["http://hl7.org/fhir/us/qicore/StructureDefinition/qicore-procedure"]},"extension":[{"url":"http://hl7.org/fhir/us/qicore/StructureDefinition/qicore-recorded","valueDateTime":"2025-04-01T12:35:00.000Z"}],"status":"completed","code":{"coding":[{"system":"http://www.ama-assn.org/go/cpt","code":"96409"}]},"subject":{"reference":"Patient/8e23417a-471a-45bb-b936-57466dc6592c"},"performedPeriod":{"start":"2025-04-01T12:30:00.000Z","end":"2025-04-01T12:30:00.000Z"}},"request":{"method":"PUT","url":"Procedure/1db24bd4-d7fe-4c2e-961c-090bb608e6c1"}},{"fullUrl":"https://madie.cms.gov/Procedure/5ca5260fb8484613a555a9be","resource":{"resourceType":"Procedure","id":"2bc973e3-66ca-40ad-b323-9f84418d7621","meta":{"profile":["http://hl7.org/fhir/us/qicore/StructureDefinition/qicore-procedure"]},"extension":[{"url":"http://hl7.org/fhir/us/qicore/StructureDefinition/qicore-recorded","valueDateTime":"2025-05-30T13:55:00.000Z"}],"status":"completed","code":{"coding":[{"system":"http://snomed.info/sct","code":"169396008"}]},"subject":{"reference":"Patient/8e23417a-471a-45bb-b936-57466dc6592c"},"performedPeriod":{"start":"2025-05-30T12:45:00.000Z","end":"2025-05-30T13:45:00.000Z"}},"request":{"method":"PUT","url":"Procedure/2bc973e3-66ca-40ad-b323-9f84418d7621"}},{"fullUrl":"https://madie.cms.gov/Procedure/5ca5260fb8484613a555a9bf","resource":{"resourceType":"Procedure","id":"c5437659-f43a-4aac-b046-8182bca87f7f","meta":{"profile":["http://hl7.org/fhir/us/qicore/StructureDefinition/qicore-procedure"]},"extension":[{"url":"http://hl7.org/fhir/us/qicore/StructureDefinition/qicore-recorded","valueDateTime":"2025-06-04T16:35:00.000Z"}],"status":"completed","code":{"coding":[{"system":"http://www.ama-assn.org/go/cpt","code":"51720"}]},"subject":{"reference":"Patient/8e23417a-471a-45bb-b936-57466dc6592c"},"performedPeriod":{"start":"2025-06-04T15:30:00.000Z","end":"2025-06-04T15:30:00.000Z"}},"request":{"method":"PUT","url":"Procedure/c5437659-f43a-4aac-b046-8182bca87f7f"}},{"fullUrl":"https://madie.cms.gov/Organization/123456","resource":{"resourceType":"Organization","id":"880a275e-1cf2-4fb9-869b-f1d2173fdc2b","meta":{"profile":["http://hl7.org/fhir/us/qicore/StructureDefinition/qicore-organization"]},"identifier":[{"use":"temp","system":"urn:oid:2.16.840.1.113883.4.4","value":"21-3259825"}],"active":true,"type":[{"coding":[{"system":"http://terminology.hl7.org/CodeSystem/organization-type","code":"pay","display":"Payer"}]}],"name":"Blue Cross Blue Shield of Texas","telecom":[{"system":"phone","value":"(+1) 972-766-6900"}],"address":[{"use":"billing","type":"postal","line":["P.O. Box 660044"],"city":"Dallas","state":"TX","postalCode":"75266-0044","country":"USA"}]},"request":{"method":"PUT","url":"Organization/880a275e-1cf2-4fb9-869b-f1d2173fdc2b"}},{"fullUrl":"https://madie.cms.gov/Practitioner/practitioner-123456","resource":{"resourceType":"Practitioner","id":"23ac7431-53af-4236-a437-288b000e2ff7","meta":{"profile":["http://hl7.org/fhir/us/qicore/StructureDefinition/qicore-practitioner"]},"identifier":[{"system":"http://hl7.org/fhir/sid/us-npi","value":"123456"}],"name":[{"family":"Evil","prefix":["Dr"]}]},"request":{"method":"PUT","url":"Practitioner/23ac7431-53af-4236-a437-288b000e2ff7"}},{"fullUrl":"https://madie.cms.gov/MeasureReport/d30786ba-7e54-4646-84dd-66bf302f8fda","resource":{"resourceType":"MeasureReport","id":"d30786ba-7e54-4646-84dd-66bf302f8fda","meta":{"profile":["http://hl7.org/fhir/us/cqfmeasures/StructureDefinition/test-case-cqfm"]},"contained":[{"resourceType":"Parameters","id":"5b963712-d5bb-40c8-bf2c-0d18867ec751-parameters","parameter":[{"name":"subject","valueString":"8e23417a-471a-45bb-b936-57466dc6592c"}]}],"extension":[{"url":"http://hl7.org/fhir/us/cqfmeasures/StructureDefinition/cqfm-inputParameters","valueReference":{"reference":"#5b963712-d5bb-40c8-bf2c-0d18867ec751-parameters"}},{"url":"http://hl7.org/fhir/us/cqfmeasures/StructureDefinition/cqfm-testCaseDescription","valueMarkdown":"Patient with cancer diagnosis overlaps the office visits during measurement period. Multiple chemotherapy administrations prior and after office visits. Pain intensity assessment was performed during 2 office visits, but only 1 has a result.    \n"}],"modifierExtension":[{"url":"http://hl7.org/fhir/us/cqfmeasures/StructureDefinition/cqfm-isTestCase","valueBoolean":true}],"status":"complete","type":"individual","measure":"https://madie.cms.gov/Measure/OncologyPainIntensityQuantifiedFHIR","period":{"start":"2025-01-01","end":"2025-12-31"},"group":[{"population":[{"code":{"coding":[{"system":"http://terminology.hl7.org/CodeSystem/measure-population","code":"initial-population","display":"Initial Population"}]},"count":2},{"code":{"coding":[{"system":"http://terminology.hl7.org/CodeSystem/measure-population","code":"denominator","display":"Denominator"}]},"count":2},{"code":{"coding":[{"system":"http://terminology.hl7.org/CodeSystem/measure-population","code":"numerator","display":"Numerator"}]},"count":1}]},{"population":[{"code":{"coding":[{"system":"http://terminology.hl7.org/CodeSystem/measure-population","code":"initial-population","display":"Initial Population"}]},"count":0},{"code":{"coding":[{"system":"http://terminology.hl7.org/CodeSystem/measure-population","code":"denominator","display":"Denominator"}]},"count":0},{"code":{"coding":[{"system":"http://terminology.hl7.org/CodeSystem/measure-population","code":"numerator","display":"Numerator"}]},"count":0}]}]},"request":{"method":"PUT","url":"MeasureReport/d30786ba-7e54-4646-84dd-66bf302f8fda"}}]}