{"resourceType":"Bundle","id":"tests-a521979b-9bae-48cf-893d-26b6abef5ce6-bundle","type":"transaction","entry":[{"fullUrl":"https://madie.cms.gov/Patient/a521979b-9bae-48cf-893d-26b6abef5ce6","resource":{"resourceType":"Patient","id":"a521979b-9bae-48cf-893d-26b6abef5ce6","meta":{"profile":["http://hl7.org/fhir/us/qicore/StructureDefinition/qicore-patient"]},"text":{"status":"generated","div":"<div xmlns=\"http://www.w3.org/1999/xhtml\"><div class=\"hapiHeaderText\">Chemo31DaysPriorEnc<b>IPPFailPop1</b></div><table class=\"hapiPropertyTable\"><tbody><tr><td>Identifier</td><td>ff3925b673f4a036a257dd80aff86021</td></tr><tr><td>Date of birth</td><td><span>18 September 1931</span></td></tr></tbody></table></div>"},"extension":[{"url":"http://hl7.org/fhir/us/core/StructureDefinition/us-core-race","extension":[{"url":"ombCategory","valueCoding":{"system":"urn:oid:2.16.840.1.113883.6.238","code":"1002-5","display":"American Indian or Alaska Native","userSelected":true}},{"url":"text","valueString":"American Indian or Alaska Native"}]},{"url":"http://hl7.org/fhir/us/core/StructureDefinition/us-core-ethnicity","extension":[{"url":"ombCategory","valueCoding":{"system":"urn:oid:2.16.840.1.113883.6.238","code":"2135-2","display":"Hispanic or Latino","userSelected":true}},{"url":"text","valueString":"Hispanic or Latino"}]}],"identifier":[{"type":{"coding":[{"system":"http://terminology.hl7.org/CodeSystem/v2-0203","code":"MR"}]},"system":"https://bonnie-fhir.healthit.gov/","value":"62c880ec0111a60120dc2203"}],"active":true,"name":[{"use":"usual","family":"IPPFailPop1","given":["ChemoOver30DaysPriorEnc"]}],"gender":"male","birthDate":"1931-09-18"},"request":{"method":"PUT","url":"Patient/a521979b-9bae-48cf-893d-26b6abef5ce6"}},{"fullUrl":"https://madie.cms.gov/Condition/5ca5260ab8484613a555a94a","resource":{"resourceType":"Condition","id":"3d151d2f-3c2f-4570-aa90-f2d992283a76","meta":{"profile":["http://hl7.org/fhir/us/qicore/StructureDefinition/qicore-condition"]},"clinicalStatus":{"coding":[{"system":"http://terminology.hl7.org/CodeSystem/condition-clinical","code":"active","display":"Active"}]},"verificationStatus":{"coding":[{"system":"http://terminology.hl7.org/CodeSystem/condition-ver-status","code":"confirmed","display":"Confirmed"}]},"category":[{"coding":[{"system":"http://terminology.hl7.org/CodeSystem/condition-category","code":"problem-list-item","display":"Problem List Item"}]}],"code":{"coding":[{"system":"http://snomed.info/sct","code":"423746001"}]},"subject":{"reference":"Patient/a521979b-9bae-48cf-893d-26b6abef5ce6"},"onsetDateTime":"2009-10-05T13:00:00.000Z"},"request":{"method":"PUT","url":"Condition/3d151d2f-3c2f-4570-aa90-f2d992283a76"}},{"fullUrl":"https://madie.cms.gov/Encounter/5ca5260ab8484613a555a94b","resource":{"resourceType":"Encounter","id":"d6f81910-e6dc-4311-bc21-b6892c405c88","meta":{"profile":["http://hl7.org/fhir/us/qicore/StructureDefinition/qicore-encounter"]},"status":"finished","class":{"system":"http://terminology.hl7.org/CodeSystem/v3-ActCode","code":"AMB","display":"ambulatory","userSelected":true},"type":[{"coding":[{"system":"http://snomed.info/sct","code":"185463005"}]}],"subject":{"reference":"Patient/a521979b-9bae-48cf-893d-26b6abef5ce6"},"period":{"start":"2025-04-01T13:30:00.000Z","end":"2025-04-01T13:30:00.000Z"}},"request":{"method":"PUT","url":"Encounter/d6f81910-e6dc-4311-bc21-b6892c405c88"}},{"fullUrl":"https://madie.cms.gov/Coverage/60099ac51c76ba64612b062b","resource":{"resourceType":"Coverage","id":"6d0217c3-2eb1-4c68-926a-43fa8dc269a6","meta":{"profile":["http://hl7.org/fhir/us/qicore/StructureDefinition/qicore-coverage"]},"status":"active","beneficiary":{"reference":"Patient/a521979b-9bae-48cf-893d-26b6abef5ce6"},"period":{"start":"1931-09-18T08:00:00.000Z"},"payor":[{"reference":"Organization/024e2731-b045-43bf-80d2-684774c5b51c"}]},"request":{"method":"PUT","url":"Coverage/6d0217c3-2eb1-4c68-926a-43fa8dc269a6"}},{"fullUrl":"https://madie.cms.gov/Procedure/5ca5260ab8484613a555a94c","resource":{"resourceType":"Procedure","id":"94e6f518-bce9-40f1-81d1-1d44222992a6","meta":{"profile":["http://hl7.org/fhir/us/qicore/StructureDefinition/qicore-procedure"]},"extension":[{"url":"http://hl7.org/fhir/us/qicore/StructureDefinition/qicore-recorded","valueDateTime":"2025-03-01T14:35:00.000Z"}],"status":"completed","code":{"coding":[{"system":"http://snomed.info/sct","code":"169396008"}]},"subject":{"reference":"Patient/a521979b-9bae-48cf-893d-26b6abef5ce6"},"performedPeriod":{"start":"2025-03-01T14:00:00.000Z","end":"2025-03-01T14:00:00.000Z"}},"request":{"method":"PUT","url":"Procedure/94e6f518-bce9-40f1-81d1-1d44222992a6"}},{"fullUrl":"https://madie.cms.gov/Procedure/5ca5260ab8484613a555a94d","resource":{"resourceType":"Procedure","id":"ad9618e8-0396-47a4-8b5e-d184220b75c6","meta":{"profile":["http://hl7.org/fhir/us/qicore/StructureDefinition/qicore-procedure"]},"extension":[{"url":"http://hl7.org/fhir/us/qicore/StructureDefinition/qicore-recorded","valueDateTime":"2025-04-22T14:35:00.000Z"}],"status":"completed","code":{"coding":[{"system":"http://snomed.info/sct","code":"169396008"}]},"subject":{"reference":"Patient/a521979b-9bae-48cf-893d-26b6abef5ce6"},"performedPeriod":{"start":"2025-04-22T14:30:00.000Z","end":"2025-04-22T14:30:00.000Z"}},"request":{"method":"PUT","url":"Procedure/ad9618e8-0396-47a4-8b5e-d184220b75c6"}},{"fullUrl":"https://madie.cms.gov/Organization/123456","resource":{"resourceType":"Organization","id":"024e2731-b045-43bf-80d2-684774c5b51c","meta":{"profile":["http://hl7.org/fhir/us/qicore/StructureDefinition/qicore-organization"]},"identifier":[{"use":"temp","system":"urn:oid:2.16.840.1.113883.4.4","value":"21-3259825"}],"active":true,"type":[{"coding":[{"system":"http://terminology.hl7.org/CodeSystem/organization-type","code":"pay","display":"Payer"}]}],"name":"Blue Cross Blue Shield of Texas","telecom":[{"system":"phone","value":"(+1) 972-766-6900"}],"address":[{"use":"billing","type":"postal","line":["P.O. Box 660044"],"city":"Dallas","state":"TX","postalCode":"75266-0044","country":"USA"}]},"request":{"method":"PUT","url":"Organization/024e2731-b045-43bf-80d2-684774c5b51c"}},{"fullUrl":"https://madie.cms.gov/Practitioner/practitioner-123456","resource":{"resourceType":"Practitioner","id":"2b97a862-6d58-4481-ba51-005741e3435f","meta":{"profile":["http://hl7.org/fhir/us/qicore/StructureDefinition/qicore-practitioner"]},"identifier":[{"system":"http://hl7.org/fhir/sid/us-npi","value":"123456"}],"name":[{"family":"Evil","prefix":["Dr"]}]},"request":{"method":"PUT","url":"Practitioner/2b97a862-6d58-4481-ba51-005741e3435f"}},{"fullUrl":"https://madie.cms.gov/MeasureReport/a1c5846e-6592-4112-a014-b93a81c41938","resource":{"resourceType":"MeasureReport","id":"a1c5846e-6592-4112-a014-b93a81c41938","meta":{"profile":["http://hl7.org/fhir/us/cqfmeasures/StructureDefinition/test-case-cqfm"]},"contained":[{"resourceType":"Parameters","id":"bab68f82-54eb-4b1e-9422-f8bc35a71e97-parameters","parameter":[{"name":"subject","valueString":"a521979b-9bae-48cf-893d-26b6abef5ce6"}]}],"extension":[{"url":"http://hl7.org/fhir/us/cqfmeasures/StructureDefinition/cqfm-inputParameters","valueReference":{"reference":"#bab68f82-54eb-4b1e-9422-f8bc35a71e97-parameters"}},{"url":"http://hl7.org/fhir/us/cqfmeasures/StructureDefinition/cqfm-testCaseDescription","valueMarkdown":"Patient with cancer diagnosis that overlaps the office visit during measurement period, but first chemo was administered 31 days before office visit. \n"}],"modifierExtension":[{"url":"http://hl7.org/fhir/us/cqfmeasures/StructureDefinition/cqfm-isTestCase","valueBoolean":true}],"status":"complete","type":"individual","measure":"https://madie.cms.gov/Measure/OncologyPainIntensityQuantifiedFHIR","period":{"start":"2025-01-01","end":"2025-12-31"},"group":[{"population":[{"code":{"coding":[{"system":"http://terminology.hl7.org/CodeSystem/measure-population","code":"initial-population","display":"Initial Population"}]},"count":0},{"code":{"coding":[{"system":"http://terminology.hl7.org/CodeSystem/measure-population","code":"denominator","display":"Denominator"}]},"count":0},{"code":{"coding":[{"system":"http://terminology.hl7.org/CodeSystem/measure-population","code":"numerator","display":"Numerator"}]},"count":0}]},{"population":[{"code":{"coding":[{"system":"http://terminology.hl7.org/CodeSystem/measure-population","code":"initial-population","display":"Initial Population"}]},"count":0},{"code":{"coding":[{"system":"http://terminology.hl7.org/CodeSystem/measure-population","code":"denominator","display":"Denominator"}]},"count":0},{"code":{"coding":[{"system":"http://terminology.hl7.org/CodeSystem/measure-population","code":"numerator","display":"Numerator"}]},"count":0}]}]},"request":{"method":"PUT","url":"MeasureReport/a1c5846e-6592-4112-a014-b93a81c41938"}}]}