{"resourceType":"Bundle","id":"tests-2c3f5ac5-6b7f-4bb8-a4fe-8faf0553b21e-bundle","type":"transaction","entry":[{"fullUrl":"https://madie.cms.gov/Patient/2c3f5ac5-6b7f-4bb8-a4fe-8faf0553b21e","resource":{"resourceType":"Patient","id":"2c3f5ac5-6b7f-4bb8-a4fe-8faf0553b21e","meta":{"profile":["http://hl7.org/fhir/us/qicore/StructureDefinition/qicore-patient"]},"text":{"status":"generated","div":"<div xmlns=\"http://www.w3.org/1999/xhtml\"><div class=\"hapiHeaderText\">PainAssessPerformerNoResult<b>NUMERFailPop2</b></div><table class=\"hapiPropertyTable\"><tbody><tr><td>Identifier</td><td>858366f5b9baf588395a9f45066638c7a6bfe53f2124e1bfebbb187419edd308</td></tr><tr><td>Date of birth</td><td><span>13 May 1932</span></td></tr></tbody></table></div>"},"extension":[{"url":"http://hl7.org/fhir/us/core/StructureDefinition/us-core-race","extension":[{"url":"ombCategory","valueCoding":{"system":"urn:oid:2.16.840.1.113883.6.238","code":"1002-5","display":"American Indian or Alaska Native","userSelected":true}},{"url":"text","valueString":"American Indian or Alaska Native"}]},{"url":"http://hl7.org/fhir/us/core/StructureDefinition/us-core-ethnicity","extension":[{"url":"ombCategory","valueCoding":{"system":"urn:oid:2.16.840.1.113883.6.238","code":"2135-2","display":"Hispanic or Latino","userSelected":true}},{"url":"text","valueString":"Hispanic or Latino"}]}],"identifier":[{"type":{"coding":[{"system":"http://terminology.hl7.org/CodeSystem/v2-0203","code":"MR"}]},"system":"https://bonnie-fhir.healthit.gov/","value":"62c880ed0111a60120dc221f"}],"active":true,"name":[{"use":"usual","family":"NUMERFailPop2","given":["PainAssessPerformerNoResult"]}],"gender":"female","birthDate":"1932-05-13"},"request":{"method":"PUT","url":"Patient/2c3f5ac5-6b7f-4bb8-a4fe-8faf0553b21e"}},{"fullUrl":"https://madie.cms.gov/Observation/5ca5260eb8484613a555a9a7","resource":{"resourceType":"Observation","id":"375d7a8c-5638-4311-bc09-85cba027b728","meta":{"profile":["http://hl7.org/fhir/us/qicore/StructureDefinition/qicore-observation"]},"status":"final","category":[{"coding":[{"system":"http://terminology.hl7.org/CodeSystem/observation-category","code":"survey","display":"Survey"}],"text":"Survey"}],"code":{"coding":[{"system":"http://loinc.org","code":"38208-5"}]},"subject":{"reference":"Patient/2c3f5ac5-6b7f-4bb8-a4fe-8faf0553b21e"},"effectiveDateTime":"2025-03-05T09:00:00.000+00:00"},"request":{"method":"PUT","url":"Observation/375d7a8c-5638-4311-bc09-85cba027b728"}},{"fullUrl":"https://madie.cms.gov/Observation/5ca5260eb8484613a555a9a9","resource":{"resourceType":"Observation","id":"5a6c3ff3-4d81-4904-b1dd-9dfd010f684e","meta":{"profile":["http://hl7.org/fhir/us/qicore/StructureDefinition/qicore-observation"]},"status":"final","category":[{"coding":[{"system":"http://terminology.hl7.org/CodeSystem/observation-category","code":"survey","display":"Survey"}],"text":"Survey"}],"code":{"coding":[{"system":"http://loinc.org","code":"38208-5"}]},"subject":{"reference":"Patient/2c3f5ac5-6b7f-4bb8-a4fe-8faf0553b21e"},"effectiveDateTime":"2025-08-30T15:00:00.000+00:00"},"request":{"method":"PUT","url":"Observation/5a6c3ff3-4d81-4904-b1dd-9dfd010f684e"}},{"fullUrl":"https://madie.cms.gov/Condition/5ca5260eb8484613a555a9a4","resource":{"resourceType":"Condition","id":"594c72ed-e53b-40bd-b4b0-198e565686f4","meta":{"profile":["http://hl7.org/fhir/us/qicore/StructureDefinition/qicore-condition"]},"clinicalStatus":{"coding":[{"system":"http://terminology.hl7.org/CodeSystem/condition-clinical","code":"active","display":"Active","userSelected":true}]},"category":[{"coding":[{"system":"http://terminology.hl7.org/CodeSystem/condition-category","code":"problem-list-item","display":"Problem List Item"}]}],"code":{"coding":[{"system":"http://hl7.org/fhir/sid/icd-10-cm","code":"C00.0"}]},"subject":{"reference":"Patient/2c3f5ac5-6b7f-4bb8-a4fe-8faf0553b21e"},"onsetDateTime":"2023-11-01T13:30:00.000Z"},"request":{"method":"PUT","url":"Condition/594c72ed-e53b-40bd-b4b0-198e565686f4"}},{"fullUrl":"https://madie.cms.gov/Coverage/60099acb1c76ba64612b06a3","resource":{"resourceType":"Coverage","id":"b857ce4a-d2a9-4d77-944e-5fff3aeb0d7f","meta":{"profile":["http://hl7.org/fhir/us/qicore/StructureDefinition/qicore-coverage"]},"status":"active","beneficiary":{"reference":"Patient/2c3f5ac5-6b7f-4bb8-a4fe-8faf0553b21e"},"period":{"start":"1932-05-13T08:00:00.000Z"},"payor":[{"reference":"Organization/80573fa1-cf83-4e9a-8f21-86a018689678"}]},"request":{"method":"PUT","url":"Coverage/b857ce4a-d2a9-4d77-944e-5fff3aeb0d7f"}},{"fullUrl":"https://madie.cms.gov/Encounter/radiation-treatment-management-1894","resource":{"resourceType":"Encounter","id":"66f7c468-63b5-4bfa-9d6a-b67f29ab213f","meta":{"profile":["http://hl7.org/fhir/us/qicore/StructureDefinition/qicore-encounter"]},"status":"finished","class":{"system":"http://terminology.hl7.org/CodeSystem/v3-ActCode","code":"AMB","display":"ambulatory","userSelected":true},"type":[{"coding":[{"system":"http://www.ama-assn.org/go/cpt","version":"2023","code":"77427","display":"Radiation treatment management, 5 treatments","userSelected":true}]}],"subject":{"reference":"Patient/2c3f5ac5-6b7f-4bb8-a4fe-8faf0553b21e"},"period":{"start":"2025-03-05T08:00:00.000+00:00","end":"2025-03-05T10:15:00.000+00:00"}},"request":{"method":"PUT","url":"Encounter/66f7c468-63b5-4bfa-9d6a-b67f29ab213f"}},{"fullUrl":"https://madie.cms.gov/Encounter/radiation-treatment-management-1895","resource":{"resourceType":"Encounter","id":"290293e3-3eb5-4c9b-857f-2d8a4733321b","meta":{"profile":["http://hl7.org/fhir/us/qicore/StructureDefinition/qicore-encounter"]},"status":"finished","class":{"system":"http://terminology.hl7.org/CodeSystem/v3-ActCode","code":"AMB","display":"ambulatory","userSelected":true},"type":[{"coding":[{"system":"http://www.ama-assn.org/go/cpt","version":"2023","code":"77427","display":"Radiation treatment management, 5 treatments","userSelected":true}]}],"subject":{"reference":"Patient/2c3f5ac5-6b7f-4bb8-a4fe-8faf0553b21e"},"period":{"start":"2025-08-30T14:00:00.000+00:00","end":"2025-08-30T15:15:00.000+00:00"}},"request":{"method":"PUT","url":"Encounter/290293e3-3eb5-4c9b-857f-2d8a4733321b"}},{"fullUrl":"https://madie.cms.gov/Organization/123456","resource":{"resourceType":"Organization","id":"80573fa1-cf83-4e9a-8f21-86a018689678","meta":{"profile":["http://hl7.org/fhir/us/qicore/StructureDefinition/qicore-organization"]},"identifier":[{"use":"temp","system":"urn:oid:2.16.840.1.113883.4.4","value":"21-3259825"}],"active":true,"type":[{"coding":[{"system":"http://terminology.hl7.org/CodeSystem/organization-type","code":"pay","display":"Payer"}]}],"name":"Blue Cross Blue Shield of Texas","telecom":[{"system":"phone","value":"(+1) 972-766-6900"}],"address":[{"use":"billing","type":"postal","line":["P.O. Box 660044"],"city":"Dallas","state":"TX","postalCode":"75266-0044","country":"USA"}]},"request":{"method":"PUT","url":"Organization/80573fa1-cf83-4e9a-8f21-86a018689678"}},{"fullUrl":"https://madie.cms.gov/Practitioner/practitioner-123456","resource":{"resourceType":"Practitioner","id":"7016a56d-154e-4dd9-b751-672e34ea023e","meta":{"profile":["http://hl7.org/fhir/us/qicore/StructureDefinition/qicore-practitioner"]},"identifier":[{"system":"http://hl7.org/fhir/sid/us-npi","value":"123456"}],"name":[{"family":"Evil","prefix":["Dr"]}]},"request":{"method":"PUT","url":"Practitioner/7016a56d-154e-4dd9-b751-672e34ea023e"}},{"fullUrl":"https://madie.cms.gov/MeasureReport/f979ef68-2415-493f-95f9-5264c4a34327","resource":{"resourceType":"MeasureReport","id":"f979ef68-2415-493f-95f9-5264c4a34327","meta":{"profile":["http://hl7.org/fhir/us/cqfmeasures/StructureDefinition/test-case-cqfm"]},"contained":[{"resourceType":"Parameters","id":"6f01a9a0-89fe-40a9-b8e4-ea2773f3e4f2-parameters","parameter":[{"name":"subject","valueString":"2c3f5ac5-6b7f-4bb8-a4fe-8faf0553b21e"}]}],"extension":[{"url":"http://hl7.org/fhir/us/cqfmeasures/StructureDefinition/cqfm-inputParameters","valueReference":{"reference":"#6f01a9a0-89fe-40a9-b8e4-ea2773f3e4f2-parameters"}},{"url":"http://hl7.org/fhir/us/cqfmeasures/StructureDefinition/cqfm-testCaseDescription","valueMarkdown":"Pain intensity assessment was performed during radiation treatment mgt. 2 episodes of care. 1st assessment has \"Performer\" instead of \"Result\". 2nd assessment no result.\n"}],"modifierExtension":[{"url":"http://hl7.org/fhir/us/cqfmeasures/StructureDefinition/cqfm-isTestCase","valueBoolean":true}],"status":"complete","type":"individual","measure":"https://madie.cms.gov/Measure/OncologyPainIntensityQuantifiedFHIR","period":{"start":"2025-01-01","end":"2025-12-31"},"group":[{"population":[{"code":{"coding":[{"system":"http://terminology.hl7.org/CodeSystem/measure-population","code":"initial-population","display":"Initial Population"}]},"count":0},{"code":{"coding":[{"system":"http://terminology.hl7.org/CodeSystem/measure-population","code":"denominator","display":"Denominator"}]},"count":0},{"code":{"coding":[{"system":"http://terminology.hl7.org/CodeSystem/measure-population","code":"numerator","display":"Numerator"}]},"count":0}]},{"population":[{"code":{"coding":[{"system":"http://terminology.hl7.org/CodeSystem/measure-population","code":"initial-population","display":"Initial Population"}]},"count":2},{"code":{"coding":[{"system":"http://terminology.hl7.org/CodeSystem/measure-population","code":"denominator","display":"Denominator"}]},"count":2},{"code":{"coding":[{"system":"http://terminology.hl7.org/CodeSystem/measure-population","code":"numerator","display":"Numerator"}]},"count":0}]}]},"request":{"method":"PUT","url":"MeasureReport/f979ef68-2415-493f-95f9-5264c4a34327"}}]}