{"resourceType":"Bundle","id":"tests-b7aad002-16b7-4be2-bc8b-4225e45220d0-bundle","type":"transaction","entry":[{"fullUrl":"https://madie.cms.gov/Patient/b7aad002-16b7-4be2-bc8b-4225e45220d0","resource":{"resourceType":"Patient","id":"b7aad002-16b7-4be2-bc8b-4225e45220d0","meta":{"profile":["http://hl7.org/fhir/us/qicore/StructureDefinition/qicore-patient"]},"text":{"status":"generated","div":"<div xmlns=\"http://www.w3.org/1999/xhtml\"><div class=\"hapiHeaderText\">NoChemoAfterEnc<b>IPPFailPop1</b></div><table class=\"hapiPropertyTable\"><tbody><tr><td>Identifier</td><td>8bcce6b564dc68db481708422d5f4d29</td></tr><tr><td>Date of birth</td><td><span>19 October 1961</span></td></tr></tbody></table></div>"},"extension":[{"url":"http://hl7.org/fhir/us/core/StructureDefinition/us-core-race","extension":[{"url":"ombCategory","valueCoding":{"system":"urn:oid:2.16.840.1.113883.6.238","code":"1002-5","display":"American Indian or Alaska Native","userSelected":true}},{"url":"text","valueString":"American Indian or Alaska Native"}]},{"url":"http://hl7.org/fhir/us/core/StructureDefinition/us-core-ethnicity","extension":[{"url":"ombCategory","valueCoding":{"system":"urn:oid:2.16.840.1.113883.6.238","code":"2135-2","display":"Hispanic or Latino","userSelected":true}},{"url":"text","valueString":"Hispanic or Latino"}]}],"identifier":[{"type":{"coding":[{"system":"http://terminology.hl7.org/CodeSystem/v2-0203","code":"MR"}]},"system":"https://bonnie-fhir.healthit.gov/","value":"62c880ec0111a60120dc2205"}],"active":true,"name":[{"use":"usual","family":"IPPFailPop1","given":["NoChemoAfterEnc"]}],"gender":"female","birthDate":"1961-10-19"},"request":{"method":"PUT","url":"Patient/b7aad002-16b7-4be2-bc8b-4225e45220d0"}},{"fullUrl":"https://madie.cms.gov/Condition/5ca52608b8484613a555a932","resource":{"resourceType":"Condition","id":"5690df55-e835-4f08-abc1-2893d2aa2bf6","meta":{"profile":["http://hl7.org/fhir/us/qicore/StructureDefinition/qicore-condition"]},"clinicalStatus":{"coding":[{"system":"http://terminology.hl7.org/CodeSystem/condition-clinical","code":"active","display":"active","userSelected":true}]},"verificationStatus":{"coding":[{"system":"http://terminology.hl7.org/CodeSystem/condition-ver-status","code":"confirmed","display":"Confirmed"}]},"category":[{"coding":[{"system":"http://terminology.hl7.org/CodeSystem/condition-category","code":"problem-list-item","display":"Problem List Item"}]}],"code":{"coding":[{"system":"http://hl7.org/fhir/sid/icd-10-cm","code":"C92.42"}]},"subject":{"reference":"Patient/b7aad002-16b7-4be2-bc8b-4225e45220d0"},"onsetDateTime":"2009-01-11T10:00:00.000Z"},"request":{"method":"PUT","url":"Condition/5690df55-e835-4f08-abc1-2893d2aa2bf6"}},{"fullUrl":"https://madie.cms.gov/Encounter/5ca52608b8484613a555a933","resource":{"resourceType":"Encounter","id":"2cd84508-5a47-494c-802d-f3d92b5e65ab","meta":{"profile":["http://hl7.org/fhir/us/qicore/StructureDefinition/qicore-encounter"]},"status":"finished","class":{"system":"http://terminology.hl7.org/CodeSystem/v3-ActCode","code":"AMB","display":"ambulatory","userSelected":true},"type":[{"coding":[{"system":"http://www.ama-assn.org/go/cpt","code":"99213"}]}],"subject":{"reference":"Patient/b7aad002-16b7-4be2-bc8b-4225e45220d0"},"period":{"start":"2025-02-15T13:00:00.000Z","end":"2025-02-15T14:00:00.000Z"}},"request":{"method":"PUT","url":"Encounter/2cd84508-5a47-494c-802d-f3d92b5e65ab"}},{"fullUrl":"https://madie.cms.gov/Coverage/60099ac51c76ba64612b0625","resource":{"resourceType":"Coverage","id":"790bdf3d-e50f-470f-9e92-8111e81c5667","meta":{"profile":["http://hl7.org/fhir/us/qicore/StructureDefinition/qicore-coverage"]},"status":"active","beneficiary":{"reference":"Patient/b7aad002-16b7-4be2-bc8b-4225e45220d0"},"period":{"start":"1956-07-16T08:00:00.000Z"},"payor":[{"reference":"Organization/ec8cac12-7dd8-4c6e-8c44-d6c645085c80"}]},"request":{"method":"PUT","url":"Coverage/790bdf3d-e50f-470f-9e92-8111e81c5667"}},{"fullUrl":"https://madie.cms.gov/Procedure/5ca52608b8484613a555a935","resource":{"resourceType":"Procedure","id":"c8fbca5b-8923-47fa-beb7-4cd4599e9c51","meta":{"profile":["http://hl7.org/fhir/us/qicore/StructureDefinition/qicore-procedure"]},"extension":[{"url":"http://hl7.org/fhir/us/qicore/StructureDefinition/qicore-recorded","valueDateTime":"2025-02-14T15:35:00.000Z"}],"status":"completed","code":{"coding":[{"system":"http://www.ama-assn.org/go/cpt","code":"77427"}]},"subject":{"reference":"Patient/b7aad002-16b7-4be2-bc8b-4225e45220d0"},"performedPeriod":{"start":"2025-02-14T11:00:00.000Z","end":"2025-02-14T15:00:00.000Z"}},"request":{"method":"PUT","url":"Procedure/c8fbca5b-8923-47fa-beb7-4cd4599e9c51"}},{"fullUrl":"https://madie.cms.gov/Organization/123456","resource":{"resourceType":"Organization","id":"ec8cac12-7dd8-4c6e-8c44-d6c645085c80","meta":{"profile":["http://hl7.org/fhir/us/qicore/StructureDefinition/qicore-organization"]},"identifier":[{"use":"temp","system":"urn:oid:2.16.840.1.113883.4.4","value":"21-3259825"}],"active":true,"type":[{"coding":[{"system":"http://terminology.hl7.org/CodeSystem/organization-type","code":"pay","display":"Payer"}]}],"name":"Blue Cross Blue Shield of Texas","telecom":[{"system":"phone","value":"(+1) 972-766-6900"}],"address":[{"use":"billing","type":"postal","line":["P.O. Box 660044"],"city":"Dallas","state":"TX","postalCode":"75266-0044","country":"USA"}]},"request":{"method":"PUT","url":"Organization/ec8cac12-7dd8-4c6e-8c44-d6c645085c80"}},{"fullUrl":"https://madie.cms.gov/Practitioner/practitioner-123456","resource":{"resourceType":"Practitioner","id":"2744e4d2-9119-455a-938c-33e86bf60cba","meta":{"profile":["http://hl7.org/fhir/us/qicore/StructureDefinition/qicore-practitioner"]},"identifier":[{"system":"http://hl7.org/fhir/sid/us-npi","value":"123456"}],"name":[{"family":"Evil","prefix":["Dr"]}]},"request":{"method":"PUT","url":"Practitioner/2744e4d2-9119-455a-938c-33e86bf60cba"}},{"fullUrl":"https://madie.cms.gov/MeasureReport/48c91a68-8a2d-446f-973a-2ebeda967e33","resource":{"resourceType":"MeasureReport","id":"48c91a68-8a2d-446f-973a-2ebeda967e33","meta":{"profile":["http://hl7.org/fhir/us/cqfmeasures/StructureDefinition/test-case-cqfm"]},"contained":[{"resourceType":"Parameters","id":"f70051c4-1ffc-42d5-bcdb-ad87276fc78e-parameters","parameter":[{"name":"subject","valueString":"b7aad002-16b7-4be2-bc8b-4225e45220d0"}]}],"extension":[{"url":"http://hl7.org/fhir/us/cqfmeasures/StructureDefinition/cqfm-inputParameters","valueReference":{"reference":"#f70051c4-1ffc-42d5-bcdb-ad87276fc78e-parameters"}},{"url":"http://hl7.org/fhir/us/cqfmeasures/StructureDefinition/cqfm-testCaseDescription","valueMarkdown":"Patient with cancer diagnosis that overlaps the office visit during measurement period. No chemotherapy administered after the office visit. \n"}],"modifierExtension":[{"url":"http://hl7.org/fhir/us/cqfmeasures/StructureDefinition/cqfm-isTestCase","valueBoolean":true}],"status":"complete","type":"individual","measure":"https://madie.cms.gov/Measure/OncologyPainIntensityQuantifiedFHIR","period":{"start":"2025-01-01","end":"2025-12-31"},"group":[{"population":[{"code":{"coding":[{"system":"http://terminology.hl7.org/CodeSystem/measure-population","code":"initial-population","display":"Initial Population"}]},"count":0},{"code":{"coding":[{"system":"http://terminology.hl7.org/CodeSystem/measure-population","code":"denominator","display":"Denominator"}]},"count":0},{"code":{"coding":[{"system":"http://terminology.hl7.org/CodeSystem/measure-population","code":"numerator","display":"Numerator"}]},"count":0}]},{"population":[{"code":{"coding":[{"system":"http://terminology.hl7.org/CodeSystem/measure-population","code":"initial-population","display":"Initial Population"}]},"count":0},{"code":{"coding":[{"system":"http://terminology.hl7.org/CodeSystem/measure-population","code":"denominator","display":"Denominator"}]},"count":0},{"code":{"coding":[{"system":"http://terminology.hl7.org/CodeSystem/measure-population","code":"numerator","display":"Numerator"}]},"count":0}]}]},"request":{"method":"PUT","url":"MeasureReport/48c91a68-8a2d-446f-973a-2ebeda967e33"}}]}