{"resourceType":"Bundle","id":"tests-757c5855-602e-4c25-8783-c22afccc1618-bundle","type":"transaction","entry":[{"fullUrl":"https://madie.cms.gov/Patient/757c5855-602e-4c25-8783-c22afccc1618","resource":{"resourceType":"Patient","id":"757c5855-602e-4c25-8783-c22afccc1618","meta":{"profile":["http://hl7.org/fhir/us/qicore/StructureDefinition/qicore-patient"]},"text":{"status":"generated","div":"<div xmlns=\"http://www.w3.org/1999/xhtml\"><div class=\"hapiHeaderText\">PainAssessResultMissing<b>NUMERFailPop1</b></div><table class=\"hapiPropertyTable\"><tbody><tr><td>Identifier</td><td>ae3ffc5de11381ce5eaa97b40d3e1dc455d1361130f7b719fe01594aa809ff1e</td></tr><tr><td>Date of birth</td><td><span>13 May 1937</span></td></tr></tbody></table></div>"},"extension":[{"url":"http://hl7.org/fhir/us/core/StructureDefinition/us-core-race","extension":[{"url":"ombCategory","valueCoding":{"system":"urn:oid:2.16.840.1.113883.6.238","code":"1002-5","display":"American Indian or Alaska Native","userSelected":true}},{"url":"text","valueString":"American Indian or Alaska Native"}]},{"url":"http://hl7.org/fhir/us/core/StructureDefinition/us-core-ethnicity","extension":[{"url":"ombCategory","valueCoding":{"system":"urn:oid:2.16.840.1.113883.6.238","code":"2135-2","display":"Hispanic or Latino","userSelected":true}},{"url":"text","valueString":"Hispanic or Latino"}]}],"identifier":[{"type":{"coding":[{"system":"http://terminology.hl7.org/CodeSystem/v2-0203","code":"MR"}]},"system":"https://bonnie-fhir.healthit.gov/","value":"62c880ed0111a60120dc2224"}],"active":true,"name":[{"use":"usual","family":"NUMERFailPop1","given":["PainAssessResultMissing"]}],"gender":"female","birthDate":"1937-05-13"},"request":{"method":"PUT","url":"Patient/757c5855-602e-4c25-8783-c22afccc1618"}},{"fullUrl":"https://madie.cms.gov/Observation/5ca5260bb8484613a555a970","resource":{"resourceType":"Observation","id":"83bb53e7-3a0a-4910-ba0a-3018208e35d2","meta":{"profile":["http://hl7.org/fhir/us/qicore/StructureDefinition/qicore-observation"]},"status":"final","category":[{"coding":[{"system":"http://terminology.hl7.org/CodeSystem/observation-category","code":"survey","display":"Survey"}],"text":"Survey"}],"code":{"coding":[{"system":"http://loinc.org","code":"38208-5","display":"Pain severity - Reported"}],"text":"Pain severity - Reported"},"subject":{"reference":"Patient/757c5855-602e-4c25-8783-c22afccc1618"},"effectiveDateTime":"2025-03-03T14:00:00.000+00:00"},"request":{"method":"PUT","url":"Observation/83bb53e7-3a0a-4910-ba0a-3018208e35d2"}},{"fullUrl":"https://madie.cms.gov/Observation/5ca5260bb8484613a555a971","resource":{"resourceType":"Observation","id":"36f20f10-348c-4ccb-8066-e5d03cd39480","meta":{"profile":["http://hl7.org/fhir/us/qicore/StructureDefinition/qicore-observation"]},"status":"final","category":[{"coding":[{"system":"http://terminology.hl7.org/CodeSystem/observation-category","code":"survey","display":"Survey"}],"text":"Survey"}],"code":{"coding":[{"system":"http://loinc.org","code":"38208-5","display":"Pain severity - Reported"}],"text":"Pain severity - Reported"},"subject":{"reference":"Patient/757c5855-602e-4c25-8783-c22afccc1618"},"effectiveDateTime":"2025-05-22T08:00:00.000+00:00"},"request":{"method":"PUT","url":"Observation/36f20f10-348c-4ccb-8066-e5d03cd39480"}},{"fullUrl":"https://madie.cms.gov/Observation/5ca5260bb8484613a555a972","resource":{"resourceType":"Observation","id":"88df4089-dcfb-4bd2-8b91-668af908dbc4","meta":{"profile":["http://hl7.org/fhir/us/qicore/StructureDefinition/qicore-observation"]},"status":"final","category":[{"coding":[{"system":"http://terminology.hl7.org/CodeSystem/observation-category","code":"survey","display":"Survey"}],"text":"Survey"}],"code":{"coding":[{"system":"http://loinc.org","code":"38208-5","display":"Pain severity - Reported"}],"text":"Pain severity - Reported"},"subject":{"reference":"Patient/757c5855-602e-4c25-8783-c22afccc1618"},"effectiveDateTime":"2025-06-01T11:30:00.000+00:00"},"request":{"method":"PUT","url":"Observation/88df4089-dcfb-4bd2-8b91-668af908dbc4"}},{"fullUrl":"https://madie.cms.gov/Condition/5ca5260bb8484613a555a968","resource":{"resourceType":"Condition","id":"a3e1801c-babe-4fbb-892a-33c1ae376bcd","meta":{"profile":["http://hl7.org/fhir/us/qicore/StructureDefinition/qicore-condition"]},"clinicalStatus":{"coding":[{"system":"http://terminology.hl7.org/CodeSystem/condition-clinical","code":"active","display":"active","userSelected":true}]},"verificationStatus":{"coding":[{"system":"http://terminology.hl7.org/CodeSystem/condition-ver-status","code":"confirmed","display":"Confirmed"}]},"category":[{"coding":[{"system":"http://terminology.hl7.org/CodeSystem/condition-category","code":"problem-list-item","display":"Problem List Item"}]}],"code":{"coding":[{"system":"http://hl7.org/fhir/sid/icd-10-cm","code":"C00.0"}]},"subject":{"reference":"Patient/757c5855-602e-4c25-8783-c22afccc1618"},"onsetDateTime":"2023-11-01T13:30:00.000Z"},"request":{"method":"PUT","url":"Condition/a3e1801c-babe-4fbb-892a-33c1ae376bcd"}},{"fullUrl":"https://madie.cms.gov/Encounter/5ca5260bb8484613a555a969","resource":{"resourceType":"Encounter","id":"a3369814-b9d3-47e6-90de-3732250f143e","meta":{"profile":["http://hl7.org/fhir/us/qicore/StructureDefinition/qicore-encounter"]},"status":"finished","class":{"system":"http://terminology.hl7.org/CodeSystem/v3-ActCode","code":"AMB","display":"ambulatory","userSelected":true},"type":[{"coding":[{"system":"http://www.ama-assn.org/go/cpt","code":"99202"}]}],"subject":{"reference":"Patient/757c5855-602e-4c25-8783-c22afccc1618"},"period":{"start":"2025-01-30T14:00:00.000Z","end":"2025-01-30T15:00:00.000Z"}},"request":{"method":"PUT","url":"Encounter/a3369814-b9d3-47e6-90de-3732250f143e"}},{"fullUrl":"https://madie.cms.gov/Encounter/5ca5260bb8484613a555a96a","resource":{"resourceType":"Encounter","id":"7b886c3e-6567-4c5f-a797-ca64ea36131f","meta":{"profile":["http://hl7.org/fhir/us/qicore/StructureDefinition/qicore-encounter"]},"status":"finished","class":{"system":"http://terminology.hl7.org/CodeSystem/v3-ActCode","code":"AMB","display":"ambulatory","userSelected":true},"type":[{"coding":[{"system":"http://www.ama-assn.org/go/cpt","code":"99202"}]}],"subject":{"reference":"Patient/757c5855-602e-4c25-8783-c22afccc1618"},"period":{"start":"2025-03-03T13:30:00.000Z","end":"2025-03-03T14:30:00.000Z"}},"request":{"method":"PUT","url":"Encounter/7b886c3e-6567-4c5f-a797-ca64ea36131f"}},{"fullUrl":"https://madie.cms.gov/Encounter/5ca5260bb8484613a555a96b","resource":{"resourceType":"Encounter","id":"d596c48c-68f0-4d4c-a951-874f2324378f","meta":{"profile":["http://hl7.org/fhir/us/qicore/StructureDefinition/qicore-encounter"]},"status":"finished","class":{"system":"http://terminology.hl7.org/CodeSystem/v3-ActCode","code":"AMB","display":"ambulatory","userSelected":true},"type":[{"coding":[{"system":"http://www.ama-assn.org/go/cpt","code":"99202"}]}],"subject":{"reference":"Patient/757c5855-602e-4c25-8783-c22afccc1618"},"period":{"start":"2025-05-30T12:45:00.000Z","end":"2025-05-30T13:45:00.000Z"}},"request":{"method":"PUT","url":"Encounter/d596c48c-68f0-4d4c-a951-874f2324378f"}},{"fullUrl":"https://madie.cms.gov/Encounter/5ca5260bb8484613a555a96c","resource":{"resourceType":"Encounter","id":"156df4cc-36d7-4cf5-a946-5de06e3564ab","meta":{"profile":["http://hl7.org/fhir/us/qicore/StructureDefinition/qicore-encounter"]},"status":"finished","class":{"system":"http://terminology.hl7.org/CodeSystem/v3-ActCode","code":"AMB","display":"ambulatory","userSelected":true},"type":[{"coding":[{"system":"http://www.ama-assn.org/go/cpt","code":"99204"}]}],"subject":{"reference":"Patient/757c5855-602e-4c25-8783-c22afccc1618"},"period":{"start":"2025-07-03T10:45:00.000Z","end":"2025-07-03T11:45:00.000Z"}},"request":{"method":"PUT","url":"Encounter/156df4cc-36d7-4cf5-a946-5de06e3564ab"}},{"fullUrl":"https://madie.cms.gov/Coverage/60099ac91c76ba64612b0670","resource":{"resourceType":"Coverage","id":"417e4071-332f-4158-84d1-b268ed07fb09","meta":{"profile":["http://hl7.org/fhir/us/qicore/StructureDefinition/qicore-coverage"]},"status":"active","beneficiary":{"reference":"Patient/757c5855-602e-4c25-8783-c22afccc1618"},"period":{"start":"1937-05-13T08:00:00.000Z"},"payor":[{"reference":"Organization/5224cb12-ed64-4d6d-ab28-40a64f0800f1"}]},"request":{"method":"PUT","url":"Coverage/417e4071-332f-4158-84d1-b268ed07fb09"}},{"fullUrl":"https://madie.cms.gov/Procedure/5ca5260bb8484613a555a96d","resource":{"resourceType":"Procedure","id":"e12f6ded-d217-4637-9c97-7f43cd91f14e","meta":{"profile":["http://hl7.org/fhir/us/qicore/StructureDefinition/qicore-procedure"]},"extension":[{"url":"http://hl7.org/fhir/us/qicore/StructureDefinition/qicore-recorded","valueDateTime":"2025-02-27T12:35:00.000Z"}],"status":"completed","code":{"coding":[{"system":"http://www.ama-assn.org/go/cpt","code":"96409"}]},"subject":{"reference":"Patient/757c5855-602e-4c25-8783-c22afccc1618"},"performedPeriod":{"start":"2025-02-27T11:30:00.000Z","end":"2025-02-27T11:30:00.000Z"}},"request":{"method":"PUT","url":"Procedure/e12f6ded-d217-4637-9c97-7f43cd91f14e"}},{"fullUrl":"https://madie.cms.gov/Procedure/5ca5260bb8484613a555a96e","resource":{"resourceType":"Procedure","id":"66f1304d-5ff6-4647-a2f4-b39f82657441","meta":{"profile":["http://hl7.org/fhir/us/qicore/StructureDefinition/qicore-procedure"]},"extension":[{"url":"http://hl7.org/fhir/us/qicore/StructureDefinition/qicore-recorded","valueDateTime":"2025-04-01T12:35:00.000Z"}],"status":"completed","code":{"coding":[{"system":"http://www.ama-assn.org/go/cpt","code":"96409"}]},"subject":{"reference":"Patient/757c5855-602e-4c25-8783-c22afccc1618"},"performedPeriod":{"start":"2025-04-01T12:30:00.000Z","end":"2025-04-01T12:30:00.000Z"}},"request":{"method":"PUT","url":"Procedure/66f1304d-5ff6-4647-a2f4-b39f82657441"}},{"fullUrl":"https://madie.cms.gov/Procedure/5ca5260bb8484613a555a96f","resource":{"resourceType":"Procedure","id":"2b8118dd-43a2-4493-bb02-cd5b384d3c1c","meta":{"profile":["http://hl7.org/fhir/us/qicore/StructureDefinition/qicore-procedure"]},"extension":[{"url":"http://hl7.org/fhir/us/qicore/StructureDefinition/qicore-recorded","valueDateTime":"2025-06-04T16:35:00.000Z"}],"status":"completed","code":{"coding":[{"system":"http://www.ama-assn.org/go/cpt","code":"51720"},{"system":"http://snomed.info/sct","code":"4114003"}]},"subject":{"reference":"Patient/757c5855-602e-4c25-8783-c22afccc1618"},"performedPeriod":{"start":"2025-06-04T15:30:00.000Z","end":"2025-06-04T15:30:00.000Z"}},"request":{"method":"PUT","url":"Procedure/2b8118dd-43a2-4493-bb02-cd5b384d3c1c"}},{"fullUrl":"https://madie.cms.gov/Organization/123456","resource":{"resourceType":"Organization","id":"5224cb12-ed64-4d6d-ab28-40a64f0800f1","meta":{"profile":["http://hl7.org/fhir/us/qicore/StructureDefinition/qicore-organization"]},"identifier":[{"use":"temp","system":"urn:oid:2.16.840.1.113883.4.4","value":"21-3259825"}],"active":true,"type":[{"coding":[{"system":"http://terminology.hl7.org/CodeSystem/organization-type","code":"pay","display":"Payer"}]}],"name":"Blue Cross Blue Shield of Texas","telecom":[{"system":"phone","value":"(+1) 972-766-6900"}],"address":[{"use":"billing","type":"postal","line":["P.O. Box 660044"],"city":"Dallas","state":"TX","postalCode":"75266-0044","country":"USA"}]},"request":{"method":"PUT","url":"Organization/5224cb12-ed64-4d6d-ab28-40a64f0800f1"}},{"fullUrl":"https://madie.cms.gov/Practitioner/practitioner-123456","resource":{"resourceType":"Practitioner","id":"f6a4382e-4c4b-4809-84c1-5a181149a2c9","meta":{"profile":["http://hl7.org/fhir/us/qicore/StructureDefinition/qicore-practitioner"]},"identifier":[{"system":"http://hl7.org/fhir/sid/us-npi","value":"123456"}],"name":[{"family":"Evil","prefix":["Dr"]}]},"request":{"method":"PUT","url":"Practitioner/f6a4382e-4c4b-4809-84c1-5a181149a2c9"}},{"fullUrl":"https://madie.cms.gov/MeasureReport/c2368e6b-4d03-4080-bdd7-d4753b5f6db9","resource":{"resourceType":"MeasureReport","id":"c2368e6b-4d03-4080-bdd7-d4753b5f6db9","meta":{"profile":["http://hl7.org/fhir/us/cqfmeasures/StructureDefinition/test-case-cqfm"]},"contained":[{"resourceType":"Parameters","id":"75963695-c9ae-49bf-9ea7-8ec63543826c-parameters","parameter":[{"name":"subject","valueString":"757c5855-602e-4c25-8783-c22afccc1618"}]}],"extension":[{"url":"http://hl7.org/fhir/us/cqfmeasures/StructureDefinition/cqfm-inputParameters","valueReference":{"reference":"#75963695-c9ae-49bf-9ea7-8ec63543826c-parameters"}},{"url":"http://hl7.org/fhir/us/cqfmeasures/StructureDefinition/cqfm-testCaseDescription","valueMarkdown":"Patient with cancer diagnosis overlaps the office visits during measurement period. Chemotherapy administered, and pain intensity assessment was performed during an office visit but no result.  \n"}],"modifierExtension":[{"url":"http://hl7.org/fhir/us/cqfmeasures/StructureDefinition/cqfm-isTestCase","valueBoolean":true}],"status":"complete","type":"individual","measure":"https://madie.cms.gov/Measure/OncologyPainIntensityQuantifiedFHIR","period":{"start":"2025-01-01","end":"2025-12-31"},"group":[{"population":[{"code":{"coding":[{"system":"http://terminology.hl7.org/CodeSystem/measure-population","code":"initial-population","display":"Initial Population"}]},"count":1},{"code":{"coding":[{"system":"http://terminology.hl7.org/CodeSystem/measure-population","code":"denominator","display":"Denominator"}]},"count":1},{"code":{"coding":[{"system":"http://terminology.hl7.org/CodeSystem/measure-population","code":"numerator","display":"Numerator"}]},"count":0}]},{"population":[{"code":{"coding":[{"system":"http://terminology.hl7.org/CodeSystem/measure-population","code":"initial-population","display":"Initial Population"}]},"count":0},{"code":{"coding":[{"system":"http://terminology.hl7.org/CodeSystem/measure-population","code":"denominator","display":"Denominator"}]},"count":0},{"code":{"coding":[{"system":"http://terminology.hl7.org/CodeSystem/measure-population","code":"numerator","display":"Numerator"}]},"count":0}]}]},"request":{"method":"PUT","url":"MeasureReport/c2368e6b-4d03-4080-bdd7-d4753b5f6db9"}}]}