{"resourceType":"Bundle","id":"tests-b0729673-76ed-4c08-ae06-acd214ad203d-bundle","type":"transaction","entry":[{"fullUrl":"https://madie.cms.gov/Patient/b0729673-76ed-4c08-ae06-acd214ad203d","resource":{"resourceType":"Patient","id":"b0729673-76ed-4c08-ae06-acd214ad203d","meta":{"profile":["http://hl7.org/fhir/us/qicore/StructureDefinition/qicore-patient"]},"text":{"status":"generated","div":"<div xmlns=\"http://www.w3.org/1999/xhtml\"><div class=\"hapiHeaderText\">PainAssessDuringEnc<b>NUMERPassPop1</b></div><table class=\"hapiPropertyTable\"><tbody><tr><td>Date of birth</td><td><span>18 February 1970</span></td></tr></tbody></table></div>"},"extension":[{"url":"http://hl7.org/fhir/us/core/StructureDefinition/us-core-race","extension":[{"url":"ombCategory","valueCoding":{"system":"urn:oid:2.16.840.1.113883.6.238","code":"1002-5","display":"American Indian or Alaska Native","userSelected":true}},{"url":"text","valueString":"American Indian or Alaska Native"}]},{"url":"http://hl7.org/fhir/us/core/StructureDefinition/us-core-ethnicity","extension":[{"url":"ombCategory","valueCoding":{"system":"urn:oid:2.16.840.1.113883.6.238","code":"2135-2","display":"Hispanic or Latino","userSelected":true}},{"url":"text","valueString":"Hispanic or Latino"}]}],"identifier":[{"type":{"coding":[{"system":"http://terminology.hl7.org/CodeSystem/v2-0203","code":"MR"}]},"system":"https://bonnie-fhir.healthit.gov/","value":"62c880eb0111a60120dc21eb"}],"active":true,"name":[{"use":"usual","family":"NUMERPassPop1","given":["PainAssessDuringEnc"]}],"gender":"female","birthDate":"1970-02-18"},"request":{"method":"PUT","url":"Patient/b0729673-76ed-4c08-ae06-acd214ad203d"}},{"fullUrl":"https://madie.cms.gov/Condition/602703030df1fb00002a24b1","resource":{"resourceType":"Condition","id":"82d1e974-348f-4bcc-87ce-9697845ad0f6","meta":{"profile":["http://hl7.org/fhir/us/qicore/StructureDefinition/qicore-condition"]},"clinicalStatus":{"coding":[{"system":"http://terminology.hl7.org/CodeSystem/condition-clinical","code":"active","display":"active","userSelected":true}]},"verificationStatus":{"coding":[{"system":"http://terminology.hl7.org/CodeSystem/condition-ver-status","code":"confirmed","display":"Confirmed"}]},"category":[{"coding":[{"system":"http://terminology.hl7.org/CodeSystem/condition-category","code":"encounter-diagnosis","display":"Encounter Diagnosis"},{"system":"http://terminology.hl7.org/CodeSystem/condition-category","code":"problem-list-item","display":"Problem List Item"}]}],"code":{"coding":[{"system":"http://snomed.info/sct","code":"107691000119101"},{"system":"http://hl7.org/fhir/sid/icd-10-cm","code":"C48.0"}]},"subject":{"reference":"Patient/b0729673-76ed-4c08-ae06-acd214ad203d"},"onsetDateTime":"2023-11-01T08:00:00.000Z"},"request":{"method":"PUT","url":"Condition/82d1e974-348f-4bcc-87ce-9697845ad0f6"}},{"fullUrl":"https://madie.cms.gov/Encounter/6027038b0df1fb00002a252b","resource":{"resourceType":"Encounter","id":"01b14dcd-5c24-40b3-874c-47d8b5fb293c","meta":{"profile":["http://hl7.org/fhir/us/qicore/StructureDefinition/qicore-encounter"]},"status":"finished","class":{"system":"http://terminology.hl7.org/CodeSystem/v3-ActCode","code":"AMB","display":"ambulatory","userSelected":true},"type":[{"coding":[{"system":"http://snomed.info/sct","code":"185463005"}]}],"subject":{"reference":"Patient/b0729673-76ed-4c08-ae06-acd214ad203d"},"period":{"start":"2025-01-30T08:00:00.000Z","end":"2025-01-30T08:15:00.000Z"}},"request":{"method":"PUT","url":"Encounter/01b14dcd-5c24-40b3-874c-47d8b5fb293c"}},{"fullUrl":"https://madie.cms.gov/Encounter/602703cf0df1fb00002a25b9","resource":{"resourceType":"Encounter","id":"a05e44a7-eef6-44eb-a618-380c67022f3c","meta":{"profile":["http://hl7.org/fhir/us/qicore/StructureDefinition/qicore-encounter"]},"status":"finished","class":{"system":"http://terminology.hl7.org/CodeSystem/v3-ActCode","code":"AMB","display":"ambulatory","userSelected":true},"type":[{"coding":[{"system":"http://snomed.info/sct","code":"185463005"}]}],"subject":{"reference":"Patient/b0729673-76ed-4c08-ae06-acd214ad203d"},"period":{"start":"2025-03-03T13:30:00.000Z","end":"2025-03-03T14:30:00.000Z"}},"request":{"method":"PUT","url":"Encounter/a05e44a7-eef6-44eb-a618-380c67022f3c"}},{"fullUrl":"https://madie.cms.gov/Encounter/602703cf0df1fb00002a25c9","resource":{"resourceType":"Encounter","id":"00f6fd09-150c-4ff0-87f9-f4e0e584d86c","meta":{"profile":["http://hl7.org/fhir/us/qicore/StructureDefinition/qicore-encounter"]},"status":"finished","class":{"system":"http://terminology.hl7.org/CodeSystem/v3-ActCode","code":"AMB","display":"ambulatory","userSelected":true},"type":[{"coding":[{"system":"http://snomed.info/sct","code":"185463005"}]}],"subject":{"reference":"Patient/b0729673-76ed-4c08-ae06-acd214ad203d"},"period":{"start":"2025-05-30T08:00:00.000Z","end":"2025-05-30T08:15:00.000Z"}},"request":{"method":"PUT","url":"Encounter/00f6fd09-150c-4ff0-87f9-f4e0e584d86c"}},{"fullUrl":"https://madie.cms.gov/Encounter/602703cf0df1fb00002a25d9","resource":{"resourceType":"Encounter","id":"dffd1b1a-2c38-4a94-a88d-2f9644279d41","meta":{"profile":["http://hl7.org/fhir/us/qicore/StructureDefinition/qicore-encounter"]},"status":"finished","class":{"system":"http://terminology.hl7.org/CodeSystem/v3-ActCode","code":"AMB","display":"ambulatory","userSelected":true},"type":[{"coding":[{"system":"http://snomed.info/sct","code":"185463005"}]}],"subject":{"reference":"Patient/b0729673-76ed-4c08-ae06-acd214ad203d"},"period":{"start":"2025-07-03T08:00:00.000Z","end":"2025-07-03T08:15:00.000Z"}},"request":{"method":"PUT","url":"Encounter/dffd1b1a-2c38-4a94-a88d-2f9644279d41"}},{"fullUrl":"https://madie.cms.gov/Coverage/61043692a2f9161878c53ab1","resource":{"resourceType":"Coverage","id":"75ed79d2-b199-4702-8f8f-d8a29d66e4bf","meta":{"profile":["http://hl7.org/fhir/us/qicore/StructureDefinition/qicore-coverage"]},"status":"active","beneficiary":{"reference":"Patient/b0729673-76ed-4c08-ae06-acd214ad203d"},"period":{"start":"1970-02-18T08:00:00.000Z"},"payor":[{"reference":"Organization/e75793c9-fdf6-463a-8c1d-4ee44320dc25"}]},"request":{"method":"PUT","url":"Coverage/75ed79d2-b199-4702-8f8f-d8a29d66e4bf"}},{"fullUrl":"https://madie.cms.gov/Procedure/602703ac0df1fb00002a2563","resource":{"resourceType":"Procedure","id":"643a6649-4bbd-40d6-8c02-7843feb349fa","meta":{"profile":["http://hl7.org/fhir/us/qicore/StructureDefinition/qicore-procedure"]},"extension":[{"url":"http://hl7.org/fhir/us/qicore/StructureDefinition/qicore-recorded","valueDateTime":"2025-02-27T12:35:00.000Z"}],"status":"completed","code":{"coding":[{"system":"http://snomed.info/sct","code":"169396008"}]},"subject":{"reference":"Patient/b0729673-76ed-4c08-ae06-acd214ad203d"},"performedPeriod":{"start":"2025-02-27T08:00:00.000Z","end":"2025-02-27T08:15:00.000Z"}},"request":{"method":"PUT","url":"Procedure/643a6649-4bbd-40d6-8c02-7843feb349fa"}},{"fullUrl":"https://madie.cms.gov/Procedure/602703ba0df1fb00002a257b","resource":{"resourceType":"Procedure","id":"b1515522-5651-4b1a-9544-660ab87b6a67","meta":{"profile":["http://hl7.org/fhir/us/qicore/StructureDefinition/qicore-procedure"]},"extension":[{"url":"http://hl7.org/fhir/us/qicore/StructureDefinition/qicore-recorded","valueDateTime":"2025-04-01T12:35:00.000Z"}],"status":"completed","code":{"coding":[{"system":"http://snomed.info/sct","code":"169396008"}]},"subject":{"reference":"Patient/b0729673-76ed-4c08-ae06-acd214ad203d"},"performedPeriod":{"start":"2025-04-01T08:00:00.000Z","end":"2025-04-01T08:15:00.000Z"}},"request":{"method":"PUT","url":"Procedure/b1515522-5651-4b1a-9544-660ab87b6a67"}},{"fullUrl":"https://madie.cms.gov/Procedure/602703e10df1fb00002a25e2","resource":{"resourceType":"Procedure","id":"6e50740b-da27-4265-bf86-ab28693a16e1","meta":{"profile":["http://hl7.org/fhir/us/qicore/StructureDefinition/qicore-procedure"]},"extension":[{"url":"http://hl7.org/fhir/us/qicore/StructureDefinition/qicore-recorded","valueDateTime":"2025-06-04T12:35:00.000Z"}],"status":"completed","code":{"coding":[{"system":"http://snomed.info/sct","code":"169396008"}]},"subject":{"reference":"Patient/b0729673-76ed-4c08-ae06-acd214ad203d"},"performedPeriod":{"start":"2025-06-04T08:00:00.000Z","end":"2025-06-04T08:15:00.000Z"}},"request":{"method":"PUT","url":"Procedure/6e50740b-da27-4265-bf86-ab28693a16e1"}},{"fullUrl":"https://madie.cms.gov/Observation/5ca5260bb8484613a555a963","resource":{"resourceType":"Observation","id":"6432b738-4533-4e49-962f-f18b6549901d","meta":{"profile":["http://hl7.org/fhir/us/qicore/StructureDefinition/qicore-observation"]},"status":"final","category":[{"coding":[{"system":"http://terminology.hl7.org/CodeSystem/observation-category","code":"survey","display":"Survey"}],"text":"Survey"}],"code":{"coding":[{"system":"http://loinc.org","code":"38208-5","display":"Pain severity - Reported"}],"text":"Pain severity - Reported"},"subject":{"reference":"Patient/b0729673-76ed-4c08-ae06-acd214ad203d"},"effectiveDateTime":"2025-03-03T14:00:00.000Z","valueInteger":10},"request":{"method":"PUT","url":"Observation/6432b738-4533-4e49-962f-f18b6549901d"}},{"fullUrl":"https://madie.cms.gov/Observation/5ca5260bb8484613a555a964","resource":{"resourceType":"Observation","id":"85a68ddf-3e75-4c4d-be23-b5e01a4975de","meta":{"profile":["http://hl7.org/fhir/us/qicore/StructureDefinition/qicore-observation"]},"status":"final","category":[{"coding":[{"system":"http://terminology.hl7.org/CodeSystem/observation-category","code":"survey","display":"Survey"}],"text":"Survey"}],"code":{"coding":[{"system":"http://loinc.org","code":"38208-5","display":"Pain severity - Reported"}],"text":"Pain severity - Reported"},"subject":{"reference":"Patient/b0729673-76ed-4c08-ae06-acd214ad203d"},"effectiveDateTime":"2025-05-22T08:00:00.000Z"},"request":{"method":"PUT","url":"Observation/85a68ddf-3e75-4c4d-be23-b5e01a4975de"}},{"fullUrl":"https://madie.cms.gov/Observation/5ca5260bb8484613a555a965","resource":{"resourceType":"Observation","id":"650fcfc6-09f5-40dc-a5ed-d78efdd179cd","meta":{"profile":["http://hl7.org/fhir/us/qicore/StructureDefinition/qicore-observation"]},"status":"final","category":[{"coding":[{"system":"http://terminology.hl7.org/CodeSystem/observation-category","code":"survey","display":"Survey"}],"text":"Survey"}],"code":{"coding":[{"system":"http://loinc.org","code":"38208-5","display":"Pain severity - Reported"}],"text":"Pain severity - Reported"},"subject":{"reference":"Patient/b0729673-76ed-4c08-ae06-acd214ad203d"},"effectiveDateTime":"2025-06-01T11:30:00.000Z"},"request":{"method":"PUT","url":"Observation/650fcfc6-09f5-40dc-a5ed-d78efdd179cd"}},{"fullUrl":"https://madie.cms.gov/Organization/123456","resource":{"resourceType":"Organization","id":"e75793c9-fdf6-463a-8c1d-4ee44320dc25","meta":{"profile":["http://hl7.org/fhir/us/qicore/StructureDefinition/qicore-organization"]},"identifier":[{"use":"temp","system":"urn:oid:2.16.840.1.113883.4.4","value":"21-3259825"}],"active":true,"type":[{"coding":[{"system":"http://terminology.hl7.org/CodeSystem/organization-type","code":"pay","display":"Payer"}]}],"name":"Blue Cross Blue Shield of Texas","telecom":[{"system":"phone","value":"(+1) 972-766-6900"}],"address":[{"use":"billing","type":"postal","line":["P.O. Box 660044"],"city":"Dallas","state":"TX","postalCode":"75266-0044","country":"USA"}]},"request":{"method":"PUT","url":"Organization/e75793c9-fdf6-463a-8c1d-4ee44320dc25"}},{"fullUrl":"https://madie.cms.gov/MeasureReport/db05e022-9fea-4ec1-a2eb-cd9bb0587a56","resource":{"resourceType":"MeasureReport","id":"db05e022-9fea-4ec1-a2eb-cd9bb0587a56","meta":{"profile":["http://hl7.org/fhir/us/cqfmeasures/StructureDefinition/test-case-cqfm"]},"contained":[{"resourceType":"Parameters","id":"72452a3f-fcf3-4736-8438-292dc8c7c7ae-parameters","parameter":[{"name":"subject","valueString":"b0729673-76ed-4c08-ae06-acd214ad203d"}]}],"extension":[{"url":"http://hl7.org/fhir/us/cqfmeasures/StructureDefinition/cqfm-inputParameters","valueReference":{"reference":"#72452a3f-fcf3-4736-8438-292dc8c7c7ae-parameters"}},{"url":"http://hl7.org/fhir/us/cqfmeasures/StructureDefinition/cqfm-testCaseDescription","valueMarkdown":"Patient with cancer diagnosis overlaps the office visits during measurement period. Chemotherapy administered, and pain intensity assessment was performed during an office visit.   \n\n"}],"modifierExtension":[{"url":"http://hl7.org/fhir/us/cqfmeasures/StructureDefinition/cqfm-isTestCase","valueBoolean":true}],"status":"complete","type":"individual","measure":"https://madie.cms.gov/Measure/OncologyPainIntensityQuantifiedFHIR","period":{"start":"2025-01-01","end":"2025-12-31"},"group":[{"population":[{"code":{"coding":[{"system":"http://terminology.hl7.org/CodeSystem/measure-population","code":"initial-population","display":"Initial Population"}]},"count":1},{"code":{"coding":[{"system":"http://terminology.hl7.org/CodeSystem/measure-population","code":"denominator","display":"Denominator"}]},"count":1},{"code":{"coding":[{"system":"http://terminology.hl7.org/CodeSystem/measure-population","code":"numerator","display":"Numerator"}]},"count":1}]},{"population":[{"code":{"coding":[{"system":"http://terminology.hl7.org/CodeSystem/measure-population","code":"initial-population","display":"Initial Population"}]},"count":0},{"code":{"coding":[{"system":"http://terminology.hl7.org/CodeSystem/measure-population","code":"denominator","display":"Denominator"}]},"count":0},{"code":{"coding":[{"system":"http://terminology.hl7.org/CodeSystem/measure-population","code":"numerator","display":"Numerator"}]},"count":0}]}]},"request":{"method":"PUT","url":"MeasureReport/db05e022-9fea-4ec1-a2eb-cd9bb0587a56"}}]}