{"resourceType":"Bundle","id":"tests-b7aad002-16b7-4be2-bc8b-4225e45220d0-bundle","type":"transaction","entry":[{"fullUrl":"https://madie.cms.gov/Patient/b7aad002-16b7-4be2-bc8b-4225e45220d0","resource":{"resourceType":"Patient","id":"b7aad002-16b7-4be2-bc8b-4225e45220d0","meta":{"profile":["http://hl7.org/fhir/us/qicore/StructureDefinition/qicore-patient"]},"text":{"status":"generated","div":"<div xmlns=\"http://www.w3.org/1999/xhtml\"><div class=\"hapiHeaderText\">NoChemoAfterEnc<b>IPPFailPop1</b></div><table class=\"hapiPropertyTable\"><tbody><tr><td>Identifier</td><td>8bcce6b564dc68db481708422d5f4d29</td></tr><tr><td>Date of birth</td><td><span>19 October 1961</span></td></tr></tbody></table></div>"},"extension":[{"url":"http://hl7.org/fhir/us/core/StructureDefinition/us-core-race","extension":[{"url":"ombCategory","valueCoding":{"system":"urn:oid:2.16.840.1.113883.6.238","code":"1002-5","display":"American Indian or Alaska Native","userSelected":true}},{"url":"text","valueString":"American Indian or Alaska Native"}]},{"url":"http://hl7.org/fhir/us/core/StructureDefinition/us-core-ethnicity","extension":[{"url":"ombCategory","valueCoding":{"system":"urn:oid:2.16.840.1.113883.6.238","code":"2135-2","display":"Hispanic or Latino","userSelected":true}},{"url":"text","valueString":"Hispanic or Latino"}]}],"identifier":[{"type":{"coding":[{"system":"http://terminology.hl7.org/CodeSystem/v2-0203","code":"MR"}]},"system":"https://bonnie-fhir.healthit.gov/","value":"62c880ec0111a60120dc2205"}],"active":true,"name":[{"use":"usual","family":"IPPFailPop1","given":["NoChemoAfterEnc"]}],"gender":"female","birthDate":"1961-10-19"},"request":{"method":"PUT","url":"Patient/b7aad002-16b7-4be2-bc8b-4225e45220d0"}},{"fullUrl":"https://madie.cms.gov/Condition/5ca52608b8484613a555a932","resource":{"resourceType":"Condition","id":"b11ecacd-3d37-49d7-9994-bcf31d979504","meta":{"profile":["http://hl7.org/fhir/us/qicore/StructureDefinition/qicore-condition"]},"clinicalStatus":{"coding":[{"system":"http://terminology.hl7.org/CodeSystem/condition-clinical","code":"active","display":"active","userSelected":true}]},"verificationStatus":{"coding":[{"system":"http://terminology.hl7.org/CodeSystem/condition-ver-status","code":"confirmed","display":"Confirmed"}]},"category":[{"coding":[{"system":"http://terminology.hl7.org/CodeSystem/condition-category","code":"problem-list-item","display":"Problem List Item"}]}],"code":{"coding":[{"system":"http://hl7.org/fhir/sid/icd-10-cm","code":"C92.42"}]},"subject":{"reference":"Patient/b7aad002-16b7-4be2-bc8b-4225e45220d0"},"onsetDateTime":"2009-01-11T10:00:00.000Z"},"request":{"method":"PUT","url":"Condition/b11ecacd-3d37-49d7-9994-bcf31d979504"}},{"fullUrl":"https://madie.cms.gov/Encounter/5ca52608b8484613a555a933","resource":{"resourceType":"Encounter","id":"709ea955-f737-4eea-856d-90ec8288ee0f","meta":{"profile":["http://hl7.org/fhir/us/qicore/StructureDefinition/qicore-encounter"]},"status":"finished","class":{"system":"http://terminology.hl7.org/CodeSystem/v3-ActCode","code":"AMB","display":"ambulatory","userSelected":true},"type":[{"coding":[{"system":"http://www.ama-assn.org/go/cpt","code":"99213"}]}],"subject":{"reference":"Patient/b7aad002-16b7-4be2-bc8b-4225e45220d0"},"period":{"start":"2025-02-15T13:00:00.000Z","end":"2025-02-15T14:00:00.000Z"}},"request":{"method":"PUT","url":"Encounter/709ea955-f737-4eea-856d-90ec8288ee0f"}},{"fullUrl":"https://madie.cms.gov/Coverage/60099ac51c76ba64612b0625","resource":{"resourceType":"Coverage","id":"0f898ad4-4206-4763-887d-d3116e0e7111","meta":{"profile":["http://hl7.org/fhir/us/qicore/StructureDefinition/qicore-coverage"]},"status":"active","beneficiary":{"reference":"Patient/b7aad002-16b7-4be2-bc8b-4225e45220d0"},"period":{"start":"1956-07-16T08:00:00.000Z"},"payor":[{"reference":"Organization/f7da4368-fb6d-4d73-a75b-f78024cbb18d"}]},"request":{"method":"PUT","url":"Coverage/0f898ad4-4206-4763-887d-d3116e0e7111"}},{"fullUrl":"https://madie.cms.gov/Procedure/5ca52608b8484613a555a935","resource":{"resourceType":"Procedure","id":"d4a8e781-285a-4283-a394-5f9cedea171e","meta":{"profile":["http://hl7.org/fhir/us/qicore/StructureDefinition/qicore-procedure"]},"extension":[{"url":"http://hl7.org/fhir/us/qicore/StructureDefinition/qicore-recorded","valueDateTime":"2025-02-14T15:35:00.000Z"}],"status":"completed","code":{"coding":[{"system":"http://www.ama-assn.org/go/cpt","code":"77427"}]},"subject":{"reference":"Patient/b7aad002-16b7-4be2-bc8b-4225e45220d0"},"performedPeriod":{"start":"2025-02-14T11:00:00.000Z","end":"2025-02-14T15:00:00.000Z"}},"request":{"method":"PUT","url":"Procedure/d4a8e781-285a-4283-a394-5f9cedea171e"}},{"fullUrl":"https://madie.cms.gov/Organization/123456","resource":{"resourceType":"Organization","id":"f7da4368-fb6d-4d73-a75b-f78024cbb18d","meta":{"profile":["http://hl7.org/fhir/us/qicore/StructureDefinition/qicore-organization"]},"identifier":[{"use":"temp","system":"urn:oid:2.16.840.1.113883.4.4","value":"21-3259825"}],"active":true,"type":[{"coding":[{"system":"http://terminology.hl7.org/CodeSystem/organization-type","code":"pay","display":"Payer"}]}],"name":"Blue Cross Blue Shield of Texas","telecom":[{"system":"phone","value":"(+1) 972-766-6900"}],"address":[{"use":"billing","type":"postal","line":["P.O. Box 660044"],"city":"Dallas","state":"TX","postalCode":"75266-0044","country":"USA"}]},"request":{"method":"PUT","url":"Organization/f7da4368-fb6d-4d73-a75b-f78024cbb18d"}},{"fullUrl":"https://madie.cms.gov/Practitioner/practitioner-123456","resource":{"resourceType":"Practitioner","id":"aa806697-b3f7-4d2f-86b2-e18a33bcdbd5","meta":{"profile":["http://hl7.org/fhir/us/qicore/StructureDefinition/qicore-practitioner"]},"identifier":[{"system":"http://hl7.org/fhir/sid/us-npi","value":"123456"}],"name":[{"family":"Evil","prefix":["Dr"]}]},"request":{"method":"PUT","url":"Practitioner/aa806697-b3f7-4d2f-86b2-e18a33bcdbd5"}},{"fullUrl":"https://madie.cms.gov/MeasureReport/48c91a68-8a2d-446f-973a-2ebeda967e33","resource":{"resourceType":"MeasureReport","id":"48c91a68-8a2d-446f-973a-2ebeda967e33","meta":{"profile":["http://hl7.org/fhir/us/cqfmeasures/StructureDefinition/test-case-cqfm"]},"contained":[{"resourceType":"Parameters","id":"f70051c4-1ffc-42d5-bcdb-ad87276fc78e-parameters","parameter":[{"name":"subject","valueString":"b7aad002-16b7-4be2-bc8b-4225e45220d0"}]}],"extension":[{"url":"http://hl7.org/fhir/us/cqfmeasures/StructureDefinition/cqfm-inputParameters","valueReference":{"reference":"#f70051c4-1ffc-42d5-bcdb-ad87276fc78e-parameters"}},{"url":"http://hl7.org/fhir/us/cqfmeasures/StructureDefinition/cqfm-testCaseDescription","valueMarkdown":"Patient with cancer diagnosis that overlaps the office visit during measurement period. No chemotherapy administered after the office visit. \n"}],"modifierExtension":[{"url":"http://hl7.org/fhir/us/cqfmeasures/StructureDefinition/cqfm-isTestCase","valueBoolean":true}],"status":"complete","type":"individual","measure":"https://madie.cms.gov/Measure/OncologyPainIntensityQuantifiedFHIR","period":{"start":"2025-01-01","end":"2025-12-31"},"group":[{"population":[{"code":{"coding":[{"system":"http://terminology.hl7.org/CodeSystem/measure-population","code":"initial-population","display":"Initial Population"}]},"count":0},{"code":{"coding":[{"system":"http://terminology.hl7.org/CodeSystem/measure-population","code":"denominator","display":"Denominator"}]},"count":0},{"code":{"coding":[{"system":"http://terminology.hl7.org/CodeSystem/measure-population","code":"numerator","display":"Numerator"}]},"count":0}]},{"population":[{"code":{"coding":[{"system":"http://terminology.hl7.org/CodeSystem/measure-population","code":"initial-population","display":"Initial Population"}]},"count":0},{"code":{"coding":[{"system":"http://terminology.hl7.org/CodeSystem/measure-population","code":"denominator","display":"Denominator"}]},"count":0},{"code":{"coding":[{"system":"http://terminology.hl7.org/CodeSystem/measure-population","code":"numerator","display":"Numerator"}]},"count":0}]}]},"request":{"method":"PUT","url":"MeasureReport/48c91a68-8a2d-446f-973a-2ebeda967e33"}}]}