{"resourceType":"Bundle","id":"tests-e529e266-033b-4aec-abbc-d7fb27b7286c-bundle","type":"transaction","entry":[{"fullUrl":"https://madie.cms.gov/Patient/e529e266-033b-4aec-abbc-d7fb27b7286c","resource":{"resourceType":"Patient","id":"e529e266-033b-4aec-abbc-d7fb27b7286c","meta":{"profile":["http://hl7.org/fhir/us/qicore/StructureDefinition/qicore-patient"]},"text":{"status":"generated","div":"<div xmlns=\"http://www.w3.org/1999/xhtml\"><div class=\"hapiHeaderText\">CancerDxStarts1DayAfterMP<b>IPPFailPop1</b></div><table class=\"hapiPropertyTable\"><tbody><tr><td>Identifier</td><td>d5fa107024042175d86d813d9f3278123f01630b11769a6127ee8a990f85bdc2</td></tr><tr><td>Date of birth</td><td><span>19 October 1961</span></td></tr></tbody></table></div>"},"extension":[{"url":"http://hl7.org/fhir/us/core/StructureDefinition/us-core-race","extension":[{"url":"ombCategory","valueCoding":{"system":"urn:oid:2.16.840.1.113883.6.238","code":"2076-8","display":"Native Hawaiian or Other Pacific Islander","userSelected":true}},{"url":"text","valueString":"Native Hawaiian or Other Pacific Islander"}]},{"url":"http://hl7.org/fhir/us/core/StructureDefinition/us-core-ethnicity","extension":[{"url":"ombCategory","valueCoding":{"system":"urn:oid:2.16.840.1.113883.6.238","code":"2186-5","display":"Not Hispanic or Latino","userSelected":true}},{"url":"text","valueString":"Not Hispanic or Latino"}]}],"identifier":[{"type":{"coding":[{"system":"http://terminology.hl7.org/CodeSystem/v2-0203","code":"MR"}]},"system":"https://bonnie-fhir.healthit.gov/","value":"62c880ec0111a60120dc2208"}],"active":true,"name":[{"use":"usual","family":"IPPFailPop1","given":["CancerDxStarts1DayAfterMP"]}],"gender":"female","birthDate":"1961-10-19"},"request":{"method":"PUT","url":"Patient/e529e266-033b-4aec-abbc-d7fb27b7286c"}},{"fullUrl":"https://madie.cms.gov/Condition/5ca5260db8484613a555a992","resource":{"resourceType":"Condition","id":"7c3ea9e4-bdf5-4daa-a7bb-c73a37c9b2f4","meta":{"profile":["http://hl7.org/fhir/us/qicore/StructureDefinition/qicore-condition"]},"clinicalStatus":{"coding":[{"system":"http://terminology.hl7.org/CodeSystem/condition-clinical","code":"active","display":"active"}]},"verificationStatus":{"coding":[{"system":"http://terminology.hl7.org/CodeSystem/condition-ver-status","code":"confirmed","display":"Confirmed"}]},"category":[{"coding":[{"system":"http://terminology.hl7.org/CodeSystem/condition-category","code":"problem-list-item","display":"Problem List Item"}]}],"code":{"coding":[{"system":"http://snomed.info/sct","code":"80914001"}]},"subject":{"reference":"Patient/e529e266-033b-4aec-abbc-d7fb27b7286c"},"onsetDateTime":"2025-01-01T10:00:00.000Z"},"request":{"method":"PUT","url":"Condition/7c3ea9e4-bdf5-4daa-a7bb-c73a37c9b2f4"}},{"fullUrl":"https://madie.cms.gov/Encounter/5ca5260db8484613a555a993","resource":{"resourceType":"Encounter","id":"4985b826-bb80-453b-9e57-b7f5610b1645","meta":{"profile":["http://hl7.org/fhir/us/qicore/StructureDefinition/qicore-encounter"]},"status":"finished","class":{"system":"http://terminology.hl7.org/CodeSystem/v3-ActCode","code":"AMB","display":"ambulatory","userSelected":true},"type":[{"coding":[{"system":"http://snomed.info/sct","code":"185463005"}]}],"subject":{"reference":"Patient/e529e266-033b-4aec-abbc-d7fb27b7286c"},"period":{"start":"2025-12-31T13:00:00.000Z","end":"2025-12-31T14:00:00.000Z"}},"request":{"method":"PUT","url":"Encounter/4985b826-bb80-453b-9e57-b7f5610b1645"}},{"fullUrl":"https://madie.cms.gov/Coverage/60099acb1c76ba64612b0694","resource":{"resourceType":"Coverage","id":"28c79b70-1e56-4958-9b79-ca1fa77c3443","meta":{"profile":["http://hl7.org/fhir/us/qicore/StructureDefinition/qicore-coverage"]},"status":"active","beneficiary":{"reference":"Patient/e529e266-033b-4aec-abbc-d7fb27b7286c"},"period":{"start":"1961-10-19T08:00:00.000Z"},"payor":[{"reference":"Organization/db141f66-a1cc-407b-9e95-adac27adee14"}]},"request":{"method":"PUT","url":"Coverage/28c79b70-1e56-4958-9b79-ca1fa77c3443"}},{"fullUrl":"https://madie.cms.gov/Procedure/5ca5260db8484613a555a994","resource":{"resourceType":"Procedure","id":"4510b193-6e4b-48f7-97a4-bd295964938b","meta":{"profile":["http://hl7.org/fhir/us/qicore/StructureDefinition/qicore-procedure"]},"extension":[{"url":"http://hl7.org/fhir/us/qicore/StructureDefinition/qicore-recorded","valueDateTime":"2025-01-17T12:35:00.000Z"}],"status":"completed","code":{"coding":[{"system":"http://snomed.info/sct","code":"169396008"}]},"subject":{"reference":"Patient/e529e266-033b-4aec-abbc-d7fb27b7286c"},"performedPeriod":{"start":"2025-01-17T11:00:00.000Z","end":"2025-01-17T11:00:00.000Z"}},"request":{"method":"PUT","url":"Procedure/4510b193-6e4b-48f7-97a4-bd295964938b"}},{"fullUrl":"https://madie.cms.gov/Procedure/5ca5260db8484613a555a996","resource":{"resourceType":"Procedure","id":"2e1542a3-7a21-4eef-af70-8e12193c8b6b","meta":{"profile":["http://hl7.org/fhir/us/qicore/StructureDefinition/qicore-procedure"]},"extension":[{"url":"http://hl7.org/fhir/us/qicore/StructureDefinition/qicore-recorded","valueDateTime":"2025-12-14T14:45:00.000Z"}],"status":"completed","code":{"coding":[{"system":"http://snomed.info/sct","code":"169396008"}]},"subject":{"reference":"Patient/e529e266-033b-4aec-abbc-d7fb27b7286c"},"performedPeriod":{"start":"2025-12-14T14:40:00.000Z","end":"2025-12-14T14:40:00.000Z"}},"request":{"method":"PUT","url":"Procedure/2e1542a3-7a21-4eef-af70-8e12193c8b6b"}},{"fullUrl":"https://madie.cms.gov/Organization/123456","resource":{"resourceType":"Organization","id":"db141f66-a1cc-407b-9e95-adac27adee14","meta":{"profile":["http://hl7.org/fhir/us/qicore/StructureDefinition/qicore-organization"]},"identifier":[{"use":"temp","system":"urn:oid:2.16.840.1.113883.4.4","value":"21-3259825"}],"active":true,"type":[{"coding":[{"system":"http://terminology.hl7.org/CodeSystem/organization-type","code":"pay","display":"Payer"}]}],"name":"Blue Cross Blue Shield of Texas","telecom":[{"system":"phone","value":"(+1) 972-766-6900"}],"address":[{"use":"billing","type":"postal","line":["P.O. Box 660044"],"city":"Dallas","state":"TX","postalCode":"75266-0044","country":"USA"}]},"request":{"method":"PUT","url":"Organization/db141f66-a1cc-407b-9e95-adac27adee14"}},{"fullUrl":"https://madie.cms.gov/Practitioner/practitioner-123456","resource":{"resourceType":"Practitioner","id":"1f47f062-34c0-4bd9-964e-40776a886ae0","meta":{"profile":["http://hl7.org/fhir/us/qicore/StructureDefinition/qicore-practitioner"]},"identifier":[{"system":"http://hl7.org/fhir/sid/us-npi","value":"123456"}],"name":[{"family":"Evil","prefix":["Dr"]}]},"request":{"method":"PUT","url":"Practitioner/1f47f062-34c0-4bd9-964e-40776a886ae0"}},{"fullUrl":"https://madie.cms.gov/MeasureReport/f9442140-5c36-4b52-ae60-af7ffb6b3c35","resource":{"resourceType":"MeasureReport","id":"f9442140-5c36-4b52-ae60-af7ffb6b3c35","meta":{"profile":["http://hl7.org/fhir/us/cqfmeasures/StructureDefinition/test-case-cqfm"]},"contained":[{"resourceType":"Parameters","id":"5f88ed72-d9f7-49fe-8219-f63eb40f0c37-parameters","parameter":[{"name":"subject","valueString":"e529e266-033b-4aec-abbc-d7fb27b7286c"}]}],"extension":[{"url":"http://hl7.org/fhir/us/cqfmeasures/StructureDefinition/cqfm-inputParameters","valueReference":{"reference":"#5f88ed72-d9f7-49fe-8219-f63eb40f0c37-parameters"}},{"url":"http://hl7.org/fhir/us/cqfmeasures/StructureDefinition/cqfm-testCaseDescription","valueMarkdown":"Patient with cancer diagnosis that starts a day after the measurement period. \n"}],"modifierExtension":[{"url":"http://hl7.org/fhir/us/cqfmeasures/StructureDefinition/cqfm-isTestCase","valueBoolean":true}],"status":"complete","type":"individual","measure":"https://madie.cms.gov/Measure/OncologyPainIntensityQuantifiedFHIR","period":{"start":"2025-01-01","end":"2025-12-31"},"group":[{"population":[{"code":{"coding":[{"system":"http://terminology.hl7.org/CodeSystem/measure-population","code":"initial-population","display":"Initial Population"}]},"count":0},{"code":{"coding":[{"system":"http://terminology.hl7.org/CodeSystem/measure-population","code":"denominator","display":"Denominator"}]},"count":0},{"code":{"coding":[{"system":"http://terminology.hl7.org/CodeSystem/measure-population","code":"numerator","display":"Numerator"}]},"count":0}]},{"population":[{"code":{"coding":[{"system":"http://terminology.hl7.org/CodeSystem/measure-population","code":"initial-population","display":"Initial Population"}]},"count":0},{"code":{"coding":[{"system":"http://terminology.hl7.org/CodeSystem/measure-population","code":"denominator","display":"Denominator"}]},"count":0},{"code":{"coding":[{"system":"http://terminology.hl7.org/CodeSystem/measure-population","code":"numerator","display":"Numerator"}]},"count":0}]}]},"request":{"method":"PUT","url":"MeasureReport/f9442140-5c36-4b52-ae60-af7ffb6b3c35"}}]}