{"resourceType":"Bundle","id":"tests-08f5e385-dbd5-4405-98ab-673d7d582069-bundle","type":"transaction","entry":[{"fullUrl":"https://madie.cms.gov/Patient/08f5e385-dbd5-4405-98ab-673d7d582069","resource":{"resourceType":"Patient","id":"08f5e385-dbd5-4405-98ab-673d7d582069","meta":{"profile":["http://hl7.org/fhir/us/qicore/StructureDefinition/qicore-patient"]},"text":{"status":"generated","div":"<div xmlns=\"http://www.w3.org/1999/xhtml\"><div class=\"hapiHeaderText\">RadTxwithPainAssessMultEp<b>NUMERPassPop2</b></div><table class=\"hapiPropertyTable\"><tbody><tr><td>Identifier</td><td>e9c0a9906dc13ac52fb44513edfd07c01cf9a98a2e657fabc9d5dbf2de3b50bf</td></tr><tr><td>Date of birth</td><td><span>13 May 1932</span></td></tr></tbody></table></div>"},"extension":[{"url":"http://hl7.org/fhir/us/core/StructureDefinition/us-core-race","extension":[{"url":"ombCategory","valueCoding":{"system":"urn:oid:2.16.840.1.113883.6.238","code":"1002-5","display":"American Indian or Alaska Native","userSelected":true}},{"url":"text","valueString":"American Indian or Alaska Native"}]},{"url":"http://hl7.org/fhir/us/core/StructureDefinition/us-core-ethnicity","extension":[{"url":"ombCategory","valueCoding":{"system":"urn:oid:2.16.840.1.113883.6.238","code":"2135-2","display":"Hispanic or Latino","userSelected":true}},{"url":"text","valueString":"Hispanic or Latino"}]}],"identifier":[{"type":{"coding":[{"system":"http://terminology.hl7.org/CodeSystem/v2-0203","code":"MR"}]},"system":"https://bonnie-fhir.healthit.gov/","value":"62c880ec0111a60120dc220e"}],"active":true,"name":[{"use":"usual","family":"NUMERPassPop2","given":["RadTxwithPainAssessMultEp"]}],"gender":"female","birthDate":"1932-05-13"},"request":{"method":"PUT","url":"Patient/08f5e385-dbd5-4405-98ab-673d7d582069"}},{"fullUrl":"https://madie.cms.gov/Observation/5ca5260ab8484613a555a956","resource":{"resourceType":"Observation","id":"baa0ab7a-53b9-40a2-9334-f5542593ef3a","meta":{"profile":["http://hl7.org/fhir/us/qicore/StructureDefinition/qicore-observation"]},"status":"final","category":[{"coding":[{"system":"http://terminology.hl7.org/CodeSystem/observation-category","code":"survey","display":"Survey"}],"text":"Survey"}],"code":{"coding":[{"system":"http://loinc.org","code":"38208-5"}]},"subject":{"reference":"Patient/08f5e385-dbd5-4405-98ab-673d7d582069"},"effectiveDateTime":"2025-03-05T09:00:00.000+00:00","valueInteger":5},"request":{"method":"PUT","url":"Observation/baa0ab7a-53b9-40a2-9334-f5542593ef3a"}},{"fullUrl":"https://madie.cms.gov/Observation/5ca5260ab8484613a555a958","resource":{"resourceType":"Observation","id":"6e370c79-ffe6-467a-a5fb-af5ae94b9faf","meta":{"profile":["http://hl7.org/fhir/us/qicore/StructureDefinition/qicore-observation"]},"status":"final","category":[{"coding":[{"system":"http://terminology.hl7.org/CodeSystem/observation-category","code":"survey","display":"Survey"}],"text":"Survey"}],"code":{"coding":[{"system":"http://loinc.org","code":"38221-8"}]},"subject":{"reference":"Patient/08f5e385-dbd5-4405-98ab-673d7d582069"},"effectiveDateTime":"2025-08-30T15:00:00.000+00:00","valueInteger":5},"request":{"method":"PUT","url":"Observation/6e370c79-ffe6-467a-a5fb-af5ae94b9faf"}},{"fullUrl":"https://madie.cms.gov/Condition/5ca5260ab8484613a555a953","resource":{"resourceType":"Condition","id":"c2202357-6f1b-40ba-ba04-374fcdf49f4b","meta":{"profile":["http://hl7.org/fhir/us/qicore/StructureDefinition/qicore-condition"]},"clinicalStatus":{"coding":[{"system":"http://terminology.hl7.org/CodeSystem/condition-clinical","code":"active","display":"active","userSelected":true}]},"verificationStatus":{"coding":[{"system":"http://terminology.hl7.org/CodeSystem/condition-ver-status","code":"confirmed","display":"Confirmed"}]},"category":[{"coding":[{"system":"http://terminology.hl7.org/CodeSystem/condition-category","code":"problem-list-item","display":"Problem List Item"}]}],"code":{"coding":[{"system":"http://snomed.info/sct","code":"107691000119101"}]},"subject":{"reference":"Patient/08f5e385-dbd5-4405-98ab-673d7d582069"},"onsetDateTime":"2023-11-01T13:30:00.000Z"},"request":{"method":"PUT","url":"Condition/c2202357-6f1b-40ba-ba04-374fcdf49f4b"}},{"fullUrl":"https://madie.cms.gov/Coverage/60099ac81c76ba64612b0667","resource":{"resourceType":"Coverage","id":"1cf3f476-6ae5-4eee-b180-dc79e8b635d3","meta":{"profile":["http://hl7.org/fhir/us/qicore/StructureDefinition/qicore-coverage"]},"status":"active","beneficiary":{"reference":"Patient/08f5e385-dbd5-4405-98ab-673d7d582069"},"period":{"start":"1932-05-13T08:00:00.000Z"},"payor":[{"reference":"Organization/890316dc-a4ad-43b4-ba6f-9fb9e6eca282"}]},"request":{"method":"PUT","url":"Coverage/1cf3f476-6ae5-4eee-b180-dc79e8b635d3"}},{"fullUrl":"https://madie.cms.gov/Encounter/radiation-treatment-management-2792","resource":{"resourceType":"Encounter","id":"b89b36dc-7629-4a56-b5bb-dcdd1243de9a","meta":{"profile":["http://hl7.org/fhir/us/qicore/StructureDefinition/qicore-encounter"]},"status":"finished","class":{"system":"http://terminology.hl7.org/CodeSystem/v3-ActCode","code":"AMB","display":"ambulatory","userSelected":true},"type":[{"coding":[{"system":"http://www.ama-assn.org/go/cpt","version":"2023","code":"77427","display":"Radiation treatment management, 5 treatments","userSelected":true}]}],"subject":{"reference":"Patient/08f5e385-dbd5-4405-98ab-673d7d582069"},"period":{"start":"2025-03-05T08:00:00.000+00:00","end":"2025-03-05T10:00:00.000+00:00"}},"request":{"method":"PUT","url":"Encounter/b89b36dc-7629-4a56-b5bb-dcdd1243de9a"}},{"fullUrl":"https://madie.cms.gov/Encounter/radiation-treatment-management-2793","resource":{"resourceType":"Encounter","id":"3aa4be1d-c3f5-41f5-b8cd-f853c9152e87","meta":{"profile":["http://hl7.org/fhir/us/qicore/StructureDefinition/qicore-encounter"]},"status":"finished","class":{"system":"http://terminology.hl7.org/CodeSystem/v3-ActCode","code":"AMB","display":"ambulatory","userSelected":true},"type":[{"coding":[{"system":"http://www.ama-assn.org/go/cpt","code":"77432","userSelected":true}]}],"subject":{"reference":"Patient/08f5e385-dbd5-4405-98ab-673d7d582069"},"period":{"start":"2025-08-30T08:00:00.000+00:00","end":"2025-08-30T08:15:00.000+00:00"}},"request":{"method":"PUT","url":"Encounter/3aa4be1d-c3f5-41f5-b8cd-f853c9152e87"}},{"fullUrl":"https://madie.cms.gov/Organization/123456","resource":{"resourceType":"Organization","id":"890316dc-a4ad-43b4-ba6f-9fb9e6eca282","meta":{"profile":["http://hl7.org/fhir/us/qicore/StructureDefinition/qicore-organization"]},"identifier":[{"use":"temp","system":"urn:oid:2.16.840.1.113883.4.4","value":"21-3259825"}],"active":true,"type":[{"coding":[{"system":"http://terminology.hl7.org/CodeSystem/organization-type","code":"pay","display":"Payer"}]}],"name":"Blue Cross Blue Shield of Texas","telecom":[{"system":"phone","value":"(+1) 972-766-6900"}],"address":[{"use":"billing","type":"postal","line":["P.O. Box 660044"],"city":"Dallas","state":"TX","postalCode":"75266-0044","country":"USA"}]},"request":{"method":"PUT","url":"Organization/890316dc-a4ad-43b4-ba6f-9fb9e6eca282"}},{"fullUrl":"https://madie.cms.gov/Practitioner/practitioner-123456","resource":{"resourceType":"Practitioner","id":"6c254178-3b08-4da7-808e-c5274eb839b9","meta":{"profile":["http://hl7.org/fhir/us/qicore/StructureDefinition/qicore-practitioner"]},"identifier":[{"system":"http://hl7.org/fhir/sid/us-npi","value":"123456"}],"name":[{"family":"Evil","prefix":["Dr"]}]},"request":{"method":"PUT","url":"Practitioner/6c254178-3b08-4da7-808e-c5274eb839b9"}},{"fullUrl":"https://madie.cms.gov/MeasureReport/a91bf5bd-1973-4fad-8f6a-9ea30f14f2ee","resource":{"resourceType":"MeasureReport","id":"a91bf5bd-1973-4fad-8f6a-9ea30f14f2ee","meta":{"profile":["http://hl7.org/fhir/us/cqfmeasures/StructureDefinition/test-case-cqfm"]},"contained":[{"resourceType":"Parameters","id":"0c4e1240-e5c2-4af8-a0da-d9e5a5eb10fb-parameters","parameter":[{"name":"subject","valueString":"08f5e385-dbd5-4405-98ab-673d7d582069"}]}],"extension":[{"url":"http://hl7.org/fhir/us/cqfmeasures/StructureDefinition/cqfm-inputParameters","valueReference":{"reference":"#0c4e1240-e5c2-4af8-a0da-d9e5a5eb10fb-parameters"}},{"url":"http://hl7.org/fhir/us/cqfmeasures/StructureDefinition/cqfm-testCaseDescription","valueMarkdown":"Patient with cancer diagnosis that overlaps radiation treatment management during measurement period. Pain intensity assessment was performed during radiation treatment management encounter. 2 episodes of care.\n"}],"modifierExtension":[{"url":"http://hl7.org/fhir/us/cqfmeasures/StructureDefinition/cqfm-isTestCase","valueBoolean":true}],"status":"complete","type":"individual","measure":"https://madie.cms.gov/Measure/OncologyPainIntensityQuantifiedFHIR","period":{"start":"2025-01-01","end":"2025-12-31"},"group":[{"population":[{"code":{"coding":[{"system":"http://terminology.hl7.org/CodeSystem/measure-population","code":"initial-population","display":"Initial Population"}]},"count":0},{"code":{"coding":[{"system":"http://terminology.hl7.org/CodeSystem/measure-population","code":"denominator","display":"Denominator"}]},"count":0},{"code":{"coding":[{"system":"http://terminology.hl7.org/CodeSystem/measure-population","code":"numerator","display":"Numerator"}]},"count":0}]},{"population":[{"code":{"coding":[{"system":"http://terminology.hl7.org/CodeSystem/measure-population","code":"initial-population","display":"Initial Population"}]},"count":2},{"code":{"coding":[{"system":"http://terminology.hl7.org/CodeSystem/measure-population","code":"denominator","display":"Denominator"}]},"count":2},{"code":{"coding":[{"system":"http://terminology.hl7.org/CodeSystem/measure-population","code":"numerator","display":"Numerator"}]},"count":2}]}]},"request":{"method":"PUT","url":"MeasureReport/a91bf5bd-1973-4fad-8f6a-9ea30f14f2ee"}}]}