{"resourceType":"Bundle","id":"tests-4a6da772-e652-47bf-b596-d1bf4c87f8f7-bundle","type":"transaction","entry":[{"fullUrl":"https://madie.cms.gov/Patient/4a6da772-e652-47bf-b596-d1bf4c87f8f7","resource":{"resourceType":"Patient","id":"4a6da772-e652-47bf-b596-d1bf4c87f8f7","meta":{"profile":["http://hl7.org/fhir/us/qicore/StructureDefinition/qicore-patient"]},"text":{"status":"generated","div":"<div xmlns=\"http://www.w3.org/1999/xhtml\"><div class=\"hapiHeaderText\">MultEncChemo30DaysPriorAndWithinMP<b>DENOMPassPOP1</b></div><table class=\"hapiPropertyTable\"><tbody><tr><td>Date of birth</td><td><span>18 February 1970</span></td></tr></tbody></table></div>"},"extension":[{"url":"http://hl7.org/fhir/us/core/StructureDefinition/us-core-race","extension":[{"url":"ombCategory","valueCoding":{"system":"urn:oid:2.16.840.1.113883.6.238","code":"1002-5","display":"American Indian or Alaska Native","userSelected":true}},{"url":"text","valueString":"American Indian or Alaska Native"}]},{"url":"http://hl7.org/fhir/us/core/StructureDefinition/us-core-ethnicity","extension":[{"url":"ombCategory","valueCoding":{"system":"urn:oid:2.16.840.1.113883.6.238","code":"2135-2","display":"Hispanic or Latino","userSelected":true}},{"url":"text","valueString":"Hispanic or Latino"}]}],"identifier":[{"type":{"coding":[{"system":"http://terminology.hl7.org/CodeSystem/v2-0203","code":"MR"}]},"system":"https://bonnie-fhir.healthit.gov/","value":"62c880eb0111a60120dc21eb"}],"active":true,"name":[{"use":"usual","family":"DENOMPassPop1","given":["MultEncChemo30DaysPriorAndWithinMP"]}],"gender":"female","birthDate":"1970-02-18"},"request":{"method":"PUT","url":"Patient/4a6da772-e652-47bf-b596-d1bf4c87f8f7"}},{"fullUrl":"https://madie.cms.gov/Condition/602703030df1fb00002a24b1","resource":{"resourceType":"Condition","id":"d4185f4b-d5d3-460a-a2d3-611fbae002f1","meta":{"profile":["http://hl7.org/fhir/us/qicore/StructureDefinition/qicore-condition"]},"clinicalStatus":{"coding":[{"system":"http://terminology.hl7.org/CodeSystem/condition-clinical","code":"active","display":"active","userSelected":true}]},"verificationStatus":{"coding":[{"system":"http://terminology.hl7.org/CodeSystem/condition-ver-status","code":"confirmed","display":"Confirmed"}]},"category":[{"coding":[{"system":"http://terminology.hl7.org/CodeSystem/condition-category","code":"encounter-diagnosis","display":"Encounter Diagnosis"},{"system":"http://terminology.hl7.org/CodeSystem/condition-category","code":"problem-list-item","display":"Problem List Item"}]}],"code":{"coding":[{"system":"http://snomed.info/sct","code":"107691000119101"},{"system":"http://hl7.org/fhir/sid/icd-10-cm","code":"C48.0"}]},"subject":{"reference":"Patient/4a6da772-e652-47bf-b596-d1bf4c87f8f7"},"onsetDateTime":"2023-11-01T08:00:00.000Z"},"request":{"method":"PUT","url":"Condition/d4185f4b-d5d3-460a-a2d3-611fbae002f1"}},{"fullUrl":"https://madie.cms.gov/Encounter/6027038b0df1fb00002a252b","resource":{"resourceType":"Encounter","id":"e467501d-3028-4b45-844c-f4b5a2371587","meta":{"profile":["http://hl7.org/fhir/us/qicore/StructureDefinition/qicore-encounter"]},"status":"finished","class":{"system":"http://terminology.hl7.org/CodeSystem/v3-ActCode","code":"AMB","display":"ambulatory","userSelected":true},"type":[{"coding":[{"system":"http://snomed.info/sct","code":"185463005"}]}],"subject":{"reference":"Patient/4a6da772-e652-47bf-b596-d1bf4c87f8f7"},"period":{"start":"2024-12-02T08:00:00.000Z","end":"2024-12-02T08:15:00.000Z"}},"request":{"method":"PUT","url":"Encounter/e467501d-3028-4b45-844c-f4b5a2371587"}},{"fullUrl":"https://madie.cms.gov/Encounter/602703cf0df1fb00002a25b9","resource":{"resourceType":"Encounter","id":"e862e52d-78c9-4102-bc84-a167972d086c","meta":{"profile":["http://hl7.org/fhir/us/qicore/StructureDefinition/qicore-encounter"]},"status":"finished","class":{"system":"http://terminology.hl7.org/CodeSystem/v3-ActCode","code":"AMB","display":"ambulatory","userSelected":true},"type":[{"coding":[{"system":"http://snomed.info/sct","code":"185463005"}]}],"subject":{"reference":"Patient/4a6da772-e652-47bf-b596-d1bf4c87f8f7"},"period":{"start":"2025-01-06T08:00:00.000Z","end":"2025-01-06T08:15:00.000Z"}},"request":{"method":"PUT","url":"Encounter/e862e52d-78c9-4102-bc84-a167972d086c"}},{"fullUrl":"https://madie.cms.gov/Coverage/61043692a2f9161878c53ab1","resource":{"resourceType":"Coverage","id":"f3aa5130-8f17-46b0-a211-40a9d76bed9d","meta":{"profile":["http://hl7.org/fhir/us/qicore/StructureDefinition/qicore-coverage"]},"status":"active","beneficiary":{"reference":"Patient/4a6da772-e652-47bf-b596-d1bf4c87f8f7"},"period":{"start":"1970-02-18T08:00:00.000Z"},"payor":[{"reference":"Organization/880a275e-1cf2-4fb9-869b-f1d2173fdc2b"}]},"request":{"method":"PUT","url":"Coverage/f3aa5130-8f17-46b0-a211-40a9d76bed9d"}},{"fullUrl":"https://madie.cms.gov/Procedure/602703ac0df1fb00002a2563","resource":{"resourceType":"Procedure","id":"8f569634-ccdb-4425-b200-cd184a905684","meta":{"profile":["http://hl7.org/fhir/us/qicore/StructureDefinition/qicore-procedure"]},"extension":[{"url":"http://hl7.org/fhir/us/qicore/StructureDefinition/qicore-recorded","valueDateTime":"2024-12-02T12:35:00.000Z"}],"status":"completed","code":{"coding":[{"system":"http://snomed.info/sct","code":"169396008"}]},"subject":{"reference":"Patient/4a6da772-e652-47bf-b596-d1bf4c87f8f7"},"performedPeriod":{"start":"2024-12-02T08:00:00.000Z","end":"2024-12-02T08:15:00.000Z"}},"request":{"method":"PUT","url":"Procedure/8f569634-ccdb-4425-b200-cd184a905684"}},{"fullUrl":"https://madie.cms.gov/Procedure/602703ba0df1fb00002a257b","resource":{"resourceType":"Procedure","id":"ff5b4447-8943-4190-95a3-a5126ed0592d","meta":{"profile":["http://hl7.org/fhir/us/qicore/StructureDefinition/qicore-procedure"]},"extension":[{"url":"http://hl7.org/fhir/us/qicore/StructureDefinition/qicore-recorded","valueDateTime":"2024-12-31T12:35:00.000Z"}],"status":"completed","code":{"coding":[{"system":"http://snomed.info/sct","code":"169396008"}]},"subject":{"reference":"Patient/4a6da772-e652-47bf-b596-d1bf4c87f8f7"},"performedPeriod":{"start":"2024-12-31T08:00:00.000Z","end":"2024-12-31T08:15:00.000Z"}},"request":{"method":"PUT","url":"Procedure/ff5b4447-8943-4190-95a3-a5126ed0592d"}},{"fullUrl":"https://madie.cms.gov/Procedure/602703e10df1fb00002a25e2","resource":{"resourceType":"Procedure","id":"675fc9f1-14bd-487c-8340-dd1669aa0bda","meta":{"profile":["http://hl7.org/fhir/us/qicore/StructureDefinition/qicore-procedure"]},"extension":[{"url":"http://hl7.org/fhir/us/qicore/StructureDefinition/qicore-recorded","valueDateTime":"2024-12-09T12:35:00.000Z"}],"status":"completed","code":{"coding":[{"system":"http://snomed.info/sct","code":"169396008"}]},"subject":{"reference":"Patient/4a6da772-e652-47bf-b596-d1bf4c87f8f7"},"performedPeriod":{"start":"2024-12-09T08:00:00.000Z","end":"2024-12-09T08:15:00.000Z"}},"request":{"method":"PUT","url":"Procedure/675fc9f1-14bd-487c-8340-dd1669aa0bda"}},{"fullUrl":"https://madie.cms.gov/Procedure/602703f50df1fb00002a261c","resource":{"resourceType":"Procedure","id":"8d4f0347-c78b-4b88-a7ee-963b313e3902","meta":{"profile":["http://hl7.org/fhir/us/qicore/StructureDefinition/qicore-procedure"]},"extension":[{"url":"http://hl7.org/fhir/us/qicore/StructureDefinition/qicore-recorded","valueDateTime":"2024-12-16T12:35:00.000Z"}],"status":"completed","code":{"coding":[{"system":"http://snomed.info/sct","code":"169396008"}]},"subject":{"reference":"Patient/4a6da772-e652-47bf-b596-d1bf4c87f8f7"},"performedPeriod":{"start":"2024-12-16T08:00:00.000Z","end":"2024-12-16T08:15:00.000Z"}},"request":{"method":"PUT","url":"Procedure/8d4f0347-c78b-4b88-a7ee-963b313e3902"}},{"fullUrl":"https://madie.cms.gov/Procedure/602704110df1fb00002a264b","resource":{"resourceType":"Procedure","id":"31175bde-1f79-4386-979a-a93b0a2b7a3f","meta":{"profile":["http://hl7.org/fhir/us/qicore/StructureDefinition/qicore-procedure"]},"extension":[{"url":"http://hl7.org/fhir/us/qicore/StructureDefinition/qicore-recorded","valueDateTime":"2024-12-23T12:35:00.000Z"}],"status":"completed","code":{"coding":[{"system":"http://snomed.info/sct","code":"169396008"}]},"subject":{"reference":"Patient/4a6da772-e652-47bf-b596-d1bf4c87f8f7"},"performedPeriod":{"start":"2024-12-23T08:00:00.000Z","end":"2024-12-23T08:15:00.000Z"}},"request":{"method":"PUT","url":"Procedure/31175bde-1f79-4386-979a-a93b0a2b7a3f"}},{"fullUrl":"https://madie.cms.gov/Procedure/602704540df1fb00002a26a0","resource":{"resourceType":"Procedure","id":"fe60d669-724e-4ddd-b49f-978ce2d00dba","meta":{"profile":["http://hl7.org/fhir/us/qicore/StructureDefinition/qicore-procedure"]},"extension":[{"url":"http://hl7.org/fhir/us/qicore/StructureDefinition/qicore-recorded","valueDateTime":"2025-01-06T12:35:00.000Z"}],"status":"completed","code":{"coding":[{"system":"http://snomed.info/sct","code":"169396008"}]},"subject":{"reference":"Patient/4a6da772-e652-47bf-b596-d1bf4c87f8f7"},"performedPeriod":{"start":"2025-01-06T08:00:00.000Z","end":"2025-01-06T08:15:00.000Z"}},"request":{"method":"PUT","url":"Procedure/fe60d669-724e-4ddd-b49f-978ce2d00dba"}},{"fullUrl":"https://madie.cms.gov/Organization/123456","resource":{"resourceType":"Organization","id":"880a275e-1cf2-4fb9-869b-f1d2173fdc2b","meta":{"profile":["http://hl7.org/fhir/us/qicore/StructureDefinition/qicore-organization"]},"identifier":[{"use":"temp","system":"urn:oid:2.16.840.1.113883.4.4","value":"21-3259825"}],"active":true,"type":[{"coding":[{"system":"http://terminology.hl7.org/CodeSystem/organization-type","code":"pay","display":"Payer"}]}],"name":"Blue Cross Blue Shield of Texas","telecom":[{"system":"phone","value":"(+1) 972-766-6900"}],"address":[{"use":"billing","type":"postal","line":["P.O. Box 660044"],"city":"Dallas","state":"TX","postalCode":"75266-0044","country":"USA"}]},"request":{"method":"PUT","url":"Organization/880a275e-1cf2-4fb9-869b-f1d2173fdc2b"}},{"fullUrl":"https://madie.cms.gov/MeasureReport/cc9b6b26-a96c-4fa8-b796-913ca56c5d33","resource":{"resourceType":"MeasureReport","id":"cc9b6b26-a96c-4fa8-b796-913ca56c5d33","meta":{"profile":["http://hl7.org/fhir/us/cqfmeasures/StructureDefinition/test-case-cqfm"]},"contained":[{"resourceType":"Parameters","id":"d7383e22-4bfa-4b5a-8e99-a6f3cdb7cbc4-parameters","parameter":[{"name":"subject","valueString":"4a6da772-e652-47bf-b596-d1bf4c87f8f7"}]}],"extension":[{"url":"http://hl7.org/fhir/us/cqfmeasures/StructureDefinition/cqfm-inputParameters","valueReference":{"reference":"#d7383e22-4bfa-4b5a-8e99-a6f3cdb7cbc4-parameters"}},{"url":"http://hl7.org/fhir/us/cqfmeasures/StructureDefinition/cqfm-testCaseDescription","valueMarkdown":"Patient with cancer diagnosis that overlaps the office visits. Has office visit and chemo within 30 days prior to the measurement period, and another office visit and chemo within measurement period. "}],"modifierExtension":[{"url":"http://hl7.org/fhir/us/cqfmeasures/StructureDefinition/cqfm-isTestCase","valueBoolean":true}],"status":"complete","type":"individual","measure":"https://madie.cms.gov/Measure/OncologyPainIntensityQuantifiedFHIR","period":{"start":"2025-01-01","end":"2025-12-31"},"group":[{"population":[{"code":{"coding":[{"system":"http://terminology.hl7.org/CodeSystem/measure-population","code":"initial-population","display":"Initial Population"}]},"count":1},{"code":{"coding":[{"system":"http://terminology.hl7.org/CodeSystem/measure-population","code":"denominator","display":"Denominator"}]},"count":1},{"code":{"coding":[{"system":"http://terminology.hl7.org/CodeSystem/measure-population","code":"numerator","display":"Numerator"}]},"count":0}]},{"population":[{"code":{"coding":[{"system":"http://terminology.hl7.org/CodeSystem/measure-population","code":"initial-population","display":"Initial Population"}]},"count":0},{"code":{"coding":[{"system":"http://terminology.hl7.org/CodeSystem/measure-population","code":"denominator","display":"Denominator"}]},"count":0},{"code":{"coding":[{"system":"http://terminology.hl7.org/CodeSystem/measure-population","code":"numerator","display":"Numerator"}]},"count":0}]}]},"request":{"method":"PUT","url":"MeasureReport/cc9b6b26-a96c-4fa8-b796-913ca56c5d33"}}]}