{"resourceType":"Bundle","id":"tests-28f57404-e619-4b1e-905f-5d89fffeffcd-bundle","type":"transaction","entry":[{"fullUrl":"https://madie.cms.gov/Patient/28f57404-e619-4b1e-905f-5d89fffeffcd","resource":{"resourceType":"Patient","id":"28f57404-e619-4b1e-905f-5d89fffeffcd","meta":{"profile":["http://hl7.org/fhir/us/qicore/StructureDefinition/qicore-patient"]},"text":{"status":"generated","div":"<div xmlns=\"http://www.w3.org/1999/xhtml\"><div class=\"hapiHeaderText\">TwiceDailyChemo<b>DENOMPASSPOP1</b></div><table class=\"hapiPropertyTable\"><tbody><tr><td>Date of birth</td><td><span>12 February 1978</span></td></tr></tbody></table></div>"},"extension":[{"url":"http://hl7.org/fhir/us/core/StructureDefinition/us-core-race","extension":[{"url":"ombCategory","valueCoding":{"system":"urn:oid:2.16.840.1.113883.6.238","code":"1002-5","display":"American Indian or Alaska Native","userSelected":true}},{"url":"text","valueString":"American Indian or Alaska Native"}]},{"url":"http://hl7.org/fhir/us/core/StructureDefinition/us-core-ethnicity","extension":[{"url":"ombCategory","valueCoding":{"system":"urn:oid:2.16.840.1.113883.6.238","code":"2135-2","display":"Hispanic or Latino","userSelected":true}},{"url":"text","valueString":"Hispanic or Latino"}]}],"identifier":[{"type":{"coding":[{"system":"http://terminology.hl7.org/CodeSystem/v2-0203","code":"MR"}]},"system":"https://bonnie-fhir.healthit.gov/","value":"62c880ec0111a60120dc220d"}],"active":true,"name":[{"use":"usual","family":"DENOMFailPop1","given":["TwiceDailyChemo"]}],"gender":"female","birthDate":"1978-02-12"},"request":{"method":"PUT","url":"Patient/28f57404-e619-4b1e-905f-5d89fffeffcd"}},{"fullUrl":"https://madie.cms.gov/Condition/602707c30df1fb00002a2a82","resource":{"resourceType":"Condition","id":"79b446c0-6042-4946-b464-c6192d744070","meta":{"profile":["http://hl7.org/fhir/us/qicore/StructureDefinition/qicore-condition"]},"clinicalStatus":{"coding":[{"system":"http://terminology.hl7.org/CodeSystem/condition-clinical","code":"active","display":"active","userSelected":true}]},"category":[{"coding":[{"system":"http://terminology.hl7.org/CodeSystem/condition-category","code":"problem-list-item","display":"Problem List Item"}]}],"code":{"coding":[{"system":"http://snomed.info/sct","code":"107691000119101"}]},"subject":{"reference":"Patient/28f57404-e619-4b1e-905f-5d89fffeffcd"},"onsetDateTime":"2025-01-31T08:00:00.000Z"},"request":{"method":"PUT","url":"Condition/79b446c0-6042-4946-b464-c6192d744070"}},{"fullUrl":"https://madie.cms.gov/Encounter/602707d20df1fb00002a2aa4","resource":{"resourceType":"Encounter","id":"d9e9a11e-f4d6-47e0-b170-96b7012b185a","meta":{"profile":["http://hl7.org/fhir/us/qicore/StructureDefinition/qicore-encounter"]},"status":"finished","class":{"system":"http://terminology.hl7.org/CodeSystem/v3-ActCode","code":"AMB","display":"ambulatory","userSelected":true},"type":[{"coding":[{"system":"http://snomed.info/sct","code":"185463005"}]}],"subject":{"reference":"Patient/28f57404-e619-4b1e-905f-5d89fffeffcd"},"period":{"start":"2025-01-31T08:00:00.000Z","end":"2025-01-31T08:15:00.000Z"}},"request":{"method":"PUT","url":"Encounter/d9e9a11e-f4d6-47e0-b170-96b7012b185a"}},{"fullUrl":"https://madie.cms.gov/Encounter/602707e10df1fb00002a2ac1","resource":{"resourceType":"Encounter","id":"70447b6c-8d5f-414e-be02-8315aa27cfd9","meta":{"profile":["http://hl7.org/fhir/us/qicore/StructureDefinition/qicore-encounter"]},"status":"finished","class":{"system":"http://terminology.hl7.org/CodeSystem/v3-ActCode","code":"AMB","display":"ambulatory","userSelected":true},"type":[{"coding":[{"system":"http://snomed.info/sct","code":"185463005"}]}],"subject":{"reference":"Patient/28f57404-e619-4b1e-905f-5d89fffeffcd"},"period":{"start":"2025-02-09T08:00:00.000Z","end":"2025-02-09T08:15:00.000Z"}},"request":{"method":"PUT","url":"Encounter/70447b6c-8d5f-414e-be02-8315aa27cfd9"}},{"fullUrl":"https://madie.cms.gov/Coverage/61043692a2f9161878c53ab7","resource":{"resourceType":"Coverage","id":"36030d14-c094-4dc0-919f-475741c639ba","meta":{"profile":["http://hl7.org/fhir/us/qicore/StructureDefinition/qicore-coverage"]},"status":"active","beneficiary":{"reference":"Patient/28f57404-e619-4b1e-905f-5d89fffeffcd"},"period":{"start":"1978-02-12T08:00:00.000Z"},"payor":[{"reference":"Organization/f6075515-d38f-4624-bde8-a1ce20473a69"}]},"request":{"method":"PUT","url":"Coverage/36030d14-c094-4dc0-919f-475741c639ba"}},{"fullUrl":"https://madie.cms.gov/Procedure/602707fa0df1fb00002a2aeb","resource":{"resourceType":"Procedure","id":"dbdc69b4-b961-4698-81d0-600109806a5d","meta":{"profile":["http://hl7.org/fhir/us/qicore/StructureDefinition/qicore-procedure"]},"extension":[{"url":"http://hl7.org/fhir/us/qicore/StructureDefinition/qicore-recorded","valueDateTime":"2025-02-09T12:35:00.000Z"}],"status":"completed","code":{"coding":[{"system":"http://snomed.info/sct","code":"169396008"}]},"subject":{"reference":"Patient/28f57404-e619-4b1e-905f-5d89fffeffcd"},"performedPeriod":{"start":"2025-02-09T08:00:00.000Z","end":"2025-02-09T08:15:00.000Z"}},"request":{"method":"PUT","url":"Procedure/dbdc69b4-b961-4698-81d0-600109806a5d"}},{"fullUrl":"https://madie.cms.gov/Procedure/602707ff0df1fb00002a2b05","resource":{"resourceType":"Procedure","id":"3690be44-b28a-4fc1-9dc5-388b1ce4a440","meta":{"profile":["http://hl7.org/fhir/us/qicore/StructureDefinition/qicore-procedure"]},"extension":[{"url":"http://hl7.org/fhir/us/qicore/StructureDefinition/qicore-recorded","valueDateTime":"2025-02-09T12:35:00.000Z"}],"status":"completed","code":{"coding":[{"system":"http://snomed.info/sct","code":"169396008"}]},"subject":{"reference":"Patient/28f57404-e619-4b1e-905f-5d89fffeffcd"},"performedPeriod":{"start":"2025-02-09T08:00:00.000Z","end":"2025-02-09T08:15:00.000Z"}},"request":{"method":"PUT","url":"Procedure/3690be44-b28a-4fc1-9dc5-388b1ce4a440"}},{"fullUrl":"https://madie.cms.gov/Organization/123456","resource":{"resourceType":"Organization","id":"f6075515-d38f-4624-bde8-a1ce20473a69","meta":{"profile":["http://hl7.org/fhir/us/qicore/StructureDefinition/qicore-organization"]},"identifier":[{"use":"temp","system":"urn:oid:2.16.840.1.113883.4.4","value":"21-3259825"}],"active":true,"type":[{"coding":[{"system":"http://terminology.hl7.org/CodeSystem/organization-type","code":"pay","display":"Payer"}]}],"name":"Blue Cross Blue Shield of Texas","telecom":[{"system":"phone","value":"(+1) 972-766-6900"}],"address":[{"use":"billing","type":"postal","line":["P.O. Box 660044"],"city":"Dallas","state":"TX","postalCode":"75266-0044","country":"USA"}]},"request":{"method":"PUT","url":"Organization/f6075515-d38f-4624-bde8-a1ce20473a69"}},{"fullUrl":"https://madie.cms.gov/Practitioner/practitioner-123456","resource":{"resourceType":"Practitioner","id":"cb49f470-2655-496d-ba7a-e82edf73c170","meta":{"profile":["http://hl7.org/fhir/us/qicore/StructureDefinition/qicore-practitioner"]},"identifier":[{"system":"http://hl7.org/fhir/sid/us-npi","value":"123456"}],"name":[{"family":"Evil","prefix":["Dr"]}]},"request":{"method":"PUT","url":"Practitioner/cb49f470-2655-496d-ba7a-e82edf73c170"}},{"fullUrl":"https://madie.cms.gov/MeasureReport/f00b0d4e-d2f9-4aac-85a5-685e307f46a6","resource":{"resourceType":"MeasureReport","id":"f00b0d4e-d2f9-4aac-85a5-685e307f46a6","meta":{"profile":["http://hl7.org/fhir/us/cqfmeasures/StructureDefinition/test-case-cqfm"]},"contained":[{"resourceType":"Parameters","id":"ef83c21f-1f6e-49a4-ae37-64ed5d65dc57-parameters","parameter":[{"name":"subject","valueString":"28f57404-e619-4b1e-905f-5d89fffeffcd"}]}],"extension":[{"url":"http://hl7.org/fhir/us/cqfmeasures/StructureDefinition/cqfm-inputParameters","valueReference":{"reference":"#ef83c21f-1f6e-49a4-ae37-64ed5d65dc57-parameters"}},{"url":"http://hl7.org/fhir/us/cqfmeasures/StructureDefinition/cqfm-testCaseDescription","valueMarkdown":"Patient with cancer diagnosis that overlaps the office visits during measurement period. Patient received twice daily chemotherapy. \n"}],"modifierExtension":[{"url":"http://hl7.org/fhir/us/cqfmeasures/StructureDefinition/cqfm-isTestCase","valueBoolean":true}],"status":"complete","type":"individual","measure":"https://madie.cms.gov/Measure/OncologyPainIntensityQuantifiedFHIR","period":{"start":"2025-01-01","end":"2025-12-31"},"group":[{"population":[{"code":{"coding":[{"system":"http://terminology.hl7.org/CodeSystem/measure-population","code":"initial-population","display":"Initial Population"}]},"count":0},{"code":{"coding":[{"system":"http://terminology.hl7.org/CodeSystem/measure-population","code":"denominator","display":"Denominator"}]},"count":0},{"code":{"coding":[{"system":"http://terminology.hl7.org/CodeSystem/measure-population","code":"numerator","display":"Numerator"}]},"count":0}]},{"population":[{"code":{"coding":[{"system":"http://terminology.hl7.org/CodeSystem/measure-population","code":"initial-population","display":"Initial Population"}]},"count":0},{"code":{"coding":[{"system":"http://terminology.hl7.org/CodeSystem/measure-population","code":"denominator","display":"Denominator"}]},"count":0},{"code":{"coding":[{"system":"http://terminology.hl7.org/CodeSystem/measure-population","code":"numerator","display":"Numerator"}]},"count":0}]}]},"request":{"method":"PUT","url":"MeasureReport/f00b0d4e-d2f9-4aac-85a5-685e307f46a6"}}]}