{"resourceType":"Bundle","id":"tests-d8cb1d04-842e-4e67-93dc-5510163b7040-bundle","type":"transaction","entry":[{"fullUrl":"https://madie.cms.gov/Patient/d8cb1d04-842e-4e67-93dc-5510163b7040","resource":{"resourceType":"Patient","id":"d8cb1d04-842e-4e67-93dc-5510163b7040","meta":{"profile":["http://hl7.org/fhir/us/qicore/StructureDefinition/qicore-patient"]},"text":{"status":"generated","div":"<div xmlns=\"http://www.w3.org/1999/xhtml\"><div class=\"hapiHeaderText\">MultCancerDxRadTxInvalidCode<b>DENOMFailPop2</b></div><table class=\"hapiPropertyTable\"><tbody><tr><td>Date of birth</td><td><span>04 March 1978</span></td></tr></tbody></table></div>"},"extension":[{"url":"http://hl7.org/fhir/us/core/StructureDefinition/us-core-race","extension":[{"url":"ombCategory","valueCoding":{"system":"urn:oid:2.16.840.1.113883.6.238","code":"1002-5","display":"American Indian or Alaska Native","userSelected":true}},{"url":"text","valueString":"American Indian or Alaska Native"}]},{"url":"http://hl7.org/fhir/us/core/StructureDefinition/us-core-ethnicity","extension":[{"url":"ombCategory","valueCoding":{"system":"urn:oid:2.16.840.1.113883.6.238","code":"2135-2","display":"Hispanic or Latino","userSelected":true}},{"url":"text","valueString":"Hispanic or Latino"}]}],"identifier":[{"type":{"coding":[{"system":"http://terminology.hl7.org/CodeSystem/v2-0203","code":"MR"}]},"system":"https://bonnie-fhir.healthit.gov/","value":"62c880eb0111a60120dc21eb"}],"active":true,"name":[{"use":"usual","family":"DENOMFailPop2","given":["MultCancerDxRadTxInvalidCode"]}],"gender":"female","birthDate":"1978-03-04"},"request":{"method":"PUT","url":"Patient/d8cb1d04-842e-4e67-93dc-5510163b7040"}},{"fullUrl":"https://madie.cms.gov/Condition/5e41aa14a9c22a0000b32084","resource":{"resourceType":"Condition","id":"9c00714a-792f-40bc-bd36-ebe75627cfa0","meta":{"profile":["http://hl7.org/fhir/us/qicore/StructureDefinition/qicore-condition"]},"clinicalStatus":{"coding":[{"system":"http://terminology.hl7.org/CodeSystem/condition-clinical","code":"active","display":"active"}]},"verificationStatus":{"coding":[{"system":"http://terminology.hl7.org/CodeSystem/condition-ver-status","code":"confirmed","display":"confirmed"}]},"category":[{"coding":[{"system":"http://terminology.hl7.org/CodeSystem/condition-category","code":"problem-list-item","display":"Problem List Item"}]}],"code":{"coding":[{"system":"http://snomed.info/sct","code":"107691000119101"}]},"subject":{"reference":"Patient/d8cb1d04-842e-4e67-93dc-5510163b7040"},"onsetDateTime":"2025-01-10T08:00:00.000Z"},"request":{"method":"PUT","url":"Condition/9c00714a-792f-40bc-bd36-ebe75627cfa0"}},{"fullUrl":"https://madie.cms.gov/Condition/5e41ab3ca9c22a0000b3219d","resource":{"resourceType":"Condition","id":"d43996a5-42a1-4dad-b3be-dd5a768056db","meta":{"profile":["http://hl7.org/fhir/us/qicore/StructureDefinition/qicore-condition"]},"clinicalStatus":{"coding":[{"system":"http://terminology.hl7.org/CodeSystem/condition-clinical","code":"inactive","display":"inactive"}]},"verificationStatus":{"coding":[{"system":"http://terminology.hl7.org/CodeSystem/condition-ver-status","code":"confirmed","display":"confirmed"}]},"category":[{"coding":[{"system":"http://terminology.hl7.org/CodeSystem/condition-category","code":"problem-list-item","display":"Problem List Item"}]}],"code":{"coding":[{"system":"http://hl7.org/fhir/sid/icd-10-cm","code":"C02.3"}]},"subject":{"reference":"Patient/d8cb1d04-842e-4e67-93dc-5510163b7040"},"onsetDateTime":"2025-03-10T08:00:00.000Z","abatementDateTime":"2025-03-10T08:15:00.000Z"},"request":{"method":"PUT","url":"Condition/d43996a5-42a1-4dad-b3be-dd5a768056db"}},{"fullUrl":"https://madie.cms.gov/Coverage/60099acb1c76ba64612b069d","resource":{"resourceType":"Coverage","id":"f3afbf3b-b85b-4d0e-96f4-694616ddd300","meta":{"profile":["http://hl7.org/fhir/us/qicore/StructureDefinition/qicore-coverage"]},"status":"active","beneficiary":{"reference":"Patient/d8cb1d04-842e-4e67-93dc-5510163b7040"},"period":{"start":"1978-03-04T08:00:00.000Z"},"payor":[{"reference":"Organization/80573fa1-cf83-4e9a-8f21-86a018689678"}]},"request":{"method":"PUT","url":"Coverage/f3afbf3b-b85b-4d0e-96f4-694616ddd300"}},{"fullUrl":"https://madie.cms.gov/Encounter/5e41aa06a9c22a0000b32067","resource":{"resourceType":"Encounter","id":"3c4b1015-e350-43cd-8a2d-291ab71a6f76","meta":{"profile":["http://hl7.org/fhir/us/qicore/StructureDefinition/qicore-encounter"]},"status":"finished","class":{"system":"http://terminology.hl7.org/CodeSystem/v3-ActCode","code":"AMB","display":"ambulatory","userSelected":true},"type":[{"coding":[{"system":"http://www.ama-assn.org/go/cpt","code":"00000"}]}],"subject":{"reference":"Patient/d8cb1d04-842e-4e67-93dc-5510163b7040"},"period":{"start":"2025-02-10T08:00:00.000Z","end":"2025-02-10T08:15:00.000Z"}},"request":{"method":"PUT","url":"Encounter/3c4b1015-e350-43cd-8a2d-291ab71a6f76"}},{"fullUrl":"https://madie.cms.gov/Organization/123456","resource":{"resourceType":"Organization","id":"80573fa1-cf83-4e9a-8f21-86a018689678","meta":{"profile":["http://hl7.org/fhir/us/qicore/StructureDefinition/qicore-organization"]},"identifier":[{"use":"temp","system":"urn:oid:2.16.840.1.113883.4.4","value":"21-3259825"}],"active":true,"type":[{"coding":[{"system":"http://terminology.hl7.org/CodeSystem/organization-type","code":"pay","display":"Payer"}]}],"name":"Blue Cross Blue Shield of Texas","telecom":[{"system":"phone","value":"(+1) 972-766-6900"}],"address":[{"use":"billing","type":"postal","line":["P.O. Box 660044"],"city":"Dallas","state":"TX","postalCode":"75266-0044","country":"USA"}]},"request":{"method":"PUT","url":"Organization/80573fa1-cf83-4e9a-8f21-86a018689678"}},{"fullUrl":"https://madie.cms.gov/Practitioner/practitioner-123456","resource":{"resourceType":"Practitioner","id":"80911b27-0847-4983-a01b-f8d9cb777beb","meta":{"profile":["http://hl7.org/fhir/us/qicore/StructureDefinition/qicore-practitioner"]},"identifier":[{"system":"http://hl7.org/fhir/sid/us-npi","value":"123456"}],"name":[{"family":"Evil","prefix":["Dr"]}]},"request":{"method":"PUT","url":"Practitioner/80911b27-0847-4983-a01b-f8d9cb777beb"}},{"fullUrl":"https://madie.cms.gov/MeasureReport/a1cdc65f-78a2-49cf-b132-ff120e843919","resource":{"resourceType":"MeasureReport","id":"a1cdc65f-78a2-49cf-b132-ff120e843919","meta":{"profile":["http://hl7.org/fhir/us/cqfmeasures/StructureDefinition/test-case-cqfm"]},"contained":[{"resourceType":"Parameters","id":"0fd41651-2e55-42bf-8f2e-358151fd1ee5-parameters","parameter":[{"name":"subject","valueString":"d8cb1d04-842e-4e67-93dc-5510163b7040"}]}],"extension":[{"url":"http://hl7.org/fhir/us/cqfmeasures/StructureDefinition/cqfm-inputParameters","valueReference":{"reference":"#0fd41651-2e55-42bf-8f2e-358151fd1ee5-parameters"}},{"url":"http://hl7.org/fhir/us/cqfmeasures/StructureDefinition/cqfm-testCaseDescription","valueMarkdown":" Patient has more than one cancer diagnoses on different dates within the measurement period. 1 cancer diagnosis overlaps radiation treatment management but radiation treatment management code is invalid. \n"}],"modifierExtension":[{"url":"http://hl7.org/fhir/us/cqfmeasures/StructureDefinition/cqfm-isTestCase","valueBoolean":true}],"status":"complete","type":"individual","measure":"https://madie.cms.gov/Measure/OncologyPainIntensityQuantifiedFHIR","period":{"start":"2025-01-01","end":"2025-12-31"},"group":[{"population":[{"code":{"coding":[{"system":"http://terminology.hl7.org/CodeSystem/measure-population","code":"initial-population","display":"Initial Population"}]},"count":0},{"code":{"coding":[{"system":"http://terminology.hl7.org/CodeSystem/measure-population","code":"denominator","display":"Denominator"}]},"count":0},{"code":{"coding":[{"system":"http://terminology.hl7.org/CodeSystem/measure-population","code":"numerator","display":"Numerator"}]},"count":0}]},{"population":[{"code":{"coding":[{"system":"http://terminology.hl7.org/CodeSystem/measure-population","code":"initial-population","display":"Initial Population"}]},"count":0},{"code":{"coding":[{"system":"http://terminology.hl7.org/CodeSystem/measure-population","code":"denominator","display":"Denominator"}]},"count":0},{"code":{"coding":[{"system":"http://terminology.hl7.org/CodeSystem/measure-population","code":"numerator","display":"Numerator"}]},"count":0}]}]},"request":{"method":"PUT","url":"MeasureReport/a1cdc65f-78a2-49cf-b132-ff120e843919"}}]}