{
  "resourceType": "Bundle",
  "id": "60f82c2f98086b570510e2c0",
  "type": "transaction",
  "entry": [ {
    "fullUrl": "https://madie.cms.gov/Patient/ac23e6a6-3f36-49db-9eba-2da744a41c57",
    "resource": {
      "resourceType": "Patient",
      "id": "ac23e6a6-3f36-49db-9eba-2da744a41c57",
      "meta": {
        "profile": [ "http://hl7.org/fhir/us/qicore/StructureDefinition/qicore-patient" ]
      },
      "text": {
        "status": "generated",
        "div": "<div xmlns=\"http://www.w3.org/1999/xhtml\"><div class=\"hapiHeaderText\">INR1minB4EDstart_EDend1hrB4_OBSend1hrB4DayAft_IPstart <b>DENEXCEPASS </b></div><table class=\"hapiPropertyTable\"><tbody><tr><td>Identifier</td><td>89ea8ad611120273e39d590cc026d6ca35e3720cede5138111e1e8c931d79085</td></tr><tr><td>Date of birth</td><td><span>26 September 1975</span></td></tr></tbody></table></div>"
      },
      "extension": [ {
        "url": "http://hl7.org/fhir/us/core/StructureDefinition/us-core-race",
        "extension": [ {
          "url": "ombCategory",
          "valueCoding": {
            "system": "urn:oid:2.16.840.1.113883.6.238",
            "code": "2054-5",
            "display": "Black or African American",
            "userSelected": true
          }
        }, {
          "url": "text",
          "valueString": "Black or African American"
        } ]
      }, {
        "url": "http://hl7.org/fhir/us/core/StructureDefinition/us-core-ethnicity",
        "extension": [ {
          "url": "ombCategory",
          "valueCoding": {
            "system": "urn:oid:2.16.840.1.113883.6.238",
            "code": "2186-5",
            "display": "Not Hispanic or Latino",
            "userSelected": true
          }
        }, {
          "url": "text",
          "valueString": "Not Hispanic or Latino"
        } ]
      } ],
      "identifier": [ {
        "type": {
          "coding": [ {
            "system": "http://terminology.hl7.org/CodeSystem/v2-0203",
            "code": "MR"
          } ]
        },
        "system": "https://bonnie-fhir.healthit.gov/",
        "value": "60f82c2f98086b570510e2c0"
      } ],
      "active": true,
      "name": [ {
        "use": "usual",
        "family": "DENEXCEPass",
        "given": [ "INR1minB4EDstart_EDend1hrB4_OBSend1hrB4DayAft_IPstart" ]
      } ],
      "gender": "female",
      "birthDate": "1976-09-26"
    },
    "request": {
      "method": "PUT",
      "url": "Patient/ac23e6a6-3f36-49db-9eba-2da744a41c57"
    }
  }, {
    "fullUrl": "https://madie.cms.gov/Encounter/7aa58e22-8086-479c-94dc-740b5b12225b",
    "resource": {
      "resourceType": "Encounter",
      "id": "7aa58e22-8086-479c-94dc-740b5b12225b",
      "meta": {
        "profile": [ "http://hl7.org/fhir/us/qicore/StructureDefinition/qicore-encounter" ]
      },
      "status": "finished",
      "class": {
        "system": "http://terminology.hl7.org/CodeSystem/v3-ActCode",
        "code": "EMER",
        "display": "emergency",
        "userSelected": true
      },
      "type": [ {
        "coding": [ {
          "system": "http://snomed.info/sct",
          "code": "4525004"
        } ]
      } ],
      "subject": {
        "reference": "Patient/ac23e6a6-3f36-49db-9eba-2da744a41c57"
      },
      "period": {
        "start": "2026-10-10T06:32:00+00:00",
        "end": "2026-10-10T23:59:00+00:00"
      },
      "length": {
        "value": 0,
        "unit": "days"
      }
    },
    "request": {
      "method": "PUT",
      "url": "Encounter/7aa58e22-8086-479c-94dc-740b5b12225b"
    }
  }, {
    "fullUrl": "https://madie.cms.gov/Encounter/9877d634-b24f-4a2a-9c40-f9e2ddebf074",
    "resource": {
      "resourceType": "Encounter",
      "id": "9877d634-b24f-4a2a-9c40-f9e2ddebf074",
      "meta": {
        "profile": [ "http://hl7.org/fhir/us/qicore/StructureDefinition/qicore-encounter" ]
      },
      "status": "finished",
      "class": {
        "system": "http://terminology.hl7.org/CodeSystem/v3-ActCode",
        "code": "OBSENC",
        "display": "observation encounter",
        "userSelected": true
      },
      "type": [ {
        "coding": [ {
          "system": "http://snomed.info/sct",
          "code": "448951000124107"
        } ]
      } ],
      "subject": {
        "reference": "Patient/ac23e6a6-3f36-49db-9eba-2da744a41c57"
      },
      "period": {
        "start": "2026-10-11T00:00:00+00:00",
        "end": "2026-10-11T06:31:00+00:00"
      },
      "length": {
        "value": 0,
        "unit": "days"
      }
    },
    "request": {
      "method": "PUT",
      "url": "Encounter/9877d634-b24f-4a2a-9c40-f9e2ddebf074"
    }
  }, {
    "fullUrl": "https://madie.cms.gov/Encounter/89ecfe96-dce5-445e-8f3e-a779a2181a3f",
    "resource": {
      "resourceType": "Encounter",
      "id": "89ecfe96-dce5-445e-8f3e-a779a2181a3f",
      "meta": {
        "profile": [ "http://hl7.org/fhir/us/qicore/StructureDefinition/qicore-encounter" ]
      },
      "status": "finished",
      "class": {
        "system": "http://terminology.hl7.org/CodeSystem/v3-ActCode",
        "code": "IMP",
        "display": "inpatient encounter",
        "userSelected": true
      },
      "type": [ {
        "coding": [ {
          "system": "http://snomed.info/sct",
          "code": "32485007"
        } ]
      } ],
      "subject": {
        "reference": "Patient/ac23e6a6-3f36-49db-9eba-2da744a41c57"
      },
      "period": {
        "start": "2026-10-11T07:31:00+00:00",
        "end": "2026-10-15T11:30:00+00:00"
      },
      "length": {
        "value": 4,
        "unit": "days"
      },
      "diagnosis": [ {
        "condition": {
          "reference": "Condition/ac40ef27-8c78-4b7f-ad35-b3e5f8623ebc"
        },
        "use": {
          "coding": [ {
            "system": "http://terminology.hl7.org/CodeSystem/diagnosis-role",
            "code": "billing",
            "display": "Billing"
          } ]
        },
        "rank": 1
      } ]
    },
    "request": {
      "method": "PUT",
      "url": "Encounter/89ecfe96-dce5-445e-8f3e-a779a2181a3f"
    }
  }, {
    "fullUrl": "https://madie.cms.gov/Observation/8eb2401f-543c-4132-af64-a72f8bbb6f75",
    "resource": {
      "resourceType": "Observation",
      "id": "8eb2401f-543c-4132-af64-a72f8bbb6f75",
      "meta": {
        "profile": [ "http://hl7.org/fhir/us/qicore/StructureDefinition/qicore-observation" ]
      },
      "status": "final",
      "category": [ {
        "coding": [ {
          "system": "http://terminology.hl7.org/CodeSystem/observation-category",
          "code": "laboratory",
          "display": "Laboratory"
        } ]
      } ],
      "code": {
        "coding": [ {
          "system": "http://loinc.org",
          "code": "34714-6"
        } ]
      },
      "subject": {
        "reference": "Patient/ac23e6a6-3f36-49db-9eba-2da744a41c57"
      },
      "effectivePeriod": {
        "start": "2026-10-10T06:15:00+00:00"
      },
      "issued": "2026-10-10T06:31:00.000+00:00",
      "valueQuantity": {
        "value": 3.6
      }
    },
    "request": {
      "method": "PUT",
      "url": "Observation/8eb2401f-543c-4132-af64-a72f8bbb6f75"
    }
  }, {
    "fullUrl": "https://madie.cms.gov/Coverage/bb633f61-a2fc-430a-b194-a53bc5460eda",
    "resource": {
      "resourceType": "Coverage",
      "id": "bb633f61-a2fc-430a-b194-a53bc5460eda",
      "status": "active",
      "beneficiary": {
        "reference": "Patient/ac23e6a6-3f36-49db-9eba-2da744a41c57"
      },
      "period": {
        "start": "1976-09-26T08:00:00+00:00"
      },
      "payor": [ {
        "reference": "Organization/9408eca3-0051-4f5c-b1c4-c6371a09cea0"
      } ]
    },
    "request": {
      "method": "PUT",
      "url": "Coverage/bb633f61-a2fc-430a-b194-a53bc5460eda"
    }
  }, {
    "fullUrl": "https://madie.cms.gov/Condition/ac40ef27-8c78-4b7f-ad35-b3e5f8623ebc",
    "resource": {
      "resourceType": "Condition",
      "id": "ac40ef27-8c78-4b7f-ad35-b3e5f8623ebc",
      "meta": {
        "profile": [ "http://hl7.org/fhir/us/qicore/StructureDefinition/qicore-condition" ]
      },
      "clinicalStatus": {
        "coding": [ {
          "system": "http://terminology.hl7.org/CodeSystem/condition-clinical",
          "code": "active"
        } ]
      },
      "verificationStatus": {
        "coding": [ {
          "system": "http://terminology.hl7.org/CodeSystem/condition-ver-status",
          "code": "confirmed"
        } ]
      },
      "category": [ {
        "coding": [ {
          "system": "http://terminology.hl7.org/CodeSystem/condition-category",
          "code": "encounter-diagnosis",
          "display": "Encounter Diagnosis"
        } ]
      } ],
      "code": {
        "coding": [ {
          "system": "http://snomed.info/sct",
          "version": "2020-09",
          "code": "111297002",
          "display": "Nonparalytic stroke (disorder)",
          "userSelected": true
        } ]
      },
      "subject": {
        "reference": "Patient/ac23e6a6-3f36-49db-9eba-2da744a41c57"
      },
      "recordedDate": "2026-08-06T08:00:00.000+00:00"
    },
    "request": {
      "method": "PUT",
      "url": "Condition/ac40ef27-8c78-4b7f-ad35-b3e5f8623ebc"
    }
  }, {
    "fullUrl": "https://madie.cms.gov/Organization/9408eca3-0051-4f5c-b1c4-c6371a09cea0",
    "resource": {
      "resourceType": "Organization",
      "id": "9408eca3-0051-4f5c-b1c4-c6371a09cea0",
      "meta": {
        "profile": [ "http://hl7.org/fhir/us/qicore/StructureDefinition/qicore-organization" ]
      },
      "identifier": [ {
        "use": "temp",
        "system": "urn:oid:2.16.840.1.113883.4.4",
        "value": "21-3259825"
      } ],
      "active": true,
      "type": [ {
        "coding": [ {
          "system": "http://terminology.hl7.org/CodeSystem/organization-type",
          "code": "pay",
          "display": "Payer"
        } ]
      } ],
      "name": "Blue Cross Blue Shield of Texas",
      "telecom": [ {
        "system": "phone",
        "value": "(+1) 972-766-6900"
      } ],
      "address": [ {
        "use": "billing",
        "type": "postal",
        "line": [ "P.O. Box 660044" ],
        "city": "Dallas",
        "state": "TX",
        "postalCode": "75266-0044",
        "country": "USA"
      } ]
    },
    "request": {
      "method": "PUT",
      "url": "Organization/9408eca3-0051-4f5c-b1c4-c6371a09cea0"
    }
  }, {
    "fullUrl": "https://madie.cms.gov/MeasureReport/eb766780-afa8-448d-8c9a-ff5b049a79e5",
    "resource": {
      "resourceType": "MeasureReport",
      "id": "eb766780-afa8-448d-8c9a-ff5b049a79e5",
      "meta": {
        "profile": [ "http://hl7.org/fhir/us/cqfmeasures/StructureDefinition/test-case-cqfm" ]
      },
      "contained": [ {
        "resourceType": "Parameters",
        "id": "1db1fe3a-b0bf-4862-9a44-08f2676f053b-parameters",
        "parameter": [ {
          "name": "subject",
          "valueString": "ac23e6a6-3f36-49db-9eba-2da744a41c57"
        } ]
      } ],
      "extension": [ {
        "url": "http://hl7.org/fhir/us/cqfmeasures/StructureDefinition/cqfm-inputParameters",
        "valueReference": {
          "reference": "#1db1fe3a-b0bf-4862-9a44-08f2676f053b-parameters"
        }
      }, {
        "url": "http://hl7.org/fhir/us/cqfmeasures/StructureDefinition/cqfm-testCaseDescription",
        "valueMarkdown": "Patient receives INR of 3.6 the 1 min  before ED start. ED ends 60 minute before OBS starts. OBS starts on day 2 at midnight. IP on the same day. Testing Day of operator with HospitalizationWithObservation function.\n"
      } ],
      "modifierExtension": [ {
        "url": "http://hl7.org/fhir/us/cqfmeasures/StructureDefinition/cqfm-isTestCase",
        "valueBoolean": true
      } ],
      "status": "complete",
      "type": "individual",
      "measure": "https://madie.cms.gov/Measure/CMS72FHIRSTKAntithromboticDay2",
      "period": {
        "start": "2026-01-01",
        "end": "2026-12-31"
      },
      "group": [ {
        "population": [ {
          "code": {
            "coding": [ {
              "system": "http://terminology.hl7.org/CodeSystem/measure-population",
              "code": "initial-population",
              "display": "Initial Population"
            } ]
          },
          "count": 1
        }, {
          "code": {
            "coding": [ {
              "system": "http://terminology.hl7.org/CodeSystem/measure-population",
              "code": "denominator",
              "display": "Denominator"
            } ]
          },
          "count": 1
        }, {
          "code": {
            "coding": [ {
              "system": "http://terminology.hl7.org/CodeSystem/measure-population",
              "code": "denominator-exclusion",
              "display": "Denominator Exclusion"
            } ]
          },
          "count": 0
        }, {
          "code": {
            "coding": [ {
              "system": "http://terminology.hl7.org/CodeSystem/measure-population",
              "code": "numerator",
              "display": "Numerator"
            } ]
          },
          "count": 0
        }, {
          "code": {
            "coding": [ {
              "system": "http://terminology.hl7.org/CodeSystem/measure-population",
              "code": "denominator-exception",
              "display": "Denominator Exception"
            } ]
          },
          "count": 1
        } ]
      } ],
      "evaluatedResource": [ {
        "reference": "Patient/ac23e6a6-3f36-49db-9eba-2da744a41c57"
      }, {
        "reference": "Encounter/7aa58e22-8086-479c-94dc-740b5b12225b"
      }, {
        "reference": "Encounter/9877d634-b24f-4a2a-9c40-f9e2ddebf074"
      }, {
        "reference": "Encounter/89ecfe96-dce5-445e-8f3e-a779a2181a3f"
      }, {
        "reference": "Observation/8eb2401f-543c-4132-af64-a72f8bbb6f75"
      }, {
        "reference": "Coverage/bb633f61-a2fc-430a-b194-a53bc5460eda"
      }, {
        "reference": "Condition/ac40ef27-8c78-4b7f-ad35-b3e5f8623ebc"
      }, {
        "reference": "Organization/9408eca3-0051-4f5c-b1c4-c6371a09cea0"
      } ]
    },
    "request": {
      "method": "PUT",
      "url": "MeasureReport/eb766780-afa8-448d-8c9a-ff5b049a79e5"
    }
  } ]
}