{"resourceType":"Bundle","id":"tests-900f47c2-3615-4ffe-a9e0-3e7e70469ffb-bundle","type":"transaction","entry":[{"fullUrl":"https://madie.cms.gov/Patient/900f47c2-3615-4ffe-a9e0-3e7e70469ffb","resource":{"resourceType":"Patient","id":"900f47c2-3615-4ffe-a9e0-3e7e70469ffb","meta":{"profile":["http://hl7.org/fhir/us/qicore/StructureDefinition/qicore-patient"]},"text":{"status":"generated","div":"<div xmlns=\"http://www.w3.org/1999/xhtml\"><div class=\"hapiHeaderText\">CMPerf_DuringED_EDendsOnEncStartTime <b>DENEXPASS </b></div><table class=\"hapiPropertyTable\"><tbody><tr><td>Identifier</td><td>8bdaf10da95f851378bfb130016c2122</td></tr><tr><td>Date of birth</td><td><span>02 January 1974</span></td></tr></tbody></table></div>"},"extension":[{"url":"http://hl7.org/fhir/us/core/StructureDefinition/us-core-race","extension":[{"url":"ombCategory","valueCoding":{"system":"urn:oid:2.16.840.1.113883.6.238","code":"1002-5","display":"American Indian or Alaska Native","userSelected":true}},{"url":"text","valueString":"American Indian or Alaska Native"}]},{"url":"http://hl7.org/fhir/us/core/StructureDefinition/us-core-ethnicity","extension":[{"url":"ombCategory","valueCoding":{"system":"urn:oid:2.16.840.1.113883.6.238","code":"2135-2","display":"Hispanic or Latino","userSelected":true}},{"url":"text","valueString":"Hispanic or Latino"}]}],"identifier":[{"type":{"coding":[{"system":"http://terminology.hl7.org/CodeSystem/v2-0203","code":"MR"}]},"system":"https://bonnie-fhir.healthit.gov/","value":"612e6ac002c62a011f2eb21c"}],"active":true,"name":[{"use":"usual","family":"DENEXPass","given":["CMPerf_DuringED_EDendsOnEncStartTime"]}],"gender":"male","birthDate":"1974-01-02"},"request":{"method":"PUT","url":"Patient/900f47c2-3615-4ffe-a9e0-3e7e70469ffb"}},{"fullUrl":"https://madie.cms.gov/Encounter/5ca62960b8484628b8de1e64","resource":{"resourceType":"Encounter","id":"d3a0effd-b1ad-4204-aabf-9da2b064101d","meta":{"profile":["http://hl7.org/fhir/us/qicore/StructureDefinition/qicore-encounter"]},"status":"finished","class":{"system":"http://terminology.hl7.org/CodeSystem/v3-ActCode","code":"EMER","display":"emergency"},"type":[{"coding":[{"system":"http://snomed.info/sct","code":"4525004"}]}],"subject":{"reference":"Patient/900f47c2-3615-4ffe-a9e0-3e7e70469ffb"},"period":{"start":"2025-10-31T05:00:00+00:00","end":"2025-11-01T08:00:00+00:00"},"length":{"value":1.0,"unit":"days"}},"request":{"method":"PUT","url":"Encounter/d3a0effd-b1ad-4204-aabf-9da2b064101d"}},{"fullUrl":"https://madie.cms.gov/Encounter/5ca62960b8484628b8de1e65","resource":{"resourceType":"Encounter","id":"8013cff1-8604-449f-9a1d-d1ce04f92235","meta":{"profile":["http://hl7.org/fhir/us/qicore/StructureDefinition/qicore-encounter"]},"status":"finished","class":{"system":"http://terminology.hl7.org/CodeSystem/v3-ActCode","code":"IMP","display":"inpatient encounter"},"type":[{"coding":[{"system":"http://snomed.info/sct","code":"8715000"}]}],"subject":{"reference":"Patient/900f47c2-3615-4ffe-a9e0-3e7e70469ffb"},"period":{"start":"2025-11-01T08:00:00+00:00","end":"2025-11-26T08:15:00+00:00"},"length":{"value":25.0,"unit":"days"}},"request":{"method":"PUT","url":"Encounter/8013cff1-8604-449f-9a1d-d1ce04f92235"}},{"fullUrl":"https://madie.cms.gov/Procedure/5ca62960b8484628b8de1e66","resource":{"resourceType":"Procedure","id":"789c87dc-7f5f-48f1-8787-bf01779197d6","meta":{"profile":["http://hl7.org/fhir/us/qicore/StructureDefinition/qicore-procedure"]},"extension":[{"url":"http://hl7.org/fhir/us/qicore/StructureDefinition/qicore-recorded","valueDateTime":"2012-11-01T09:35:00-04:00"}],"status":"completed","code":{"coding":[{"system":"http://snomed.info/sct","code":"133918004"}]},"subject":{"reference":"Patient/900f47c2-3615-4ffe-a9e0-3e7e70469ffb"},"performedPeriod":{"start":"2025-10-31T07:00:00+00:00"}},"request":{"method":"PUT","url":"Procedure/789c87dc-7f5f-48f1-8787-bf01779197d6"}},{"fullUrl":"https://madie.cms.gov/Coverage/5fa041581c76ba66d9959271","resource":{"resourceType":"Coverage","id":"753f1049-bbb4-4f17-ac6a-9bbfc1ccde11","status":"active","beneficiary":{"reference":"Patient/900f47c2-3615-4ffe-a9e0-3e7e70469ffb"},"period":{"start":"1974-01-02T08:00:00+00:00"},"payor":[{"reference":"Organization/80e3e0d1-b2aa-43a6-b1d2-00bfa3164a0f"}]},"request":{"method":"PUT","url":"Coverage/753f1049-bbb4-4f17-ac6a-9bbfc1ccde11"}},{"fullUrl":"https://madie.cms.gov/Organization/123456","resource":{"resourceType":"Organization","id":"80e3e0d1-b2aa-43a6-b1d2-00bfa3164a0f","meta":{"profile":["http://hl7.org/fhir/us/qicore/StructureDefinition/qicore-organization"]},"identifier":[{"use":"temp","system":"urn:oid:2.16.840.1.113883.4.4","value":"21-3259825"}],"active":true,"type":[{"coding":[{"system":"http://terminology.hl7.org/CodeSystem/organization-type","code":"pay","display":"Payer"}]}],"name":"Blue Cross Blue Shield of Texas","telecom":[{"system":"phone","value":"(+1) 972-766-6900"}],"address":[{"use":"billing","type":"postal","line":["P.O. Box 660044"],"city":"Dallas","state":"TX","postalCode":"75266-0044","country":"USA"}]},"request":{"method":"PUT","url":"Organization/80e3e0d1-b2aa-43a6-b1d2-00bfa3164a0f"}},{"fullUrl":"https://madie.cms.gov/Practitioner/practitioner-123456","resource":{"resourceType":"Practitioner","id":"93b756eb-0d1c-4b42-8eec-154750b6b5cf","identifier":[{"system":"http://hl7.org/fhir/sid/us-npi","value":"123456"}],"name":[{"family":"Evil","prefix":["Dr"]}]},"request":{"method":"PUT","url":"Practitioner/93b756eb-0d1c-4b42-8eec-154750b6b5cf"}},{"fullUrl":"https://madie.cms.gov/MeasureReport/8a3343f3-8176-4f95-afd8-e70ae1cfc20e","resource":{"resourceType":"MeasureReport","id":"8a3343f3-8176-4f95-afd8-e70ae1cfc20e","meta":{"profile":["http://hl7.org/fhir/us/cqfmeasures/StructureDefinition/test-case-cqfm"]},"contained":[{"resourceType":"Parameters","id":"a358fd16-9fe5-4699-938a-9cfa2ecd2bac-parameters","parameter":[{"name":"subject","valueString":"900f47c2-3615-4ffe-a9e0-3e7e70469ffb"}]}],"extension":[{"url":"http://hl7.org/fhir/us/cqfmeasures/StructureDefinition/cqfm-inputParameters","valueReference":{"reference":"#a358fd16-9fe5-4699-938a-9cfa2ecd2bac-parameters"}},{"url":"http://hl7.org/fhir/us/cqfmeasures/StructureDefinition/cqfm-testCaseDescription","valueMarkdown":"Comfort Measures Intervention Performed- during ED and ED end time is concurrent with EncInp start time.\n"}],"modifierExtension":[{"url":"http://hl7.org/fhir/us/cqfmeasures/StructureDefinition/cqfm-isTestCase","valueBoolean":true}],"status":"complete","type":"individual","measure":"https://madie.cms.gov/Measure/VenousThromboembolismProphylaxisFHIR","period":{"start":"2025-01-01","end":"2025-12-31"},"group":[{"population":[{"code":{"coding":[{"system":"http://terminology.hl7.org/CodeSystem/measure-population","code":"initial-population","display":"Initial Population"}]},"count":1},{"code":{"coding":[{"system":"http://terminology.hl7.org/CodeSystem/measure-population","code":"denominator","display":"Denominator"}]},"count":1},{"code":{"coding":[{"system":"http://terminology.hl7.org/CodeSystem/measure-population","code":"denominator-exclusion","display":"Denominator Exclusion"}]},"count":1},{"code":{"coding":[{"system":"http://terminology.hl7.org/CodeSystem/measure-population","code":"numerator","display":"Numerator"}]},"count":0}]}]},"request":{"method":"PUT","url":"MeasureReport/8a3343f3-8176-4f95-afd8-e70ae1cfc20e"}}]}