{"resourceType":"Bundle","id":"tests-9b925e9e-1c3a-4e98-b156-0583323e2d6e-bundle","type":"transaction","entry":[{"fullUrl":"https://madie.cms.gov/Patient/9b925e9e-1c3a-4e98-b156-0583323e2d6e","resource":{"resourceType":"Patient","id":"9b925e9e-1c3a-4e98-b156-0583323e2d6e","meta":{"profile":["http://hl7.org/fhir/us/qicore/StructureDefinition/qicore-patient"]},"text":{"status":"generated","div":"<div xmlns=\"http://www.w3.org/1999/xhtml\"><div class=\"hapiHeaderText\">CMODuringObs_ObsLT1hrBFAdm <b>DENEXPASS </b></div><table class=\"hapiPropertyTable\"><tbody><tr><td>Identifier</td><td>79af097064c6371feea556bf7ba54a281c2e37b325b6be388a0f5af53c958415</td></tr><tr><td>Date of birth</td><td><span>02 January 1974</span></td></tr></tbody></table></div>"},"extension":[{"url":"http://hl7.org/fhir/us/core/StructureDefinition/us-core-race","extension":[{"url":"ombCategory","valueCoding":{"system":"urn:oid:2.16.840.1.113883.6.238","code":"1002-5","display":"American Indian or Alaska Native","userSelected":true}},{"url":"text","valueString":"American Indian or Alaska Native"}]},{"url":"http://hl7.org/fhir/us/core/StructureDefinition/us-core-ethnicity","extension":[{"url":"ombCategory","valueCoding":{"system":"urn:oid:2.16.840.1.113883.6.238","code":"2135-2","display":"Hispanic or Latino","userSelected":true}},{"url":"text","valueString":"Hispanic or Latino"}]}],"identifier":[{"type":{"coding":[{"system":"http://terminology.hl7.org/CodeSystem/v2-0203","code":"MR"}]},"system":"https://bonnie-fhir.healthit.gov/","value":"612e6adf02c62a011f2eb8ab"}],"active":true,"name":[{"use":"usual","family":"DENEXPass","given":["CMODuringObs_ObsLT1hrBFAdm"]}],"gender":"male","birthDate":"1974-01-02"},"request":{"method":"PUT","url":"Patient/9b925e9e-1c3a-4e98-b156-0583323e2d6e"}},{"fullUrl":"https://madie.cms.gov/Encounter/5ca62965b8484628b8de1faf","resource":{"resourceType":"Encounter","id":"e41f0de2-3743-4e14-8a32-7e575b4ce30e","meta":{"profile":["http://hl7.org/fhir/us/qicore/StructureDefinition/qicore-encounter"]},"status":"finished","class":{"system":"http://terminology.hl7.org/CodeSystem/v3-ActCode","code":"EMER","display":"emergency"},"type":[{"coding":[{"system":"http://snomed.info/sct","code":"4525004"}]}],"subject":{"reference":"Patient/9b925e9e-1c3a-4e98-b156-0583323e2d6e"},"period":{"start":"2025-10-30T08:00:00+00:00","end":"2025-11-01T07:15:00+00:00"},"length":{"value":2.0,"unit":"days"}},"request":{"method":"PUT","url":"Encounter/e41f0de2-3743-4e14-8a32-7e575b4ce30e"}},{"fullUrl":"https://madie.cms.gov/Encounter/5ca62965b8484628b8de1fb1","resource":{"resourceType":"Encounter","id":"192bfb93-edac-4c62-8e1b-c27db55fcb9f","meta":{"profile":["http://hl7.org/fhir/us/qicore/StructureDefinition/qicore-encounter"]},"status":"finished","class":{"system":"http://terminology.hl7.org/CodeSystem/v3-ActCode","code":"IMP","display":"inpatient encounter"},"type":[{"coding":[{"system":"http://snomed.info/sct","code":"8715000"}]}],"subject":{"reference":"Patient/9b925e9e-1c3a-4e98-b156-0583323e2d6e"},"period":{"start":"2025-11-01T10:00:00+00:00","end":"2025-11-26T08:15:00+00:00"},"length":{"value":25.0,"unit":"days"}},"request":{"method":"PUT","url":"Encounter/192bfb93-edac-4c62-8e1b-c27db55fcb9f"}},{"fullUrl":"https://madie.cms.gov/Encounter/6033f6023d5f550000fb8c5e","resource":{"resourceType":"Encounter","id":"23bc8bbe-7207-4537-8885-3cb267a4de5d","meta":{"profile":["http://hl7.org/fhir/us/qicore/StructureDefinition/qicore-encounter"]},"status":"finished","class":{"system":"http://terminology.hl7.org/CodeSystem/v3-ActCode","code":"OBSENC","display":"observation encounter"},"type":[{"coding":[{"system":"http://snomed.info/sct","code":"448951000124107"}]}],"subject":{"reference":"Patient/9b925e9e-1c3a-4e98-b156-0583323e2d6e"},"period":{"start":"2025-11-01T07:15:00+00:00","end":"2025-11-01T09:15:00+00:00"}},"request":{"method":"PUT","url":"Encounter/23bc8bbe-7207-4537-8885-3cb267a4de5d"}},{"fullUrl":"https://madie.cms.gov/ServiceRequest/5ca62965b8484628b8de1fb2","resource":{"resourceType":"ServiceRequest","id":"7243367b-3e04-47dd-83fe-a5873908def0","meta":{"profile":["http://hl7.org/fhir/us/qicore/StructureDefinition/qicore-servicerequest"]},"status":"completed","intent":"order","code":{"coding":[{"system":"http://snomed.info/sct","code":"133918004"}]},"subject":{"reference":"Patient/9b925e9e-1c3a-4e98-b156-0583323e2d6e"},"authoredOn":"2025-11-01T08:00:00+00:00"},"request":{"method":"PUT","url":"ServiceRequest/7243367b-3e04-47dd-83fe-a5873908def0"}},{"fullUrl":"https://madie.cms.gov/Coverage/5fa041621c76ba66d9959322","resource":{"resourceType":"Coverage","id":"8e8e6ce5-4fa9-4715-9944-43e6f3daa8de","status":"active","beneficiary":{"reference":"Patient/9b925e9e-1c3a-4e98-b156-0583323e2d6e"},"period":{"start":"1974-01-02T08:00:00+00:00"},"payor":[{"reference":"Organization/f4907415-83c5-4eae-ab0b-cb63a840880d"}]},"request":{"method":"PUT","url":"Coverage/8e8e6ce5-4fa9-4715-9944-43e6f3daa8de"}},{"fullUrl":"https://madie.cms.gov/Organization/123456","resource":{"resourceType":"Organization","id":"f4907415-83c5-4eae-ab0b-cb63a840880d","meta":{"profile":["http://hl7.org/fhir/us/qicore/StructureDefinition/qicore-organization"]},"identifier":[{"use":"temp","system":"urn:oid:2.16.840.1.113883.4.4","value":"21-3259825"}],"active":true,"type":[{"coding":[{"system":"http://terminology.hl7.org/CodeSystem/organization-type","code":"pay","display":"Payer"}]}],"name":"Blue Cross Blue Shield of Texas","telecom":[{"system":"phone","value":"(+1) 972-766-6900"}],"address":[{"use":"billing","type":"postal","line":["P.O. Box 660044"],"city":"Dallas","state":"TX","postalCode":"75266-0044","country":"USA"}]},"request":{"method":"PUT","url":"Organization/f4907415-83c5-4eae-ab0b-cb63a840880d"}},{"fullUrl":"https://madie.cms.gov/Practitioner/practitioner-123456","resource":{"resourceType":"Practitioner","id":"47fc8e04-6889-4446-9367-12cd80e5c8f8","identifier":[{"system":"http://hl7.org/fhir/sid/us-npi","value":"123456"}],"name":[{"family":"Evil","prefix":["Dr"]}]},"request":{"method":"PUT","url":"Practitioner/47fc8e04-6889-4446-9367-12cd80e5c8f8"}},{"fullUrl":"https://madie.cms.gov/MeasureReport/978cced1-9d3e-4767-bc89-0ef7726507fc","resource":{"resourceType":"MeasureReport","id":"978cced1-9d3e-4767-bc89-0ef7726507fc","meta":{"profile":["http://hl7.org/fhir/us/cqfmeasures/StructureDefinition/test-case-cqfm"]},"contained":[{"resourceType":"Parameters","id":"78191d44-2c72-4cc6-84f6-cd45bd61081d-parameters","parameter":[{"name":"subject","valueString":"9b925e9e-1c3a-4e98-b156-0583323e2d6e"}]}],"extension":[{"url":"http://hl7.org/fhir/us/cqfmeasures/StructureDefinition/cqfm-inputParameters","valueReference":{"reference":"#78191d44-2c72-4cc6-84f6-cd45bd61081d-parameters"}},{"url":"http://hl7.org/fhir/us/cqfmeasures/StructureDefinition/cqfm-testCaseDescription","valueMarkdown":"CMO occurs in Observation that OB ends <1 hour before Adm. But this case pass because it is on the same day as adm date\n"}],"modifierExtension":[{"url":"http://hl7.org/fhir/us/cqfmeasures/StructureDefinition/cqfm-isTestCase","valueBoolean":true}],"status":"complete","type":"individual","measure":"https://madie.cms.gov/Measure/VenousThromboembolismProphylaxisFHIR","period":{"start":"2025-01-01","end":"2025-12-31"},"group":[{"population":[{"code":{"coding":[{"system":"http://terminology.hl7.org/CodeSystem/measure-population","code":"initial-population","display":"Initial Population"}]},"count":1},{"code":{"coding":[{"system":"http://terminology.hl7.org/CodeSystem/measure-population","code":"denominator","display":"Denominator"}]},"count":1},{"code":{"coding":[{"system":"http://terminology.hl7.org/CodeSystem/measure-population","code":"denominator-exclusion","display":"Denominator Exclusion"}]},"count":1},{"code":{"coding":[{"system":"http://terminology.hl7.org/CodeSystem/measure-population","code":"numerator","display":"Numerator"}]},"count":0}]}]},"request":{"method":"PUT","url":"MeasureReport/978cced1-9d3e-4767-bc89-0ef7726507fc"}}]}