{"resourceType":"Bundle","id":"tests-3c8c427a-d756-456a-8f4e-e909b364e4fb-bundle","type":"transaction","entry":[{"fullUrl":"https://madie.cms.gov/Patient/3c8c427a-d756-456a-8f4e-e909b364e4fb","resource":{"resourceType":"Patient","id":"3c8c427a-d756-456a-8f4e-e909b364e4fb","meta":{"profile":["http://hl7.org/fhir/us/qicore/StructureDefinition/qicore-patient"]},"text":{"status":"generated","div":"<div xmlns=\"http://www.w3.org/1999/xhtml\"><div class=\"hapiHeaderText\">MA_OralXaOnDayAFAnes_MedAdmDT <b>NUMERPASS </b></div><table class=\"hapiPropertyTable\"><tbody><tr><td>Identifier</td><td>a47c3099d7a3ac0ff12b569e6d2221d4</td></tr><tr><td>Date of birth</td><td><span>02 January 1974</span></td></tr></tbody></table></div>"},"extension":[{"url":"http://hl7.org/fhir/us/core/StructureDefinition/us-core-race","extension":[{"url":"ombCategory","valueCoding":{"system":"urn:oid:2.16.840.1.113883.6.238","code":"1002-5","display":"American Indian or Alaska Native","userSelected":true}},{"url":"text","valueString":"American Indian or Alaska Native"}]},{"url":"http://hl7.org/fhir/us/core/StructureDefinition/us-core-ethnicity","extension":[{"url":"ombCategory","valueCoding":{"system":"urn:oid:2.16.840.1.113883.6.238","code":"2135-2","display":"Hispanic or Latino","userSelected":true}},{"url":"text","valueString":"Hispanic or Latino"}]}],"identifier":[{"type":{"coding":[{"system":"http://terminology.hl7.org/CodeSystem/v2-0203","code":"MR"}]},"system":"https://bonnie-fhir.healthit.gov/","value":"612e6a6302c62a011f2e9eca"}],"active":true,"name":[{"use":"usual","family":"NUMERPass","given":["MA_OralXaOnDayAFAnes_MedAdmDT"]}],"gender":"male","birthDate":"1974-01-02"},"request":{"method":"PUT","url":"Patient/3c8c427a-d756-456a-8f4e-e909b364e4fb"}},{"fullUrl":"https://madie.cms.gov/Encounter/5ca6295db8484628b8de1d49","resource":{"resourceType":"Encounter","id":"2f3bd9c6-7d89-495e-b92b-2154da460b01","meta":{"profile":["http://hl7.org/fhir/us/qicore/StructureDefinition/qicore-encounter"]},"status":"finished","class":{"system":"http://terminology.hl7.org/CodeSystem/v3-ActCode","code":"IMP","display":"inpatient encounter"},"type":[{"coding":[{"system":"http://snomed.info/sct","code":"8715000"}]}],"subject":{"reference":"Patient/3c8c427a-d756-456a-8f4e-e909b364e4fb"},"period":{"start":"2025-11-01T08:00:00+00:00","end":"2025-11-26T08:15:00+00:00"},"length":{"value":25.0,"unit":"days"}},"request":{"method":"PUT","url":"Encounter/2f3bd9c6-7d89-495e-b92b-2154da460b01"}},{"fullUrl":"https://madie.cms.gov/Coverage/5fa0414a1c76ba66d995917e","resource":{"resourceType":"Coverage","id":"4b907420-ee99-4058-ac98-2868203024a0","status":"active","beneficiary":{"reference":"Patient/3c8c427a-d756-456a-8f4e-e909b364e4fb"},"period":{"start":"1974-01-02T08:00:00+00:00"},"payor":[{"reference":"Organization/ec8cac12-7dd8-4c6e-8c44-d6c645085c80"}]},"request":{"method":"PUT","url":"Coverage/4b907420-ee99-4058-ac98-2868203024a0"}},{"fullUrl":"https://madie.cms.gov/Condition/5ca6295db8484628b8de1d47","resource":{"resourceType":"Condition","id":"b07a8d85-a31a-40b4-a178-84e62ee2453a","meta":{"profile":["http://hl7.org/fhir/us/qicore/StructureDefinition/qicore-condition"]},"clinicalStatus":{"coding":[{"system":"http://terminology.hl7.org/CodeSystem/condition-clinical","code":"active","display":"active","userSelected":true}]},"verificationStatus":{"coding":[{"system":"http://terminology.hl7.org/CodeSystem/condition-ver-status","code":"confirmed","display":"confirmed","userSelected":true}]},"category":[{"coding":[{"system":"http://terminology.hl7.org/CodeSystem/condition-category","code":"problem-list-item","display":"Problem List Item"}]}],"code":{"coding":[{"system":"http://hl7.org/fhir/sid/icd-9-cm","code":"427.31"},{"system":"http://hl7.org/fhir/sid/icd-10-cm","code":"I48.0"},{"system":"http://snomed.info/sct","code":"5370000"}]},"subject":{"reference":"Patient/3c8c427a-d756-456a-8f4e-e909b364e4fb"},"onsetPeriod":{"start":"2025-10-09T08:00:00+00:00","end":"2025-10-09T08:15:00+00:00"}},"request":{"method":"PUT","url":"Condition/b07a8d85-a31a-40b4-a178-84e62ee2453a"}},{"fullUrl":"https://madie.cms.gov/MedicationAdministration/5ca6295db8484628b8de1d4a","resource":{"resourceType":"MedicationAdministration","id":"56e8d02a-8846-43f2-8d6f-4fa3cb1f7e9d","meta":{"profile":["http://hl7.org/fhir/us/qicore/StructureDefinition/qicore-medicationadministration"]},"status":"completed","medicationCodeableConcept":{"coding":[{"system":"http://www.nlm.nih.gov/research/umls/rxnorm","code":"1992427","display":"{74 (apixaban 5 MG Oral Tablet) } Pack"}]},"subject":{"reference":"Patient/3c8c427a-d756-456a-8f4e-e909b364e4fb"},"effectiveDateTime":"2025-11-03T11:00:00+00:00"},"request":{"method":"PUT","url":"MedicationAdministration/56e8d02a-8846-43f2-8d6f-4fa3cb1f7e9d"}},{"fullUrl":"https://madie.cms.gov/Procedure/5ca6295db8484628b8de1d4b","resource":{"resourceType":"Procedure","id":"2727500b-489e-491a-9371-9529281b8d8d","meta":{"profile":["http://hl7.org/fhir/us/qicore/StructureDefinition/qicore-procedure"]},"extension":[{"url":"http://hl7.org/fhir/us/qicore/StructureDefinition/qicore-recorded","valueDateTime":"2012-11-19T09:35:00-04:00"}],"status":"completed","code":{"coding":[{"system":"http://www.cms.gov/Medicare/Coding/ICD10","code":"3E030FZ"}]},"subject":{"reference":"Patient/3c8c427a-d756-456a-8f4e-e909b364e4fb"},"performedPeriod":{"start":"2025-11-02T09:00:00+00:00","end":"2025-11-02T09:15:00+00:00"}},"request":{"method":"PUT","url":"Procedure/2727500b-489e-491a-9371-9529281b8d8d"}},{"fullUrl":"https://madie.cms.gov/Organization/123456","resource":{"resourceType":"Organization","id":"ec8cac12-7dd8-4c6e-8c44-d6c645085c80","meta":{"profile":["http://hl7.org/fhir/us/qicore/StructureDefinition/qicore-organization"]},"identifier":[{"use":"temp","system":"urn:oid:2.16.840.1.113883.4.4","value":"21-3259825"}],"active":true,"type":[{"coding":[{"system":"http://terminology.hl7.org/CodeSystem/organization-type","code":"pay","display":"Payer"}]}],"name":"Blue Cross Blue Shield of Texas","telecom":[{"system":"phone","value":"(+1) 972-766-6900"}],"address":[{"use":"billing","type":"postal","line":["P.O. Box 660044"],"city":"Dallas","state":"TX","postalCode":"75266-0044","country":"USA"}]},"request":{"method":"PUT","url":"Organization/ec8cac12-7dd8-4c6e-8c44-d6c645085c80"}},{"fullUrl":"https://madie.cms.gov/Practitioner/practitioner-123456","resource":{"resourceType":"Practitioner","id":"62327433-5836-4d91-93e2-dbc0898cfd6f","identifier":[{"system":"http://hl7.org/fhir/sid/us-npi","value":"123456"}],"name":[{"family":"Evil","prefix":["Dr"]}]},"request":{"method":"PUT","url":"Practitioner/62327433-5836-4d91-93e2-dbc0898cfd6f"}},{"fullUrl":"https://madie.cms.gov/MeasureReport/b218c6e0-cddf-438c-8242-c4747983049c","resource":{"resourceType":"MeasureReport","id":"b218c6e0-cddf-438c-8242-c4747983049c","meta":{"profile":["http://hl7.org/fhir/us/cqfmeasures/StructureDefinition/test-case-cqfm"]},"contained":[{"resourceType":"Parameters","id":"fa3efcd7-38ce-4efa-9f73-2974616a6c55-parameters","parameter":[{"name":"subject","valueString":"3c8c427a-d756-456a-8f4e-e909b364e4fb"}]}],"extension":[{"url":"http://hl7.org/fhir/us/cqfmeasures/StructureDefinition/cqfm-inputParameters","valueReference":{"reference":"#fa3efcd7-38ce-4efa-9f73-2974616a6c55-parameters"}},{"url":"http://hl7.org/fhir/us/cqfmeasures/StructureDefinition/cqfm-testCaseDescription","valueMarkdown":"oral factor Xa administered =0 day after end of anesthesia with MedicationAdm. effectiveDateTime\n"}],"modifierExtension":[{"url":"http://hl7.org/fhir/us/cqfmeasures/StructureDefinition/cqfm-isTestCase","valueBoolean":true}],"status":"complete","type":"individual","measure":"https://madie.cms.gov/Measure/VenousThromboembolismProphylaxisFHIR","period":{"start":"2025-01-01","end":"2025-12-31"},"group":[{"population":[{"code":{"coding":[{"system":"http://terminology.hl7.org/CodeSystem/measure-population","code":"initial-population","display":"Initial Population"}]},"count":1},{"code":{"coding":[{"system":"http://terminology.hl7.org/CodeSystem/measure-population","code":"denominator","display":"Denominator"}]},"count":1},{"code":{"coding":[{"system":"http://terminology.hl7.org/CodeSystem/measure-population","code":"denominator-exclusion","display":"Denominator Exclusion"}]},"count":0},{"code":{"coding":[{"system":"http://terminology.hl7.org/CodeSystem/measure-population","code":"numerator","display":"Numerator"}]},"count":1}]}]},"request":{"method":"PUT","url":"MeasureReport/b218c6e0-cddf-438c-8242-c4747983049c"}}]}