{"resourceType":"Bundle","id":"tests-cbd1de91-441a-4588-b000-2e589d099ab6-bundle","type":"transaction","entry":[{"fullUrl":"https://madie.cms.gov/Patient/cbd1de91-441a-4588-b000-2e589d099ab6","resource":{"resourceType":"Patient","id":"cbd1de91-441a-4588-b000-2e589d099ab6","meta":{"profile":["http://hl7.org/fhir/us/qicore/StructureDefinition/qicore-patient"]},"text":{"status":"generated","div":"<div xmlns=\"http://www.w3.org/1999/xhtml\"><div class=\"hapiHeaderText\">MA_OralXaHipOnEncStartTime <b>NUMERPASS </b></div><table class=\"hapiPropertyTable\"><tbody><tr><td>Date of birth</td><td><span>02 January 1974</span></td></tr></tbody></table></div>"},"extension":[{"url":"http://hl7.org/fhir/us/core/StructureDefinition/us-core-race","extension":[{"url":"ombCategory","valueCoding":{"system":"urn:oid:2.16.840.1.113883.6.238","code":"1002-5","display":"American Indian or Alaska Native","userSelected":true}},{"url":"text","valueString":"American Indian or Alaska Native"}]},{"url":"http://hl7.org/fhir/us/core/StructureDefinition/us-core-ethnicity","extension":[{"url":"ombCategory","valueCoding":{"system":"urn:oid:2.16.840.1.113883.6.238","code":"2135-2","display":"Hispanic or Latino","userSelected":true}},{"url":"text","valueString":"Hispanic or Latino"}]}],"identifier":[{"type":{"coding":[{"system":"http://terminology.hl7.org/CodeSystem/v2-0203","code":"MR"}]},"system":"https://bonnie-fhir.healthit.gov/","value":"612e6af902c62a011f2ebf85"}],"active":true,"name":[{"use":"usual","family":"NUMERPass","given":["MA_OralXaHipOnEncStartTime"]}],"gender":"female","birthDate":"1974-01-02"},"request":{"method":"PUT","url":"Patient/cbd1de91-441a-4588-b000-2e589d099ab6"}},{"fullUrl":"https://madie.cms.gov/Encounter/5dbe0ec236c3c80000887248","resource":{"resourceType":"Encounter","id":"07faa8b7-c34a-4dc3-8699-ff7e51d1b609","meta":{"profile":["http://hl7.org/fhir/us/qicore/StructureDefinition/qicore-encounter"]},"status":"finished","class":{"system":"http://terminology.hl7.org/CodeSystem/v3-ActCode","code":"IMP","display":"inpatient encounter"},"type":[{"coding":[{"system":"http://snomed.info/sct","code":"183452005"}]}],"subject":{"reference":"Patient/cbd1de91-441a-4588-b000-2e589d099ab6"},"period":{"start":"2025-11-01T08:00:00+00:00","end":"2025-11-26T08:15:00+00:00"},"length":{"value":25.0,"unit":"day"}},"request":{"method":"PUT","url":"Encounter/07faa8b7-c34a-4dc3-8699-ff7e51d1b609"}},{"fullUrl":"https://madie.cms.gov/Coverage/5fa041651c76ba66d995935e","resource":{"resourceType":"Coverage","id":"3902f4fa-ac1b-48e6-91fd-a9c663fbe3e3","status":"active","beneficiary":{"reference":"Patient/cbd1de91-441a-4588-b000-2e589d099ab6"},"period":{"start":"1974-01-02T08:00:00+00:00"},"payor":[{"reference":"Organization/77e4d06f-5e3c-436a-a598-80cefcca5028"}]},"request":{"method":"PUT","url":"Coverage/3902f4fa-ac1b-48e6-91fd-a9c663fbe3e3"}},{"fullUrl":"https://madie.cms.gov/MedicationAdministration/5dbe0f2536c3c80000887277","resource":{"resourceType":"MedicationAdministration","id":"f86c6eb5-93e9-42f2-93b0-f5d77c9b3966","meta":{"profile":["http://hl7.org/fhir/us/qicore/StructureDefinition/qicore-medicationadministration"]},"status":"completed","medicationCodeableConcept":{"coding":[{"system":"http://www.nlm.nih.gov/research/umls/rxnorm","code":"1599543"}]},"subject":{"reference":"Patient/cbd1de91-441a-4588-b000-2e589d099ab6"},"effectivePeriod":{"start":"2025-11-01T08:00:00+00:00"}},"request":{"method":"PUT","url":"MedicationAdministration/f86c6eb5-93e9-42f2-93b0-f5d77c9b3966"}},{"fullUrl":"https://madie.cms.gov/Procedure/5dbe137736c3c800008875df","resource":{"resourceType":"Procedure","id":"cc1e0a62-0827-4dfa-b012-e21b10569af7","meta":{"profile":["http://hl7.org/fhir/us/qicore/StructureDefinition/qicore-procedure"]},"extension":[{"url":"http://hl7.org/fhir/us/qicore/StructureDefinition/qicore-recorded","valueDateTime":"2012-11-01T09:35:00-04:00"}],"status":"completed","code":{"coding":[{"system":"http://snomed.info/sct","code":"68491008"}]},"subject":{"reference":"Patient/cbd1de91-441a-4588-b000-2e589d099ab6"},"performedPeriod":{"start":"2025-11-01T08:00:00+00:00","end":"2025-11-01T10:15:00+00:00"}},"request":{"method":"PUT","url":"Procedure/cc1e0a62-0827-4dfa-b012-e21b10569af7"}},{"fullUrl":"https://madie.cms.gov/Organization/123456","resource":{"resourceType":"Organization","id":"77e4d06f-5e3c-436a-a598-80cefcca5028","meta":{"profile":["http://hl7.org/fhir/us/qicore/StructureDefinition/qicore-organization"]},"identifier":[{"use":"temp","system":"urn:oid:2.16.840.1.113883.4.4","value":"21-3259825"}],"active":true,"type":[{"coding":[{"system":"http://terminology.hl7.org/CodeSystem/organization-type","code":"pay","display":"Payer"}]}],"name":"Blue Cross Blue Shield of Texas","telecom":[{"system":"phone","value":"(+1) 972-766-6900"}],"address":[{"use":"billing","type":"postal","line":["P.O. Box 660044"],"city":"Dallas","state":"TX","postalCode":"75266-0044","country":"USA"}]},"request":{"method":"PUT","url":"Organization/77e4d06f-5e3c-436a-a598-80cefcca5028"}},{"fullUrl":"https://madie.cms.gov/Practitioner/practitioner-123456","resource":{"resourceType":"Practitioner","id":"020fe381-79a4-46da-8d05-60bc70bf9864","identifier":[{"system":"http://hl7.org/fhir/sid/us-npi","value":"123456"}],"name":[{"family":"Evil","prefix":["Dr"]}]},"request":{"method":"PUT","url":"Practitioner/020fe381-79a4-46da-8d05-60bc70bf9864"}},{"fullUrl":"https://madie.cms.gov/MeasureReport/b9dd5b44-9350-4e76-a3c0-70b34d1d565a","resource":{"resourceType":"MeasureReport","id":"b9dd5b44-9350-4e76-a3c0-70b34d1d565a","meta":{"profile":["http://hl7.org/fhir/us/cqfmeasures/StructureDefinition/test-case-cqfm"]},"contained":[{"resourceType":"Parameters","id":"595349c2-ff3e-4374-acad-71df6962046e-parameters","parameter":[{"name":"subject","valueString":"cbd1de91-441a-4588-b000-2e589d099ab6"}]}],"extension":[{"url":"http://hl7.org/fhir/us/cqfmeasures/StructureDefinition/cqfm-inputParameters","valueReference":{"reference":"#595349c2-ff3e-4374-acad-71df6962046e-parameters"}},{"url":"http://hl7.org/fhir/us/cqfmeasures/StructureDefinition/cqfm-testCaseDescription","valueMarkdown":"oral factor Xa administered concurrent with start of IP encounter, Hip replacement concurrent with Start of IP encounter\n"}],"modifierExtension":[{"url":"http://hl7.org/fhir/us/cqfmeasures/StructureDefinition/cqfm-isTestCase","valueBoolean":true}],"status":"complete","type":"individual","measure":"https://madie.cms.gov/Measure/VenousThromboembolismProphylaxisFHIR","period":{"start":"2025-01-01","end":"2025-12-31"},"group":[{"population":[{"code":{"coding":[{"system":"http://terminology.hl7.org/CodeSystem/measure-population","code":"initial-population","display":"Initial Population"}]},"count":1},{"code":{"coding":[{"system":"http://terminology.hl7.org/CodeSystem/measure-population","code":"denominator","display":"Denominator"}]},"count":1},{"code":{"coding":[{"system":"http://terminology.hl7.org/CodeSystem/measure-population","code":"denominator-exclusion","display":"Denominator Exclusion"}]},"count":0},{"code":{"coding":[{"system":"http://terminology.hl7.org/CodeSystem/measure-population","code":"numerator","display":"Numerator"}]},"count":1}]}]},"request":{"method":"PUT","url":"MeasureReport/b9dd5b44-9350-4e76-a3c0-70b34d1d565a"}}]}