{"resourceType":"Bundle","id":"tests-fee36f91-f35f-4d50-a89c-51ecd0d3ee4f-bundle","type":"transaction","entry":[{"fullUrl":"https://madie.cms.gov/Patient/fee36f91-f35f-4d50-a89c-51ecd0d3ee4f","resource":{"resourceType":"Patient","id":"fee36f91-f35f-4d50-a89c-51ecd0d3ee4f","meta":{"profile":["http://hl7.org/fhir/us/qicore/StructureDefinition/qicore-patient"]},"text":{"status":"generated","div":"<div xmlns=\"http://www.w3.org/1999/xhtml\"><div class=\"hapiHeaderText\">MedRsnAllDvcWMAWarfDrgEDDayBFAdm <b>NUMERFAIL </b></div><table class=\"hapiPropertyTable\"><tbody><tr><td>Identifier</td><td>6a0e3c5c3c6f89b081cdb86134a02c3db47ab8da3b1d1dbdc6da1f3947ce1540</td></tr><tr><td>Date of birth</td><td><span>02 January 1974</span></td></tr></tbody></table></div>"},"extension":[{"url":"http://hl7.org/fhir/us/core/StructureDefinition/us-core-race","extension":[{"url":"ombCategory","valueCoding":{"system":"urn:oid:2.16.840.1.113883.6.238","code":"1002-5","display":"American Indian or Alaska Native","userSelected":true}},{"url":"text","valueString":"American Indian or Alaska Native"}]},{"url":"http://hl7.org/fhir/us/core/StructureDefinition/us-core-ethnicity","extension":[{"url":"ombCategory","valueCoding":{"system":"urn:oid:2.16.840.1.113883.6.238","code":"2135-2","display":"Hispanic or Latino","userSelected":true}},{"url":"text","valueString":"Hispanic or Latino"}]}],"identifier":[{"type":{"coding":[{"system":"http://terminology.hl7.org/CodeSystem/v2-0203","code":"MR"}]},"system":"https://bonnie-fhir.healthit.gov/","value":"612e6ae202c62a011f2eb981"}],"active":true,"name":[{"use":"usual","family":"NUMERFail","given":["MedRsnAllDvcWMAWarfDrgEDDayBFAdm"]}],"gender":"male","birthDate":"1974-01-02"},"request":{"method":"PUT","url":"Patient/fee36f91-f35f-4d50-a89c-51ecd0d3ee4f"}},{"fullUrl":"https://madie.cms.gov/Encounter/5ca62965b8484628b8de1fba","resource":{"resourceType":"Encounter","id":"e6be33fa-cdc9-4e04-a8d5-fc77bfb5a7d7","meta":{"profile":["http://hl7.org/fhir/us/qicore/StructureDefinition/qicore-encounter"]},"status":"finished","class":{"system":"http://terminology.hl7.org/CodeSystem/v3-ActCode","code":"EMER","display":"emergency"},"type":[{"coding":[{"system":"http://snomed.info/sct","code":"4525004"}]}],"subject":{"reference":"Patient/fee36f91-f35f-4d50-a89c-51ecd0d3ee4f"},"period":{"start":"2025-10-31T04:00:00+00:00","end":"2025-11-01T07:15:00+00:00"},"length":{"value":1.0,"unit":"days"}},"request":{"method":"PUT","url":"Encounter/e6be33fa-cdc9-4e04-a8d5-fc77bfb5a7d7"}},{"fullUrl":"https://madie.cms.gov/Encounter/5ca62965b8484628b8de1fbb","resource":{"resourceType":"Encounter","id":"b20d594c-bf65-4d29-934e-474c3fe94f79","meta":{"profile":["http://hl7.org/fhir/us/qicore/StructureDefinition/qicore-encounter"]},"status":"finished","class":{"system":"http://terminology.hl7.org/CodeSystem/v3-ActCode","code":"IMP","display":"inpatient encounter"},"type":[{"coding":[{"system":"http://snomed.info/sct","code":"8715000"}]}],"subject":{"reference":"Patient/fee36f91-f35f-4d50-a89c-51ecd0d3ee4f"},"period":{"start":"2025-11-01T10:00:00+00:00","end":"2025-11-04T05:00:00+00:00"},"length":{"value":3.0,"unit":"days"},"diagnosis":[{"condition":{"reference":"Condition/ischemic-stroke-824c"},"rank":1}]},"request":{"method":"PUT","url":"Encounter/b20d594c-bf65-4d29-934e-474c3fe94f79"}},{"fullUrl":"https://madie.cms.gov/Coverage/5fa041621c76ba66d9959328","resource":{"resourceType":"Coverage","id":"af6d480d-6212-4097-8b80-2db4a25454a1","status":"active","beneficiary":{"reference":"Patient/fee36f91-f35f-4d50-a89c-51ecd0d3ee4f"},"period":{"start":"1974-01-02T08:00:00+00:00"},"payor":[{"reference":"Organization/880a275e-1cf2-4fb9-869b-f1d2173fdc2b"}]},"request":{"method":"PUT","url":"Coverage/af6d480d-6212-4097-8b80-2db4a25454a1"}},{"fullUrl":"https://madie.cms.gov/MedicationAdministration/5ca62965b8484628b8de1fc3","resource":{"resourceType":"MedicationAdministration","id":"e06ca6c7-1091-43fa-bb20-d845cbd2b3b8","meta":{"profile":["http://hl7.org/fhir/us/qicore/StructureDefinition/qicore-medicationadministration"]},"extension":[{"url":"http://hl7.org/fhir/us/qicore/StructureDefinition/qicore-recorded","valueDateTime":"2025-10-31T07:00:00+00:00"}],"status":"not-done","statusReason":[{"coding":[{"system":"http://snomed.info/sct","code":"183932001","display":"Procedure contraindicated (situation)"}]}],"medicationCodeableConcept":{"coding":[{"system":"http://www.nlm.nih.gov/research/umls/rxnorm","code":"855288"}]},"subject":{"reference":"Patient/fee36f91-f35f-4d50-a89c-51ecd0d3ee4f"},"effectivePeriod":{"start":"2025-10-31T07:00:00+00:00"}},"request":{"method":"PUT","url":"MedicationAdministration/e06ca6c7-1091-43fa-bb20-d845cbd2b3b8"}},{"fullUrl":"https://madie.cms.gov/Procedure/device-application-1c3e","resource":{"resourceType":"Procedure","id":"0983b99f-130b-45f0-b992-7d77bcb59c03","meta":{"profile":["http://hl7.org/fhir/us/qicore/StructureDefinition/qicore-procedure"]},"extension":[{"url":"http://hl7.org/fhir/us/qicore/StructureDefinition/qicore-recorded","valueDateTime":"2012-12-04T09:35:00-04:00"}],"status":"not-done","statusReason":{"coding":[{"system":"http://snomed.info/sct","code":"183932001","display":"Procedure contraindicated (situation)","userSelected":true}]},"code":{"coding":[{"system":"http://snomed.info/sct","version":"2025-03","code":"360030002","display":"Application of device (procedure)","userSelected":true}]},"subject":{"reference":"Patient/fee36f91-f35f-4d50-a89c-51ecd0d3ee4f"},"_performedDateTime":{"extension":[{"url":"http://hl7.org/fhir/StructureDefinition/data-absent-reason","valueCode":"not-performed"}]},"usedCode":[{"coding":[{"system":"http://snomed.info/sct","code":"348681001","display":"Graduated compression elastic hosiery (physical object)","userSelected":true}]}]},"request":{"method":"PUT","url":"Procedure/0983b99f-130b-45f0-b992-7d77bcb59c03"}},{"fullUrl":"https://madie.cms.gov/Organization/123456","resource":{"resourceType":"Organization","id":"880a275e-1cf2-4fb9-869b-f1d2173fdc2b","meta":{"profile":["http://hl7.org/fhir/us/qicore/StructureDefinition/qicore-organization"]},"identifier":[{"use":"temp","system":"urn:oid:2.16.840.1.113883.4.4","value":"21-3259825"}],"active":true,"type":[{"coding":[{"system":"http://terminology.hl7.org/CodeSystem/organization-type","code":"pay","display":"Payer"}]}],"name":"Blue Cross Blue Shield of Texas","telecom":[{"system":"phone","value":"(+1) 972-766-6900"}],"address":[{"use":"billing","type":"postal","line":["P.O. Box 660044"],"city":"Dallas","state":"TX","postalCode":"75266-0044","country":"USA"}]},"request":{"method":"PUT","url":"Organization/880a275e-1cf2-4fb9-869b-f1d2173fdc2b"}},{"fullUrl":"https://madie.cms.gov/Practitioner/practitioner-123456","resource":{"resourceType":"Practitioner","id":"8f811a0a-ac86-4a67-9646-6061e1c6f8da","identifier":[{"system":"http://hl7.org/fhir/sid/us-npi","value":"123456"}],"name":[{"family":"Evil","prefix":["Dr"]}]},"request":{"method":"PUT","url":"Practitioner/8f811a0a-ac86-4a67-9646-6061e1c6f8da"}},{"fullUrl":"https://madie.cms.gov/MeasureReport/fc810911-d9c0-405c-8bbf-cb31f6eaafe3","resource":{"resourceType":"MeasureReport","id":"fc810911-d9c0-405c-8bbf-cb31f6eaafe3","meta":{"profile":["http://hl7.org/fhir/us/cqfmeasures/StructureDefinition/test-case-cqfm"]},"contained":[{"resourceType":"Parameters","id":"8c30533a-eb27-438f-9e55-4398cbd72526-parameters","parameter":[{"name":"subject","valueString":"fee36f91-f35f-4d50-a89c-51ecd0d3ee4f"}]}],"extension":[{"url":"http://hl7.org/fhir/us/cqfmeasures/StructureDefinition/cqfm-inputParameters","valueReference":{"reference":"#8c30533a-eb27-438f-9e55-4398cbd72526-parameters"}},{"url":"http://hl7.org/fhir/us/cqfmeasures/StructureDefinition/cqfm-testCaseDescription","valueMarkdown":"medical reasons for not receiving all devices and warfarin in ED but ED is 1 day before adm\n"}],"modifierExtension":[{"url":"http://hl7.org/fhir/us/cqfmeasures/StructureDefinition/cqfm-isTestCase","valueBoolean":true}],"status":"complete","type":"individual","measure":"https://madie.cms.gov/Measure/VenousThromboembolismProphylaxisFHIR","period":{"start":"2025-01-01","end":"2025-12-31"},"group":[{"population":[{"code":{"coding":[{"system":"http://terminology.hl7.org/CodeSystem/measure-population","code":"initial-population","display":"Initial Population"}]},"count":1},{"code":{"coding":[{"system":"http://terminology.hl7.org/CodeSystem/measure-population","code":"denominator","display":"Denominator"}]},"count":1},{"code":{"coding":[{"system":"http://terminology.hl7.org/CodeSystem/measure-population","code":"denominator-exclusion","display":"Denominator Exclusion"}]},"count":0},{"code":{"coding":[{"system":"http://terminology.hl7.org/CodeSystem/measure-population","code":"numerator","display":"Numerator"}]},"count":0}]}]},"request":{"method":"PUT","url":"MeasureReport/fc810911-d9c0-405c-8bbf-cb31f6eaafe3"}}]}