{"resourceType":"Bundle","id":"tests-e2e5ba36-0d4d-425e-9e9a-6c8a64155fc7-bundle","type":"transaction","entry":[{"fullUrl":"https://madie.cms.gov/Patient/e2e5ba36-0d4d-425e-9e9a-6c8a64155fc7","resource":{"resourceType":"Patient","id":"e2e5ba36-0d4d-425e-9e9a-6c8a64155fc7","meta":{"profile":["http://hl7.org/fhir/us/qicore/StructureDefinition/qicore-patient"]},"text":{"status":"generated","div":"<div xmlns=\"http://www.w3.org/1999/xhtml\"><div class=\"hapiHeaderText\">MA_OralXaKneeEncStartTime <b>NUMERPASS </b></div><table class=\"hapiPropertyTable\"><tbody><tr><td>Date of birth</td><td><span>02 January 1974</span></td></tr></tbody></table></div>"},"extension":[{"url":"http://hl7.org/fhir/us/core/StructureDefinition/us-core-race","extension":[{"url":"ombCategory","valueCoding":{"system":"urn:oid:2.16.840.1.113883.6.238","code":"1002-5","display":"American Indian or Alaska Native","userSelected":true}},{"url":"text","valueString":"American Indian or Alaska Native"}]},{"url":"http://hl7.org/fhir/us/core/StructureDefinition/us-core-ethnicity","extension":[{"url":"ombCategory","valueCoding":{"system":"urn:oid:2.16.840.1.113883.6.238","code":"2135-2","display":"Hispanic or Latino","userSelected":true}},{"url":"text","valueString":"Hispanic or Latino"}]}],"identifier":[{"type":{"coding":[{"system":"http://terminology.hl7.org/CodeSystem/v2-0203","code":"MR"}]},"system":"https://bonnie-fhir.healthit.gov/","value":"612e6afb02c62a011f2ebfd5"}],"active":true,"name":[{"use":"usual","family":"NUMERPass","given":["MA_OralXaKneeOnEncStartTime"]}],"gender":"female","birthDate":"1974-01-02"},"request":{"method":"PUT","url":"Patient/e2e5ba36-0d4d-425e-9e9a-6c8a64155fc7"}},{"fullUrl":"https://madie.cms.gov/Encounter/5dbe0ec236c3c80000887248","resource":{"resourceType":"Encounter","id":"81aba8dd-fdfc-499e-bf82-554699d1b466","meta":{"profile":["http://hl7.org/fhir/us/qicore/StructureDefinition/qicore-encounter"]},"status":"finished","class":{"system":"http://terminology.hl7.org/CodeSystem/v3-ActCode","code":"IMP","display":"inpatient encounter"},"type":[{"coding":[{"system":"http://snomed.info/sct","code":"183452005"}]}],"subject":{"reference":"Patient/e2e5ba36-0d4d-425e-9e9a-6c8a64155fc7"},"period":{"start":"2025-11-01T08:00:00+00:00","end":"2025-11-26T08:15:00+00:00"},"length":{"value":25,"unit":"day"}},"request":{"method":"PUT","url":"Encounter/81aba8dd-fdfc-499e-bf82-554699d1b466"}},{"fullUrl":"https://madie.cms.gov/Coverage/5fa041651c76ba66d9959361","resource":{"resourceType":"Coverage","id":"15982b2f-ca5a-4aed-b007-f132f0d81d18","status":"active","beneficiary":{"reference":"Patient/e2e5ba36-0d4d-425e-9e9a-6c8a64155fc7"},"period":{"start":"1974-01-02T08:00:00+00:00"},"payor":[{"reference":"Organization/f7da4368-fb6d-4d73-a75b-f78024cbb18d"}]},"request":{"method":"PUT","url":"Coverage/15982b2f-ca5a-4aed-b007-f132f0d81d18"}},{"fullUrl":"https://madie.cms.gov/MedicationAdministration/5dbe0f2536c3c80000887277","resource":{"resourceType":"MedicationAdministration","id":"5dfe8771-07a0-4167-b987-1a6910b8185b","meta":{"profile":["http://hl7.org/fhir/us/qicore/StructureDefinition/qicore-medicationadministration"]},"status":"completed","medicationCodeableConcept":{"coding":[{"system":"http://www.nlm.nih.gov/research/umls/rxnorm","code":"1599555"}]},"subject":{"reference":"Patient/e2e5ba36-0d4d-425e-9e9a-6c8a64155fc7"},"effectivePeriod":{"start":"2025-11-01T08:00:00+00:00","end":"2025-11-01T08:00:00+00:00"}},"request":{"method":"PUT","url":"MedicationAdministration/5dfe8771-07a0-4167-b987-1a6910b8185b"}},{"fullUrl":"https://madie.cms.gov/Procedure/5dbe13ef36c3c8000088768a","resource":{"resourceType":"Procedure","id":"2b629926-8edc-4b4f-8c66-3debfd180ff9","meta":{"profile":["http://hl7.org/fhir/us/qicore/StructureDefinition/qicore-procedure"]},"extension":[{"url":"http://hl7.org/fhir/us/qicore/StructureDefinition/qicore-recorded","valueDateTime":"2012-11-01T09:35:00-04:00"}],"status":"completed","code":{"coding":[{"system":"http://snomed.info/sct","code":"179411001"}]},"subject":{"reference":"Patient/e2e5ba36-0d4d-425e-9e9a-6c8a64155fc7"},"performedPeriod":{"start":"2025-11-01T08:00:00+00:00","end":"2025-11-01T10:15:00+00:00"}},"request":{"method":"PUT","url":"Procedure/2b629926-8edc-4b4f-8c66-3debfd180ff9"}},{"fullUrl":"https://madie.cms.gov/Organization/123456","resource":{"resourceType":"Organization","id":"f7da4368-fb6d-4d73-a75b-f78024cbb18d","meta":{"profile":["http://hl7.org/fhir/us/qicore/StructureDefinition/qicore-organization"]},"identifier":[{"use":"temp","system":"urn:oid:2.16.840.1.113883.4.4","value":"21-3259825"}],"active":true,"type":[{"coding":[{"system":"http://terminology.hl7.org/CodeSystem/organization-type","code":"pay","display":"Payer"}]}],"name":"Blue Cross Blue Shield of Texas","telecom":[{"system":"phone","value":"(+1) 972-766-6900"}],"address":[{"use":"billing","type":"postal","line":["P.O. Box 660044"],"city":"Dallas","state":"TX","postalCode":"75266-0044","country":"USA"}]},"request":{"method":"PUT","url":"Organization/f7da4368-fb6d-4d73-a75b-f78024cbb18d"}},{"fullUrl":"https://madie.cms.gov/Practitioner/practitioner-123456","resource":{"resourceType":"Practitioner","id":"2f3e115c-5af7-41ef-b2bb-df394458953c","identifier":[{"system":"http://hl7.org/fhir/sid/us-npi","value":"123456"}],"name":[{"family":"Evil","prefix":["Dr"]}]},"request":{"method":"PUT","url":"Practitioner/2f3e115c-5af7-41ef-b2bb-df394458953c"}},{"fullUrl":"https://madie.cms.gov/MeasureReport/6a2340c2-ac11-4efb-b830-8364dbd84a80","resource":{"resourceType":"MeasureReport","id":"6a2340c2-ac11-4efb-b830-8364dbd84a80","meta":{"profile":["http://hl7.org/fhir/us/cqfmeasures/StructureDefinition/test-case-cqfm"]},"contained":[{"resourceType":"Parameters","id":"54c8dcf8-26cc-4910-a714-82bbe0e50d4b-parameters","parameter":[{"name":"subject","valueString":"e2e5ba36-0d4d-425e-9e9a-6c8a64155fc7"}]}],"extension":[{"url":"http://hl7.org/fhir/us/cqfmeasures/StructureDefinition/cqfm-inputParameters","valueReference":{"reference":"#54c8dcf8-26cc-4910-a714-82bbe0e50d4b-parameters"}},{"url":"http://hl7.org/fhir/us/cqfmeasures/StructureDefinition/cqfm-testCaseDescription","valueMarkdown":"oral factor Xa administered concurrent with start of IP encounter, Hip replacement concurrent with Start of IP encounter\n"}],"modifierExtension":[{"url":"http://hl7.org/fhir/us/cqfmeasures/StructureDefinition/cqfm-isTestCase","valueBoolean":true}],"status":"complete","type":"individual","measure":"https://madie.cms.gov/Measure/VenousThromboembolismProphylaxisFHIR","period":{"start":"2025-01-01","end":"2025-12-31"},"group":[{"population":[{"code":{"coding":[{"system":"http://terminology.hl7.org/CodeSystem/measure-population","code":"initial-population","display":"Initial Population"}]},"count":1},{"code":{"coding":[{"system":"http://terminology.hl7.org/CodeSystem/measure-population","code":"denominator","display":"Denominator"}]},"count":1},{"code":{"coding":[{"system":"http://terminology.hl7.org/CodeSystem/measure-population","code":"denominator-exclusion","display":"Denominator Exclusion"}]},"count":0},{"code":{"coding":[{"system":"http://terminology.hl7.org/CodeSystem/measure-population","code":"numerator","display":"Numerator"}]},"count":1}]}]},"request":{"method":"PUT","url":"MeasureReport/6a2340c2-ac11-4efb-b830-8364dbd84a80"}}]}