{"resourceType":"Bundle","id":"tests-104887a9-056e-4fd3-b47a-176eefbd090b-bundle","type":"transaction","entry":[{"fullUrl":"https://madie.cms.gov/Patient/104887a9-056e-4fd3-b47a-176eefbd090b","resource":{"resourceType":"Patient","id":"104887a9-056e-4fd3-b47a-176eefbd090b","meta":{"profile":["http://hl7.org/fhir/us/qicore/StructureDefinition/qicore-patient"]},"text":{"status":"generated","div":"<div xmlns=\"http://www.w3.org/1999/xhtml\"><div class=\"hapiHeaderText\">CMODrgED2HrsBFAdmSameDateAdmDateDoNotPerformFalse <b>DENEXPASS </b></div><table class=\"hapiPropertyTable\"><tbody><tr><td>Identifier</td><td>059b8a3b4412b01787dc1d643429cbf6</td></tr><tr><td>Date of birth</td><td><span>02 January 1974</span></td></tr></tbody></table></div>"},"extension":[{"url":"http://hl7.org/fhir/us/core/StructureDefinition/us-core-race","extension":[{"url":"ombCategory","valueCoding":{"system":"urn:oid:2.16.840.1.113883.6.238","code":"1002-5","display":"American Indian or Alaska Native","userSelected":true}},{"url":"text","valueString":"American Indian or Alaska Native"}]},{"url":"http://hl7.org/fhir/us/core/StructureDefinition/us-core-ethnicity","extension":[{"url":"ombCategory","valueCoding":{"system":"urn:oid:2.16.840.1.113883.6.238","code":"2135-2","display":"Hispanic or Latino","userSelected":true}},{"url":"text","valueString":"Hispanic or Latino"}]}],"identifier":[{"type":{"coding":[{"system":"http://terminology.hl7.org/CodeSystem/v2-0203","code":"MR"}]},"system":"https://bonnie-fhir.healthit.gov/","value":"612e6b4302c62a011f2ed188"}],"active":true,"name":[{"use":"usual","family":"DENEXPass","given":["CMODrgED2HrsBFAdmSameDateAdmDateDoNotPerformFalse"]}],"gender":"male","birthDate":"1974-01-02"},"request":{"method":"PUT","url":"Patient/104887a9-056e-4fd3-b47a-176eefbd090b"}},{"fullUrl":"https://madie.cms.gov/Encounter/5ca6295db8484628b8de1d5f","resource":{"resourceType":"Encounter","id":"72a977be-a47a-412c-98d1-6d80065c9135","meta":{"profile":["http://hl7.org/fhir/us/qicore/StructureDefinition/qicore-encounter"]},"status":"finished","class":{"system":"http://terminology.hl7.org/CodeSystem/v3-ActCode","code":"EMER","display":"emergency"},"type":[{"coding":[{"system":"http://snomed.info/sct","code":"4525004"}]}],"subject":{"reference":"Patient/104887a9-056e-4fd3-b47a-176eefbd090b"},"period":{"start":"2025-11-01T03:00:00+00:00","end":"2025-11-01T05:15:00+00:00"},"length":{"value":0,"unit":"days"}},"request":{"method":"PUT","url":"Encounter/72a977be-a47a-412c-98d1-6d80065c9135"}},{"fullUrl":"https://madie.cms.gov/Encounter/5ca6295db8484628b8de1d60","resource":{"resourceType":"Encounter","id":"e9e632c1-aac6-4067-8d50-b6b62759304a","meta":{"profile":["http://hl7.org/fhir/us/qicore/StructureDefinition/qicore-encounter"]},"status":"finished","class":{"system":"http://terminology.hl7.org/CodeSystem/v3-ActCode","code":"IMP","display":"inpatient encounter"},"type":[{"coding":[{"system":"http://snomed.info/sct","code":"8715000"}]}],"subject":{"reference":"Patient/104887a9-056e-4fd3-b47a-176eefbd090b"},"period":{"start":"2025-11-01T08:00:00+00:00","end":"2025-11-26T08:15:00+00:00"},"length":{"value":25,"unit":"days"}},"request":{"method":"PUT","url":"Encounter/e9e632c1-aac6-4067-8d50-b6b62759304a"}},{"fullUrl":"https://madie.cms.gov/ServiceRequest/5ca6295db8484628b8de1d61","resource":{"resourceType":"ServiceRequest","id":"a634209f-29f4-42f8-9913-9058d05d03e2","meta":{"profile":["http://hl7.org/fhir/us/qicore/StructureDefinition/qicore-servicerequest"]},"status":"completed","intent":"order","doNotPerform":false,"code":{"coding":[{"system":"http://snomed.info/sct","code":"133918004"}]},"subject":{"reference":"Patient/104887a9-056e-4fd3-b47a-176eefbd090b"},"authoredOn":"2025-11-01T05:00:00+00:00"},"request":{"method":"PUT","url":"ServiceRequest/a634209f-29f4-42f8-9913-9058d05d03e2"}},{"fullUrl":"https://madie.cms.gov/Coverage/5fa0414b1c76ba66d9959196","resource":{"resourceType":"Coverage","id":"74e8d653-5878-4503-a96f-97c8e95b9ded","status":"active","beneficiary":{"reference":"Patient/104887a9-056e-4fd3-b47a-176eefbd090b"},"period":{"start":"1974-01-02T08:00:00+00:00"},"payor":[{"reference":"Organization/024e2731-b045-43bf-80d2-684774c5b51c"}]},"request":{"method":"PUT","url":"Coverage/74e8d653-5878-4503-a96f-97c8e95b9ded"}},{"fullUrl":"https://madie.cms.gov/Organization/123456","resource":{"resourceType":"Organization","id":"024e2731-b045-43bf-80d2-684774c5b51c","meta":{"profile":["http://hl7.org/fhir/us/qicore/StructureDefinition/qicore-organization"]},"identifier":[{"use":"temp","system":"urn:oid:2.16.840.1.113883.4.4","value":"21-3259825"}],"active":true,"type":[{"coding":[{"system":"http://terminology.hl7.org/CodeSystem/organization-type","code":"pay","display":"Payer"}]}],"name":"Blue Cross Blue Shield of Texas","telecom":[{"system":"phone","value":"(+1) 972-766-6900"}],"address":[{"use":"billing","type":"postal","line":["P.O. Box 660044"],"city":"Dallas","state":"TX","postalCode":"75266-0044","country":"USA"}]},"request":{"method":"PUT","url":"Organization/024e2731-b045-43bf-80d2-684774c5b51c"}},{"fullUrl":"https://madie.cms.gov/Practitioner/practitioner-123456","resource":{"resourceType":"Practitioner","id":"cd435d34-b6fb-45b3-8657-89d7a2c25a5b","identifier":[{"system":"http://hl7.org/fhir/sid/us-npi","value":"123456"}],"name":[{"family":"Evil","prefix":["Dr"]}]},"request":{"method":"PUT","url":"Practitioner/cd435d34-b6fb-45b3-8657-89d7a2c25a5b"}},{"fullUrl":"https://madie.cms.gov/MeasureReport/288eb23c-c6c4-4958-8e66-e56b8db213cc","resource":{"resourceType":"MeasureReport","id":"288eb23c-c6c4-4958-8e66-e56b8db213cc","meta":{"profile":["http://hl7.org/fhir/us/cqfmeasures/StructureDefinition/test-case-cqfm"]},"contained":[{"resourceType":"Parameters","id":"8e62a760-90fe-4ecc-a996-a85103ea6993-parameters","parameter":[{"name":"subject","valueString":"104887a9-056e-4fd3-b47a-176eefbd090b"}]}],"extension":[{"url":"http://hl7.org/fhir/us/cqfmeasures/StructureDefinition/cqfm-inputParameters","valueReference":{"reference":"#8e62a760-90fe-4ecc-a996-a85103ea6993-parameters"}},{"url":"http://hl7.org/fhir/us/cqfmeasures/StructureDefinition/cqfm-testCaseDescription","valueMarkdown":"CMO occurs in ED that ED ends > 1 hour before Adm. But this case pass because it is on the same day as adm date\n"}],"modifierExtension":[{"url":"http://hl7.org/fhir/us/cqfmeasures/StructureDefinition/cqfm-isTestCase","valueBoolean":true}],"status":"complete","type":"individual","measure":"https://madie.cms.gov/Measure/VenousThromboembolismProphylaxisFHIR","period":{"start":"2025-01-01","end":"2025-12-31"},"group":[{"population":[{"code":{"coding":[{"system":"http://terminology.hl7.org/CodeSystem/measure-population","code":"initial-population","display":"Initial Population"}]},"count":1},{"code":{"coding":[{"system":"http://terminology.hl7.org/CodeSystem/measure-population","code":"denominator","display":"Denominator"}]},"count":1},{"code":{"coding":[{"system":"http://terminology.hl7.org/CodeSystem/measure-population","code":"denominator-exclusion","display":"Denominator Exclusion"}]},"count":1},{"code":{"coding":[{"system":"http://terminology.hl7.org/CodeSystem/measure-population","code":"numerator","display":"Numerator"}]},"count":0}]}]},"request":{"method":"PUT","url":"MeasureReport/288eb23c-c6c4-4958-8e66-e56b8db213cc"}}]}