{"resourceType":"Bundle","id":"tests-cad33033-1cf9-4ab9-aa2d-1cf578777ee9-bundle","type":"transaction","entry":[{"fullUrl":"https://madie.cms.gov/Patient/cad33033-1cf9-4ab9-aa2d-1cf578777ee9","resource":{"resourceType":"Patient","id":"cad33033-1cf9-4ab9-aa2d-1cf578777ee9","meta":{"profile":["http://hl7.org/fhir/us/qicore/StructureDefinition/qicore-patient"]},"text":{"status":"generated","div":"<div xmlns=\"http://www.w3.org/1999/xhtml\"><div class=\"hapiHeaderText\">SCIP_KneeSurgB4Admit <b>DENEXFAIL </b></div><table class=\"hapiPropertyTable\"><tbody><tr><td>Identifier</td><td>66c70c125db369967b4b164e75338304</td></tr><tr><td>Date of birth</td><td><span>01 September 2000</span></td></tr></tbody></table></div>"},"extension":[{"url":"http://hl7.org/fhir/us/core/StructureDefinition/us-core-race","extension":[{"url":"ombCategory","valueCoding":{"system":"urn:oid:2.16.840.1.113883.6.238","code":"1002-5","display":"American Indian or Alaska Native","userSelected":true}},{"url":"text","valueString":"American Indian or Alaska Native"}]},{"url":"http://hl7.org/fhir/us/core/StructureDefinition/us-core-ethnicity","extension":[{"url":"ombCategory","valueCoding":{"system":"urn:oid:2.16.840.1.113883.6.238","code":"2135-2","display":"Hispanic or Latino","userSelected":true}},{"url":"text","valueString":"Hispanic or Latino"}]}],"identifier":[{"type":{"coding":[{"system":"http://terminology.hl7.org/CodeSystem/v2-0203","code":"MR"}]},"system":"https://bonnie-fhir.healthit.gov/","value":"612e6b0a02c62a011f2ec31b"}],"active":true,"name":[{"use":"usual","family":"DENEXFail ","given":["SCIP_KneeSurgB4Admit"]}],"gender":"male","birthDate":"2000-09-01"},"request":{"method":"PUT","url":"Patient/cad33033-1cf9-4ab9-aa2d-1cf578777ee9"}},{"fullUrl":"https://madie.cms.gov/Encounter/5ca62965b8484628b8de1fae","resource":{"resourceType":"Encounter","id":"728ab2ab-78f8-4ec7-8f8d-0795130b8801","meta":{"profile":["http://hl7.org/fhir/us/qicore/StructureDefinition/qicore-encounter"]},"extension":[{"url":"http://hl7.org/fhir/us/qicore/StructureDefinition/qicore-encounter-procedure","extension":[{"url":"type","valueCodeableConcept":{"coding":[{"system":"http://www.cms.gov/Medicare/Coding/ICD10","code":"0SUT09Z"}]}},{"url":"rank","valuePositiveInt":1},{"url":"procedure","valueReference":{"reference":"Procedure/5e21be93f9757500009ed4e7"}}]}],"status":"finished","class":{"system":"http://terminology.hl7.org/CodeSystem/v3-ActCode","code":"IMP","display":"inpatient encounter"},"type":[{"coding":[{"system":"http://snomed.info/sct","code":"183452005"}]}],"subject":{"reference":"Patient/cad33033-1cf9-4ab9-aa2d-1cf578777ee9"},"period":{"start":"2025-09-02T06:00:00+00:00","end":"2025-12-31T12:59:00+00:00"},"length":{"value":120.0,"unit":"days"}},"request":{"method":"PUT","url":"Encounter/728ab2ab-78f8-4ec7-8f8d-0795130b8801"}},{"fullUrl":"https://madie.cms.gov/Coverage/5fa041671c76ba66d9959385","resource":{"resourceType":"Coverage","id":"b69f2510-cdfb-4784-86e7-9cc4d9ba9502","status":"active","beneficiary":{"reference":"Patient/cad33033-1cf9-4ab9-aa2d-1cf578777ee9"},"period":{"start":"2000-09-01T08:00:00+00:00"},"payor":[{"reference":"Organization/aeb2c6be-6577-4bba-a6b6-6eab95111f1b"}]},"request":{"method":"PUT","url":"Coverage/b69f2510-cdfb-4784-86e7-9cc4d9ba9502"}},{"fullUrl":"https://madie.cms.gov/Procedure/5e21be93f9757500009ed4e7","resource":{"resourceType":"Procedure","id":"cc01a0b0-b3e6-460e-9490-b00f5971f798","meta":{"profile":["http://hl7.org/fhir/us/qicore/StructureDefinition/qicore-procedure"]},"extension":[{"url":"http://hl7.org/fhir/us/qicore/StructureDefinition/qicore-recorded","valueDateTime":"2012-12-04T09:35:00-04:00"}],"status":"completed","code":{"coding":[{"system":"http://www.cms.gov/Medicare/Coding/ICD10","code":"0SUT09Z"}]},"subject":{"reference":"Patient/cad33033-1cf9-4ab9-aa2d-1cf578777ee9"},"performedPeriod":{"start":"2025-09-01T05:00:00+00:00","end":"2025-09-02T05:00:00+00:00"}},"request":{"method":"PUT","url":"Procedure/cc01a0b0-b3e6-460e-9490-b00f5971f798"}},{"fullUrl":"https://madie.cms.gov/Organization/123456","resource":{"resourceType":"Organization","id":"aeb2c6be-6577-4bba-a6b6-6eab95111f1b","meta":{"profile":["http://hl7.org/fhir/us/qicore/StructureDefinition/qicore-organization"]},"identifier":[{"use":"temp","system":"urn:oid:2.16.840.1.113883.4.4","value":"21-3259825"}],"active":true,"type":[{"coding":[{"system":"http://terminology.hl7.org/CodeSystem/organization-type","code":"pay","display":"Payer"}]}],"name":"Blue Cross Blue Shield of Texas","telecom":[{"system":"phone","value":"(+1) 972-766-6900"}],"address":[{"use":"billing","type":"postal","line":["P.O. Box 660044"],"city":"Dallas","state":"TX","postalCode":"75266-0044","country":"USA"}]},"request":{"method":"PUT","url":"Organization/aeb2c6be-6577-4bba-a6b6-6eab95111f1b"}},{"fullUrl":"https://madie.cms.gov/Practitioner/practitioner-123456","resource":{"resourceType":"Practitioner","id":"b4e8dc12-449e-4f75-b262-d519bb41e509","identifier":[{"system":"http://hl7.org/fhir/sid/us-npi","value":"123456"}],"name":[{"family":"Evil","prefix":["Dr"]}]},"request":{"method":"PUT","url":"Practitioner/b4e8dc12-449e-4f75-b262-d519bb41e509"}},{"fullUrl":"https://madie.cms.gov/MeasureReport/961a164c-9de1-4a12-a6f6-47a12f3e9982","resource":{"resourceType":"MeasureReport","id":"961a164c-9de1-4a12-a6f6-47a12f3e9982","meta":{"profile":["http://hl7.org/fhir/us/cqfmeasures/StructureDefinition/test-case-cqfm"]},"contained":[{"resourceType":"Parameters","id":"40b4024a-2cdc-4705-9349-b4bd82a35e40-parameters","parameter":[{"name":"subject","valueString":"cad33033-1cf9-4ab9-aa2d-1cf578777ee9"}]}],"extension":[{"url":"http://hl7.org/fhir/us/cqfmeasures/StructureDefinition/cqfm-inputParameters","valueReference":{"reference":"#40b4024a-2cdc-4705-9349-b4bd82a35e40-parameters"}},{"url":"http://hl7.org/fhir/us/cqfmeasures/StructureDefinition/cqfm-testCaseDescription","valueMarkdown":"Patient had SCIP -Knee replacement Surg start 1 day before Encounter and Rank =1\n"}],"modifierExtension":[{"url":"http://hl7.org/fhir/us/cqfmeasures/StructureDefinition/cqfm-isTestCase","valueBoolean":true}],"status":"complete","type":"individual","measure":"https://madie.cms.gov/Measure/VenousThromboembolismProphylaxisFHIR","period":{"start":"2025-01-01","end":"2025-12-31"},"group":[{"population":[{"code":{"coding":[{"system":"http://terminology.hl7.org/CodeSystem/measure-population","code":"initial-population","display":"Initial Population"}]},"count":1},{"code":{"coding":[{"system":"http://terminology.hl7.org/CodeSystem/measure-population","code":"denominator","display":"Denominator"}]},"count":1},{"code":{"coding":[{"system":"http://terminology.hl7.org/CodeSystem/measure-population","code":"denominator-exclusion","display":"Denominator Exclusion"}]},"count":0},{"code":{"coding":[{"system":"http://terminology.hl7.org/CodeSystem/measure-population","code":"numerator","display":"Numerator"}]},"count":0}]}]},"request":{"method":"PUT","url":"MeasureReport/961a164c-9de1-4a12-a6f6-47a12f3e9982"}}]}