{"resourceType":"Bundle","id":"tests-9ee0f965-4287-41db-bd8e-5631e408c116-bundle","type":"transaction","entry":[{"fullUrl":"https://madie.cms.gov/Patient/9ee0f965-4287-41db-bd8e-5631e408c116","resource":{"resourceType":"Patient","id":"9ee0f965-4287-41db-bd8e-5631e408c116","meta":{"profile":["http://hl7.org/fhir/us/qicore/StructureDefinition/qicore-patient"]},"text":{"status":"generated","div":"<div xmlns=\"http://www.w3.org/1999/xhtml\"><div class=\"hapiHeaderText\">PrincDxHemStroke <b>DENEXPASS </b></div><table class=\"hapiPropertyTable\"><tbody><tr><td>Identifier</td><td>29c9716eb5f48b54d7b337bf497e0e5e</td></tr><tr><td>Date of birth</td><td><span>01 December 2003</span></td></tr></tbody></table></div>"},"extension":[{"url":"http://hl7.org/fhir/us/core/StructureDefinition/us-core-race","extension":[{"url":"ombCategory","valueCoding":{"system":"urn:oid:2.16.840.1.113883.6.238","code":"1002-5","display":"American Indian or Alaska Native","userSelected":true}},{"url":"text","valueString":"American Indian or Alaska Native"}]},{"url":"http://hl7.org/fhir/us/core/StructureDefinition/us-core-ethnicity","extension":[{"url":"ombCategory","valueCoding":{"system":"urn:oid:2.16.840.1.113883.6.238","code":"2135-2","display":"Hispanic or Latino","userSelected":true}},{"url":"text","valueString":"Hispanic or Latino"}]}],"identifier":[{"type":{"coding":[{"system":"http://terminology.hl7.org/CodeSystem/v2-0203","code":"MR"}]},"system":"https://bonnie-fhir.healthit.gov/","value":"612e6afc02c62a011f2ec022"}],"active":true,"name":[{"use":"usual","family":"DENEXPass","given":["PrincDxHemStroke"]}],"gender":"female","birthDate":"2001-12-01"},"request":{"method":"PUT","url":"Patient/9ee0f965-4287-41db-bd8e-5631e408c116"}},{"fullUrl":"https://madie.cms.gov/Encounter/5ca62962b8484628b8de1eb4","resource":{"resourceType":"Encounter","id":"de2f87a7-5941-4f4b-bf12-56c871bbe0e6","meta":{"profile":["http://hl7.org/fhir/us/qicore/StructureDefinition/qicore-encounter"]},"status":"finished","class":{"system":"http://terminology.hl7.org/CodeSystem/v3-ActCode","code":"IMP","display":"inpatient encounter"},"type":[{"coding":[{"system":"http://snomed.info/sct","code":"183452005"}]}],"subject":{"reference":"Patient/9ee0f965-4287-41db-bd8e-5631e408c116"},"period":{"start":"2025-12-01T00:00:00+00:00","end":"2025-12-31T23:59:00+00:00"},"length":{"value":30,"unit":"days"},"diagnosis":[{"condition":{"reference":"Condition/hemorrhagic-stroke-1c3b"},"use":{"coding":[{"system":"http://terminology.hl7.org/CodeSystem/diagnosis-role","code":"billing"}]},"rank":1}]},"request":{"method":"PUT","url":"Encounter/de2f87a7-5941-4f4b-bf12-56c871bbe0e6"}},{"fullUrl":"https://madie.cms.gov/Coverage/5fa041651c76ba66d9959364","resource":{"resourceType":"Coverage","id":"fd53aa9e-49bb-4f65-b2c7-7cfd6f9c9b33","status":"active","beneficiary":{"reference":"Patient/9ee0f965-4287-41db-bd8e-5631e408c116"},"period":{"start":"2003-12-01T01:00:00+00:00"},"payor":[{"reference":"Organization/9e9b3f13-a353-4173-b29b-947d6f1f2031"}]},"request":{"method":"PUT","url":"Coverage/fd53aa9e-49bb-4f65-b2c7-7cfd6f9c9b33"}},{"fullUrl":"https://madie.cms.gov/Condition/hemorrhagic-stroke-1c3b","resource":{"resourceType":"Condition","id":"d9b164d1-1e47-45e1-bff6-4647effdb3a4","meta":{"profile":["http://hl7.org/fhir/us/qicore/StructureDefinition/qicore-condition"]},"category":[{"coding":[{"system":"http://terminology.hl7.org/CodeSystem/condition-category","code":"encounter-diagnosis","display":"Encounter Diagnosis"}]}],"code":{"coding":[{"system":"http://snomed.info/sct","version":"2025-03","code":"195155004","display":"Subarachnoid hemorrhage from carotid siphon and bifurcation (disorder)","userSelected":true}]},"subject":{"reference":"Patient/9ee0f965-4287-41db-bd8e-5631e408c116"},"recordedDate":"2025-07-13T08:00:00.000+00:00"},"request":{"method":"PUT","url":"Condition/d9b164d1-1e47-45e1-bff6-4647effdb3a4"}},{"fullUrl":"https://madie.cms.gov/Organization/123456","resource":{"resourceType":"Organization","id":"9e9b3f13-a353-4173-b29b-947d6f1f2031","meta":{"profile":["http://hl7.org/fhir/us/qicore/StructureDefinition/qicore-organization"]},"identifier":[{"use":"temp","system":"urn:oid:2.16.840.1.113883.4.4","value":"21-3259825"}],"active":true,"type":[{"coding":[{"system":"http://terminology.hl7.org/CodeSystem/organization-type","code":"pay","display":"Payer"}]}],"name":"Blue Cross Blue Shield of Texas","telecom":[{"system":"phone","value":"(+1) 972-766-6900"}],"address":[{"use":"billing","type":"postal","line":["P.O. Box 660044"],"city":"Dallas","state":"TX","postalCode":"75266-0044","country":"USA"}]},"request":{"method":"PUT","url":"Organization/9e9b3f13-a353-4173-b29b-947d6f1f2031"}},{"fullUrl":"https://madie.cms.gov/Practitioner/practitioner-123456","resource":{"resourceType":"Practitioner","id":"6078c5c9-3f4c-4406-b16c-e962c40781f0","identifier":[{"system":"http://hl7.org/fhir/sid/us-npi","value":"123456"}],"name":[{"family":"Evil","prefix":["Dr"]}]},"request":{"method":"PUT","url":"Practitioner/6078c5c9-3f4c-4406-b16c-e962c40781f0"}},{"fullUrl":"https://madie.cms.gov/MeasureReport/bbc40e76-df02-446b-a7a6-fb1890911667","resource":{"resourceType":"MeasureReport","id":"bbc40e76-df02-446b-a7a6-fb1890911667","meta":{"profile":["http://hl7.org/fhir/us/cqfmeasures/StructureDefinition/test-case-cqfm"]},"contained":[{"resourceType":"Parameters","id":"91e4656e-4b84-4ea8-89cb-16d88ce358a5-parameters","parameter":[{"name":"subject","valueString":"9ee0f965-4287-41db-bd8e-5631e408c116"}]}],"extension":[{"url":"http://hl7.org/fhir/us/cqfmeasures/StructureDefinition/cqfm-inputParameters","valueReference":{"reference":"#91e4656e-4b84-4ea8-89cb-16d88ce358a5-parameters"}},{"url":"http://hl7.org/fhir/us/cqfmeasures/StructureDefinition/cqfm-testCaseDescription","valueMarkdown":"Principal Dx of HemStroke\n"}],"modifierExtension":[{"url":"http://hl7.org/fhir/us/cqfmeasures/StructureDefinition/cqfm-isTestCase","valueBoolean":true}],"status":"complete","type":"individual","measure":"https://madie.cms.gov/Measure/VenousThromboembolismProphylaxisFHIR","period":{"start":"2025-01-01","end":"2025-12-31"},"group":[{"population":[{"code":{"coding":[{"system":"http://terminology.hl7.org/CodeSystem/measure-population","code":"initial-population","display":"Initial Population"}]},"count":1},{"code":{"coding":[{"system":"http://terminology.hl7.org/CodeSystem/measure-population","code":"denominator","display":"Denominator"}]},"count":1},{"code":{"coding":[{"system":"http://terminology.hl7.org/CodeSystem/measure-population","code":"denominator-exclusion","display":"Denominator Exclusion"}]},"count":1},{"code":{"coding":[{"system":"http://terminology.hl7.org/CodeSystem/measure-population","code":"numerator","display":"Numerator"}]},"count":0}]}]},"request":{"method":"PUT","url":"MeasureReport/bbc40e76-df02-446b-a7a6-fb1890911667"}}]}