{"resourceType":"Bundle","id":"tests-900f47c2-3615-4ffe-a9e0-3e7e70469ffb-bundle","type":"transaction","entry":[{"fullUrl":"https://madie.cms.gov/Patient/900f47c2-3615-4ffe-a9e0-3e7e70469ffb","resource":{"resourceType":"Patient","id":"900f47c2-3615-4ffe-a9e0-3e7e70469ffb","meta":{"profile":["http://hl7.org/fhir/us/qicore/StructureDefinition/qicore-patient"]},"text":{"status":"generated","div":"<div xmlns=\"http://www.w3.org/1999/xhtml\"><div class=\"hapiHeaderText\">CMPerf_DuringED_EDendsOnEncStartTime <b>DENEXPASS </b></div><table class=\"hapiPropertyTable\"><tbody><tr><td>Identifier</td><td>8bdaf10da95f851378bfb130016c2122</td></tr><tr><td>Date of birth</td><td><span>02 January 1974</span></td></tr></tbody></table></div>"},"extension":[{"url":"http://hl7.org/fhir/us/core/StructureDefinition/us-core-race","extension":[{"url":"ombCategory","valueCoding":{"system":"urn:oid:2.16.840.1.113883.6.238","code":"1002-5","display":"American Indian or Alaska Native","userSelected":true}},{"url":"text","valueString":"American Indian or Alaska Native"}]},{"url":"http://hl7.org/fhir/us/core/StructureDefinition/us-core-ethnicity","extension":[{"url":"ombCategory","valueCoding":{"system":"urn:oid:2.16.840.1.113883.6.238","code":"2135-2","display":"Hispanic or Latino","userSelected":true}},{"url":"text","valueString":"Hispanic or Latino"}]}],"identifier":[{"type":{"coding":[{"system":"http://terminology.hl7.org/CodeSystem/v2-0203","code":"MR"}]},"system":"https://bonnie-fhir.healthit.gov/","value":"612e6ac002c62a011f2eb21c"}],"active":true,"name":[{"use":"usual","family":"DENEXPass","given":["CMPerf_DuringED_EDendsOnEncStartTime"]}],"gender":"male","birthDate":"1974-01-02"},"request":{"method":"PUT","url":"Patient/900f47c2-3615-4ffe-a9e0-3e7e70469ffb"}},{"fullUrl":"https://madie.cms.gov/Encounter/5ca62960b8484628b8de1e64","resource":{"resourceType":"Encounter","id":"19635240-2a9e-42cf-8733-d8c6b51c1e74","meta":{"profile":["http://hl7.org/fhir/us/qicore/StructureDefinition/qicore-encounter"]},"status":"finished","class":{"system":"http://terminology.hl7.org/CodeSystem/v3-ActCode","code":"EMER","display":"emergency"},"type":[{"coding":[{"system":"http://snomed.info/sct","code":"4525004"}]}],"subject":{"reference":"Patient/900f47c2-3615-4ffe-a9e0-3e7e70469ffb"},"period":{"start":"2025-10-31T05:00:00+00:00","end":"2025-11-01T08:00:00+00:00"},"length":{"value":1.0,"unit":"days"}},"request":{"method":"PUT","url":"Encounter/19635240-2a9e-42cf-8733-d8c6b51c1e74"}},{"fullUrl":"https://madie.cms.gov/Encounter/5ca62960b8484628b8de1e65","resource":{"resourceType":"Encounter","id":"d60b652c-4b09-4639-849e-699e008f5918","meta":{"profile":["http://hl7.org/fhir/us/qicore/StructureDefinition/qicore-encounter"]},"status":"finished","class":{"system":"http://terminology.hl7.org/CodeSystem/v3-ActCode","code":"IMP","display":"inpatient encounter"},"type":[{"coding":[{"system":"http://snomed.info/sct","code":"8715000"}]}],"subject":{"reference":"Patient/900f47c2-3615-4ffe-a9e0-3e7e70469ffb"},"period":{"start":"2025-11-01T08:00:00+00:00","end":"2025-11-26T08:15:00+00:00"},"length":{"value":25.0,"unit":"days"}},"request":{"method":"PUT","url":"Encounter/d60b652c-4b09-4639-849e-699e008f5918"}},{"fullUrl":"https://madie.cms.gov/Procedure/5ca62960b8484628b8de1e66","resource":{"resourceType":"Procedure","id":"29e47dd1-6673-478b-82e8-d9485d709085","meta":{"profile":["http://hl7.org/fhir/us/qicore/StructureDefinition/qicore-procedure"]},"extension":[{"url":"http://hl7.org/fhir/us/qicore/StructureDefinition/qicore-recorded","valueDateTime":"2012-11-01T09:35:00-04:00"}],"status":"completed","code":{"coding":[{"system":"http://snomed.info/sct","code":"133918004"}]},"subject":{"reference":"Patient/900f47c2-3615-4ffe-a9e0-3e7e70469ffb"},"performedPeriod":{"start":"2025-10-31T07:00:00+00:00"}},"request":{"method":"PUT","url":"Procedure/29e47dd1-6673-478b-82e8-d9485d709085"}},{"fullUrl":"https://madie.cms.gov/Coverage/5fa041581c76ba66d9959271","resource":{"resourceType":"Coverage","id":"b6ed9678-4d75-47c3-a3fe-7398bdada2ad","status":"active","beneficiary":{"reference":"Patient/900f47c2-3615-4ffe-a9e0-3e7e70469ffb"},"period":{"start":"1974-01-02T08:00:00+00:00"},"payor":[{"reference":"Organization/aeb2c6be-6577-4bba-a6b6-6eab95111f1b"}]},"request":{"method":"PUT","url":"Coverage/b6ed9678-4d75-47c3-a3fe-7398bdada2ad"}},{"fullUrl":"https://madie.cms.gov/Organization/123456","resource":{"resourceType":"Organization","id":"aeb2c6be-6577-4bba-a6b6-6eab95111f1b","meta":{"profile":["http://hl7.org/fhir/us/qicore/StructureDefinition/qicore-organization"]},"identifier":[{"use":"temp","system":"urn:oid:2.16.840.1.113883.4.4","value":"21-3259825"}],"active":true,"type":[{"coding":[{"system":"http://terminology.hl7.org/CodeSystem/organization-type","code":"pay","display":"Payer"}]}],"name":"Blue Cross Blue Shield of Texas","telecom":[{"system":"phone","value":"(+1) 972-766-6900"}],"address":[{"use":"billing","type":"postal","line":["P.O. Box 660044"],"city":"Dallas","state":"TX","postalCode":"75266-0044","country":"USA"}]},"request":{"method":"PUT","url":"Organization/aeb2c6be-6577-4bba-a6b6-6eab95111f1b"}},{"fullUrl":"https://madie.cms.gov/Practitioner/practitioner-123456","resource":{"resourceType":"Practitioner","id":"99e4cf7e-1a19-4d2b-9357-7b90c725b221","identifier":[{"system":"http://hl7.org/fhir/sid/us-npi","value":"123456"}],"name":[{"family":"Evil","prefix":["Dr"]}]},"request":{"method":"PUT","url":"Practitioner/99e4cf7e-1a19-4d2b-9357-7b90c725b221"}},{"fullUrl":"https://madie.cms.gov/MeasureReport/8a3343f3-8176-4f95-afd8-e70ae1cfc20e","resource":{"resourceType":"MeasureReport","id":"8a3343f3-8176-4f95-afd8-e70ae1cfc20e","meta":{"profile":["http://hl7.org/fhir/us/cqfmeasures/StructureDefinition/test-case-cqfm"]},"contained":[{"resourceType":"Parameters","id":"a358fd16-9fe5-4699-938a-9cfa2ecd2bac-parameters","parameter":[{"name":"subject","valueString":"900f47c2-3615-4ffe-a9e0-3e7e70469ffb"}]}],"extension":[{"url":"http://hl7.org/fhir/us/cqfmeasures/StructureDefinition/cqfm-inputParameters","valueReference":{"reference":"#a358fd16-9fe5-4699-938a-9cfa2ecd2bac-parameters"}},{"url":"http://hl7.org/fhir/us/cqfmeasures/StructureDefinition/cqfm-testCaseDescription","valueMarkdown":"Comfort Measures Intervention Performed- during ED and ED end time is concurrent with EncInp start time.\n"}],"modifierExtension":[{"url":"http://hl7.org/fhir/us/cqfmeasures/StructureDefinition/cqfm-isTestCase","valueBoolean":true}],"status":"complete","type":"individual","measure":"https://madie.cms.gov/Measure/VenousThromboembolismProphylaxisFHIR","period":{"start":"2025-01-01","end":"2025-12-31"},"group":[{"population":[{"code":{"coding":[{"system":"http://terminology.hl7.org/CodeSystem/measure-population","code":"initial-population","display":"Initial Population"}]},"count":1},{"code":{"coding":[{"system":"http://terminology.hl7.org/CodeSystem/measure-population","code":"denominator","display":"Denominator"}]},"count":1},{"code":{"coding":[{"system":"http://terminology.hl7.org/CodeSystem/measure-population","code":"denominator-exclusion","display":"Denominator Exclusion"}]},"count":1},{"code":{"coding":[{"system":"http://terminology.hl7.org/CodeSystem/measure-population","code":"numerator","display":"Numerator"}]},"count":0}]}]},"request":{"method":"PUT","url":"MeasureReport/8a3343f3-8176-4f95-afd8-e70ae1cfc20e"}}]}