{"resourceType":"Bundle","id":"tests-610c90c9-f387-40f8-9bd7-710d20dfd6f0-bundle","type":"transaction","entry":[{"fullUrl":"https://madie.cms.gov/Patient/610c90c9-f387-40f8-9bd7-710d20dfd6f0","resource":{"resourceType":"Patient","id":"610c90c9-f387-40f8-9bd7-710d20dfd6f0","meta":{"profile":["http://hl7.org/fhir/us/qicore/StructureDefinition/qicore-patient"]},"text":{"status":"generated","div":"<div xmlns=\"http://www.w3.org/1999/xhtml\"><div class=\"hapiHeaderText\">MA_LMWH_DayOfAnes <b>NUMERPASS </b></div><table class=\"hapiPropertyTable\"><tbody><tr><td>Identifier</td><td>b927d5087a427d5964453696d616a163</td></tr><tr><td>Date of birth</td><td><span>02 January 1974</span></td></tr></tbody></table></div>"},"extension":[{"url":"http://hl7.org/fhir/us/core/StructureDefinition/us-core-race","extension":[{"url":"ombCategory","valueCoding":{"system":"urn:oid:2.16.840.1.113883.6.238","code":"1002-5","display":"American Indian or Alaska Native","userSelected":true}},{"url":"text","valueString":"American Indian or Alaska Native"}]},{"url":"http://hl7.org/fhir/us/core/StructureDefinition/us-core-ethnicity","extension":[{"url":"ombCategory","valueCoding":{"system":"urn:oid:2.16.840.1.113883.6.238","code":"2135-2","display":"Hispanic or Latino","userSelected":true}},{"url":"text","valueString":"Hispanic or Latino"}]}],"identifier":[{"type":{"coding":[{"system":"http://terminology.hl7.org/CodeSystem/v2-0203","code":"MR"}]},"system":"https://bonnie-fhir.healthit.gov/","value":"612e6a8f02c62a011f2ea597"}],"active":true,"name":[{"use":"usual","family":"NUMERPass","given":["MA_LMWH_DayOfAnes"]}],"gender":"male","birthDate":"1974-01-02"},"request":{"method":"PUT","url":"Patient/610c90c9-f387-40f8-9bd7-710d20dfd6f0"}},{"fullUrl":"https://madie.cms.gov/Encounter/5ca6295fb8484628b8de1dcc","resource":{"resourceType":"Encounter","id":"a1f3da05-b922-4f5b-bb87-f2483d4099c3","meta":{"profile":["http://hl7.org/fhir/us/qicore/StructureDefinition/qicore-encounter"]},"status":"finished","class":{"system":"http://terminology.hl7.org/CodeSystem/v3-ActCode","code":"IMP","display":"inpatient encounter"},"type":[{"coding":[{"system":"http://snomed.info/sct","code":"8715000"}]}],"subject":{"reference":"Patient/610c90c9-f387-40f8-9bd7-710d20dfd6f0"},"period":{"start":"2025-11-01T08:00:00+00:00","end":"2025-11-26T08:15:00+00:00"},"length":{"value":25.0,"unit":"days"}},"request":{"method":"PUT","url":"Encounter/a1f3da05-b922-4f5b-bb87-f2483d4099c3"}},{"fullUrl":"https://madie.cms.gov/Coverage/5fa041501c76ba66d99591ea","resource":{"resourceType":"Coverage","id":"a5c604b9-b865-4514-95b8-f8e94da521d7","status":"active","beneficiary":{"reference":"Patient/610c90c9-f387-40f8-9bd7-710d20dfd6f0"},"period":{"start":"1974-01-02T08:00:00+00:00"},"payor":[{"reference":"Organization/806b0255-13cb-4f2b-9412-571554dd2169"}]},"request":{"method":"PUT","url":"Coverage/a5c604b9-b865-4514-95b8-f8e94da521d7"}},{"fullUrl":"https://madie.cms.gov/MedicationAdministration/5ca6295fb8484628b8de1dcd","resource":{"resourceType":"MedicationAdministration","id":"0cd88efe-8164-4760-89b6-e8de5a222924","meta":{"profile":["http://hl7.org/fhir/us/qicore/StructureDefinition/qicore-medicationadministration"]},"status":"completed","medicationCodeableConcept":{"coding":[{"system":"http://www.nlm.nih.gov/research/umls/rxnorm","code":"854228"}]},"subject":{"reference":"Patient/610c90c9-f387-40f8-9bd7-710d20dfd6f0"},"effectivePeriod":{"start":"2025-11-01T10:00:00+00:00"}},"request":{"method":"PUT","url":"MedicationAdministration/0cd88efe-8164-4760-89b6-e8de5a222924"}},{"fullUrl":"https://madie.cms.gov/Procedure/5ca6295fb8484628b8de1dce","resource":{"resourceType":"Procedure","id":"8779b32b-f281-46d1-9544-e3b0a2ddf716","meta":{"profile":["http://hl7.org/fhir/us/qicore/StructureDefinition/qicore-procedure"]},"extension":[{"url":"http://hl7.org/fhir/us/qicore/StructureDefinition/qicore-recorded","valueDateTime":"2012-11-01T09:35:00-04:00"}],"status":"completed","code":{"coding":[{"system":"http://www.icd10data.com/icd10pcs","code":"3E030FZ"},{"system":"http://snomed.info/sct","code":"18946005"}]},"subject":{"reference":"Patient/610c90c9-f387-40f8-9bd7-710d20dfd6f0"},"performedPeriod":{"start":"2025-11-01T09:00:00+00:00","end":"2025-11-01T09:15:00+00:00"}},"request":{"method":"PUT","url":"Procedure/8779b32b-f281-46d1-9544-e3b0a2ddf716"}},{"fullUrl":"https://madie.cms.gov/Organization/123456","resource":{"resourceType":"Organization","id":"806b0255-13cb-4f2b-9412-571554dd2169","meta":{"profile":["http://hl7.org/fhir/us/qicore/StructureDefinition/qicore-organization"]},"identifier":[{"use":"temp","system":"urn:oid:2.16.840.1.113883.4.4","value":"21-3259825"}],"active":true,"type":[{"coding":[{"system":"http://terminology.hl7.org/CodeSystem/organization-type","code":"pay","display":"Payer"}]}],"name":"Blue Cross Blue Shield of Texas","telecom":[{"system":"phone","value":"(+1) 972-766-6900"}],"address":[{"use":"billing","type":"postal","line":["P.O. Box 660044"],"city":"Dallas","state":"TX","postalCode":"75266-0044","country":"USA"}]},"request":{"method":"PUT","url":"Organization/806b0255-13cb-4f2b-9412-571554dd2169"}},{"fullUrl":"https://madie.cms.gov/Practitioner/practitioner-123456","resource":{"resourceType":"Practitioner","id":"b8f6a34a-1064-45c1-b57e-2e5c1f9d1445","identifier":[{"system":"http://hl7.org/fhir/sid/us-npi","value":"123456"}],"name":[{"family":"Evil","prefix":["Dr"]}]},"request":{"method":"PUT","url":"Practitioner/b8f6a34a-1064-45c1-b57e-2e5c1f9d1445"}},{"fullUrl":"https://madie.cms.gov/MeasureReport/e96b5bd9-ed79-4b8e-aac4-51709395cc3e","resource":{"resourceType":"MeasureReport","id":"e96b5bd9-ed79-4b8e-aac4-51709395cc3e","meta":{"profile":["http://hl7.org/fhir/us/cqfmeasures/StructureDefinition/test-case-cqfm"]},"contained":[{"resourceType":"Parameters","id":"0e121d6d-ae67-473a-a9d9-4aec6d2ef877-parameters","parameter":[{"name":"subject","valueString":"610c90c9-f387-40f8-9bd7-710d20dfd6f0"}]}],"extension":[{"url":"http://hl7.org/fhir/us/cqfmeasures/StructureDefinition/cqfm-inputParameters","valueReference":{"reference":"#0e121d6d-ae67-473a-a9d9-4aec6d2ef877-parameters"}},{"url":"http://hl7.org/fhir/us/cqfmeasures/StructureDefinition/cqfm-testCaseDescription","valueMarkdown":"lmwh administered =0  day after end of anesthesia\n"}],"modifierExtension":[{"url":"http://hl7.org/fhir/us/cqfmeasures/StructureDefinition/cqfm-isTestCase","valueBoolean":true}],"status":"complete","type":"individual","measure":"https://madie.cms.gov/Measure/VenousThromboembolismProphylaxisFHIR","period":{"start":"2025-01-01","end":"2025-12-31"},"group":[{"population":[{"code":{"coding":[{"system":"http://terminology.hl7.org/CodeSystem/measure-population","code":"initial-population","display":"Initial Population"}]},"count":1},{"code":{"coding":[{"system":"http://terminology.hl7.org/CodeSystem/measure-population","code":"denominator","display":"Denominator"}]},"count":1},{"code":{"coding":[{"system":"http://terminology.hl7.org/CodeSystem/measure-population","code":"denominator-exclusion","display":"Denominator Exclusion"}]},"count":0},{"code":{"coding":[{"system":"http://terminology.hl7.org/CodeSystem/measure-population","code":"numerator","display":"Numerator"}]},"count":1}]}]},"request":{"method":"PUT","url":"MeasureReport/e96b5bd9-ed79-4b8e-aac4-51709395cc3e"}}]}