{"resourceType":"Bundle","id":"tests-cbd1de91-441a-4588-b000-2e589d099ab6-bundle","type":"transaction","entry":[{"fullUrl":"https://madie.cms.gov/Patient/cbd1de91-441a-4588-b000-2e589d099ab6","resource":{"resourceType":"Patient","id":"cbd1de91-441a-4588-b000-2e589d099ab6","meta":{"profile":["http://hl7.org/fhir/us/qicore/StructureDefinition/qicore-patient"]},"text":{"status":"generated","div":"<div xmlns=\"http://www.w3.org/1999/xhtml\"><div class=\"hapiHeaderText\">MA_OralXaHipOnEncStartTime <b>NUMERPASS </b></div><table class=\"hapiPropertyTable\"><tbody><tr><td>Date of birth</td><td><span>02 January 1974</span></td></tr></tbody></table></div>"},"extension":[{"url":"http://hl7.org/fhir/us/core/StructureDefinition/us-core-race","extension":[{"url":"ombCategory","valueCoding":{"system":"urn:oid:2.16.840.1.113883.6.238","code":"1002-5","display":"American Indian or Alaska Native","userSelected":true}},{"url":"text","valueString":"American Indian or Alaska Native"}]},{"url":"http://hl7.org/fhir/us/core/StructureDefinition/us-core-ethnicity","extension":[{"url":"ombCategory","valueCoding":{"system":"urn:oid:2.16.840.1.113883.6.238","code":"2135-2","display":"Hispanic or Latino","userSelected":true}},{"url":"text","valueString":"Hispanic or Latino"}]}],"identifier":[{"type":{"coding":[{"system":"http://terminology.hl7.org/CodeSystem/v2-0203","code":"MR"}]},"system":"https://bonnie-fhir.healthit.gov/","value":"612e6af902c62a011f2ebf85"}],"active":true,"name":[{"use":"usual","family":"NUMERPass","given":["MA_OralXaHipOnEncStartTime"]}],"gender":"female","birthDate":"1974-01-02"},"request":{"method":"PUT","url":"Patient/cbd1de91-441a-4588-b000-2e589d099ab6"}},{"fullUrl":"https://madie.cms.gov/Encounter/5dbe0ec236c3c80000887248","resource":{"resourceType":"Encounter","id":"f8c89ee9-cb8e-476c-a4d5-96f909cf2d14","meta":{"profile":["http://hl7.org/fhir/us/qicore/StructureDefinition/qicore-encounter"]},"status":"finished","class":{"system":"http://terminology.hl7.org/CodeSystem/v3-ActCode","code":"IMP","display":"inpatient encounter"},"type":[{"coding":[{"system":"http://snomed.info/sct","code":"183452005"}]}],"subject":{"reference":"Patient/cbd1de91-441a-4588-b000-2e589d099ab6"},"period":{"start":"2025-11-01T08:00:00+00:00","end":"2025-11-26T08:15:00+00:00"},"length":{"value":25.0,"unit":"day"}},"request":{"method":"PUT","url":"Encounter/f8c89ee9-cb8e-476c-a4d5-96f909cf2d14"}},{"fullUrl":"https://madie.cms.gov/Coverage/5fa041651c76ba66d995935e","resource":{"resourceType":"Coverage","id":"416cdc13-877c-4e75-a36f-d4ede200a167","status":"active","beneficiary":{"reference":"Patient/cbd1de91-441a-4588-b000-2e589d099ab6"},"period":{"start":"1974-01-02T08:00:00+00:00"},"payor":[{"reference":"Organization/a6c3e6fa-301e-4714-9d04-3dde9a7e7c49"}]},"request":{"method":"PUT","url":"Coverage/416cdc13-877c-4e75-a36f-d4ede200a167"}},{"fullUrl":"https://madie.cms.gov/MedicationAdministration/5dbe0f2536c3c80000887277","resource":{"resourceType":"MedicationAdministration","id":"480269a4-d45e-49ba-82e4-d25890f04be9","meta":{"profile":["http://hl7.org/fhir/us/qicore/StructureDefinition/qicore-medicationadministration"]},"status":"completed","medicationCodeableConcept":{"coding":[{"system":"http://www.nlm.nih.gov/research/umls/rxnorm","code":"1599543"}]},"subject":{"reference":"Patient/cbd1de91-441a-4588-b000-2e589d099ab6"},"effectivePeriod":{"start":"2025-11-01T08:00:00+00:00"}},"request":{"method":"PUT","url":"MedicationAdministration/480269a4-d45e-49ba-82e4-d25890f04be9"}},{"fullUrl":"https://madie.cms.gov/Procedure/5dbe137736c3c800008875df","resource":{"resourceType":"Procedure","id":"cd114567-99dd-4dfc-92ee-57a34b1706e8","meta":{"profile":["http://hl7.org/fhir/us/qicore/StructureDefinition/qicore-procedure"]},"extension":[{"url":"http://hl7.org/fhir/us/qicore/StructureDefinition/qicore-recorded","valueDateTime":"2012-11-01T09:35:00-04:00"}],"status":"completed","code":{"coding":[{"system":"http://snomed.info/sct","code":"68491008"}]},"subject":{"reference":"Patient/cbd1de91-441a-4588-b000-2e589d099ab6"},"performedPeriod":{"start":"2025-11-01T08:00:00+00:00","end":"2025-11-01T10:15:00+00:00"}},"request":{"method":"PUT","url":"Procedure/cd114567-99dd-4dfc-92ee-57a34b1706e8"}},{"fullUrl":"https://madie.cms.gov/Organization/123456","resource":{"resourceType":"Organization","id":"a6c3e6fa-301e-4714-9d04-3dde9a7e7c49","meta":{"profile":["http://hl7.org/fhir/us/qicore/StructureDefinition/qicore-organization"]},"identifier":[{"use":"temp","system":"urn:oid:2.16.840.1.113883.4.4","value":"21-3259825"}],"active":true,"type":[{"coding":[{"system":"http://terminology.hl7.org/CodeSystem/organization-type","code":"pay","display":"Payer"}]}],"name":"Blue Cross Blue Shield of Texas","telecom":[{"system":"phone","value":"(+1) 972-766-6900"}],"address":[{"use":"billing","type":"postal","line":["P.O. Box 660044"],"city":"Dallas","state":"TX","postalCode":"75266-0044","country":"USA"}]},"request":{"method":"PUT","url":"Organization/a6c3e6fa-301e-4714-9d04-3dde9a7e7c49"}},{"fullUrl":"https://madie.cms.gov/Practitioner/practitioner-123456","resource":{"resourceType":"Practitioner","id":"0dff7b5d-abcd-4767-b64e-ae3445ea1f26","identifier":[{"system":"http://hl7.org/fhir/sid/us-npi","value":"123456"}],"name":[{"family":"Evil","prefix":["Dr"]}]},"request":{"method":"PUT","url":"Practitioner/0dff7b5d-abcd-4767-b64e-ae3445ea1f26"}},{"fullUrl":"https://madie.cms.gov/MeasureReport/b9dd5b44-9350-4e76-a3c0-70b34d1d565a","resource":{"resourceType":"MeasureReport","id":"b9dd5b44-9350-4e76-a3c0-70b34d1d565a","meta":{"profile":["http://hl7.org/fhir/us/cqfmeasures/StructureDefinition/test-case-cqfm"]},"contained":[{"resourceType":"Parameters","id":"595349c2-ff3e-4374-acad-71df6962046e-parameters","parameter":[{"name":"subject","valueString":"cbd1de91-441a-4588-b000-2e589d099ab6"}]}],"extension":[{"url":"http://hl7.org/fhir/us/cqfmeasures/StructureDefinition/cqfm-inputParameters","valueReference":{"reference":"#595349c2-ff3e-4374-acad-71df6962046e-parameters"}},{"url":"http://hl7.org/fhir/us/cqfmeasures/StructureDefinition/cqfm-testCaseDescription","valueMarkdown":"oral factor Xa administered concurrent with start of IP encounter, Hip replacement concurrent with Start of IP encounter\n"}],"modifierExtension":[{"url":"http://hl7.org/fhir/us/cqfmeasures/StructureDefinition/cqfm-isTestCase","valueBoolean":true}],"status":"complete","type":"individual","measure":"https://madie.cms.gov/Measure/VenousThromboembolismProphylaxisFHIR","period":{"start":"2025-01-01","end":"2025-12-31"},"group":[{"population":[{"code":{"coding":[{"system":"http://terminology.hl7.org/CodeSystem/measure-population","code":"initial-population","display":"Initial Population"}]},"count":1},{"code":{"coding":[{"system":"http://terminology.hl7.org/CodeSystem/measure-population","code":"denominator","display":"Denominator"}]},"count":1},{"code":{"coding":[{"system":"http://terminology.hl7.org/CodeSystem/measure-population","code":"denominator-exclusion","display":"Denominator Exclusion"}]},"count":0},{"code":{"coding":[{"system":"http://terminology.hl7.org/CodeSystem/measure-population","code":"numerator","display":"Numerator"}]},"count":1}]}]},"request":{"method":"PUT","url":"MeasureReport/b9dd5b44-9350-4e76-a3c0-70b34d1d565a"}}]}