{"resourceType":"Bundle","id":"tests-ea49dc35-7378-4436-aa37-53ec9f13b05d-bundle","type":"transaction","entry":[{"fullUrl":"https://madie.cms.gov/Patient/ea49dc35-7378-4436-aa37-53ec9f13b05d","resource":{"resourceType":"Patient","id":"ea49dc35-7378-4436-aa37-53ec9f13b05d","meta":{"profile":["http://hl7.org/fhir/us/qicore/StructureDefinition/qicore-patient"]},"text":{"status":"generated","div":"<div xmlns=\"http://www.w3.org/1999/xhtml\"><div class=\"hapiHeaderText\">TestMultipleOccur_2inNum <b>NUMERPASS </b></div><table class=\"hapiPropertyTable\"><tbody><tr><td>Identifier</td><td>a426534591df58c75882b8cd079c574a27466a15aa34f3b521510f2fa1bc133b</td></tr><tr><td>Date of birth</td><td><span>02 January 1974</span></td></tr></tbody></table></div>"},"extension":[{"url":"http://hl7.org/fhir/us/core/StructureDefinition/us-core-race","extension":[{"url":"ombCategory","valueCoding":{"system":"urn:oid:2.16.840.1.113883.6.238","code":"1002-5","display":"American Indian or Alaska Native","userSelected":true}},{"url":"text","valueString":"American Indian or Alaska Native"}]},{"url":"http://hl7.org/fhir/us/core/StructureDefinition/us-core-ethnicity","extension":[{"url":"ombCategory","valueCoding":{"system":"urn:oid:2.16.840.1.113883.6.238","code":"2135-2","display":"Hispanic or Latino","userSelected":true}},{"url":"text","valueString":"Hispanic or Latino"}]}],"identifier":[{"type":{"coding":[{"system":"http://terminology.hl7.org/CodeSystem/v2-0203","code":"MR"}]},"system":"https://bonnie-fhir.healthit.gov/","value":"612e6aec02c62a011f2ebc65"}],"active":true,"name":[{"use":"usual","family":"NUMERPass","given":["TestMultipleOccur_2inNum"]}],"gender":"male","birthDate":"1974-01-02"},"request":{"method":"PUT","url":"Patient/ea49dc35-7378-4436-aa37-53ec9f13b05d"}},{"fullUrl":"https://madie.cms.gov/Encounter/5ca62965b8484628b8de1fd1","resource":{"resourceType":"Encounter","id":"d6ea25e1-fb1c-4585-a601-1fe4a6312cfb","meta":{"profile":["http://hl7.org/fhir/us/qicore/StructureDefinition/qicore-encounter"]},"status":"finished","class":{"system":"http://terminology.hl7.org/CodeSystem/v3-ActCode","code":"IMP","display":"inpatient encounter"},"type":[{"coding":[{"system":"http://snomed.info/sct","code":"183452005"}]}],"subject":{"reference":"Patient/ea49dc35-7378-4436-aa37-53ec9f13b05d"},"period":{"start":"2025-04-01T08:00:00+00:00","end":"2025-04-05T08:15:00+00:00"},"length":{"value":4.0,"unit":"days"}},"request":{"method":"PUT","url":"Encounter/d6ea25e1-fb1c-4585-a601-1fe4a6312cfb"}},{"fullUrl":"https://madie.cms.gov/Encounter/5ca62965b8484628b8de1fd2","resource":{"resourceType":"Encounter","id":"b461746e-2c8e-4368-b8a9-f48d5cd84722","meta":{"profile":["http://hl7.org/fhir/us/qicore/StructureDefinition/qicore-encounter"]},"status":"finished","class":{"system":"http://terminology.hl7.org/CodeSystem/v3-ActCode","code":"IMP","display":"inpatient encounter"},"type":[{"coding":[{"system":"http://snomed.info/sct","code":"8715000"}]}],"subject":{"reference":"Patient/ea49dc35-7378-4436-aa37-53ec9f13b05d"},"period":{"start":"2025-11-01T08:00:00+00:00","end":"2025-11-26T08:15:00+00:00"},"length":{"value":25.0,"unit":"days"}},"request":{"method":"PUT","url":"Encounter/b461746e-2c8e-4368-b8a9-f48d5cd84722"}},{"fullUrl":"https://madie.cms.gov/Coverage/5fa041631c76ba66d995933d","resource":{"resourceType":"Coverage","id":"09979548-c874-4a94-9be3-97a5bbc46fc1","status":"active","beneficiary":{"reference":"Patient/ea49dc35-7378-4436-aa37-53ec9f13b05d"},"period":{"start":"1974-01-02T08:00:00+00:00"},"payor":[{"reference":"Organization/77e4d06f-5e3c-436a-a598-80cefcca5028"}]},"request":{"method":"PUT","url":"Coverage/09979548-c874-4a94-9be3-97a5bbc46fc1"}},{"fullUrl":"https://madie.cms.gov/MedicationAdministration/5ca62965b8484628b8de1fd4","resource":{"resourceType":"MedicationAdministration","id":"a6472a69-c9d4-45e6-8232-7c0823f0bfc4","meta":{"profile":["http://hl7.org/fhir/us/qicore/StructureDefinition/qicore-medicationadministration"]},"status":"completed","medicationCodeableConcept":{"coding":[{"system":"http://www.nlm.nih.gov/research/umls/rxnorm","code":"200349"}]},"subject":{"reference":"Patient/ea49dc35-7378-4436-aa37-53ec9f13b05d"},"effectivePeriod":{"start":"2025-11-01T07:00:00+00:00"}},"request":{"method":"PUT","url":"MedicationAdministration/a6472a69-c9d4-45e6-8232-7c0823f0bfc4"}},{"fullUrl":"https://madie.cms.gov/Procedure/device-application-2505","resource":{"resourceType":"Procedure","id":"02f559f8-2ee1-481d-bd87-5c3d33ad12ad","meta":{"profile":["http://hl7.org/fhir/us/qicore/StructureDefinition/qicore-procedure"]},"extension":[{"url":"http://hl7.org/fhir/us/qicore/StructureDefinition/qicore-recorded","valueDateTime":"2012-11-01T09:35:00-04:00"}],"status":"completed","code":{"coding":[{"system":"http://snomed.info/sct","code":"442410008","display":"Application of venous foot pump (procedure)"}]},"subject":{"reference":"Patient/ea49dc35-7378-4436-aa37-53ec9f13b05d"},"performedPeriod":{"start":"2025-04-01T08:00:00.000+00:00","end":"2025-04-01T08:15:00.000+00:00"}},"request":{"method":"PUT","url":"Procedure/02f559f8-2ee1-481d-bd87-5c3d33ad12ad"}},{"fullUrl":"https://madie.cms.gov/Organization/123456","resource":{"resourceType":"Organization","id":"77e4d06f-5e3c-436a-a598-80cefcca5028","meta":{"profile":["http://hl7.org/fhir/us/qicore/StructureDefinition/qicore-organization"]},"identifier":[{"use":"temp","system":"urn:oid:2.16.840.1.113883.4.4","value":"21-3259825"}],"active":true,"type":[{"coding":[{"system":"http://terminology.hl7.org/CodeSystem/organization-type","code":"pay","display":"Payer"}]}],"name":"Blue Cross Blue Shield of Texas","telecom":[{"system":"phone","value":"(+1) 972-766-6900"}],"address":[{"use":"billing","type":"postal","line":["P.O. Box 660044"],"city":"Dallas","state":"TX","postalCode":"75266-0044","country":"USA"}]},"request":{"method":"PUT","url":"Organization/77e4d06f-5e3c-436a-a598-80cefcca5028"}},{"fullUrl":"https://madie.cms.gov/Practitioner/practitioner-123456","resource":{"resourceType":"Practitioner","id":"3f384a4d-d50d-4854-9e0c-1bc70f05090c","identifier":[{"system":"http://hl7.org/fhir/sid/us-npi","value":"123456"}],"name":[{"family":"Evil","prefix":["Dr"]}]},"request":{"method":"PUT","url":"Practitioner/3f384a4d-d50d-4854-9e0c-1bc70f05090c"}},{"fullUrl":"https://madie.cms.gov/MeasureReport/3271ee54-4f94-4c8f-aabb-3f187c0550eb","resource":{"resourceType":"MeasureReport","id":"3271ee54-4f94-4c8f-aabb-3f187c0550eb","meta":{"profile":["http://hl7.org/fhir/us/cqfmeasures/StructureDefinition/test-case-cqfm"]},"contained":[{"resourceType":"Parameters","id":"1785dc5a-dc52-4461-abd0-ae8d98159ea7-parameters","parameter":[{"name":"subject","valueString":"ea49dc35-7378-4436-aa37-53ec9f13b05d"}]}],"extension":[{"url":"http://hl7.org/fhir/us/cqfmeasures/StructureDefinition/cqfm-inputParameters","valueReference":{"reference":"#1785dc5a-dc52-4461-abd0-ae8d98159ea7-parameters"}},{"url":"http://hl7.org/fhir/us/cqfmeasures/StructureDefinition/cqfm-testCaseDescription","valueMarkdown":"TestMultipleOccur - 2 occurrences both pass NUMERATOR - even 2nd one Medication: Administered: Glycoprotein IIb/IIIa Inhibitors was prior to Adm but it still passes due to on the day of adm\n"}],"modifierExtension":[{"url":"http://hl7.org/fhir/us/cqfmeasures/StructureDefinition/cqfm-isTestCase","valueBoolean":true}],"status":"complete","type":"individual","measure":"https://madie.cms.gov/Measure/VenousThromboembolismProphylaxisFHIR","period":{"start":"2025-01-01","end":"2025-12-31"},"group":[{"population":[{"code":{"coding":[{"system":"http://terminology.hl7.org/CodeSystem/measure-population","code":"initial-population","display":"Initial Population"}]},"count":2},{"code":{"coding":[{"system":"http://terminology.hl7.org/CodeSystem/measure-population","code":"denominator","display":"Denominator"}]},"count":2},{"code":{"coding":[{"system":"http://terminology.hl7.org/CodeSystem/measure-population","code":"denominator-exclusion","display":"Denominator Exclusion"}]},"count":0},{"code":{"coding":[{"system":"http://terminology.hl7.org/CodeSystem/measure-population","code":"numerator","display":"Numerator"}]},"count":2}]}]},"request":{"method":"PUT","url":"MeasureReport/3271ee54-4f94-4c8f-aabb-3f187c0550eb"}}]}