{"resourceType":"Bundle","id":"tests-c2dfc5ca-96db-4ae2-bbe1-7bfed219cb72-bundle","type":"transaction","entry":[{"fullUrl":"https://madie.cms.gov/Patient/c2dfc5ca-96db-4ae2-bbe1-7bfed219cb72","resource":{"resourceType":"Patient","id":"c2dfc5ca-96db-4ae2-bbe1-7bfed219cb72","meta":{"profile":["http://hl7.org/fhir/us/qicore/StructureDefinition/qicore-patient"]},"text":{"status":"generated","div":"<div xmlns=\"http://www.w3.org/1999/xhtml\"><div class=\"hapiHeaderText\">ProphylaxisDuringFirstED1DayBFAdm <b>NUMERFAIL </b></div><table class=\"hapiPropertyTable\"><tbody><tr><td>Identifier</td><td>4a3cf6afd879a8f9468f9b4b43b7b032</td></tr><tr><td>Date of birth</td><td><span>02 September 2003</span></td></tr></tbody></table></div>"},"extension":[{"url":"http://hl7.org/fhir/us/core/StructureDefinition/us-core-race","extension":[{"url":"ombCategory","valueCoding":{"system":"urn:oid:2.16.840.1.113883.6.238","code":"1002-5","display":"American Indian or Alaska Native","userSelected":true}},{"url":"text","valueString":"American Indian or Alaska Native"}]},{"url":"http://hl7.org/fhir/us/core/StructureDefinition/us-core-ethnicity","extension":[{"url":"ombCategory","valueCoding":{"system":"urn:oid:2.16.840.1.113883.6.238","code":"2135-2","display":"Hispanic or Latino","userSelected":true}},{"url":"text","valueString":"Hispanic or Latino"}]}],"identifier":[{"type":{"coding":[{"system":"http://terminology.hl7.org/CodeSystem/v2-0203","code":"MR"}]},"system":"https://bonnie-fhir.healthit.gov/","value":"612e6b1a02c62a011f2ec76c"}],"active":true,"name":[{"use":"usual","family":"NUMERFail","given":["ProphylaxisDuringFirstED1DayBFAdm"]}],"gender":"male","birthDate":"2003-09-02"},"request":{"method":"PUT","url":"Patient/c2dfc5ca-96db-4ae2-bbe1-7bfed219cb72"}},{"fullUrl":"https://madie.cms.gov/Encounter/5ca62962b8484628b8de1eb6","resource":{"resourceType":"Encounter","id":"eb2b8254-da7d-425d-bf15-5ffe5f7be101","meta":{"profile":["http://hl7.org/fhir/us/qicore/StructureDefinition/qicore-encounter"]},"status":"finished","class":{"system":"http://terminology.hl7.org/CodeSystem/v3-ActCode","code":"IMP","display":"inpatient encounter"},"type":[{"coding":[{"system":"http://snomed.info/sct","code":"183452005"}]}],"subject":{"reference":"Patient/c2dfc5ca-96db-4ae2-bbe1-7bfed219cb72"},"period":{"start":"2025-09-03T09:40:00+00:00","end":"2025-10-01T12:59:00+00:00"}},"request":{"method":"PUT","url":"Encounter/eb2b8254-da7d-425d-bf15-5ffe5f7be101"}},{"fullUrl":"https://madie.cms.gov/Encounter/5e28ac849261550000089ca9","resource":{"resourceType":"Encounter","id":"dc01df40-f4f4-42b2-a4ba-1524520128f5","meta":{"profile":["http://hl7.org/fhir/us/qicore/StructureDefinition/qicore-encounter"]},"status":"finished","class":{"system":"http://terminology.hl7.org/CodeSystem/v3-ActCode","code":"EMER","display":"emergency"},"type":[{"coding":[{"system":"http://snomed.info/sct","code":"4525004"}]}],"subject":{"reference":"Patient/c2dfc5ca-96db-4ae2-bbe1-7bfed219cb72"},"period":{"start":"2025-09-01T08:00:00+00:00","end":"2025-09-01T09:00:00+00:00"}},"request":{"method":"PUT","url":"Encounter/dc01df40-f4f4-42b2-a4ba-1524520128f5"}},{"fullUrl":"https://madie.cms.gov/Encounter/5e28acf69261550000089d17","resource":{"resourceType":"Encounter","id":"68b3b6c1-7cba-40ef-9e69-3ffaa6f9794f","meta":{"profile":["http://hl7.org/fhir/us/qicore/StructureDefinition/qicore-encounter"]},"status":"finished","class":{"system":"http://terminology.hl7.org/CodeSystem/v3-ActCode","code":"OBSENC","display":"observation encounter"},"type":[{"coding":[{"system":"http://snomed.info/sct","code":"448851000124103"}]}],"subject":{"reference":"Patient/c2dfc5ca-96db-4ae2-bbe1-7bfed219cb72"},"period":{"start":"2025-09-01T09:45:00+00:00","end":"2025-09-02T09:00:00+00:00"}},"request":{"method":"PUT","url":"Encounter/68b3b6c1-7cba-40ef-9e69-3ffaa6f9794f"}},{"fullUrl":"https://madie.cms.gov/Encounter/5e28afcb9261550000089da6","resource":{"resourceType":"Encounter","id":"d9b3c9cf-56b0-47a5-9175-61ef513fabd7","meta":{"profile":["http://hl7.org/fhir/us/qicore/StructureDefinition/qicore-encounter"]},"status":"finished","class":{"system":"http://terminology.hl7.org/CodeSystem/v3-ActCode","code":"EMER","display":"emergency"},"type":[{"coding":[{"system":"http://snomed.info/sct","code":"4525004"}]}],"subject":{"reference":"Patient/c2dfc5ca-96db-4ae2-bbe1-7bfed219cb72"},"period":{"start":"2025-09-02T09:15:00+00:00","end":"2025-09-02T09:45:00+00:00"}},"request":{"method":"PUT","url":"Encounter/d9b3c9cf-56b0-47a5-9175-61ef513fabd7"}},{"fullUrl":"https://madie.cms.gov/Coverage/5fa041691c76ba66d99593a9","resource":{"resourceType":"Coverage","id":"8cb552f0-0e06-49ac-ba30-2ccaa5f8284e","status":"active","beneficiary":{"reference":"Patient/c2dfc5ca-96db-4ae2-bbe1-7bfed219cb72"},"period":{"start":"2003-09-02T09:00:00+00:00"},"payor":[{"reference":"Organization/4da248b0-6e59-49b7-b80e-338aa21d299f"}]},"request":{"method":"PUT","url":"Coverage/8cb552f0-0e06-49ac-ba30-2ccaa5f8284e"}},{"fullUrl":"https://madie.cms.gov/MedicationAdministration/5e28af669261550000089d50","resource":{"resourceType":"MedicationAdministration","id":"272f4a1b-069d-46f3-8269-a8f37b2d8b6a","meta":{"profile":["http://hl7.org/fhir/us/qicore/StructureDefinition/qicore-medicationadministration"]},"status":"completed","medicationCodeableConcept":{"coding":[{"system":"http://www.nlm.nih.gov/research/umls/rxnorm","code":"861356"}]},"subject":{"reference":"Patient/c2dfc5ca-96db-4ae2-bbe1-7bfed219cb72"},"effectivePeriod":{"start":"2025-09-02T08:15:00+00:00","end":"2025-09-02T08:30:00+00:00"}},"request":{"method":"PUT","url":"MedicationAdministration/272f4a1b-069d-46f3-8269-a8f37b2d8b6a"}},{"fullUrl":"https://madie.cms.gov/Organization/123456","resource":{"resourceType":"Organization","id":"4da248b0-6e59-49b7-b80e-338aa21d299f","meta":{"profile":["http://hl7.org/fhir/us/qicore/StructureDefinition/qicore-organization"]},"identifier":[{"use":"temp","system":"urn:oid:2.16.840.1.113883.4.4","value":"21-3259825"}],"active":true,"type":[{"coding":[{"system":"http://terminology.hl7.org/CodeSystem/organization-type","code":"pay","display":"Payer"}]}],"name":"Blue Cross Blue Shield of Texas","telecom":[{"system":"phone","value":"(+1) 972-766-6900"}],"address":[{"use":"billing","type":"postal","line":["P.O. Box 660044"],"city":"Dallas","state":"TX","postalCode":"75266-0044","country":"USA"}]},"request":{"method":"PUT","url":"Organization/4da248b0-6e59-49b7-b80e-338aa21d299f"}},{"fullUrl":"https://madie.cms.gov/Practitioner/practitioner-123456","resource":{"resourceType":"Practitioner","id":"d39007dd-c600-4090-bffa-e3bcbb299c76","identifier":[{"system":"http://hl7.org/fhir/sid/us-npi","value":"123456"}],"name":[{"family":"Evil","prefix":["Dr"]}]},"request":{"method":"PUT","url":"Practitioner/d39007dd-c600-4090-bffa-e3bcbb299c76"}},{"fullUrl":"https://madie.cms.gov/MeasureReport/f4ca94ad-08cb-4d64-9cf7-c5f1fa6c4c56","resource":{"resourceType":"MeasureReport","id":"f4ca94ad-08cb-4d64-9cf7-c5f1fa6c4c56","meta":{"profile":["http://hl7.org/fhir/us/cqfmeasures/StructureDefinition/test-case-cqfm"]},"contained":[{"resourceType":"Parameters","id":"02839572-42c4-46ba-981f-fd745c283006-parameters","parameter":[{"name":"subject","valueString":"c2dfc5ca-96db-4ae2-bbe1-7bfed219cb72"}]}],"extension":[{"url":"http://hl7.org/fhir/us/cqfmeasures/StructureDefinition/cqfm-inputParameters","valueReference":{"reference":"#02839572-42c4-46ba-981f-fd745c283006-parameters"}},{"url":"http://hl7.org/fhir/us/cqfmeasures/StructureDefinition/cqfm-testCaseDescription","valueMarkdown":"ED/outpatient @ 9/1 @8:00 - 9:00 am; feeling sick returned to ED @ 9:15 -9:45 am; admit for observ 9/3  @9:45 -  9/3 @ 9:00 am; then admitted to inpatient on 9/3 @ 9:40. prophylaxis given during the FIRST ED on 1 day bF  2nd ED. SO Fail\n"}],"modifierExtension":[{"url":"http://hl7.org/fhir/us/cqfmeasures/StructureDefinition/cqfm-isTestCase","valueBoolean":true}],"status":"complete","type":"individual","measure":"https://madie.cms.gov/Measure/VenousThromboembolismProphylaxisFHIR","period":{"start":"2025-01-01","end":"2025-12-31"},"group":[{"population":[{"code":{"coding":[{"system":"http://terminology.hl7.org/CodeSystem/measure-population","code":"initial-population","display":"Initial Population"}]},"count":1},{"code":{"coding":[{"system":"http://terminology.hl7.org/CodeSystem/measure-population","code":"denominator","display":"Denominator"}]},"count":1},{"code":{"coding":[{"system":"http://terminology.hl7.org/CodeSystem/measure-population","code":"denominator-exclusion","display":"Denominator Exclusion"}]},"count":0},{"code":{"coding":[{"system":"http://terminology.hl7.org/CodeSystem/measure-population","code":"numerator","display":"Numerator"}]},"count":0}]}]},"request":{"method":"PUT","url":"MeasureReport/f4ca94ad-08cb-4d64-9cf7-c5f1fa6c4c56"}}]}