{"resourceType":"Bundle","id":"tests-2de13e4e-32bf-4b79-8750-9e0820d2eb4d-bundle","type":"transaction","entry":[{"fullUrl":"https://madie.cms.gov/Patient/2de13e4e-32bf-4b79-8750-9e0820d2eb4d","resource":{"resourceType":"Patient","id":"2de13e4e-32bf-4b79-8750-9e0820d2eb4d","meta":{"profile":["http://hl7.org/fhir/us/qicore/StructureDefinition/qicore-patient"]},"text":{"status":"generated","div":"<div xmlns=\"http://www.w3.org/1999/xhtml\"><div class=\"hapiHeaderText\">PtRef_MA_LMWH_OBS <b>NUMERPASS </b></div><table class=\"hapiPropertyTable\"><tbody><tr><td>Identifier</td><td>3dc4a512478cd906257a70aca14edeef</td></tr><tr><td>Date of birth</td><td><span>02 January 1974</span></td></tr></tbody></table></div>"},"extension":[{"url":"http://hl7.org/fhir/us/core/StructureDefinition/us-core-race","extension":[{"url":"ombCategory","valueCoding":{"system":"urn:oid:2.16.840.1.113883.6.238","code":"1002-5","display":"American Indian or Alaska Native","userSelected":true}},{"url":"text","valueString":"American Indian or Alaska Native"}]},{"url":"http://hl7.org/fhir/us/core/StructureDefinition/us-core-ethnicity","extension":[{"url":"ombCategory","valueCoding":{"system":"urn:oid:2.16.840.1.113883.6.238","code":"2135-2","display":"Hispanic or Latino","userSelected":true}},{"url":"text","valueString":"Hispanic or Latino"}]}],"identifier":[{"type":{"coding":[{"system":"http://terminology.hl7.org/CodeSystem/v2-0203","code":"MR"}]},"system":"https://bonnie-fhir.healthit.gov/","value":"612e6aaf02c62a011f2eaee7"}],"active":true,"name":[{"use":"usual","family":"NUMERPass","given":["PtRef_MA_LMWH_OBS"]}],"gender":"male","birthDate":"1974-01-02"},"request":{"method":"PUT","url":"Patient/2de13e4e-32bf-4b79-8750-9e0820d2eb4d"}},{"fullUrl":"https://madie.cms.gov/Encounter/5ca62960b8484628b8de1e40","resource":{"resourceType":"Encounter","id":"89e5c43a-bc12-43fc-8a31-7acc902bbac5","meta":{"profile":["http://hl7.org/fhir/us/qicore/StructureDefinition/qicore-encounter"]},"status":"finished","class":{"system":"http://terminology.hl7.org/CodeSystem/v3-ActCode","code":"OBSENC","display":"observation encounter"},"type":[{"coding":[{"system":"http://snomed.info/sct","code":"448951000124107"}]}],"subject":{"reference":"Patient/2de13e4e-32bf-4b79-8750-9e0820d2eb4d"},"period":{"start":"2025-10-31T05:00:00+00:00","end":"2025-11-01T07:15:00+00:00"},"length":{"value":1,"unit":"days"}},"request":{"method":"PUT","url":"Encounter/89e5c43a-bc12-43fc-8a31-7acc902bbac5"}},{"fullUrl":"https://madie.cms.gov/Encounter/5ca62960b8484628b8de1e41","resource":{"resourceType":"Encounter","id":"a7ed1f11-7bf7-4475-b5a6-95cc783e4fc8","meta":{"profile":["http://hl7.org/fhir/us/qicore/StructureDefinition/qicore-encounter"]},"status":"finished","class":{"system":"http://terminology.hl7.org/CodeSystem/v3-ActCode","code":"IMP","display":"inpatient encounter"},"type":[{"coding":[{"system":"http://snomed.info/sct","code":"8715000"}]}],"subject":{"reference":"Patient/2de13e4e-32bf-4b79-8750-9e0820d2eb4d"},"period":{"start":"2025-11-01T08:00:00+00:00","end":"2025-11-26T08:15:00+00:00"},"length":{"value":25,"unit":"days"}},"request":{"method":"PUT","url":"Encounter/a7ed1f11-7bf7-4475-b5a6-95cc783e4fc8"}},{"fullUrl":"https://madie.cms.gov/Coverage/5fa041561c76ba66d995924d","resource":{"resourceType":"Coverage","id":"d9ec449c-024b-4d6f-8557-d51408dbe14f","status":"active","beneficiary":{"reference":"Patient/2de13e4e-32bf-4b79-8750-9e0820d2eb4d"},"period":{"start":"1974-01-02T08:00:00+00:00"},"payor":[{"reference":"Organization/f4907415-83c5-4eae-ab0b-cb63a840880d"}]},"request":{"method":"PUT","url":"Coverage/d9ec449c-024b-4d6f-8557-d51408dbe14f"}},{"fullUrl":"https://madie.cms.gov/MedicationAdministration/5ca62960b8484628b8de1e42","resource":{"resourceType":"MedicationAdministration","id":"6ec4dfcd-b818-4217-a551-7309e3b6322c","meta":{"profile":["http://hl7.org/fhir/us/qicore/StructureDefinition/qicore-mednotadministered"]},"extension":[{"url":"http://hl7.org/fhir/us/qicore/StructureDefinition/qicore-recorded","valueDateTime":"2025-11-02T11:00:00+00:00"}],"status":"not-done","statusReason":[{"coding":[{"system":"http://snomed.info/sct","code":"443390004","display":"Refusal of treatment by patient (situation)"}]}],"medicationCodeableConcept":{"coding":[{"system":"http://www.nlm.nih.gov/research/umls/rxnorm","code":"854228"}]},"subject":{"reference":"Patient/2de13e4e-32bf-4b79-8750-9e0820d2eb4d"},"effectivePeriod":{"start":"2025-11-01T06:00:00+00:00"}},"request":{"method":"PUT","url":"MedicationAdministration/6ec4dfcd-b818-4217-a551-7309e3b6322c"}},{"fullUrl":"https://madie.cms.gov/Organization/123456","resource":{"resourceType":"Organization","id":"f4907415-83c5-4eae-ab0b-cb63a840880d","meta":{"profile":["http://hl7.org/fhir/us/qicore/StructureDefinition/qicore-organization"]},"identifier":[{"use":"temp","system":"urn:oid:2.16.840.1.113883.4.4","value":"21-3259825"}],"active":true,"type":[{"coding":[{"system":"http://terminology.hl7.org/CodeSystem/organization-type","code":"pay","display":"Payer"}]}],"name":"Blue Cross Blue Shield of Texas","telecom":[{"system":"phone","value":"(+1) 972-766-6900"}],"address":[{"use":"billing","type":"postal","line":["P.O. Box 660044"],"city":"Dallas","state":"TX","postalCode":"75266-0044","country":"USA"}]},"request":{"method":"PUT","url":"Organization/f4907415-83c5-4eae-ab0b-cb63a840880d"}},{"fullUrl":"https://madie.cms.gov/Practitioner/practitioner-123456","resource":{"resourceType":"Practitioner","id":"3cbee09c-13f0-4f06-9e24-86765d7e2455","identifier":[{"system":"http://hl7.org/fhir/sid/us-npi","value":"123456"}],"name":[{"family":"Evil","prefix":["Dr"]}]},"request":{"method":"PUT","url":"Practitioner/3cbee09c-13f0-4f06-9e24-86765d7e2455"}},{"fullUrl":"https://madie.cms.gov/MeasureReport/38be5744-7dc7-4542-b24f-618427fcf68c","resource":{"resourceType":"MeasureReport","id":"38be5744-7dc7-4542-b24f-618427fcf68c","meta":{"profile":["http://hl7.org/fhir/us/cqfmeasures/StructureDefinition/test-case-cqfm"]},"contained":[{"resourceType":"Parameters","id":"6bc863e6-c456-4d24-a649-8bbe094a0bd3-parameters","parameter":[{"name":"subject","valueString":"2de13e4e-32bf-4b79-8750-9e0820d2eb4d"}]}],"extension":[{"url":"http://hl7.org/fhir/us/cqfmeasures/StructureDefinition/cqfm-inputParameters","valueReference":{"reference":"#6bc863e6-c456-4d24-a649-8bbe094a0bd3-parameters"}},{"url":"http://hl7.org/fhir/us/cqfmeasures/StructureDefinition/cqfm-testCaseDescription","valueMarkdown":"lmwh not given due to patient refusal during Observation\n"}],"modifierExtension":[{"url":"http://hl7.org/fhir/us/cqfmeasures/StructureDefinition/cqfm-isTestCase","valueBoolean":true}],"status":"complete","type":"individual","measure":"https://madie.cms.gov/Measure/VenousThromboembolismProphylaxisFHIR","period":{"start":"2025-01-01","end":"2025-12-31"},"group":[{"population":[{"code":{"coding":[{"system":"http://terminology.hl7.org/CodeSystem/measure-population","code":"initial-population","display":"Initial Population"}]},"count":1},{"code":{"coding":[{"system":"http://terminology.hl7.org/CodeSystem/measure-population","code":"denominator","display":"Denominator"}]},"count":1},{"code":{"coding":[{"system":"http://terminology.hl7.org/CodeSystem/measure-population","code":"denominator-exclusion","display":"Denominator Exclusion"}]},"count":0},{"code":{"coding":[{"system":"http://terminology.hl7.org/CodeSystem/measure-population","code":"numerator","display":"Numerator"}]},"count":1}]}]},"request":{"method":"PUT","url":"MeasureReport/38be5744-7dc7-4542-b24f-618427fcf68c"}}]}