{"resourceType":"Bundle","id":"tests-0dae06f1-1e15-4905-ae46-86ea310c2f1f-bundle","type":"transaction","entry":[{"fullUrl":"https://madie.cms.gov/Patient/0dae06f1-1e15-4905-ae46-86ea310c2f1f","resource":{"resourceType":"Patient","id":"0dae06f1-1e15-4905-ae46-86ea310c2f1f","meta":{"profile":["http://hl7.org/fhir/us/qicore/StructureDefinition/qicore-patient"]},"text":{"status":"generated","div":"<div xmlns=\"http://www.w3.org/1999/xhtml\"><div class=\"hapiHeaderText\">EncEndsOnLastMinOfMP <b>IPPPASS </b></div><table class=\"hapiPropertyTable\"><tbody><tr><td>Identifier</td><td>2d02a76d3c6414633bcaff3b3573dd91</td></tr><tr><td>Date of birth</td><td><span>01 January 2003</span></td></tr></tbody></table></div>"},"extension":[{"url":"http://hl7.org/fhir/us/core/StructureDefinition/us-core-race","extension":[{"url":"ombCategory","valueCoding":{"system":"urn:oid:2.16.840.1.113883.6.238","code":"1002-5","display":"American Indian or Alaska Native","userSelected":true}},{"url":"text","valueString":"American Indian or Alaska Native"}]},{"url":"http://hl7.org/fhir/us/core/StructureDefinition/us-core-ethnicity","extension":[{"url":"ombCategory","valueCoding":{"system":"urn:oid:2.16.840.1.113883.6.238","code":"2135-2","display":"Hispanic or Latino","userSelected":true}},{"url":"text","valueString":"Hispanic or Latino"}]}],"identifier":[{"type":{"coding":[{"system":"http://terminology.hl7.org/CodeSystem/v2-0203","code":"MR"}]},"system":"https://bonnie-fhir.healthit.gov/","value":"612e6b6a02c62a011f2eda61"}],"active":true,"name":[{"use":"usual","family":"IPPPass","given":["EncEndsOnLastMinOfMP"]}],"gender":"male","birthDate":"2003-01-01"},"request":{"method":"PUT","url":"Patient/0dae06f1-1e15-4905-ae46-86ea310c2f1f"}},{"fullUrl":"https://madie.cms.gov/Encounter/5ca62962b8484628b8de1eb3","resource":{"resourceType":"Encounter","id":"f504a799-d8b5-4409-a089-e0aed4e22e4b","meta":{"profile":["http://hl7.org/fhir/us/qicore/StructureDefinition/qicore-encounter"]},"status":"finished","class":{"system":"http://terminology.hl7.org/CodeSystem/v3-ActCode","code":"IMP","display":"inpatient encounter"},"type":[{"coding":[{"system":"http://snomed.info/sct","code":"8715000"}]}],"subject":{"reference":"Patient/0dae06f1-1e15-4905-ae46-86ea310c2f1f"},"period":{"start":"2025-12-01T00:00:00+00:00","end":"2025-12-31T23:59:00+00:00"},"length":{"value":30.0,"unit":"days"}},"request":{"method":"PUT","url":"Encounter/f504a799-d8b5-4409-a089-e0aed4e22e4b"}},{"fullUrl":"https://madie.cms.gov/Coverage/5fa0415c1c76ba66d99592c2","resource":{"resourceType":"Coverage","id":"d1935199-8a1a-49e4-b935-a6b8e3a420af","status":"active","beneficiary":{"reference":"Patient/0dae06f1-1e15-4905-ae46-86ea310c2f1f"},"period":{"start":"2003-01-01T08:00:00+00:00"},"payor":[{"reference":"Organization/77e4d06f-5e3c-436a-a598-80cefcca5028"}]},"request":{"method":"PUT","url":"Coverage/d1935199-8a1a-49e4-b935-a6b8e3a420af"}},{"fullUrl":"https://madie.cms.gov/Organization/123456","resource":{"resourceType":"Organization","id":"77e4d06f-5e3c-436a-a598-80cefcca5028","meta":{"profile":["http://hl7.org/fhir/us/qicore/StructureDefinition/qicore-organization"]},"identifier":[{"use":"temp","system":"urn:oid:2.16.840.1.113883.4.4","value":"21-3259825"}],"active":true,"type":[{"coding":[{"system":"http://terminology.hl7.org/CodeSystem/organization-type","code":"pay","display":"Payer"}]}],"name":"Blue Cross Blue Shield of Texas","telecom":[{"system":"phone","value":"(+1) 972-766-6900"}],"address":[{"use":"billing","type":"postal","line":["P.O. Box 660044"],"city":"Dallas","state":"TX","postalCode":"75266-0044","country":"USA"}]},"request":{"method":"PUT","url":"Organization/77e4d06f-5e3c-436a-a598-80cefcca5028"}},{"fullUrl":"https://madie.cms.gov/Practitioner/practitioner-123456","resource":{"resourceType":"Practitioner","id":"8cb377a3-4c04-47ed-ba4a-32ba8b8d32eb","identifier":[{"system":"http://hl7.org/fhir/sid/us-npi","value":"123456"}],"name":[{"family":"Evil","prefix":["Dr"]}]},"request":{"method":"PUT","url":"Practitioner/8cb377a3-4c04-47ed-ba4a-32ba8b8d32eb"}},{"fullUrl":"https://madie.cms.gov/MeasureReport/1aa98dd2-1b61-4358-b0c2-c4415f16436b","resource":{"resourceType":"MeasureReport","id":"1aa98dd2-1b61-4358-b0c2-c4415f16436b","meta":{"profile":["http://hl7.org/fhir/us/cqfmeasures/StructureDefinition/test-case-cqfm"]},"contained":[{"resourceType":"Parameters","id":"d04bc63e-77e6-45c6-a920-673b692f7949-parameters","parameter":[{"name":"subject","valueString":"0dae06f1-1e15-4905-ae46-86ea310c2f1f"}]}],"extension":[{"url":"http://hl7.org/fhir/us/cqfmeasures/StructureDefinition/cqfm-inputParameters","valueReference":{"reference":"#d04bc63e-77e6-45c6-a920-673b692f7949-parameters"}},{"url":"http://hl7.org/fhir/us/cqfmeasures/StructureDefinition/cqfm-testCaseDescription","valueMarkdown":"Patient is 18 years old with LOS < 120 days ending during MP\n"}],"modifierExtension":[{"url":"http://hl7.org/fhir/us/cqfmeasures/StructureDefinition/cqfm-isTestCase","valueBoolean":true}],"status":"complete","type":"individual","measure":"https://madie.cms.gov/Measure/VenousThromboembolismProphylaxisFHIR","period":{"start":"2025-01-01","end":"2025-12-31"},"group":[{"population":[{"code":{"coding":[{"system":"http://terminology.hl7.org/CodeSystem/measure-population","code":"initial-population","display":"Initial Population"}]},"count":1},{"code":{"coding":[{"system":"http://terminology.hl7.org/CodeSystem/measure-population","code":"denominator","display":"Denominator"}]},"count":1},{"code":{"coding":[{"system":"http://terminology.hl7.org/CodeSystem/measure-population","code":"denominator-exclusion","display":"Denominator Exclusion"}]},"count":0},{"code":{"coding":[{"system":"http://terminology.hl7.org/CodeSystem/measure-population","code":"numerator","display":"Numerator"}]},"count":0}]}]},"request":{"method":"PUT","url":"MeasureReport/1aa98dd2-1b61-4358-b0c2-c4415f16436b"}}]}