{"resourceType":"Bundle","id":"tests-96c7b8e3-2c28-4b46-a579-f56d644cf762-bundle","type":"transaction","entry":[{"fullUrl":"https://madie.cms.gov/Patient/96c7b8e3-2c28-4b46-a579-f56d644cf762","resource":{"resourceType":"Patient","id":"96c7b8e3-2c28-4b46-a579-f56d644cf762","meta":{"profile":["http://hl7.org/fhir/us/qicore/StructureDefinition/qicore-patient"]},"text":{"status":"generated","div":"<div xmlns=\"http://www.w3.org/1999/xhtml\"><div class=\"hapiHeaderText\">CMPerf_DayAfterAnesEnd2DayAFAdm <b>DENEXPASS </b></div><table class=\"hapiPropertyTable\"><tbody><tr><td>Identifier</td><td>33d5de982b1e73b15a4c778bb4a72964</td></tr><tr><td>Date of birth</td><td><span>02 January 1974</span></td></tr></tbody></table></div>"},"extension":[{"url":"http://hl7.org/fhir/us/core/StructureDefinition/us-core-race","extension":[{"url":"ombCategory","valueCoding":{"system":"urn:oid:2.16.840.1.113883.6.238","code":"1002-5","display":"American Indian or Alaska Native","userSelected":true}},{"url":"text","valueString":"American Indian or Alaska Native"}]},{"url":"http://hl7.org/fhir/us/core/StructureDefinition/us-core-ethnicity","extension":[{"url":"ombCategory","valueCoding":{"system":"urn:oid:2.16.840.1.113883.6.238","code":"2135-2","display":"Hispanic or Latino","userSelected":true}},{"url":"text","valueString":"Hispanic or Latino"}]}],"identifier":[{"type":{"coding":[{"system":"http://terminology.hl7.org/CodeSystem/v2-0203","code":"MR"}]},"system":"https://bonnie-fhir.healthit.gov/","value":"612e6b7502c62a011f2edce2"}],"active":true,"name":[{"use":"usual","family":"DENEXPass","given":["CMPerf_DayAfterAnesEnd2DayAFAdm"]}],"gender":"male","birthDate":"1974-01-02"},"request":{"method":"PUT","url":"Patient/96c7b8e3-2c28-4b46-a579-f56d644cf762"}},{"fullUrl":"https://madie.cms.gov/Encounter/5ca62963b8484628b8de1ec6","resource":{"resourceType":"Encounter","id":"cf1e14e7-db2a-42f0-9ca8-b4492ecec83c","meta":{"profile":["http://hl7.org/fhir/us/qicore/StructureDefinition/qicore-encounter"]},"status":"finished","class":{"system":"http://terminology.hl7.org/CodeSystem/v3-ActCode","code":"IMP","display":"inpatient encounter"},"type":[{"coding":[{"system":"http://snomed.info/sct","code":"8715000"}]}],"subject":{"reference":"Patient/96c7b8e3-2c28-4b46-a579-f56d644cf762"},"period":{"start":"2025-11-01T08:00:00+00:00","end":"2025-11-26T08:15:00+00:00"},"length":{"value":25.0,"unit":"days"}},"request":{"method":"PUT","url":"Encounter/cf1e14e7-db2a-42f0-9ca8-b4492ecec83c"}},{"fullUrl":"https://madie.cms.gov/Procedure/5ca62963b8484628b8de1ec8","resource":{"resourceType":"Procedure","id":"de024fa3-9955-4b9f-8a00-f8e40d4c5ad6","meta":{"profile":["http://hl7.org/fhir/us/qicore/StructureDefinition/qicore-procedure"]},"extension":[{"url":"http://hl7.org/fhir/us/qicore/StructureDefinition/qicore-recorded","valueDateTime":"2012-11-03T09:35:00-04:00"}],"status":"completed","code":{"coding":[{"system":"http://snomed.info/sct","code":"133918004"}]},"subject":{"reference":"Patient/96c7b8e3-2c28-4b46-a579-f56d644cf762"},"performedPeriod":{"start":"2025-11-03T09:15:00+00:00"}},"request":{"method":"PUT","url":"Procedure/de024fa3-9955-4b9f-8a00-f8e40d4c5ad6"}},{"fullUrl":"https://madie.cms.gov/Coverage/5fa0415d1c76ba66d99592da","resource":{"resourceType":"Coverage","id":"7be3b340-f0c6-4849-9795-076fa49586ca","status":"active","beneficiary":{"reference":"Patient/96c7b8e3-2c28-4b46-a579-f56d644cf762"},"period":{"start":"1974-01-02T08:00:00+00:00"},"payor":[{"reference":"Organization/9e9b3f13-a353-4173-b29b-947d6f1f2031"}]},"request":{"method":"PUT","url":"Coverage/7be3b340-f0c6-4849-9795-076fa49586ca"}},{"fullUrl":"https://madie.cms.gov/Procedure/5ca62963b8484628b8de1ec7","resource":{"resourceType":"Procedure","id":"f3f6242c-590d-49d6-97e8-03bfe510aafc","meta":{"profile":["http://hl7.org/fhir/us/qicore/StructureDefinition/qicore-procedure"]},"extension":[{"url":"http://hl7.org/fhir/us/qicore/StructureDefinition/qicore-recorded","valueDateTime":"2012-11-03T09:35:00-04:00"}],"status":"completed","code":{"coding":[{"system":"http://snomed.info/sct","code":"18946005"}]},"subject":{"reference":"Patient/96c7b8e3-2c28-4b46-a579-f56d644cf762"},"performedPeriod":{"start":"2025-11-02T09:00:00+00:00","end":"2025-11-02T09:15:00+00:00"}},"request":{"method":"PUT","url":"Procedure/f3f6242c-590d-49d6-97e8-03bfe510aafc"}},{"fullUrl":"https://madie.cms.gov/Organization/123456","resource":{"resourceType":"Organization","id":"9e9b3f13-a353-4173-b29b-947d6f1f2031","meta":{"profile":["http://hl7.org/fhir/us/qicore/StructureDefinition/qicore-organization"]},"identifier":[{"use":"temp","system":"urn:oid:2.16.840.1.113883.4.4","value":"21-3259825"}],"active":true,"type":[{"coding":[{"system":"http://terminology.hl7.org/CodeSystem/organization-type","code":"pay","display":"Payer"}]}],"name":"Blue Cross Blue Shield of Texas","telecom":[{"system":"phone","value":"(+1) 972-766-6900"}],"address":[{"use":"billing","type":"postal","line":["P.O. Box 660044"],"city":"Dallas","state":"TX","postalCode":"75266-0044","country":"USA"}]},"request":{"method":"PUT","url":"Organization/9e9b3f13-a353-4173-b29b-947d6f1f2031"}},{"fullUrl":"https://madie.cms.gov/Practitioner/practitioner-123456","resource":{"resourceType":"Practitioner","id":"82165a6c-8a5a-4a4c-88d3-9e7498c02a54","identifier":[{"system":"http://hl7.org/fhir/sid/us-npi","value":"123456"}],"name":[{"family":"Evil","prefix":["Dr"]}]},"request":{"method":"PUT","url":"Practitioner/82165a6c-8a5a-4a4c-88d3-9e7498c02a54"}},{"fullUrl":"https://madie.cms.gov/MeasureReport/b6cc2d65-f3d9-4839-b40e-9683ea438cbe","resource":{"resourceType":"MeasureReport","id":"b6cc2d65-f3d9-4839-b40e-9683ea438cbe","meta":{"profile":["http://hl7.org/fhir/us/cqfmeasures/StructureDefinition/test-case-cqfm"]},"contained":[{"resourceType":"Parameters","id":"6448627b-449e-4ce0-b57d-4c6d4511ef9d-parameters","parameter":[{"name":"subject","valueString":"96c7b8e3-2c28-4b46-a579-f56d644cf762"}]}],"extension":[{"url":"http://hl7.org/fhir/us/cqfmeasures/StructureDefinition/cqfm-inputParameters","valueReference":{"reference":"#6448627b-449e-4ce0-b57d-4c6d4511ef9d-parameters"}},{"url":"http://hl7.org/fhir/us/cqfmeasures/StructureDefinition/cqfm-testCaseDescription","valueMarkdown":"comfort measures performed 1 day after end of  anesthesia 2 days after Adm\n"}],"modifierExtension":[{"url":"http://hl7.org/fhir/us/cqfmeasures/StructureDefinition/cqfm-isTestCase","valueBoolean":true}],"status":"complete","type":"individual","measure":"https://madie.cms.gov/Measure/VenousThromboembolismProphylaxisFHIR","period":{"start":"2025-01-01","end":"2025-12-31"},"group":[{"population":[{"code":{"coding":[{"system":"http://terminology.hl7.org/CodeSystem/measure-population","code":"initial-population","display":"Initial Population"}]},"count":1},{"code":{"coding":[{"system":"http://terminology.hl7.org/CodeSystem/measure-population","code":"denominator","display":"Denominator"}]},"count":1},{"code":{"coding":[{"system":"http://terminology.hl7.org/CodeSystem/measure-population","code":"denominator-exclusion","display":"Denominator Exclusion"}]},"count":1},{"code":{"coding":[{"system":"http://terminology.hl7.org/CodeSystem/measure-population","code":"numerator","display":"Numerator"}]},"count":0}]}]},"request":{"method":"PUT","url":"MeasureReport/b6cc2d65-f3d9-4839-b40e-9683ea438cbe"}}]}