{"resourceType":"Bundle","id":"tests-b6d4f313-21b9-4cd8-9e6f-b682d176a73f-bundle","type":"transaction","entry":[{"fullUrl":"https://madie.cms.gov/Patient/b6d4f313-21b9-4cd8-9e6f-b682d176a73f","resource":{"resourceType":"Patient","id":"b6d4f313-21b9-4cd8-9e6f-b682d176a73f","meta":{"profile":["http://hl7.org/fhir/us/qicore/StructureDefinition/qicore-patient"]},"text":{"status":"generated","div":"<div xmlns=\"http://www.w3.org/1999/xhtml\"><div class=\"hapiHeaderText\">TestMultipleOccur_1inDen1inNum <b>NUMERPASS </b></div><table class=\"hapiPropertyTable\"><tbody><tr><td>Identifier</td><td>3dff356c8720a84124e00f025cdf399b9398c53f7885da6a8793a56d4f59a3df</td></tr><tr><td>Date of birth</td><td><span>02 January 1974</span></td></tr></tbody></table></div>"},"extension":[{"url":"http://hl7.org/fhir/us/core/StructureDefinition/us-core-race","extension":[{"url":"ombCategory","valueCoding":{"system":"urn:oid:2.16.840.1.113883.6.238","code":"1002-5","display":"American Indian or Alaska Native","userSelected":true}},{"url":"text","valueString":"American Indian or Alaska Native"}]},{"url":"http://hl7.org/fhir/us/core/StructureDefinition/us-core-ethnicity","extension":[{"url":"ombCategory","valueCoding":{"system":"urn:oid:2.16.840.1.113883.6.238","code":"2135-2","display":"Hispanic or Latino","userSelected":true}},{"url":"text","valueString":"Hispanic or Latino"}]}],"identifier":[{"type":{"coding":[{"system":"http://terminology.hl7.org/CodeSystem/v2-0203","code":"MR"}]},"system":"https://bonnie-fhir.healthit.gov/","value":"612e6aee02c62a011f2ebccf"}],"active":true,"name":[{"use":"usual","family":"NUMERPass","given":["TestMultipleOccur_1inDen1inNum"]}],"gender":"male","birthDate":"1974-01-02"},"request":{"method":"PUT","url":"Patient/b6d4f313-21b9-4cd8-9e6f-b682d176a73f"}},{"fullUrl":"https://madie.cms.gov/Encounter/5ca62965b8484628b8de1fd5","resource":{"resourceType":"Encounter","id":"6adf656f-6ed8-48fc-94d3-178094859470","meta":{"profile":["http://hl7.org/fhir/us/qicore/StructureDefinition/qicore-encounter"]},"status":"finished","class":{"system":"http://terminology.hl7.org/CodeSystem/v3-ActCode","code":"IMP","display":"inpatient encounter"},"type":[{"coding":[{"system":"http://snomed.info/sct","code":"183452005"}]}],"subject":{"reference":"Patient/b6d4f313-21b9-4cd8-9e6f-b682d176a73f"},"period":{"start":"2025-04-01T08:00:00+00:00","end":"2025-04-05T08:15:00+00:00"},"length":{"value":4.0,"unit":"days"}},"request":{"method":"PUT","url":"Encounter/6adf656f-6ed8-48fc-94d3-178094859470"}},{"fullUrl":"https://madie.cms.gov/Encounter/5ca62965b8484628b8de1fd6","resource":{"resourceType":"Encounter","id":"350d9aa9-d346-4da4-a5ab-87a34f66cf8d","meta":{"profile":["http://hl7.org/fhir/us/qicore/StructureDefinition/qicore-encounter"]},"status":"finished","class":{"system":"http://terminology.hl7.org/CodeSystem/v3-ActCode","code":"IMP","display":"inpatient encounter"},"type":[{"coding":[{"system":"http://snomed.info/sct","code":"8715000"}]}],"subject":{"reference":"Patient/b6d4f313-21b9-4cd8-9e6f-b682d176a73f"},"period":{"start":"2025-11-01T08:00:00+00:00","end":"2025-11-26T08:15:00+00:00"},"length":{"value":25.0,"unit":"days"}},"request":{"method":"PUT","url":"Encounter/350d9aa9-d346-4da4-a5ab-87a34f66cf8d"}},{"fullUrl":"https://madie.cms.gov/Coverage/5fa041631c76ba66d9959340","resource":{"resourceType":"Coverage","id":"93e1dd49-4d6f-4274-a91c-3b1a724d40eb","status":"active","beneficiary":{"reference":"Patient/b6d4f313-21b9-4cd8-9e6f-b682d176a73f"},"period":{"start":"1974-01-02T08:00:00+00:00"},"payor":[{"reference":"Organization/4da248b0-6e59-49b7-b80e-338aa21d299f"}]},"request":{"method":"PUT","url":"Coverage/93e1dd49-4d6f-4274-a91c-3b1a724d40eb"}},{"fullUrl":"https://madie.cms.gov/MedicationAdministration/5ca62965b8484628b8de1fd8","resource":{"resourceType":"MedicationAdministration","id":"5f6fcada-eb0a-4afa-96b0-dfcd8459dd93","meta":{"profile":["http://hl7.org/fhir/us/qicore/StructureDefinition/qicore-medicationadministration"]},"status":"completed","medicationCodeableConcept":{"coding":[{"system":"http://www.nlm.nih.gov/research/umls/rxnorm","code":"200349"}]},"subject":{"reference":"Patient/b6d4f313-21b9-4cd8-9e6f-b682d176a73f"},"effectivePeriod":{"start":"2025-11-01T09:00:00+00:00"}},"request":{"method":"PUT","url":"MedicationAdministration/5f6fcada-eb0a-4afa-96b0-dfcd8459dd93"}},{"fullUrl":"https://madie.cms.gov/Procedure/device-application-24fe","resource":{"resourceType":"Procedure","id":"e7b05d6a-5d5b-4fd5-910d-35e26450be78","meta":{"profile":["http://hl7.org/fhir/us/qicore/StructureDefinition/qicore-procedure"]},"extension":[{"url":"http://hl7.org/fhir/us/qicore/StructureDefinition/qicore-recorded","valueDateTime":"2012-11-03T09:35:00-04:00"}],"status":"completed","code":{"coding":[{"system":"http://snomed.info/sct","version":"2025-03","code":"442410008","display":"Application of venous foot pump (procedure)","userSelected":true}]},"subject":{"reference":"Patient/b6d4f313-21b9-4cd8-9e6f-b682d176a73f"},"performedDateTime":"2025-11-02T08:00:00.000+00:00"},"request":{"method":"PUT","url":"Procedure/e7b05d6a-5d5b-4fd5-910d-35e26450be78"}},{"fullUrl":"https://madie.cms.gov/Organization/123456","resource":{"resourceType":"Organization","id":"4da248b0-6e59-49b7-b80e-338aa21d299f","meta":{"profile":["http://hl7.org/fhir/us/qicore/StructureDefinition/qicore-organization"]},"identifier":[{"use":"temp","system":"urn:oid:2.16.840.1.113883.4.4","value":"21-3259825"}],"active":true,"type":[{"coding":[{"system":"http://terminology.hl7.org/CodeSystem/organization-type","code":"pay","display":"Payer"}]}],"name":"Blue Cross Blue Shield of Texas","telecom":[{"system":"phone","value":"(+1) 972-766-6900"}],"address":[{"use":"billing","type":"postal","line":["P.O. Box 660044"],"city":"Dallas","state":"TX","postalCode":"75266-0044","country":"USA"}]},"request":{"method":"PUT","url":"Organization/4da248b0-6e59-49b7-b80e-338aa21d299f"}},{"fullUrl":"https://madie.cms.gov/Practitioner/practitioner-123456","resource":{"resourceType":"Practitioner","id":"982a52d6-20e7-464e-a223-169ad728ddc8","identifier":[{"system":"http://hl7.org/fhir/sid/us-npi","value":"123456"}],"name":[{"family":"Evil","prefix":["Dr"]}]},"request":{"method":"PUT","url":"Practitioner/982a52d6-20e7-464e-a223-169ad728ddc8"}},{"fullUrl":"https://madie.cms.gov/MeasureReport/dfeafa41-3ad6-4e55-892d-6fb8bd4f412e","resource":{"resourceType":"MeasureReport","id":"dfeafa41-3ad6-4e55-892d-6fb8bd4f412e","meta":{"profile":["http://hl7.org/fhir/us/cqfmeasures/StructureDefinition/test-case-cqfm"]},"contained":[{"resourceType":"Parameters","id":"c1ece058-f068-4f5b-b1ef-b276aa423a5d-parameters","parameter":[{"name":"subject","valueString":"b6d4f313-21b9-4cd8-9e6f-b682d176a73f"}]}],"extension":[{"url":"http://hl7.org/fhir/us/cqfmeasures/StructureDefinition/cqfm-inputParameters","valueReference":{"reference":"#c1ece058-f068-4f5b-b1ef-b276aa423a5d-parameters"}},{"url":"http://hl7.org/fhir/us/cqfmeasures/StructureDefinition/cqfm-testCaseDescription","valueMarkdown":"TestMultipleOccur - 2 occurrences. 1 in Den due to Dvc applied >1 day after Adm and 1 in Numerator\n"}],"modifierExtension":[{"url":"http://hl7.org/fhir/us/cqfmeasures/StructureDefinition/cqfm-isTestCase","valueBoolean":true}],"status":"complete","type":"individual","measure":"https://madie.cms.gov/Measure/VenousThromboembolismProphylaxisFHIR","period":{"start":"2025-01-01","end":"2025-12-31"},"group":[{"population":[{"code":{"coding":[{"system":"http://terminology.hl7.org/CodeSystem/measure-population","code":"initial-population","display":"Initial Population"}]},"count":2},{"code":{"coding":[{"system":"http://terminology.hl7.org/CodeSystem/measure-population","code":"denominator","display":"Denominator"}]},"count":2},{"code":{"coding":[{"system":"http://terminology.hl7.org/CodeSystem/measure-population","code":"denominator-exclusion","display":"Denominator Exclusion"}]},"count":0},{"code":{"coding":[{"system":"http://terminology.hl7.org/CodeSystem/measure-population","code":"numerator","display":"Numerator"}]},"count":1}]}]},"request":{"method":"PUT","url":"MeasureReport/dfeafa41-3ad6-4e55-892d-6fb8bd4f412e"}}]}