{"resourceType":"Bundle","id":"tests-91c8a4a4-2789-4459-bf83-7720f660e89b-bundle","type":"transaction","entry":[{"fullUrl":"https://madie.cms.gov/Patient/91c8a4a4-2789-4459-bf83-7720f660e89b","resource":{"resourceType":"Patient","id":"91c8a4a4-2789-4459-bf83-7720f660e89b","meta":{"profile":["http://hl7.org/fhir/us/qicore/StructureDefinition/qicore-patient"]},"text":{"status":"generated","div":"<div xmlns=\"http://www.w3.org/1999/xhtml\"><div class=\"hapiHeaderText\">MA_LDUHep_DayOfAdm <b>NUMERPASS </b></div><table class=\"hapiPropertyTable\"><tbody><tr><td>Identifier</td><td>8a33d2769a6bdab7ccc20de0552fc909</td></tr><tr><td>Date of birth</td><td><span>02 January 1974</span></td></tr></tbody></table></div>"},"extension":[{"url":"http://hl7.org/fhir/us/core/StructureDefinition/us-core-race","extension":[{"url":"ombCategory","valueCoding":{"system":"urn:oid:2.16.840.1.113883.6.238","code":"1002-5","display":"American Indian or Alaska Native","userSelected":true}},{"url":"text","valueString":"American Indian or Alaska Native"}]},{"url":"http://hl7.org/fhir/us/core/StructureDefinition/us-core-ethnicity","extension":[{"url":"ombCategory","valueCoding":{"system":"urn:oid:2.16.840.1.113883.6.238","code":"2135-2","display":"Hispanic or Latino","userSelected":true}},{"url":"text","valueString":"Hispanic or Latino"}]}],"identifier":[{"type":{"coding":[{"system":"http://terminology.hl7.org/CodeSystem/v2-0203","code":"MR"}]},"system":"https://bonnie-fhir.healthit.gov/","value":"612e6a8b02c62a011f2ea4e5"}],"active":true,"name":[{"use":"usual","family":"NUMERPass","given":["MA_LDUHep_DayOfAdm"]}],"gender":"male","birthDate":"1974-01-02"},"request":{"method":"PUT","url":"Patient/91c8a4a4-2789-4459-bf83-7720f660e89b"}},{"fullUrl":"https://madie.cms.gov/Encounter/5ca6295fb8484628b8de1dc6","resource":{"resourceType":"Encounter","id":"f139d23b-6d68-4986-974c-d81e12d34e69","meta":{"profile":["http://hl7.org/fhir/us/qicore/StructureDefinition/qicore-encounter"]},"status":"finished","class":{"system":"http://terminology.hl7.org/CodeSystem/v3-ActCode","code":"IMP","display":"inpatient encounter"},"type":[{"coding":[{"system":"http://snomed.info/sct","code":"8715000"}]}],"subject":{"reference":"Patient/91c8a4a4-2789-4459-bf83-7720f660e89b"},"period":{"start":"2025-11-01T08:00:00+00:00","end":"2025-11-26T08:15:00+00:00"},"length":{"value":25.0,"unit":"days"}},"request":{"method":"PUT","url":"Encounter/f139d23b-6d68-4986-974c-d81e12d34e69"}},{"fullUrl":"https://madie.cms.gov/Coverage/5fa0414f1c76ba66d99591e4","resource":{"resourceType":"Coverage","id":"641b57c4-7f6f-46e4-98b9-a54c215ecea1","status":"active","beneficiary":{"reference":"Patient/91c8a4a4-2789-4459-bf83-7720f660e89b"},"period":{"start":"1974-01-02T08:00:00+00:00"},"payor":[{"reference":"Organization/806b0255-13cb-4f2b-9412-571554dd2169"}]},"request":{"method":"PUT","url":"Coverage/641b57c4-7f6f-46e4-98b9-a54c215ecea1"}},{"fullUrl":"https://madie.cms.gov/MedicationAdministration/5ca6295fb8484628b8de1dc7","resource":{"resourceType":"MedicationAdministration","id":"6e108de9-022e-49b2-87eb-eff69fb03788","meta":{"profile":["http://hl7.org/fhir/us/qicore/StructureDefinition/qicore-medicationadministration"]},"status":"completed","medicationCodeableConcept":{"coding":[{"system":"http://www.nlm.nih.gov/research/umls/rxnorm","code":"1361574"}]},"subject":{"reference":"Patient/91c8a4a4-2789-4459-bf83-7720f660e89b"},"effectivePeriod":{"start":"2025-11-01T10:00:00+00:00","end":"2025-11-01T10:15:00+00:00"},"dosage":{"route":{"coding":[{"system":"http://snomed.info/sct","code":"34206005","display":"Subcutaneous route"}]},"dose":{"value":20000,"unit":"UNT/ML","system":"http://unitsofmeasure.org","code":"UNT/ML"}}},"request":{"method":"PUT","url":"MedicationAdministration/6e108de9-022e-49b2-87eb-eff69fb03788"}},{"fullUrl":"https://madie.cms.gov/Procedure/5ca6295fb8484628b8de1dc8","resource":{"resourceType":"Procedure","id":"fb65c7a7-2775-4b4a-b6c6-50a2e8335274","meta":{"profile":["http://hl7.org/fhir/us/qicore/StructureDefinition/qicore-procedure"]},"extension":[{"url":"http://hl7.org/fhir/us/qicore/StructureDefinition/qicore-recorded","valueDateTime":"2012-11-02T09:35:00-04:00"}],"status":"completed","code":{"coding":[{"system":"http://www.icd10data.com/icd10pcs","code":"3E030FZ"},{"system":"http://snomed.info/sct","code":"18946005"}]},"subject":{"reference":"Patient/91c8a4a4-2789-4459-bf83-7720f660e89b"},"performedPeriod":{"start":"2025-11-02T09:00:00+00:00","end":"2025-11-02T09:15:00+00:00"}},"request":{"method":"PUT","url":"Procedure/fb65c7a7-2775-4b4a-b6c6-50a2e8335274"}},{"fullUrl":"https://madie.cms.gov/Organization/123456","resource":{"resourceType":"Organization","id":"806b0255-13cb-4f2b-9412-571554dd2169","meta":{"profile":["http://hl7.org/fhir/us/qicore/StructureDefinition/qicore-organization"]},"identifier":[{"use":"temp","system":"urn:oid:2.16.840.1.113883.4.4","value":"21-3259825"}],"active":true,"type":[{"coding":[{"system":"http://terminology.hl7.org/CodeSystem/organization-type","code":"pay","display":"Payer"}]}],"name":"Blue Cross Blue Shield of Texas","telecom":[{"system":"phone","value":"(+1) 972-766-6900"}],"address":[{"use":"billing","type":"postal","line":["P.O. Box 660044"],"city":"Dallas","state":"TX","postalCode":"75266-0044","country":"USA"}]},"request":{"method":"PUT","url":"Organization/806b0255-13cb-4f2b-9412-571554dd2169"}},{"fullUrl":"https://madie.cms.gov/Practitioner/practitioner-123456","resource":{"resourceType":"Practitioner","id":"f549be36-f5c9-44dd-b38f-55569797acfa","identifier":[{"system":"http://hl7.org/fhir/sid/us-npi","value":"123456"}],"name":[{"family":"Evil","prefix":["Dr"]}]},"request":{"method":"PUT","url":"Practitioner/f549be36-f5c9-44dd-b38f-55569797acfa"}},{"fullUrl":"https://madie.cms.gov/MeasureReport/9574f99f-4e4c-4831-8525-c84d75a49f39","resource":{"resourceType":"MeasureReport","id":"9574f99f-4e4c-4831-8525-c84d75a49f39","meta":{"profile":["http://hl7.org/fhir/us/cqfmeasures/StructureDefinition/test-case-cqfm"]},"contained":[{"resourceType":"Parameters","id":"369e8643-7f22-4669-bc6a-10626fa1b713-parameters","parameter":[{"name":"subject","valueString":"91c8a4a4-2789-4459-bf83-7720f660e89b"}]}],"extension":[{"url":"http://hl7.org/fhir/us/cqfmeasures/StructureDefinition/cqfm-inputParameters","valueReference":{"reference":"#369e8643-7f22-4669-bc6a-10626fa1b713-parameters"}},{"url":"http://hl7.org/fhir/us/cqfmeasures/StructureDefinition/cqfm-testCaseDescription","valueMarkdown":"low dose unfractionated heparin administered on the day of adm\n"}],"modifierExtension":[{"url":"http://hl7.org/fhir/us/cqfmeasures/StructureDefinition/cqfm-isTestCase","valueBoolean":true}],"status":"complete","type":"individual","measure":"https://madie.cms.gov/Measure/VenousThromboembolismProphylaxisFHIR","period":{"start":"2025-01-01","end":"2025-12-31"},"group":[{"population":[{"code":{"coding":[{"system":"http://terminology.hl7.org/CodeSystem/measure-population","code":"initial-population","display":"Initial Population"}]},"count":1},{"code":{"coding":[{"system":"http://terminology.hl7.org/CodeSystem/measure-population","code":"denominator","display":"Denominator"}]},"count":1},{"code":{"coding":[{"system":"http://terminology.hl7.org/CodeSystem/measure-population","code":"denominator-exclusion","display":"Denominator Exclusion"}]},"count":0},{"code":{"coding":[{"system":"http://terminology.hl7.org/CodeSystem/measure-population","code":"numerator","display":"Numerator"}]},"count":1}]}]},"request":{"method":"PUT","url":"MeasureReport/9574f99f-4e4c-4831-8525-c84d75a49f39"}}]}