{"resourceType":"Bundle","id":"tests-a3af6a3d-6334-44db-a39a-23db9018a190-bundle","type":"transaction","entry":[{"fullUrl":"https://madie.cms.gov/Patient/a3af6a3d-6334-44db-a39a-23db9018a190","resource":{"resourceType":"Patient","id":"a3af6a3d-6334-44db-a39a-23db9018a190","meta":{"profile":["http://hl7.org/fhir/us/qicore/StructureDefinition/qicore-patient"]},"text":{"status":"generated","div":"<div xmlns=\"http://www.w3.org/1999/xhtml\"><div class=\"hapiHeaderText\">MedReason_MO_LMWHep_DO_GSC_DayOfAnes <b>NUMERPASS </b></div><table class=\"hapiPropertyTable\"><tbody><tr><td>Identifier</td><td>7e62c5832c05e34e66418ee66816965a</td></tr><tr><td>Date of birth</td><td><span>02 January 1974</span></td></tr></tbody></table></div>"},"extension":[{"url":"http://hl7.org/fhir/us/core/StructureDefinition/us-core-race","extension":[{"url":"ombCategory","valueCoding":{"system":"urn:oid:2.16.840.1.113883.6.238","code":"1002-5","display":"American Indian or Alaska Native","userSelected":true}},{"url":"text","valueString":"American Indian or Alaska Native"}]},{"url":"http://hl7.org/fhir/us/core/StructureDefinition/us-core-ethnicity","extension":[{"url":"ombCategory","valueCoding":{"system":"urn:oid:2.16.840.1.113883.6.238","code":"2135-2","display":"Hispanic or Latino","userSelected":true}},{"url":"text","valueString":"Hispanic or Latino"}]}],"identifier":[{"type":{"coding":[{"system":"http://terminology.hl7.org/CodeSystem/v2-0203","code":"MR"}]},"system":"https://bonnie-fhir.healthit.gov/","value":"612e6a9802c62a011f2ea828"}],"active":true,"name":[{"use":"usual","family":"NUMERPass","given":["MedReason_MO_LMWHep_DO_GSC_DayOfAnes"]}],"gender":"male","birthDate":"1974-01-02"},"request":{"method":"PUT","url":"Patient/a3af6a3d-6334-44db-a39a-23db9018a190"}},{"fullUrl":"https://madie.cms.gov/Encounter/5ca62964b8484628b8de1f54","resource":{"resourceType":"Encounter","id":"c789597b-be8a-4927-85fe-95a35348a52d","meta":{"profile":["http://hl7.org/fhir/us/qicore/StructureDefinition/qicore-encounter"]},"status":"finished","class":{"system":"http://terminology.hl7.org/CodeSystem/v3-ActCode","code":"IMP","display":"inpatient encounter"},"type":[{"coding":[{"system":"http://snomed.info/sct","code":"8715000"}]}],"subject":{"reference":"Patient/a3af6a3d-6334-44db-a39a-23db9018a190"},"period":{"start":"2025-11-01T08:00:00+00:00","end":"2025-11-26T08:15:00+00:00"},"length":{"value":25.0,"unit":"days"}},"request":{"method":"PUT","url":"Encounter/c789597b-be8a-4927-85fe-95a35348a52d"}},{"fullUrl":"https://madie.cms.gov/Coverage/5fa041511c76ba66d99591fc","resource":{"resourceType":"Coverage","id":"9dc62230-f09e-479b-89f4-c880745616b6","status":"active","beneficiary":{"reference":"Patient/a3af6a3d-6334-44db-a39a-23db9018a190"},"period":{"start":"1974-01-02T08:00:00+00:00"},"payor":[{"reference":"Organization/ec8cac12-7dd8-4c6e-8c44-d6c645085c80"}]},"request":{"method":"PUT","url":"Coverage/9dc62230-f09e-479b-89f4-c880745616b6"}},{"fullUrl":"https://madie.cms.gov/MedicationRequest/5ca62964b8484628b8de1f56","resource":{"resourceType":"MedicationRequest","id":"6f17bf49-203a-45a0-8986-9a092f618e84","meta":{"profile":["http://hl7.org/fhir/us/qicore/StructureDefinition/qicore-mednotrequested"]},"status":"completed","intent":"order","category":[{"coding":[{"system":"http://terminology.hl7.org/CodeSystem/medicationrequest-category","code":"community"}]}],"doNotPerform":true,"medicationCodeableConcept":{"coding":[{"system":"http://www.nlm.nih.gov/research/umls/rxnorm","code":"854228"}]},"subject":{"reference":"Patient/a3af6a3d-6334-44db-a39a-23db9018a190"},"authoredOn":"2025-11-02T10:00:00.000+00:00","requester":{"reference":"Practitioner/example"},"reasonCode":[{"coding":[{"system":"http://snomed.info/sct","code":"183932001","display":"Procedure contraindicated (situation)","userSelected":true}]}]},"request":{"method":"PUT","url":"MedicationRequest/6f17bf49-203a-45a0-8986-9a092f618e84"}},{"fullUrl":"https://madie.cms.gov/Procedure/5ca62964b8484628b8de1f57","resource":{"resourceType":"Procedure","id":"93e81d73-8ca3-45b8-8901-15cb500c60c6","meta":{"profile":["http://hl7.org/fhir/us/qicore/StructureDefinition/qicore-procedure"]},"extension":[{"url":"http://hl7.org/fhir/us/qicore/StructureDefinition/qicore-recorded","valueDateTime":"2012-11-02T09:35:00-04:00"}],"status":"completed","code":{"coding":[{"system":"http://snomed.info/sct","code":"18946005"}]},"subject":{"reference":"Patient/a3af6a3d-6334-44db-a39a-23db9018a190"},"performedPeriod":{"start":"2025-11-02T09:00:00.000+00:00","end":"2025-11-02T09:15:00.000+00:00"}},"request":{"method":"PUT","url":"Procedure/93e81d73-8ca3-45b8-8901-15cb500c60c6"}},{"fullUrl":"https://madie.cms.gov/ServiceRequest/graduated-compression-stockings-gcs-8a32","resource":{"resourceType":"ServiceRequest","id":"d89adcd3-9c2c-4194-af3a-259722899c82","meta":{"profile":["http://hl7.org/fhir/us/qicore/StructureDefinition/qicore-servicenotrequested"]},"extension":[{"url":"http://hl7.org/fhir/us/qicore/StructureDefinition/qicore-doNotPerformReason","valueCodeableConcept":{"coding":[{"system":"http://snomed.info/sct","code":"183932001","display":"Procedure contraindicated (situation)"}]}}],"status":"completed","intent":"order","doNotPerform":true,"code":{"coding":[{"system":"http://snomed.info/sct","version":"2025-03","code":"348681001","display":"Graduated compression elastic hosiery (physical object)","userSelected":true}]},"subject":{"reference":"Patient/a3af6a3d-6334-44db-a39a-23db9018a190"},"authoredOn":"2025-11-02T10:00:00+00:00"},"request":{"method":"PUT","url":"ServiceRequest/d89adcd3-9c2c-4194-af3a-259722899c82"}},{"fullUrl":"https://madie.cms.gov/Organization/123456","resource":{"resourceType":"Organization","id":"ec8cac12-7dd8-4c6e-8c44-d6c645085c80","meta":{"profile":["http://hl7.org/fhir/us/qicore/StructureDefinition/qicore-organization"]},"identifier":[{"use":"temp","system":"urn:oid:2.16.840.1.113883.4.4","value":"21-3259825"}],"active":true,"type":[{"coding":[{"system":"http://terminology.hl7.org/CodeSystem/organization-type","code":"pay","display":"Payer"}]}],"name":"Blue Cross Blue Shield of Texas","telecom":[{"system":"phone","value":"(+1) 972-766-6900"}],"address":[{"use":"billing","type":"postal","line":["P.O. Box 660044"],"city":"Dallas","state":"TX","postalCode":"75266-0044","country":"USA"}]},"request":{"method":"PUT","url":"Organization/ec8cac12-7dd8-4c6e-8c44-d6c645085c80"}},{"fullUrl":"https://madie.cms.gov/Practitioner/practitioner-123456","resource":{"resourceType":"Practitioner","id":"80717334-1eab-4209-96e6-66726e7add4d","identifier":[{"system":"http://hl7.org/fhir/sid/us-npi","value":"123456"}],"name":[{"family":"Evil","prefix":["Dr"]}]},"request":{"method":"PUT","url":"Practitioner/80717334-1eab-4209-96e6-66726e7add4d"}},{"fullUrl":"https://madie.cms.gov/MeasureReport/5f0cb6b5-e95e-478a-8ea8-31cdcf0538fe","resource":{"resourceType":"MeasureReport","id":"5f0cb6b5-e95e-478a-8ea8-31cdcf0538fe","meta":{"profile":["http://hl7.org/fhir/us/cqfmeasures/StructureDefinition/test-case-cqfm"]},"contained":[{"resourceType":"Parameters","id":"3d229e94-ca22-46ca-872d-12fa4e4b63ae-parameters","parameter":[{"name":"subject","valueString":"a3af6a3d-6334-44db-a39a-23db9018a190"}]}],"extension":[{"url":"http://hl7.org/fhir/us/cqfmeasures/StructureDefinition/cqfm-inputParameters","valueReference":{"reference":"#3d229e94-ca22-46ca-872d-12fa4e4b63ae-parameters"}},{"url":"http://hl7.org/fhir/us/cqfmeasures/StructureDefinition/cqfm-testCaseDescription","valueMarkdown":"lmwh and GCS not ordered due to medical reason <= 1 day after end of  anesthesia\n"}],"modifierExtension":[{"url":"http://hl7.org/fhir/us/cqfmeasures/StructureDefinition/cqfm-isTestCase","valueBoolean":true}],"status":"complete","type":"individual","measure":"https://madie.cms.gov/Measure/VenousThromboembolismProphylaxisFHIR","period":{"start":"2025-01-01","end":"2025-12-31"},"group":[{"population":[{"code":{"coding":[{"system":"http://terminology.hl7.org/CodeSystem/measure-population","code":"initial-population","display":"Initial Population"}]},"count":1},{"code":{"coding":[{"system":"http://terminology.hl7.org/CodeSystem/measure-population","code":"denominator","display":"Denominator"}]},"count":1},{"code":{"coding":[{"system":"http://terminology.hl7.org/CodeSystem/measure-population","code":"denominator-exclusion","display":"Denominator Exclusion"}]},"count":0},{"code":{"coding":[{"system":"http://terminology.hl7.org/CodeSystem/measure-population","code":"numerator","display":"Numerator"}]},"count":1}]}]},"request":{"method":"PUT","url":"MeasureReport/5f0cb6b5-e95e-478a-8ea8-31cdcf0538fe"}}]}