{"resourceType":"Bundle","id":"tests-07f3be61-8e8b-4f95-94a3-4ca0b7969f79-bundle","type":"transaction","entry":[{"fullUrl":"https://madie.cms.gov/Patient/07f3be61-8e8b-4f95-94a3-4ca0b7969f79","resource":{"resourceType":"Patient","id":"07f3be61-8e8b-4f95-94a3-4ca0b7969f79","meta":{"profile":["http://hl7.org/fhir/us/core/StructureDefinition/us-core-patient","http://hl7.org/fhir/us/qicore/StructureDefinition/qicore-patient"]},"extension":[{"url":"http://hl7.org/fhir/us/core/StructureDefinition/us-core-race","extension":[{"url":"ombCategory","valueCoding":{"system":"urn:oid:2.16.840.1.113883.6.238","code":"2028-9","display":"Asian"}},{"url":"text","valueString":"Asian"}]},{"url":"http://hl7.org/fhir/us/core/StructureDefinition/us-core-ethnicity","extension":[{"url":"ombCategory","valueCoding":{"system":"urn:oid:2.16.840.1.113883.6.238","code":"2135-2","display":"Hispanic or Latino"}},{"url":"text","valueString":"Hispanic or Latino"}]}],"identifier":[{"system":"http://hospital.smarthealthit.org","value":"999999995"}],"name":[{"family":"MissingResults","given":["DENOMFail"]}],"gender":"female","birthDate":"1987-06-12"},"request":{"method":"PUT","url":"Patient/07f3be61-8e8b-4f95-94a3-4ca0b7969f79"}},{"fullUrl":"https://madie.cms.gov/Encounter/944f0a0c-3ba9-40b7-9477-01c10ce0c9e9","resource":{"resourceType":"Encounter","id":"944f0a0c-3ba9-40b7-9477-01c10ce0c9e9","meta":{"profile":["http://hl7.org/fhir/us/qicore/StructureDefinition/qicore-encounter"]},"status":"finished","class":{"system":"http://terminology.hl7.org/CodeSystem/v3-ActCode","code":"IMP","display":"inpatient encounter"},"type":[{"coding":[{"system":"http://snomed.info/sct","code":"183452005","display":"Emergency hospital admission"}]}],"subject":{"reference":"Patient/07f3be61-8e8b-4f95-94a3-4ca0b7969f79"},"period":{"start":"2026-03-01T00:00:00.000Z","end":"2026-03-03T01:00:00.000Z"}},"request":{"method":"PUT","url":"Encounter/944f0a0c-3ba9-40b7-9477-01c10ce0c9e9"}},{"fullUrl":"https://madie.cms.gov/Observation/2fc97852-25a5-4940-8c0f-6e8889281c1d","resource":{"resourceType":"Observation","id":"2fc97852-25a5-4940-8c0f-6e8889281c1d","meta":{"profile":["http://hl7.org/fhir/us/qicore/StructureDefinition/qicore-observation"]},"status":"final","category":[{"coding":[{"system":"http://terminology.hl7.org/CodeSystem/observation-category","code":"imaging","display":"Imaging"}]}],"code":{"coding":[{"system":"http://loinc.org","code":"96914-7","display":"CT dose and image quality category"}],"text":"CT dose and image quality category"},"subject":{"reference":"Patient/07f3be61-8e8b-4f95-94a3-4ca0b7969f79"},"encounter":{"reference":"Encounter/944f0a0c-3ba9-40b7-9477-01c10ce0c9e9"},"effectiveDateTime":"2026-03-02T00:00:00.000Z","valueCodeableConcept":{"coding":[{"system":"http://loinc.org","code":"LA31753-9","display":"Abdomen and Pelvis Routine Dose"}]}},"request":{"method":"PUT","url":"Observation/2fc97852-25a5-4940-8c0f-6e8889281c1d"}},{"fullUrl":"https://madie.cms.gov/MeasureReport/be636361-226e-4a6c-a553-225eaf0502a2","resource":{"resourceType":"MeasureReport","id":"be636361-226e-4a6c-a553-225eaf0502a2","meta":{"profile":["http://hl7.org/fhir/us/cqfmeasures/StructureDefinition/test-case-cqfm"]},"contained":[{"resourceType":"Parameters","id":"03388102-e7e9-43f8-a971-1a97e018d34d-parameters","parameter":[{"name":"subject","valueString":"07f3be61-8e8b-4f95-94a3-4ca0b7969f79"}]}],"extension":[{"url":"http://hl7.org/fhir/us/cqfmeasures/StructureDefinition/cqfm-inputParameters","valueReference":{"reference":"#03388102-e7e9-43f8-a971-1a97e018d34d-parameters"}},{"url":"http://hl7.org/fhir/us/cqfmeasures/StructureDefinition/cqfm-testCaseDescription","valueMarkdown":"Patient has a valid scan type but the noise and dose values are missing so should not meet DENOM"}],"modifierExtension":[{"url":"http://hl7.org/fhir/us/cqfmeasures/StructureDefinition/cqfm-isTestCase","valueBoolean":true}],"status":"complete","type":"individual","measure":"https://madie.cms.gov/Measure/AlaraCTIQRFHIR","period":{"start":"2026-01-01","end":"2026-12-31"},"group":[{"population":[{"code":{"coding":[{"system":"http://terminology.hl7.org/CodeSystem/measure-population","code":"initial-population","display":"Initial Population"}]},"count":1},{"code":{"coding":[{"system":"http://terminology.hl7.org/CodeSystem/measure-population","code":"denominator","display":"Denominator"}]},"count":0},{"code":{"coding":[{"system":"http://terminology.hl7.org/CodeSystem/measure-population","code":"denominator-exclusion","display":"Denominator Exclusion"}]},"count":0},{"code":{"coding":[{"system":"http://terminology.hl7.org/CodeSystem/measure-population","code":"numerator","display":"Numerator"}]},"count":0}]}]},"request":{"method":"PUT","url":"MeasureReport/be636361-226e-4a6c-a553-225eaf0502a2"}}]}