{
  "resourceType": "Bundle",
  "id": "6359776b6aee9629c8298235",
  "type": "transaction",
  "entry": [ {
    "fullUrl": "https://madie.cms.gov/Patient/e53da87f-22c3-4c04-919c-31d136a49e83",
    "resource": {
      "resourceType": "Patient",
      "id": "e53da87f-22c3-4c04-919c-31d136a49e83",
      "meta": {
        "profile": [ "http://hl7.org/fhir/us/qicore/StructureDefinition/qicore-patient" ]
      },
      "text": {
        "status": "generated",
        "div": "<div xmlns=\"http://www.w3.org/1999/xhtml\"><div class=\"hapiHeaderText\">RISKWBCRsltDtTimeEQDelStart <b>RISKFail </b></div><table class=\"hapiPropertyTable\"><tbody><tr><td>Date of birth</td><td><span>01 February 2004</span></td></tr></tbody></table></div>"
      },
      "extension": [ {
        "url": "http://hl7.org/fhir/us/core/StructureDefinition/us-core-race",
        "extension": [ {
          "url": "ombCategory",
          "valueCoding": {
            "system": "urn:oid:2.16.840.1.113883.6.238",
            "code": "1002-5",
            "display": "American Indian or Alaska Native",
            "userSelected": true
          }
        }, {
          "url": "text",
          "valueString": "American Indian or Alaska Native"
        } ]
      }, {
        "url": "http://hl7.org/fhir/us/core/StructureDefinition/us-core-ethnicity",
        "extension": [ {
          "url": "ombCategory",
          "valueCoding": {
            "system": "urn:oid:2.16.840.1.113883.6.238",
            "code": "2135-2",
            "display": "Hispanic or Latino",
            "userSelected": true
          }
        }, {
          "url": "text",
          "valueString": "Hispanic or Latino"
        } ]
      } ],
      "identifier": [ {
        "type": {
          "coding": [ {
            "system": "http://terminology.hl7.org/CodeSystem/v2-0203",
            "code": "MR"
          } ]
        },
        "system": "https://bonnie-fhir.healthit.gov/",
        "value": "6359776b6aee9629c8298235"
      } ],
      "active": true,
      "name": [ {
        "use": "usual",
        "family": "RiskFail",
        "given": [ "RISKWBCRsltDtTimeEQDelStart" ]
      } ],
      "gender": "female",
      "birthDate": "2004-02-01"
    },
    "request": {
      "method": "PUT",
      "url": "Patient/e53da87f-22c3-4c04-919c-31d136a49e83"
    }
  }, {
    "fullUrl": "https://madie.cms.gov/Observation/51f6ad5a-25e6-4b72-aebc-aef5fdcd9500",
    "resource": {
      "resourceType": "Observation",
      "id": "51f6ad5a-25e6-4b72-aebc-aef5fdcd9500",
      "meta": {
        "profile": [ "http://hl7.org/fhir/us/qicore/StructureDefinition/qicore-observation" ]
      },
      "status": "final",
      "category": [ {
        "coding": [ {
          "system": "http://terminology.hl7.org/CodeSystem/observation-category",
          "code": "exam",
          "display": "exam",
          "userSelected": true
        } ]
      } ],
      "code": {
        "coding": [ {
          "system": "http://loinc.org",
          "code": "93857-1"
        } ]
      },
      "subject": {
        "reference": "Patient/e53da87f-22c3-4c04-919c-31d136a49e83"
      },
      "effectiveDateTime": "2025-02-01T08:00:00.000+00:00",
      "valueDateTime": "2025-02-01T08:00:00+00:00"
    },
    "request": {
      "method": "PUT",
      "url": "Observation/51f6ad5a-25e6-4b72-aebc-aef5fdcd9500"
    }
  }, {
    "fullUrl": "https://madie.cms.gov/Observation/30ca0efa-4d41-4978-9bbc-80620ddf3296",
    "resource": {
      "resourceType": "Observation",
      "id": "30ca0efa-4d41-4978-9bbc-80620ddf3296",
      "meta": {
        "profile": [ "http://hl7.org/fhir/us/qicore/StructureDefinition/qicore-observation" ]
      },
      "status": "final",
      "category": [ {
        "coding": [ {
          "system": "http://terminology.hl7.org/CodeSystem/observation-category",
          "code": "exam",
          "display": "exam",
          "userSelected": true
        } ]
      } ],
      "code": {
        "coding": [ {
          "system": "http://loinc.org",
          "code": "11884-4"
        } ]
      },
      "subject": {
        "reference": "Patient/e53da87f-22c3-4c04-919c-31d136a49e83"
      },
      "effectiveDateTime": "2025-02-01T08:00:00.000+00:00",
      "valueQuantity": {
        "value": 21,
        "system": "http://unitsofmeasure.org",
        "code": "wk"
      }
    },
    "request": {
      "method": "PUT",
      "url": "Observation/30ca0efa-4d41-4978-9bbc-80620ddf3296"
    }
  }, {
    "fullUrl": "https://madie.cms.gov/Encounter/e0e4a4c0-f0de-4c7b-97ef-0263365c86d9",
    "resource": {
      "resourceType": "Encounter",
      "id": "e0e4a4c0-f0de-4c7b-97ef-0263365c86d9",
      "meta": {
        "profile": [ "http://hl7.org/fhir/us/qicore/StructureDefinition/qicore-encounter" ]
      },
      "status": "finished",
      "class": {
        "system": "http://terminology.hl7.org/CodeSystem/v3-ActCode",
        "code": "IMP",
        "display": "inpatient encounter"
      },
      "type": [ {
        "coding": [ {
          "system": "http://snomed.info/sct",
          "code": "183452005"
        } ]
      } ],
      "subject": {
        "reference": "Patient/e53da87f-22c3-4c04-919c-31d136a49e83"
      },
      "period": {
        "start": "2025-02-01T08:00:00.000Z",
        "end": "2025-02-05T08:15:00.000Z"
      }
    },
    "request": {
      "method": "PUT",
      "url": "Encounter/e0e4a4c0-f0de-4c7b-97ef-0263365c86d9"
    }
  }, {
    "fullUrl": "https://madie.cms.gov/Encounter/cf22cd01-d0eb-43fb-956c-da1e010693c9",
    "resource": {
      "resourceType": "Encounter",
      "id": "cf22cd01-d0eb-43fb-956c-da1e010693c9",
      "meta": {
        "profile": [ "http://hl7.org/fhir/us/qicore/StructureDefinition/qicore-encounter" ]
      },
      "status": "finished",
      "class": {
        "system": "http://terminology.hl7.org/CodeSystem/v3-ActCode",
        "code": "EMER",
        "display": "emergency"
      },
      "type": [ {
        "coding": [ {
          "system": "http://snomed.info/sct",
          "code": "4525004"
        } ]
      } ],
      "subject": {
        "reference": "Patient/e53da87f-22c3-4c04-919c-31d136a49e83"
      },
      "period": {
        "start": "2025-02-01T07:00:00.000Z",
        "end": "2025-02-01T07:59:00.000Z"
      }
    },
    "request": {
      "method": "PUT",
      "url": "Encounter/cf22cd01-d0eb-43fb-956c-da1e010693c9"
    }
  }, {
    "fullUrl": "https://madie.cms.gov/Procedure/053e5065-e782-486a-a736-6a0930c8a40c",
    "resource": {
      "resourceType": "Procedure",
      "id": "053e5065-e782-486a-a736-6a0930c8a40c",
      "meta": {
        "profile": [ "http://hl7.org/fhir/us/qicore/StructureDefinition/qicore-procedure" ]
      },
      "extension": [ {
        "url": "http://hl7.org/fhir/us/qicore/StructureDefinition/qicore-recorded",
        "valueDateTime": "2025-02-04T09:35:00-04:00"
      } ],
      "status": "completed",
      "code": {
        "coding": [ {
          "system": "http://snomed.info/sct",
          "code": "10745001"
        } ]
      },
      "subject": {
        "reference": "Patient/e53da87f-22c3-4c04-919c-31d136a49e83"
      },
      "performedPeriod": {
        "start": "2025-02-01T08:00:00.000Z",
        "end": "2025-02-05T08:15:00.000Z"
      }
    },
    "request": {
      "method": "PUT",
      "url": "Procedure/053e5065-e782-486a-a736-6a0930c8a40c"
    }
  }, {
    "fullUrl": "https://madie.cms.gov/Observation/ee33bb83-fcc7-4cf7-bd68-d6be71818949",
    "resource": {
      "resourceType": "Observation",
      "id": "ee33bb83-fcc7-4cf7-bd68-d6be71818949",
      "meta": {
        "profile": [ "http://hl7.org/fhir/us/core/StructureDefinition/us-core-observation-lab" ]
      },
      "status": "final",
      "category": [ {
        "coding": [ {
          "system": "http://terminology.hl7.org/CodeSystem/observation-category",
          "code": "laboratory",
          "display": "laboratory",
          "userSelected": true
        } ]
      } ],
      "code": {
        "coding": [ {
          "system": "http://loinc.org",
          "version": "2.73",
          "code": "26464-8",
          "display": "Leukocytes [#/volume] in Blood",
          "userSelected": true
        } ]
      },
      "subject": {
        "reference": "Patient/e53da87f-22c3-4c04-919c-31d136a49e83"
      },
      "effectiveDateTime": "2025-02-01T08:00:00.000+00:00",
      "issued": "2025-02-01T08:00:00.000+00:00",
      "valueQuantity": {
        "value": 20,
        "unit": "10*3/u"
      }
    },
    "request": {
      "method": "PUT",
      "url": "Observation/ee33bb83-fcc7-4cf7-bd68-d6be71818949"
    }
  }, {
    "fullUrl": "https://madie.cms.gov/MeasureReport/3be97bba-4e30-4976-a80d-1bba649db275",
    "resource": {
      "resourceType": "MeasureReport",
      "id": "3be97bba-4e30-4976-a80d-1bba649db275",
      "meta": {
        "profile": [ "http://hl7.org/fhir/us/cqfmeasures/StructureDefinition/test-case-cqfm" ]
      },
      "contained": [ {
        "resourceType": "Parameters",
        "id": "63144756-c210-4192-a35f-3f1b56f7a149-parameters",
        "parameter": [ {
          "name": "subject",
          "valueString": "e53da87f-22c3-4c04-919c-31d136a49e83"
        } ]
      } ],
      "extension": [ {
        "url": "http://hl7.org/fhir/us/cqfmeasures/StructureDefinition/cqfm-inputParameters",
        "valueReference": {
          "reference": "#63144756-c210-4192-a35f-3f1b56f7a149-parameters"
        }
      }, {
        "url": "http://hl7.org/fhir/us/cqfmeasures/StructureDefinition/cqfm-testCaseDescription",
        "valueMarkdown": "Patient with WBC result date/time = delivery date/time \n"
      } ],
      "modifierExtension": [ {
        "url": "http://hl7.org/fhir/us/cqfmeasures/StructureDefinition/cqfm-isTestCase",
        "valueBoolean": true
      } ],
      "status": "complete",
      "type": "individual",
      "measure": "https://madie.cms.gov/Measure/CMS1028FHIRPCSevereOBComps",
      "period": {
        "start": "2025-01-01",
        "end": "2025-12-31"
      },
      "group": [ {
        "population": [ {
          "code": {
            "coding": [ {
              "system": "http://terminology.hl7.org/CodeSystem/measure-population",
              "code": "initial-population",
              "display": "Initial Population"
            } ]
          },
          "count": 1
        }, {
          "code": {
            "coding": [ {
              "system": "http://terminology.hl7.org/CodeSystem/measure-population",
              "code": "denominator",
              "display": "Denominator"
            } ]
          },
          "count": 1
        }, {
          "code": {
            "coding": [ {
              "system": "http://terminology.hl7.org/CodeSystem/measure-population",
              "code": "numerator",
              "display": "Numerator"
            } ]
          },
          "count": 0
        }, {
          "code": {
            "coding": [ {
              "system": "http://terminology.hl7.org/CodeSystem/measure-population",
              "code": "numerator-exclusion",
              "display": "Numerator Exclusion"
            } ]
          },
          "count": 0
        } ]
      }, {
        "population": [ {
          "code": {
            "coding": [ {
              "system": "http://terminology.hl7.org/CodeSystem/measure-population",
              "code": "initial-population",
              "display": "Initial Population"
            } ]
          },
          "count": 1
        }, {
          "code": {
            "coding": [ {
              "system": "http://terminology.hl7.org/CodeSystem/measure-population",
              "code": "denominator",
              "display": "Denominator"
            } ]
          },
          "count": 1
        }, {
          "code": {
            "coding": [ {
              "system": "http://terminology.hl7.org/CodeSystem/measure-population",
              "code": "numerator",
              "display": "Numerator"
            } ]
          },
          "count": 0
        }, {
          "code": {
            "coding": [ {
              "system": "http://terminology.hl7.org/CodeSystem/measure-population",
              "code": "numerator-exclusion",
              "display": "Numerator Exclusion"
            } ]
          },
          "count": 0
        } ]
      } ],
      "evaluatedResource": [ {
        "reference": "Patient/e53da87f-22c3-4c04-919c-31d136a49e83"
      }, {
        "reference": "Observation/51f6ad5a-25e6-4b72-aebc-aef5fdcd9500"
      }, {
        "reference": "Observation/30ca0efa-4d41-4978-9bbc-80620ddf3296"
      }, {
        "reference": "Encounter/e0e4a4c0-f0de-4c7b-97ef-0263365c86d9"
      }, {
        "reference": "Encounter/cf22cd01-d0eb-43fb-956c-da1e010693c9"
      }, {
        "reference": "Procedure/053e5065-e782-486a-a736-6a0930c8a40c"
      }, {
        "reference": "Observation/ee33bb83-fcc7-4cf7-bd68-d6be71818949"
      } ]
    },
    "request": {
      "method": "PUT",
      "url": "MeasureReport/3be97bba-4e30-4976-a80d-1bba649db275"
    }
  } ]
}