{
  "resourceType": "Bundle",
  "id": "63487c2f0968f80122540195",
  "type": "transaction",
  "entry": [ {
    "fullUrl": "https://madie.cms.gov/Patient/1ec8fccf-d982-4dcd-a0df-94b9c1150fd6",
    "resource": {
      "resourceType": "Patient",
      "id": "1ec8fccf-d982-4dcd-a0df-94b9c1150fd6",
      "meta": {
        "profile": [ "http://hl7.org/fhir/us/qicore/StructureDefinition/qicore-patient" ]
      },
      "text": {
        "status": "generated",
        "div": "<div xmlns=\"http://www.w3.org/1999/xhtml\"><div class=\"hapiHeaderText\">AssessPerfAbnPresRelDtTimeEQTimeOfDeliv <b>DENEXPASS </b></div><table class=\"hapiPropertyTable\"><tbody><tr><td>Identifier</td><td>026ef11ad83a8a7cf2dd9a5df623df3fb5fe5e8210cfb6bc83e410fca26c8633</td></tr><tr><td>Date of birth</td><td><span>14 February 1985</span></td></tr></tbody></table></div>"
      },
      "extension": [ {
        "url": "http://hl7.org/fhir/us/core/StructureDefinition/us-core-race",
        "extension": [ {
          "url": "ombCategory",
          "valueCoding": {
            "system": "urn:oid:2.16.840.1.113883.6.238",
            "code": "1002-5",
            "display": "American Indian or Alaska Native",
            "userSelected": true
          }
        }, {
          "url": "text",
          "valueString": "American Indian or Alaska Native"
        } ]
      }, {
        "url": "http://hl7.org/fhir/us/core/StructureDefinition/us-core-ethnicity",
        "extension": [ {
          "url": "ombCategory",
          "valueCoding": {
            "system": "urn:oid:2.16.840.1.113883.6.238",
            "code": "2135-2",
            "display": "Hispanic or Latino",
            "userSelected": true
          }
        }, {
          "url": "text",
          "valueString": "Hispanic or Latino"
        } ]
      } ],
      "identifier": [ {
        "type": {
          "coding": [ {
            "system": "http://terminology.hl7.org/CodeSystem/v2-0203",
            "code": "MR"
          } ]
        },
        "system": "https://bonnie-fhir.healthit.gov/",
        "value": "63487c2f0968f80122540195"
      } ],
      "active": true,
      "name": [ {
        "use": "usual",
        "family": "DENEXPass",
        "given": [ "AssessPerfAbnPresRelDtTimeEQTimeOfDeliv" ]
      } ],
      "gender": "female",
      "birthDate": "1998-02-14"
    },
    "request": {
      "method": "PUT",
      "url": "Patient/1ec8fccf-d982-4dcd-a0df-94b9c1150fd6"
    }
  }, {
    "fullUrl": "https://madie.cms.gov/Observation/f90382bf-416a-4ec5-9611-d59f7564f263",
    "resource": {
      "resourceType": "Observation",
      "id": "f90382bf-416a-4ec5-9611-d59f7564f263",
      "meta": {
        "profile": [ "http://hl7.org/fhir/us/qicore/StructureDefinition/qicore-observation" ]
      },
      "status": "final",
      "category": [ {
        "coding": [ {
          "system": "http://terminology.hl7.org/CodeSystem/observation-category",
          "code": "exam",
          "display": "exam",
          "userSelected": true
        } ]
      } ],
      "code": {
        "coding": [ {
          "system": "http://loinc.org",
          "code": "11996-6"
        } ]
      },
      "subject": {
        "reference": "Patient/1ec8fccf-d982-4dcd-a0df-94b9c1150fd6"
      },
      "effectiveDateTime": "2026-06-08T08:00:00.000+00:00",
      "valueInteger": 1
    },
    "request": {
      "method": "PUT",
      "url": "Observation/f90382bf-416a-4ec5-9611-d59f7564f263"
    }
  }, {
    "fullUrl": "https://madie.cms.gov/Observation/79933256-a7de-4519-a1a1-412df203a676",
    "resource": {
      "resourceType": "Observation",
      "id": "79933256-a7de-4519-a1a1-412df203a676",
      "meta": {
        "profile": [ "http://hl7.org/fhir/us/qicore/StructureDefinition/qicore-observation" ]
      },
      "status": "final",
      "category": [ {
        "coding": [ {
          "system": "http://terminology.hl7.org/CodeSystem/observation-category",
          "code": "exam",
          "display": "exam",
          "userSelected": true
        } ]
      } ],
      "code": {
        "coding": [ {
          "system": "http://loinc.org",
          "code": "11884-4"
        } ]
      },
      "subject": {
        "reference": "Patient/1ec8fccf-d982-4dcd-a0df-94b9c1150fd6"
      },
      "effectiveDateTime": "2026-06-08T08:00:00.000+00:00",
      "valueQuantity": {
        "value": 43,
        "system": "http://unitsofmeasure.org",
        "code": "wk"
      }
    },
    "request": {
      "method": "PUT",
      "url": "Observation/79933256-a7de-4519-a1a1-412df203a676"
    }
  }, {
    "fullUrl": "https://madie.cms.gov/Observation/aa7f4e28-19f1-4e1d-9171-eff9351a5cd3",
    "resource": {
      "resourceType": "Observation",
      "id": "aa7f4e28-19f1-4e1d-9171-eff9351a5cd3",
      "meta": {
        "profile": [ "http://hl7.org/fhir/us/qicore/StructureDefinition/qicore-observation" ]
      },
      "status": "final",
      "category": [ {
        "coding": [ {
          "system": "http://terminology.hl7.org/CodeSystem/observation-category",
          "code": "exam",
          "display": "exam",
          "userSelected": true
        } ]
      } ],
      "code": {
        "coding": [ {
          "system": "http://loinc.org",
          "code": "93857-1"
        } ]
      },
      "subject": {
        "reference": "Patient/1ec8fccf-d982-4dcd-a0df-94b9c1150fd6"
      },
      "effectiveDateTime": "2026-06-08T20:00:00.000+00:00",
      "valueDateTime": "2026-06-08T20:00:00.000+00:00"
    },
    "request": {
      "method": "PUT",
      "url": "Observation/aa7f4e28-19f1-4e1d-9171-eff9351a5cd3"
    }
  }, {
    "fullUrl": "https://madie.cms.gov/Observation/55db2fca-ad1c-4631-a6be-777f746a3300",
    "resource": {
      "resourceType": "Observation",
      "id": "55db2fca-ad1c-4631-a6be-777f746a3300",
      "meta": {
        "profile": [ "http://hl7.org/fhir/us/qicore/StructureDefinition/qicore-observation" ]
      },
      "status": "final",
      "category": [ {
        "coding": [ {
          "system": "http://terminology.hl7.org/CodeSystem/observation-category",
          "code": "exam",
          "display": "exam",
          "userSelected": true
        } ]
      } ],
      "code": {
        "coding": [ {
          "system": "http://snomed.info/sct",
          "code": "18559007"
        } ]
      },
      "subject": {
        "reference": "Patient/1ec8fccf-d982-4dcd-a0df-94b9c1150fd6"
      },
      "effectiveDateTime": "2026-06-08T20:00:00.000+00:00"
    },
    "request": {
      "method": "PUT",
      "url": "Observation/55db2fca-ad1c-4631-a6be-777f746a3300"
    }
  }, {
    "fullUrl": "https://madie.cms.gov/Encounter/8cc064d0-f8b0-4035-9c88-66c753bd0d7f",
    "resource": {
      "resourceType": "Encounter",
      "id": "8cc064d0-f8b0-4035-9c88-66c753bd0d7f",
      "meta": {
        "profile": [ "http://hl7.org/fhir/us/qicore/StructureDefinition/qicore-encounter" ]
      },
      "status": "finished",
      "class": {
        "system": "http://terminology.hl7.org/CodeSystem/v3-ActCode",
        "code": "IMP",
        "display": "inpatient encounter"
      },
      "type": [ {
        "coding": [ {
          "system": "http://snomed.info/sct",
          "code": "8715000"
        } ]
      } ],
      "subject": {
        "reference": "Patient/1ec8fccf-d982-4dcd-a0df-94b9c1150fd6"
      },
      "period": {
        "start": "2026-06-08T08:00:00.000Z",
        "end": "2026-06-10T08:15:00.000Z"
      },
      "diagnosis": [ {
        "condition": {
          "reference": "Condition/8cf84f87-ce1c-4ff5-970d-9134694b9511"
        }
      } ]
    },
    "request": {
      "method": "PUT",
      "url": "Encounter/8cc064d0-f8b0-4035-9c88-66c753bd0d7f"
    }
  }, {
    "fullUrl": "https://madie.cms.gov/Procedure/b6fd4c29-412f-491c-bc84-33c0f4b1f267",
    "resource": {
      "resourceType": "Procedure",
      "id": "b6fd4c29-412f-491c-bc84-33c0f4b1f267",
      "meta": {
        "profile": [ "http://hl7.org/fhir/us/qicore/StructureDefinition/qicore-procedure" ]
      },
      "extension": [ {
        "url": "http://hl7.org/fhir/us/qicore/StructureDefinition/qicore-recorded",
        "valueDateTime": "2014-04-05T09:35:00-04:00"
      } ],
      "status": "completed",
      "code": {
        "coding": [ {
          "system": "http://www.cms.gov/Medicare/Coding/ICD10",
          "code": "10D00Z0"
        }, {
          "system": "http://www.icd10data.com/icd10pcs",
          "code": "10D00Z0",
          "userSelected": true
        } ]
      },
      "subject": {
        "reference": "Patient/1ec8fccf-d982-4dcd-a0df-94b9c1150fd6"
      },
      "performedDateTime": "2026-06-08T08:00:00.000+00:00"
    },
    "request": {
      "method": "PUT",
      "url": "Procedure/b6fd4c29-412f-491c-bc84-33c0f4b1f267"
    }
  }, {
    "fullUrl": "https://madie.cms.gov/Condition/8cf84f87-ce1c-4ff5-970d-9134694b9511",
    "resource": {
      "resourceType": "Condition",
      "id": "8cf84f87-ce1c-4ff5-970d-9134694b9511",
      "meta": {
        "profile": [ "http://hl7.org/fhir/us/qicore/StructureDefinition/qicore-condition" ]
      },
      "category": [ {
        "coding": [ {
          "system": "http://terminology.hl7.org/CodeSystem/condition-category",
          "code": "encounter-diagnosis",
          "display": "Encounter Diagnosis"
        } ]
      } ],
      "code": {
        "coding": [ {
          "system": "http://snomed.info/sct",
          "version": "2022-09",
          "code": "169826009",
          "display": "Single live birth (finding)",
          "userSelected": true
        } ]
      },
      "subject": {
        "reference": "Patient/1ec8fccf-d982-4dcd-a0df-94b9c1150fd6"
      },
      "recordedDate": "2026-10-17T08:00:00.000+00:00"
    },
    "request": {
      "method": "PUT",
      "url": "Condition/8cf84f87-ce1c-4ff5-970d-9134694b9511"
    }
  }, {
    "fullUrl": "https://madie.cms.gov/Coverage/598b10c8-480b-4617-8c5b-4824d283c610",
    "resource": {
      "resourceType": "Coverage",
      "id": "598b10c8-480b-4617-8c5b-4824d283c610",
      "meta": {
        "profile": [ "http://hl7.org/fhir/us/qicore/StructureDefinition/qicore-coverage" ]
      },
      "status": "active",
      "beneficiary": {
        "reference": "Patient/1ec8fccf-d982-4dcd-a0df-94b9c1150fd6"
      },
      "payor": [ {
        "reference": "Organization/177741fe-abb2-4753-a250-d337dcd9b418"
      } ]
    },
    "request": {
      "method": "PUT",
      "url": "Coverage/598b10c8-480b-4617-8c5b-4824d283c610"
    }
  }, {
    "fullUrl": "https://madie.cms.gov/Organization/177741fe-abb2-4753-a250-d337dcd9b418",
    "resource": {
      "resourceType": "Organization",
      "id": "177741fe-abb2-4753-a250-d337dcd9b418",
      "meta": {
        "profile": [ "http://hl7.org/fhir/us/qicore/StructureDefinition/qicore-organization" ]
      },
      "identifier": [ {
        "use": "temp",
        "system": "urn:oid:2.16.840.1.113883.4.4",
        "value": "21-3259825"
      } ],
      "active": true,
      "type": [ {
        "coding": [ {
          "system": "http://terminology.hl7.org/CodeSystem/organization-type",
          "code": "pay",
          "display": "Payer"
        } ]
      } ],
      "name": "Blue Cross Blue Shield of Texas",
      "telecom": [ {
        "system": "phone",
        "value": "(+1) 972-766-6900"
      } ],
      "address": [ {
        "use": "billing",
        "type": "postal",
        "line": [ "P.O. Box 660044" ],
        "city": "Dallas",
        "state": "TX",
        "postalCode": "75266-0044",
        "country": "USA"
      } ]
    },
    "request": {
      "method": "PUT",
      "url": "Organization/177741fe-abb2-4753-a250-d337dcd9b418"
    }
  }, {
    "fullUrl": "https://madie.cms.gov/Practitioner/7c02a958-334d-4bcf-9dea-68e13c3e7183",
    "resource": {
      "resourceType": "Practitioner",
      "id": "7c02a958-334d-4bcf-9dea-68e13c3e7183",
      "identifier": [ {
        "system": "http://hl7.org/fhir/sid/us-npi",
        "value": "123456"
      } ],
      "name": [ {
        "family": "Evil",
        "prefix": [ "Dr" ]
      } ]
    },
    "request": {
      "method": "PUT",
      "url": "Practitioner/7c02a958-334d-4bcf-9dea-68e13c3e7183"
    }
  }, {
    "fullUrl": "https://madie.cms.gov/MeasureReport/987be935-df93-4d1f-b7c8-037ac36fdd8f",
    "resource": {
      "resourceType": "MeasureReport",
      "id": "987be935-df93-4d1f-b7c8-037ac36fdd8f",
      "meta": {
        "profile": [ "http://hl7.org/fhir/us/cqfmeasures/StructureDefinition/test-case-cqfm" ]
      },
      "contained": [ {
        "resourceType": "Parameters",
        "id": "0c6b74f1-aab1-48aa-bd93-b593b3935f9c-parameters",
        "parameter": [ {
          "name": "subject",
          "valueString": "1ec8fccf-d982-4dcd-a0df-94b9c1150fd6"
        } ]
      } ],
      "extension": [ {
        "url": "http://hl7.org/fhir/us/cqfmeasures/StructureDefinition/cqfm-inputParameters",
        "valueReference": {
          "reference": "#0c6b74f1-aab1-48aa-bd93-b593b3935f9c-parameters"
        }
      }, {
        "url": "http://hl7.org/fhir/us/cqfmeasures/StructureDefinition/cqfm-testCaseDescription",
        "valueMarkdown": "EGA 43 weeks; Assessment performed Abnormal presentation Relevant Dt/time equal the Date time of obstetric delivery , gravida 1, \n"
      } ],
      "modifierExtension": [ {
        "url": "http://hl7.org/fhir/us/cqfmeasures/StructureDefinition/cqfm-isTestCase",
        "valueBoolean": true
      } ],
      "status": "complete",
      "type": "individual",
      "measure": "https://madie.cms.gov/Measure/CMS334FHIRPCCesareanBirth",
      "period": {
        "start": "2026-01-01",
        "end": "2026-12-31"
      },
      "group": [ {
        "population": [ {
          "code": {
            "coding": [ {
              "system": "http://terminology.hl7.org/CodeSystem/measure-population",
              "code": "initial-population",
              "display": "Initial Population"
            } ]
          },
          "count": 1
        }, {
          "code": {
            "coding": [ {
              "system": "http://terminology.hl7.org/CodeSystem/measure-population",
              "code": "denominator",
              "display": "Denominator"
            } ]
          },
          "count": 1
        }, {
          "code": {
            "coding": [ {
              "system": "http://terminology.hl7.org/CodeSystem/measure-population",
              "code": "denominator-exclusion",
              "display": "Denominator Exclusion"
            } ]
          },
          "count": 1
        }, {
          "code": {
            "coding": [ {
              "system": "http://terminology.hl7.org/CodeSystem/measure-population",
              "code": "numerator",
              "display": "Numerator"
            } ]
          },
          "count": 0
        } ]
      } ],
      "evaluatedResource": [ {
        "reference": "Patient/1ec8fccf-d982-4dcd-a0df-94b9c1150fd6"
      }, {
        "reference": "Observation/f90382bf-416a-4ec5-9611-d59f7564f263"
      }, {
        "reference": "Observation/79933256-a7de-4519-a1a1-412df203a676"
      }, {
        "reference": "Observation/aa7f4e28-19f1-4e1d-9171-eff9351a5cd3"
      }, {
        "reference": "Observation/55db2fca-ad1c-4631-a6be-777f746a3300"
      }, {
        "reference": "Encounter/8cc064d0-f8b0-4035-9c88-66c753bd0d7f"
      }, {
        "reference": "Procedure/b6fd4c29-412f-491c-bc84-33c0f4b1f267"
      }, {
        "reference": "Condition/8cf84f87-ce1c-4ff5-970d-9134694b9511"
      }, {
        "reference": "Coverage/598b10c8-480b-4617-8c5b-4824d283c610"
      }, {
        "reference": "Organization/177741fe-abb2-4753-a250-d337dcd9b418"
      }, {
        "reference": "Practitioner/7c02a958-334d-4bcf-9dea-68e13c3e7183"
      } ]
    },
    "request": {
      "method": "PUT",
      "url": "MeasureReport/987be935-df93-4d1f-b7c8-037ac36fdd8f"
    }
  } ]
}