{"resourceType":"Bundle","id":"tests-bb261749-b2c6-49b1-b42c-0f42a689b431-bundle","type":"transaction","entry":[{"resource":{"resourceType":"Bundle","id":"610965b998086b538055c15f","type":"transaction","entry":[{"fullUrl":"https://madie.cms.gov/Patient/bb261749-b2c6-49b1-b42c-0f42a689b431","resource":{"resourceType":"Patient","id":"bb261749-b2c6-49b1-b42c-0f42a689b431","meta":{"profile":["http://hl7.org/fhir/us/qicore/StructureDefinition/qicore-patient"]},"text":{"status":"generated","div":"<div xmlns=\"http://www.w3.org/1999/xhtml\"><div class=\"hapiHeaderText\">Age64Dec31 <b>IPPASS </b></div><table class=\"hapiPropertyTable\"><tbody><tr><td>Date of birth</td><td><span>01 January 1947</span></td></tr></tbody></table></div>"},"extension":[{"url":"http://hl7.org/fhir/us/core/StructureDefinition/us-core-race","extension":[{"url":"ombCategory","valueCoding":{"system":"urn:oid:2.16.840.1.113883.6.238","code":"1002-5","display":"American Indian or Alaska Native","userSelected":true}},{"url":"text","valueString":"American Indian or Alaska Native"}]},{"url":"http://hl7.org/fhir/us/core/StructureDefinition/us-core-ethnicity","extension":[{"url":"ombCategory","valueCoding":{"system":"urn:oid:2.16.840.1.113883.6.238","code":"2135-2","display":"Hispanic or Latino","userSelected":true}},{"url":"text","valueString":"Hispanic or Latino"}]}],"identifier":[{"type":{"coding":[{"system":"http://terminology.hl7.org/CodeSystem/v2-0203","code":"MR"}]},"system":"https://bonnie-fhir.healthit.gov/","value":"610965b998086b538055c15f"}],"active":true,"name":[{"use":"usual","family":"IPPPass","given":["Age64Dec31"]}],"gender":"female","birthDate":"1960-01-01"},"request":{"method":"POST","url":"Patient/bb261749-b2c6-49b1-b42c-0f42a689b431"}},{"fullUrl":"https://madie.cms.gov/Encounter/602aba4b37c1b30000556861","resource":{"resourceType":"Encounter","id":"602aba4b37c1b30000556861","meta":{"profile":["http://hl7.org/fhir/us/qicore/StructureDefinition/qicore-encounter"]},"status":"finished","class":{"system":"http://terminology.hl7.org/CodeSystem/v3-ActCode","code":"AMB","display":"ambulatory","userSelected":true},"type":[{"coding":[{"system":"http://www.ama-assn.org/go/cpt","code":"99213"}]}],"subject":{"reference":"Patient/bb261749-b2c6-49b1-b42c-0f42a689b431"},"period":{"start":"2025-02-20T08:00:00.000+00:00","end":"2025-02-20T08:30:00.000+00:00"}},"request":{"method":"POST","url":"Encounter/602aba4b37c1b30000556861"}},{"fullUrl":"https://madie.cms.gov/MeasureReport/711a3f16-2dba-4ffb-9f68-809d50e83c24","resource":{"resourceType":"MeasureReport","id":"711a3f16-2dba-4ffb-9f68-809d50e83c24","meta":{"profile":["http://hl7.org/fhir/us/cqfmeasures/StructureDefinition/test-case-cqfm"]},"contained":[{"resourceType":"Parameters","id":"ec76c0ff-4a54-4614-b259-82ec18a8eeb7-parameters","parameter":[{"name":"subject","valueString":"bb261749-b2c6-49b1-b42c-0f42a689b431"}]}],"extension":[{"url":"http://hl7.org/fhir/us/cqfmeasures/StructureDefinition/cqfm-inputParameters","valueReference":{"reference":"#ec76c0ff-4a54-4614-b259-82ec18a8eeb7-parameters"}},{"url":"http://hl7.org/fhir/us/cqfmeasures/StructureDefinition/cqfm-testCaseDescription","valueMarkdown":"Patient is 64 on 12/31/2022 - turns 65 on start of MP"}],"modifierExtension":[{"url":"http://hl7.org/fhir/us/cqfmeasures/StructureDefinition/cqfm-isTestCase","valueBoolean":true}],"status":"complete","type":"individual","measure":"https://madie.cms.gov/Measure/HIVScreeningFHIR","period":{"start":"2025-01-01","end":"2025-12-31"},"group":[{"population":[{"code":{"coding":[{"system":"http://terminology.hl7.org/CodeSystem/measure-population","code":"initial-population","display":"Initial Population"}]},"count":1},{"code":{"coding":[{"system":"http://terminology.hl7.org/CodeSystem/measure-population","code":"denominator","display":"Denominator"}]},"count":1},{"code":{"coding":[{"system":"http://terminology.hl7.org/CodeSystem/measure-population","code":"denominator-exclusion","display":"Denominator Exclusion"}]},"count":0},{"code":{"coding":[{"system":"http://terminology.hl7.org/CodeSystem/measure-population","code":"numerator","display":"Numerator"}]},"count":0}]}],"evaluatedResource":[{"reference":"https://madie.cms.gov/Patient/bb261749-b2c6-49b1-b42c-0f42a689b431"},{"reference":"https://madie.cms.gov/Encounter/602aba4b37c1b30000556861"}]},"request":{"method":"POST","url":"MeasureReport/711a3f16-2dba-4ffb-9f68-809d50e83c24"}}]},"request":{"method":"PUT","url":"Bundle/610965b998086b538055c15f"}}]}