{
  "resourceType": "Bundle",
  "id": "h1f044ef3e654daa9122",
  "type": "transaction",
  "entry": [ {
    "fullUrl": "https://madie.cms.gov/Patient/ae7150fa-283f-4689-abff-ca7f29101609",
    "resource": {
      "resourceType": "Patient",
      "id": "ae7150fa-283f-4689-abff-ca7f29101609",
      "meta": {
        "profile": [ "http://hl7.org/fhir/us/qicore/StructureDefinition/qicore-patient" ]
      },
      "extension": [ {
        "url": "http://hl7.org/fhir/us/core/StructureDefinition/us-core-race",
        "extension": [ {
          "url": "ombCategory",
          "valueCoding": {
            "system": "urn:oid:2.16.840.1.113883.6.238",
            "code": "2028-9",
            "display": "Asian",
            "userSelected": true
          }
        }, {
          "url": "text",
          "valueString": "Asian"
        } ]
      }, {
        "url": "http://hl7.org/fhir/us/core/StructureDefinition/us-core-ethnicity",
        "extension": [ {
          "url": "ombCategory",
          "valueCoding": {
            "system": "urn:oid:2.16.840.1.113883.6.238",
            "code": "2186-5",
            "display": "Non Hispanic or Latino",
            "userSelected": true
          }
        }, {
          "url": "text",
          "valueString": "Non Hispanic or Latino"
        } ]
      } ],
      "identifier": [ {
        "type": {
          "coding": [ {
            "system": "http://terminology.hl7.org/CodeSystem/v2-0203",
            "code": "MR"
          } ]
        },
        "system": "https://bonnie-fhir.healthit.gov/",
        "value": "3d857fa7-5019-4e4c-96a5-d48d7a194d29"
      } ],
      "name": [ {
        "family": "DENEXCL11PASS",
        "given": [ "HospiceHomeDischargeDispositionBeforeED" ]
      } ],
      "gender": "female",
      "birthDate": "1960-10-09"
    },
    "request": {
      "method": "PUT",
      "url": "Patient/ae7150fa-283f-4689-abff-ca7f29101609"
    }
  }, {
    "fullUrl": "https://madie.cms.gov/Encounter/bb927c43-fbd3-4061-adca-161cdfaf32d4",
    "resource": {
      "resourceType": "Encounter",
      "id": "bb927c43-fbd3-4061-adca-161cdfaf32d4",
      "meta": {
        "profile": [ "http://hl7.org/fhir/us/qicore/StructureDefinition/qicore-encounter" ]
      },
      "status": "finished",
      "class": {
        "system": "http://terminology.hl7.org/CodeSystem/v3-ActCode",
        "code": "EMER",
        "display": "emergency",
        "userSelected": true
      },
      "type": [ {
        "coding": [ {
          "system": "http://snomed.info/sct",
          "version": "2020-09",
          "code": "4525004",
          "display": "Emergency department patient visit",
          "userSelected": true
        } ]
      } ],
      "subject": {
        "reference": "Patient/ae7150fa-283f-4689-abff-ca7f29101609"
      },
      "period": {
        "start": "2026-10-09T05:00:00.000+00:00",
        "end": "2026-10-13T17:00:00.000+00:00"
      },
      "diagnosis": [ {
        "condition": {
          "reference": "Condition/d69fd779-b5f3-4a26-a621-1417e0d88031"
        }
      } ]
    },
    "request": {
      "method": "PUT",
      "url": "Encounter/bb927c43-fbd3-4061-adca-161cdfaf32d4"
    }
  }, {
    "fullUrl": "https://madie.cms.gov/Encounter/57506f5b-b7fa-42e2-aeb6-640a7c9814c1",
    "resource": {
      "resourceType": "Encounter",
      "id": "57506f5b-b7fa-42e2-aeb6-640a7c9814c1",
      "meta": {
        "profile": [ "http://hl7.org/fhir/us/qicore/StructureDefinition/qicore-encounter" ]
      },
      "status": "finished",
      "class": {
        "system": "http://terminology.hl7.org/CodeSystem/v3-ActCode",
        "code": "EMER",
        "display": "emergency",
        "userSelected": true
      },
      "type": [ {
        "coding": [ {
          "system": "http://snomed.info/sct",
          "code": "32485007",
          "display": "Hospital admission (procedure)",
          "userSelected": true
        } ]
      } ],
      "subject": {
        "reference": "Patient/ae7150fa-283f-4689-abff-ca7f29101609"
      },
      "period": {
        "start": "2026-08-12T05:00:00.000+00:00",
        "end": "2026-08-19T12:00:00.000+00:00"
      },
      "hospitalization": {
        "dischargeDisposition": {
          "coding": [ {
            "system": "http://snomed.info/sct",
            "code": "428361000124107",
            "display": "Discharge to home for hospice care (procedure)",
            "userSelected": true
          } ]
        }
      }
    },
    "request": {
      "method": "PUT",
      "url": "Encounter/57506f5b-b7fa-42e2-aeb6-640a7c9814c1"
    }
  }, {
    "fullUrl": "https://madie.cms.gov/Condition/d69fd779-b5f3-4a26-a621-1417e0d88031",
    "resource": {
      "resourceType": "Condition",
      "id": "d69fd779-b5f3-4a26-a621-1417e0d88031",
      "meta": {
        "profile": [ "http://hl7.org/fhir/us/qicore/StructureDefinition/qicore-condition" ]
      },
      "clinicalStatus": {
        "coding": [ {
          "system": "http://terminology.hl7.org/CodeSystem/condition-clinical",
          "code": "active",
          "display": "Active",
          "userSelected": true
        } ]
      },
      "category": [ {
        "coding": [ {
          "system": "http://terminology.hl7.org/CodeSystem/condition-category",
          "code": "encounter-diagnosis",
          "display": "Encounter Diagnosis",
          "userSelected": true
        } ]
      } ],
      "code": {
        "coding": [ {
          "system": "http://hl7.org/fhir/sid/icd-10-cm",
          "code": "I21.21",
          "display": "ST elevation (STEMI) myocardial infarction involving left circumflex coronary artery",
          "userSelected": true
        } ]
      },
      "subject": {
        "reference": "Patient/ae7150fa-283f-4689-abff-ca7f29101609"
      },
      "encounter": {
        "reference": "Encounter/bb927c43-fbd3-4061-adca-161cdfaf32d4"
      },
      "onsetPeriod": {
        "start": "2026-10-09T05:00:00.000+00:00",
        "end": "2026-10-09T17:00:00.000+00:00"
      }
    },
    "request": {
      "method": "PUT",
      "url": "Condition/d69fd779-b5f3-4a26-a621-1417e0d88031"
    }
  }, {
    "fullUrl": "https://madie.cms.gov/MeasureReport/99460d25-5ebc-47f8-a523-797b09947b5c",
    "resource": {
      "resourceType": "MeasureReport",
      "id": "99460d25-5ebc-47f8-a523-797b09947b5c",
      "meta": {
        "profile": [ "http://hl7.org/fhir/us/cqfmeasures/StructureDefinition/test-case-cqfm" ]
      },
      "contained": [ {
        "resourceType": "Parameters",
        "id": "9d5d597e-997a-482d-8350-1a2c93238b02-parameters",
        "parameter": [ {
          "name": "subject",
          "valueString": "ae7150fa-283f-4689-abff-ca7f29101609"
        } ]
      } ],
      "extension": [ {
        "url": "http://hl7.org/fhir/us/cqfmeasures/StructureDefinition/cqfm-inputParameters",
        "valueReference": {
          "reference": "#9d5d597e-997a-482d-8350-1a2c93238b02-parameters"
        }
      }, {
        "url": "http://hl7.org/fhir/us/cqfmeasures/StructureDefinition/cqfm-testCaseDescription",
        "valueMarkdown": "Patients has hospice discharge disposition (home) before ED"
      } ],
      "modifierExtension": [ {
        "url": "http://hl7.org/fhir/us/cqfmeasures/StructureDefinition/cqfm-isTestCase",
        "valueBoolean": true
      } ],
      "status": "complete",
      "type": "individual",
      "measure": "https://madie.cms.gov/Measure/CMS996FHIRAptTxforSTEMI",
      "period": {
        "start": "2026-01-01",
        "end": "2026-12-31"
      },
      "group": [ {
        "population": [ {
          "code": {
            "coding": [ {
              "system": "http://terminology.hl7.org/CodeSystem/measure-population",
              "code": "initial-population",
              "display": "Initial Population"
            } ]
          },
          "count": 1
        }, {
          "code": {
            "coding": [ {
              "system": "http://terminology.hl7.org/CodeSystem/measure-population",
              "code": "denominator",
              "display": "Denominator"
            } ]
          },
          "count": 1
        }, {
          "code": {
            "coding": [ {
              "system": "http://terminology.hl7.org/CodeSystem/measure-population",
              "code": "denominator-exclusion",
              "display": "Denominator Exclusion"
            } ]
          },
          "count": 1
        }, {
          "code": {
            "coding": [ {
              "system": "http://terminology.hl7.org/CodeSystem/measure-population",
              "code": "numerator",
              "display": "Numerator"
            } ]
          },
          "count": 0
        }, {
          "code": {
            "coding": [ {
              "system": "http://terminology.hl7.org/CodeSystem/measure-population",
              "code": "denominator-exception",
              "display": "Denominator Exception"
            } ]
          },
          "count": 0
        } ]
      } ],
      "evaluatedResource": [ {
        "reference": "Patient/ae7150fa-283f-4689-abff-ca7f29101609"
      }, {
        "reference": "Encounter/bb927c43-fbd3-4061-adca-161cdfaf32d4"
      }, {
        "reference": "Encounter/57506f5b-b7fa-42e2-aeb6-640a7c9814c1"
      }, {
        "reference": "Condition/d69fd779-b5f3-4a26-a621-1417e0d88031"
      } ]
    },
    "request": {
      "method": "PUT",
      "url": "MeasureReport/99460d25-5ebc-47f8-a523-797b09947b5c"
    }
  } ]
}