{"resourceType":"Bundle","id":"tests-f6a15d18-bde3-49cd-88b6-45430eb0bd42-bundle","type":"transaction","entry":[{"fullUrl":"https://madie.cms.gov/Patient/f6a15d18-bde3-49cd-88b6-45430eb0bd42","resource":{"resourceType":"Patient","id":"f6a15d18-bde3-49cd-88b6-45430eb0bd42","meta":{"profile":["http://hl7.org/fhir/us/qicore/StructureDefinition/qicore-patient"]},"text":{"status":"generated","div":"<div xmlns=\"http://www.w3.org/1999/xhtml\"><div class=\"hapiHeaderText\">ScreNotatriNorefAsseModNodxNocp2, , <b> </b></div><table class=\"hapiPropertyTable\"><tbody><tr><td>Identifier</td><td>ScreNotatriNorefAsseModNodxNocp2</td></tr><tr><td>Date of birth</td><td><span>14 May 1950</span></td></tr></tbody></table></div>"},"extension":[{"url":"http://hl7.org/fhir/us/core/StructureDefinition/us-core-race","extension":[{"url":"ombCategory","valueCoding":{"system":"urn:oid:2.16.840.1.113883.6.238","code":"2106-3","display":"Other","userSelected":true}},{"url":"text","valueString":"Other"}]},{"url":"http://hl7.org/fhir/us/core/StructureDefinition/us-core-ethnicity","extension":[{"url":"ombCategory","valueCoding":{"system":"urn:oid:2.16.840.1.113883.6.238","code":"2135-2","display":"Hispanic or Latino","userSelected":true}},{"url":"text","valueString":"Hispanic or Latino"}]}],"identifier":[{"type":{"coding":[{"system":"http://terminology.hl7.org/CodeSystem/v2-0203","code":"MR"}]},"system":"https://madie.cms.gov/","value":"ScreNotatriNorefAsseModNodxNocp2"}],"active":true,"name":[{"use":"usual","text":"ScreNotatriNorefAsseModNodxNocp2","family":"OCCURPass1","given":["ScreNotatriNorefAsseModNodxNocp2DENOMPass1"]}],"gender":"male","birthDate":"1938-12-31","address":[{"text":"ScreNotatriNorefAsseModNodxNocp2, Screened Not at risk Assessed Severely Malnourished Diagnosed Care Plan, ID=ScreNotatriNorefAsseModNodxNocp2, DOB: 14 May 1950"}]},"request":{"method":"PUT","url":"Patient/f6a15d18-bde3-49cd-88b6-45430eb0bd42"}},{"fullUrl":"https://madie.cms.gov/Encounter/a24eb697-acf5-4014-9315-1419b4633665","resource":{"resourceType":"Encounter","id":"a24eb697-acf5-4014-9315-1419b4633665","meta":{"profile":["http://hl7.org/fhir/us/qicore/StructureDefinition/qicore-encounter"]},"status":"finished","class":{"system":"http://terminology.hl7.org/CodeSystem/v3-ActCode","code":"IMP","display":"inpatient encounter"},"type":[{"coding":[{"system":"http://snomed.info/sct","code":"183452005"}]}],"subject":{"reference":"Patient/f6a15d18-bde3-49cd-88b6-45430eb0bd42"},"period":{"start":"2026-04-01T08:00:00.000Z","end":"2026-04-03T08:15:00.000Z"}},"request":{"method":"PUT","url":"Encounter/a24eb697-acf5-4014-9315-1419b4633665"}},{"fullUrl":"https://madie.cms.gov/Observation/93a44de8-1ea8-44b1-afaa-1a89b917c822","resource":{"resourceType":"Observation","id":"93a44de8-1ea8-44b1-afaa-1a89b917c822","meta":{"profile":["http://hl7.org/fhir/us/qicore/StructureDefinition/qicore-observation"]},"status":"final","category":[{"coding":[{"system":"http://terminology.hl7.org/CodeSystem/observation-category","code":"survey","display":"Survey"}]}],"code":{"coding":[{"system":"http://loinc.org","code":"98968-1","display":"Initial screening NRS_2002","userSelected":true}]},"subject":{"reference":"Patient/f6a15d18-bde3-49cd-88b6-45430eb0bd42"},"effectiveDateTime":"2026-04-01T09:00:00.000+00:00","valueCodeableConcept":{"coding":[{"system":"http://loinc.org","code":"LA33699-2","display":"Not at risk for malnutrition","userSelected":true}]}},"request":{"method":"PUT","url":"Observation/93a44de8-1ea8-44b1-afaa-1a89b917c822"}},{"fullUrl":"https://madie.cms.gov/Observation/5e56e4f2-b7ee-47f1-a04f-29ea8aa7a21b","resource":{"resourceType":"Observation","id":"5e56e4f2-b7ee-47f1-a04f-29ea8aa7a21b","meta":{"profile":["http://hl7.org/fhir/us/qicore/StructureDefinition/qicore-observation"]},"status":"final","category":[{"coding":[{"system":"http://terminology.hl7.org/CodeSystem/observation-category","code":"survey","display":"Survey"}]}],"code":{"coding":[{"system":"http://loinc.org","code":"75285-7","display":"Comparative nutrition assessment standards panel","userSelected":true}]},"subject":{"reference":"Patient/f6a15d18-bde3-49cd-88b6-45430eb0bd42"},"effectiveDateTime":"2026-04-02T10:00:00.000+00:00","valueCodeableConcept":{"coding":[{"system":"http://snomed.info/sct","code":"65404009","display":"Undernutrition (disorder)","userSelected":true}]}},"request":{"method":"PUT","url":"Observation/5e56e4f2-b7ee-47f1-a04f-29ea8aa7a21b"}},{"fullUrl":"https://madie.cms.gov/Coverage/0d59bb25-1387-46e5-bbf5-7b1f75ce0f7e","resource":{"resourceType":"Coverage","id":"0d59bb25-1387-46e5-bbf5-7b1f75ce0f7e","meta":{"profile":["http://hl7.org/fhir/us/qicore/StructureDefinition/qicore-coverage"]},"status":"active","type":{"coding":[{"system":"https://nahdo.org/sopt","version":"9.2","code":"11","display":"Medicare Managed Care (Includes Medicare Advantage Plans)"}]},"beneficiary":{"reference":"Patient/f6a15d18-bde3-49cd-88b6-45430eb0bd42"},"period":{"start":"2024-10-01T00:00:00+00:00"},"payor":[{"reference":"Organization/607fdef9-3983-4cef-ab1a-95434d29b463"}]},"request":{"method":"PUT","url":"Coverage/0d59bb25-1387-46e5-bbf5-7b1f75ce0f7e"}},{"fullUrl":"https://madie.cms.gov/Organization/91d2ee1f-c1f1-4cd0-b6a9-e09bcaf779b9","resource":{"resourceType":"Organization","id":"607fdef9-3983-4cef-ab1a-95434d29b463","meta":{"profile":["http://hl7.org/fhir/us/qicore/StructureDefinition/qicore-organization"]},"identifier":[{"use":"temp","system":"urn:oid:2.16.840.1.113883.4.4","value":"21-3259825"}],"active":true,"type":[{"coding":[{"system":"http://terminology.hl7.org/CodeSystem/organization-type","code":"pay","display":"Payer"}]}],"name":"Blue Cross Blue Shield of Texas","telecom":[{"system":"phone","value":"(+1) 972-766-6900"}],"address":[{"use":"billing","type":"postal","line":["P.O. Box 660044"],"city":"Dallas","state":"TX","postalCode":"75266-0044","country":"USA"}]},"request":{"method":"PUT","url":"Organization/607fdef9-3983-4cef-ab1a-95434d29b463"}},{"fullUrl":"https://madie.cms.gov/MeasureReport/365ed80e-ac6a-4353-b5f1-9fddcd88b80f","resource":{"resourceType":"MeasureReport","id":"365ed80e-ac6a-4353-b5f1-9fddcd88b80f","meta":{"profile":["http://hl7.org/fhir/us/cqfmeasures/StructureDefinition/test-case-cqfm"]},"contained":[{"resourceType":"Parameters","id":"f7f0b9d0-4192-4ec8-ba2a-67a6f58fd8e2-parameters","parameter":[{"name":"subject","valueString":"f6a15d18-bde3-49cd-88b6-45430eb0bd42"}]}],"extension":[{"url":"http://hl7.org/fhir/us/cqfmeasures/StructureDefinition/cqfm-inputParameters","valueReference":{"reference":"#f7f0b9d0-4192-4ec8-ba2a-67a6f58fd8e2-parameters"}},{"url":"http://hl7.org/fhir/us/cqfmeasures/StructureDefinition/cqfm-testCaseDescription","valueMarkdown":"Screened, Not at Risk, No Referral, Assessment, Moderate Malnutrition, No Diagnosis, No Nutrition Care Plan"}],"modifierExtension":[{"url":"http://hl7.org/fhir/us/cqfmeasures/StructureDefinition/cqfm-isTestCase","valueBoolean":true}],"status":"complete","type":"individual","measure":"https://madie.cms.gov/Measure/CMS986FHIRMalnutritionScore","period":{"start":"2026-01-01","end":"2026-12-31"},"group":[{"population":[{"code":{"coding":[{"system":"http://terminology.hl7.org/CodeSystem/measure-population","code":"initial-population","display":"Initial Population"}]},"count":1},{"code":{"coding":[{"system":"http://terminology.hl7.org/CodeSystem/measure-population","code":"measure-population","display":"Measure Population"}]},"count":1},{"code":{"coding":[{"system":"http://terminology.hl7.org/CodeSystem/measure-population","code":"measure-population-exclusion","display":"Measure Population Exclusion"}]},"count":0},{"code":{"coding":[{"system":"http://terminology.hl7.org/CodeSystem/measure-population","code":"measure-population-observation","display":"Measure Population Observation"}]},"count":1}]},{"population":[{"code":{"coding":[{"system":"http://terminology.hl7.org/CodeSystem/measure-population","code":"initial-population","display":"Initial Population"}]},"count":1},{"code":{"coding":[{"system":"http://terminology.hl7.org/CodeSystem/measure-population","code":"measure-population","display":"Measure Population"}]},"count":1},{"code":{"coding":[{"system":"http://terminology.hl7.org/CodeSystem/measure-population","code":"measure-population-exclusion","display":"Measure Population Exclusion"}]},"count":0},{"code":{"coding":[{"system":"http://terminology.hl7.org/CodeSystem/measure-population","code":"measure-population-observation","display":"Measure Population Observation"}]},"count":0}]},{"population":[{"code":{"coding":[{"system":"http://terminology.hl7.org/CodeSystem/measure-population","code":"initial-population","display":"Initial Population"}]},"count":1},{"code":{"coding":[{"system":"http://terminology.hl7.org/CodeSystem/measure-population","code":"measure-population","display":"Measure Population"}]},"count":1},{"code":{"coding":[{"system":"http://terminology.hl7.org/CodeSystem/measure-population","code":"measure-population-exclusion","display":"Measure Population Exclusion"}]},"count":0},{"code":{"coding":[{"system":"http://terminology.hl7.org/CodeSystem/measure-population","code":"measure-population-observation","display":"Measure Population Observation"}]},"count":0}]},{"population":[{"code":{"coding":[{"system":"http://terminology.hl7.org/CodeSystem/measure-population","code":"initial-population","display":"Initial Population"}]},"count":1},{"code":{"coding":[{"system":"http://terminology.hl7.org/CodeSystem/measure-population","code":"measure-population","display":"Measure Population"}]},"count":1},{"code":{"coding":[{"system":"http://terminology.hl7.org/CodeSystem/measure-population","code":"measure-population-exclusion","display":"Measure Population Exclusion"}]},"count":0},{"code":{"coding":[{"system":"http://terminology.hl7.org/CodeSystem/measure-population","code":"measure-population-observation","display":"Measure Population Observation"}]},"count":0}]},{"population":[{"code":{"coding":[{"system":"http://terminology.hl7.org/CodeSystem/measure-population","code":"initial-population","display":"Initial Population"}]},"count":1},{"code":{"coding":[{"system":"http://terminology.hl7.org/CodeSystem/measure-population","code":"measure-population","display":"Measure Population"}]},"count":1},{"code":{"coding":[{"system":"http://terminology.hl7.org/CodeSystem/measure-population","code":"measure-population-exclusion","display":"Measure Population Exclusion"}]},"count":0},{"code":{"coding":[{"system":"http://terminology.hl7.org/CodeSystem/measure-population","code":"measure-population-observation","display":"Measure Population Observation"}]},"count":1}]},{"population":[{"code":{"coding":[{"system":"http://terminology.hl7.org/CodeSystem/measure-population","code":"initial-population","display":"Initial Population"}]},"count":1},{"code":{"coding":[{"system":"http://terminology.hl7.org/CodeSystem/measure-population","code":"measure-population","display":"Measure Population"}]},"count":1},{"code":{"coding":[{"system":"http://terminology.hl7.org/CodeSystem/measure-population","code":"measure-population-exclusion","display":"Measure Population Exclusion"}]},"count":0},{"code":{"coding":[{"system":"http://terminology.hl7.org/CodeSystem/measure-population","code":"measure-population-observation","display":"Measure Population Observation"}]},"count":100}]}]},"request":{"method":"PUT","url":"MeasureReport/365ed80e-ac6a-4353-b5f1-9fddcd88b80f"}}]}