{"resourceType":"Bundle","id":"tests-47643903-6f24-428e-a354-f4a59d006ddf-bundle","type":"transaction","entry":[{"fullUrl":"https://madie.cms.gov/Patient/47643903-6f24-428e-a354-f4a59d006ddf","resource":{"resourceType":"Patient","id":"47643903-6f24-428e-a354-f4a59d006ddf","meta":{"profile":["http://hl7.org/fhir/us/qicore/StructureDefinition/qicore-patient"]},"text":{"status":"generated","div":"<div xmlns=\"http://www.w3.org/1999/xhtml\"><div class=\"hapiHeaderText\">2Encountersat10075, , <b> </b></div><table class=\"hapiPropertyTable\"><tbody><tr><td>Identifier</td><td>2Encountersat10075</td></tr><tr><td>Date of birth</td><td><span>14 May 1950</span></td></tr></tbody></table></div>"},"extension":[{"url":"http://hl7.org/fhir/us/core/StructureDefinition/us-core-race","extension":[{"url":"ombCategory","valueCoding":{"system":"urn:oid:2.16.840.1.113883.6.238","code":"2054-5","display":"Black","userSelected":true}},{"url":"text","valueString":"Black"}]},{"url":"http://hl7.org/fhir/us/core/StructureDefinition/us-core-ethnicity","extension":[{"url":"ombCategory","valueCoding":{"system":"urn:oid:2.16.840.1.113883.6.238","code":"2135-2","display":"Hispanic or Latino","userSelected":true}},{"url":"text","valueString":"Hispanic or Latino"}]}],"identifier":[{"type":{"coding":[{"system":"http://terminology.hl7.org/CodeSystem/v2-0203","code":"MR"}]},"system":"https://madie.cms.gov/","value":"2Encountersat10075"}],"active":true,"name":[{"use":"usual","text":"2Encountersat10075","family":"OCCURpass444","given":["2Encountersat1005OCCURpass44"]}],"gender":"female","birthDate":"1947-01-01","address":[{"text":"2Encountersat10050, Screened Not at risk Assessed Severely Malnourished Diagnosed Care Plan, ID=2Encountersat10075, DOB: 14 May 1950"}]},"request":{"method":"PUT","url":"Patient/47643903-6f24-428e-a354-f4a59d006ddf"}},{"fullUrl":"https://madie.cms.gov/Encounter/d07b31eb-016d-4497-9c62-d5469e4b6e94","resource":{"resourceType":"Encounter","id":"d07b31eb-016d-4497-9c62-d5469e4b6e94","meta":{"profile":["http://hl7.org/fhir/us/qicore/StructureDefinition/qicore-encounter"]},"status":"finished","class":{"system":"http://terminology.hl7.org/CodeSystem/v3-ActCode","code":"IMP","display":"inpatient encounter"},"type":[{"coding":[{"system":"http://snomed.info/sct","code":"183452005"}]}],"subject":{"reference":"Patient/47643903-6f24-428e-a354-f4a59d006ddf"},"period":{"start":"2026-02-01T08:00:00.000Z","end":"2026-02-07T08:15:00.000Z"}},"request":{"method":"PUT","url":"Encounter/d07b31eb-016d-4497-9c62-d5469e4b6e94"}},{"fullUrl":"https://madie.cms.gov/Condition/e2d3d0ae-1f37-45ce-812a-24123151f64c","resource":{"resourceType":"Condition","id":"e2d3d0ae-1f37-45ce-812a-24123151f64c","meta":{"profile":["http://hl7.org/fhir/us/qicore/StructureDefinition/qicore-condition"]},"clinicalStatus":{"coding":[{"system":"http://terminology.hl7.org/CodeSystem/condition-clinical","code":"resolved","display":"Active","userSelected":true}]},"verificationStatus":{"coding":[{"system":"http://terminology.hl7.org/CodeSystem/condition-ver-status","code":"confirmed","display":"Confirmed","userSelected":true}]},"category":[{"coding":[{"system":"http://terminology.hl7.org/CodeSystem/condition-category","code":"encounter-diagnosis","display":"Encounter Diagnosis","userSelected":true}]}],"code":{"coding":[{"system":"http://hl7.org/fhir/sid/icd-10-cm","code":"E43","display":"Unspecified protein-calorie malnutrition","userSelected":true}]},"subject":{"reference":"Patient/47643903-6f24-428e-a354-f4a59d006ddf"},"onsetPeriod":{"start":"2026-02-01T08:00:00.000+00:00"},"recordedDate":"2026-02-01T11:00:00.000+00:00"},"request":{"method":"PUT","url":"Condition/e2d3d0ae-1f37-45ce-812a-24123151f64c"}},{"fullUrl":"https://madie.cms.gov/Observation/f47a9c0b-e6a9-4ac8-bdf3-76fffc63b430","resource":{"resourceType":"Observation","id":"f47a9c0b-e6a9-4ac8-bdf3-76fffc63b430","meta":{"profile":["http://hl7.org/fhir/us/qicore/StructureDefinition/qicore-observation"]},"status":"final","category":[{"coding":[{"system":"http://terminology.hl7.org/CodeSystem/observation-category","code":"survey","display":"Survey"}]}],"code":{"coding":[{"system":"http://loinc.org","code":"101819-1","display":"Nutritional assessment for malnutrition status","userSelected":true}]},"subject":{"reference":"Patient/47643903-6f24-428e-a354-f4a59d006ddf"},"effectiveDateTime":"2026-02-01T10:00:00.000+00:00","valueCodeableConcept":{"coding":[{"system":"http://snomed.info/sct","code":"102636009","display":"Chronic nutritional deficiency (disorder)","userSelected":true}]}},"request":{"method":"PUT","url":"Observation/f47a9c0b-e6a9-4ac8-bdf3-76fffc63b430"}},{"fullUrl":"https://madie.cms.gov/Procedure/4f6c233e-246f-42d7-a514-7ee992ef3141","resource":{"resourceType":"Procedure","id":"4f6c233e-246f-42d7-a514-7ee992ef3141","meta":{"profile":["http://hl7.org/fhir/us/qicore/StructureDefinition/qicore-procedure"]},"extension":[{"url":"http://hl7.org/fhir/us/qicore/StructureDefinition/qicore-recorded","valueDateTime":"2026-02-01T11:30:00.000Z"}],"status":"completed","code":{"coding":[{"system":"http://snomed.info/sct","code":"306165000","display":"Referral to hospital-based dietetics service (procedure)"}],"text":"Referral to hospital-based dietetics service (procedure)"},"subject":{"reference":"Patient/47643903-6f24-428e-a354-f4a59d006ddf"},"encounter":{"reference":"Encounter/2Encountersat10075denompass444"},"performedPeriod":{"start":"2026-02-01T11:30:00.000Z","end":"2026-02-07T08:15:00.000Z"}},"request":{"method":"PUT","url":"Procedure/4f6c233e-246f-42d7-a514-7ee992ef3141"}},{"fullUrl":"https://madie.cms.gov/Procedure/87c0247a-4b13-427a-a608-056376894e43","resource":{"resourceType":"Procedure","id":"87c0247a-4b13-427a-a608-056376894e43","meta":{"profile":["http://hl7.org/fhir/us/qicore/StructureDefinition/qicore-procedure"]},"extension":[{"url":"http://hl7.org/fhir/us/qicore/StructureDefinition/qicore-recorded","valueDateTime":"2026-02-02T11:30:00.000Z"}],"status":"completed","code":{"coding":[{"system":"http://snomed.info/sct","code":"1279742004","display":"Development of nutrition care plan (procedure)"}],"text":"Development of nutrition care plan (procedure)"},"subject":{"reference":"Patient/47643903-6f24-428e-a354-f4a59d006ddf"},"encounter":{"reference":"Encounter/2Encountersat10075denompass444"},"performedPeriod":{"start":"2026-02-01T11:30:00.000Z","end":"2026-02-07T08:15:00.000Z"}},"request":{"method":"PUT","url":"Procedure/87c0247a-4b13-427a-a608-056376894e43"}},{"fullUrl":"https://madie.cms.gov/Coverage/a23e872a-9342-4890-b5c8-9e0d63f6a621","resource":{"resourceType":"Coverage","id":"a23e872a-9342-4890-b5c8-9e0d63f6a621","meta":{"profile":["http://hl7.org/fhir/us/qicore/StructureDefinition/qicore-coverage"]},"status":"active","type":{"coding":[{"system":"https://nahdo.org/sopt","version":"9.2","code":"11","display":"Medicare Managed Care (Includes Medicare Advantage Plans)"}]},"beneficiary":{"reference":"Patient/47643903-6f24-428e-a354-f4a59d006ddf"},"period":{"start":"2025-10-01T00:00:00+00:00"},"payor":[{"reference":"Organization/9e9b3f13-a353-4173-b29b-947d6f1f2031"}]},"request":{"method":"PUT","url":"Coverage/a23e872a-9342-4890-b5c8-9e0d63f6a621"}},{"fullUrl":"https://madie.cms.gov/Encounter/c846c2c4-2a20-4b1d-a8c2-c4b1b057be68","resource":{"resourceType":"Encounter","id":"c846c2c4-2a20-4b1d-a8c2-c4b1b057be68","meta":{"profile":["http://hl7.org/fhir/us/qicore/StructureDefinition/qicore-encounter"]},"status":"finished","class":{"system":"http://terminology.hl7.org/CodeSystem/v3-ActCode","code":"IMP","display":"inpatient encounter"},"type":[{"coding":[{"system":"http://snomed.info/sct","code":"183452005"}]}],"subject":{"reference":"Patient/47643903-6f24-428e-a354-f4a59d006ddf"},"period":{"start":"2026-03-01T08:00:00.000Z","end":"2026-03-07T08:15:00.000Z"}},"request":{"method":"PUT","url":"Encounter/c846c2c4-2a20-4b1d-a8c2-c4b1b057be68"}},{"fullUrl":"https://madie.cms.gov/Condition/b14c79fe-e3bf-4c0c-8d9e-0c8ddeab74b2","resource":{"resourceType":"Condition","id":"b14c79fe-e3bf-4c0c-8d9e-0c8ddeab74b2","meta":{"profile":["http://hl7.org/fhir/us/qicore/StructureDefinition/qicore-condition"]},"clinicalStatus":{"coding":[{"system":"http://terminology.hl7.org/CodeSystem/condition-clinical","code":"resolved","display":"resolved","userSelected":true}]},"verificationStatus":{"coding":[{"system":"http://terminology.hl7.org/CodeSystem/condition-ver-status","code":"confirmed","display":"Confirmed","userSelected":true}]},"category":[{"coding":[{"system":"http://terminology.hl7.org/CodeSystem/condition-category","code":"encounter-diagnosis","display":"Encounter Diagnosis","userSelected":true}]}],"code":{"coding":[{"system":"http://hl7.org/fhir/sid/icd-10-cm","code":"E43","display":"Unspecified protein-calorie malnutrition","userSelected":true}]},"subject":{"reference":"Patient/47643903-6f24-428e-a354-f4a59d006ddf"},"onsetPeriod":{"start":"2026-02-01T08:00:00.000+00:00","end":"2026-02-03T08:00:00.000+00:00"},"recordedDate":"2026-02-01T11:00:00.000+00:00"},"request":{"method":"PUT","url":"Condition/b14c79fe-e3bf-4c0c-8d9e-0c8ddeab74b2"}},{"fullUrl":"https://madie.cms.gov/Observation/c09a0720-56fe-4fed-a70a-843b56955d3a","resource":{"resourceType":"Observation","id":"c09a0720-56fe-4fed-a70a-843b56955d3a","meta":{"profile":["http://hl7.org/fhir/us/qicore/StructureDefinition/qicore-observation"]},"status":"final","category":[{"coding":[{"system":"http://terminology.hl7.org/CodeSystem/observation-category","code":"survey","display":"Survey"}]}],"code":{"coding":[{"system":"http://loinc.org","code":"101819-1","display":"Nutritional assessment for malnutrition status","userSelected":true}]},"subject":{"reference":"Patient/47643903-6f24-428e-a354-f4a59d006ddf"},"effectiveDateTime":"2026-03-01T10:00:00.000+00:00","valueCodeableConcept":{"coding":[{"system":"http://snomed.info/sct","code":"102636009","display":"Chronic nutritional deficiency (fidning)","userSelected":true}]}},"request":{"method":"PUT","url":"Observation/c09a0720-56fe-4fed-a70a-843b56955d3a"}},{"fullUrl":"https://madie.cms.gov/Procedure/5cc9ac07-269e-4308-9556-96bf60890791","resource":{"resourceType":"Procedure","id":"5cc9ac07-269e-4308-9556-96bf60890791","meta":{"profile":["http://hl7.org/fhir/us/qicore/StructureDefinition/qicore-procedure"]},"extension":[{"url":"http://hl7.org/fhir/us/qicore/StructureDefinition/qicore-recorded","valueDateTime":"2026-03-01T11:30:00.000Z"}],"status":"completed","code":{"coding":[{"system":"http://snomed.info/sct","code":"306165000","display":"Referral to hospital-based dietetics service (procedure)"}],"text":"Referral to hospital-based dietetics service (procedure)"},"subject":{"reference":"Patient/47643903-6f24-428e-a354-f4a59d006ddf"},"encounter":{"reference":"Encounter/2Encountersat10075denompass444"},"performedPeriod":{"start":"2026-03-01T11:30:00.000Z","end":"2026-03-07T08:15:00.000Z"}},"request":{"method":"PUT","url":"Procedure/5cc9ac07-269e-4308-9556-96bf60890791"}},{"fullUrl":"https://madie.cms.gov/Coverage/d60d4915-eed7-4ca2-ab1b-882415a54c27","resource":{"resourceType":"Coverage","id":"d60d4915-eed7-4ca2-ab1b-882415a54c27","meta":{"profile":["http://hl7.org/fhir/us/qicore/StructureDefinition/qicore-coverage"]},"status":"active","type":{"coding":[{"system":"https://nahdo.org/sopt","version":"9.2","code":"11","display":"Medicare Managed Care (Includes Medicare Advantage Plans)"}]},"beneficiary":{"reference":"Patient/47643903-6f24-428e-a354-f4a59d006ddf"},"period":{"start":"2025-10-01T00:00:00+00:00"},"payor":[{"reference":"Organization/9e9b3f13-a353-4173-b29b-947d6f1f2031"}]},"request":{"method":"PUT","url":"Coverage/d60d4915-eed7-4ca2-ab1b-882415a54c27"}},{"fullUrl":"https://madie.cms.gov/Organization/118bec1b-2011-4a5e-b7c0-c7adb30dab4d","resource":{"resourceType":"Organization","id":"9e9b3f13-a353-4173-b29b-947d6f1f2031","meta":{"profile":["http://hl7.org/fhir/us/qicore/StructureDefinition/qicore-organization"]},"identifier":[{"use":"temp","system":"urn:oid:2.16.840.1.113883.4.4","value":"21-3259825"}],"active":true,"type":[{"coding":[{"system":"http://terminology.hl7.org/CodeSystem/organization-type","code":"pay","display":"Payer"}]}],"name":"Blue Cross Blue Shield of Texas","telecom":[{"system":"phone","value":"(+1) 972-766-6900"}],"address":[{"use":"billing","type":"postal","line":["P.O. Box 660044"],"city":"Dallas","state":"TX","postalCode":"75266-0044","country":"USA"}]},"request":{"method":"PUT","url":"Organization/9e9b3f13-a353-4173-b29b-947d6f1f2031"}},{"fullUrl":"https://madie.cms.gov/MeasureReport/d375f62c-eefc-44f0-80b5-2f4217179490","resource":{"resourceType":"MeasureReport","id":"d375f62c-eefc-44f0-80b5-2f4217179490","meta":{"profile":["http://hl7.org/fhir/us/cqfmeasures/StructureDefinition/test-case-cqfm"]},"contained":[{"resourceType":"Parameters","id":"9eebc19c-6750-445f-a765-adc4bed8e8ce-parameters","parameter":[{"name":"subject","valueString":"47643903-6f24-428e-a354-f4a59d006ddf"}]}],"extension":[{"url":"http://hl7.org/fhir/us/cqfmeasures/StructureDefinition/cqfm-inputParameters","valueReference":{"reference":"#9eebc19c-6750-445f-a765-adc4bed8e8ce-parameters"}},{"url":"http://hl7.org/fhir/us/cqfmeasures/StructureDefinition/cqfm-testCaseDescription","valueMarkdown":"Multiple Encounters"}],"modifierExtension":[{"url":"http://hl7.org/fhir/us/cqfmeasures/StructureDefinition/cqfm-isTestCase","valueBoolean":true}],"status":"complete","type":"individual","measure":"https://madie.cms.gov/Measure/CMS986FHIRMalnutritionScore","period":{"start":"2026-01-01","end":"2026-12-31"},"group":[{"population":[{"code":{"coding":[{"system":"http://terminology.hl7.org/CodeSystem/measure-population","code":"initial-population","display":"Initial Population"}]},"count":2},{"code":{"coding":[{"system":"http://terminology.hl7.org/CodeSystem/measure-population","code":"measure-population","display":"Measure Population"}]},"count":2},{"code":{"coding":[{"system":"http://terminology.hl7.org/CodeSystem/measure-population","code":"measure-population-exclusion","display":"Measure Population Exclusion"}]},"count":0},{"code":{"coding":[{"system":"http://terminology.hl7.org/CodeSystem/measure-population","code":"measure-population-observation","display":"Measure Population Observation"}]},"count":1},{"code":{"coding":[{"system":"http://terminology.hl7.org/CodeSystem/measure-population","code":"measure-population-observation","display":"Measure Population Observation"}]},"count":1}]},{"population":[{"code":{"coding":[{"system":"http://terminology.hl7.org/CodeSystem/measure-population","code":"initial-population","display":"Initial Population"}]},"count":2},{"code":{"coding":[{"system":"http://terminology.hl7.org/CodeSystem/measure-population","code":"measure-population","display":"Measure Population"}]},"count":2},{"code":{"coding":[{"system":"http://terminology.hl7.org/CodeSystem/measure-population","code":"measure-population-exclusion","display":"Measure Population Exclusion"}]},"count":0},{"code":{"coding":[{"system":"http://terminology.hl7.org/CodeSystem/measure-population","code":"measure-population-observation","display":"Measure Population Observation"}]},"count":1},{"code":{"coding":[{"system":"http://terminology.hl7.org/CodeSystem/measure-population","code":"measure-population-observation","display":"Measure Population Observation"}]},"count":1}]},{"population":[{"code":{"coding":[{"system":"http://terminology.hl7.org/CodeSystem/measure-population","code":"initial-population","display":"Initial Population"}]},"count":2},{"code":{"coding":[{"system":"http://terminology.hl7.org/CodeSystem/measure-population","code":"measure-population","display":"Measure Population"}]},"count":2},{"code":{"coding":[{"system":"http://terminology.hl7.org/CodeSystem/measure-population","code":"measure-population-exclusion","display":"Measure Population Exclusion"}]},"count":0},{"code":{"coding":[{"system":"http://terminology.hl7.org/CodeSystem/measure-population","code":"measure-population-observation","display":"Measure Population Observation"}]},"count":0},{"code":{"coding":[{"system":"http://terminology.hl7.org/CodeSystem/measure-population","code":"measure-population-observation","display":"Measure Population Observation"}]},"count":0}]},{"population":[{"code":{"coding":[{"system":"http://terminology.hl7.org/CodeSystem/measure-population","code":"initial-population","display":"Initial Population"}]},"count":2},{"code":{"coding":[{"system":"http://terminology.hl7.org/CodeSystem/measure-population","code":"measure-population","display":"Measure Population"}]},"count":2},{"code":{"coding":[{"system":"http://terminology.hl7.org/CodeSystem/measure-population","code":"measure-population-exclusion","display":"Measure Population Exclusion"}]},"count":0},{"code":{"coding":[{"system":"http://terminology.hl7.org/CodeSystem/measure-population","code":"measure-population-observation","display":"Measure Population Observation"}]},"count":1},{"code":{"coding":[{"system":"http://terminology.hl7.org/CodeSystem/measure-population","code":"measure-population-observation","display":"Measure Population Observation"}]},"count":0}]},{"population":[{"code":{"coding":[{"system":"http://terminology.hl7.org/CodeSystem/measure-population","code":"initial-population","display":"Initial Population"}]},"count":2},{"code":{"coding":[{"system":"http://terminology.hl7.org/CodeSystem/measure-population","code":"measure-population","display":"Measure Population"}]},"count":2},{"code":{"coding":[{"system":"http://terminology.hl7.org/CodeSystem/measure-population","code":"measure-population-exclusion","display":"Measure Population Exclusion"}]},"count":0},{"code":{"coding":[{"system":"http://terminology.hl7.org/CodeSystem/measure-population","code":"measure-population-observation","display":"Measure Population Observation"}]},"count":3},{"code":{"coding":[{"system":"http://terminology.hl7.org/CodeSystem/measure-population","code":"measure-population-observation","display":"Measure Population Observation"}]},"count":2}]},{"population":[{"code":{"coding":[{"system":"http://terminology.hl7.org/CodeSystem/measure-population","code":"initial-population","display":"Initial Population"}]},"count":2},{"code":{"coding":[{"system":"http://terminology.hl7.org/CodeSystem/measure-population","code":"measure-population","display":"Measure Population"}]},"count":2},{"code":{"coding":[{"system":"http://terminology.hl7.org/CodeSystem/measure-population","code":"measure-population-exclusion","display":"Measure Population Exclusion"}]},"count":0},{"code":{"coding":[{"system":"http://terminology.hl7.org/CodeSystem/measure-population","code":"measure-population-observation","display":"Measure Population Observation"}]},"count":75},{"code":{"coding":[{"system":"http://terminology.hl7.org/CodeSystem/measure-population","code":"measure-population-observation","display":"Measure Population Observation"}]},"count":50}]}]},"request":{"method":"PUT","url":"MeasureReport/d375f62c-eefc-44f0-80b5-2f4217179490"}}]}