{"resourceType":"Bundle","id":"tests-6ad4d973-4673-49bd-afb8-2678cb7f2963-bundle","type":"transaction","entry":[{"fullUrl":"https://madie.cms.gov/Patient/6ad4d973-4673-49bd-afb8-2678cb7f2963","resource":{"resourceType":"Patient","id":"6ad4d973-4673-49bd-afb8-2678cb7f2963","meta":{"profile":["http://hl7.org/fhir/us/qicore/StructureDefinition/qicore-patient"]},"extension":[{"url":"http://hl7.org/fhir/us/core/StructureDefinition/us-core-race","extension":[{"url":"ombCategory","valueCoding":{"system":"urn:oid:2.16.840.1.113883.6.238","code":"2054-5","display":"Black","userSelected":true}},{"url":"text","valueString":"Black"}]},{"url":"http://hl7.org/fhir/us/core/StructureDefinition/us-core-ethnicity","extension":[{"url":"ombCategory","valueCoding":{"system":"urn:oid:2.16.840.1.113883.6.238","code":"2135-2","display":"Hispanic or Latino","userSelected":true}},{"url":"text","valueString":"Hispanic or Latino"}]}],"identifier":[{"type":{"coding":[{"system":"http://terminology.hl7.org/CodeSystem/v2-0203","code":"MR"}]},"system":"https://madie.cms.gov/","value":"ScreAtriNorefNoasseDxCp"}],"active":true,"name":[{"use":"usual","text":"ScreAtriNorefNoasseDxCp","family":"IPPFAIL","given":["ScreAtriNorefNoasseDxCpOCCURPass2"]}],"gender":"female","birthDate":"1987-01-01","address":[{"text":"ScreAtriNorefNoasseDxCp, Screened Not at risk No referral No Assessment Diagnosed Care Plan, ID=ScreAtriNorefNoasseDxCp, DOB: 14 May 1950"}]},"request":{"method":"PUT","url":"Patient/6ad4d973-4673-49bd-afb8-2678cb7f2963"}},{"fullUrl":"https://madie.cms.gov/Encounter/98fd7295-7332-4edf-93ba-46d70f3f1ec9","resource":{"resourceType":"Encounter","id":"98fd7295-7332-4edf-93ba-46d70f3f1ec9","meta":{"profile":["http://hl7.org/fhir/us/qicore/StructureDefinition/qicore-encounter"]},"status":"finished","class":{"system":"http://terminology.hl7.org/CodeSystem/v3-ActCode","code":"IMP","display":"inpatient encounter"},"type":[{"coding":[{"system":"http://snomed.info/sct","code":"183452005"}]}],"subject":{"reference":"Patient/6ad4d973-4673-49bd-afb8-2678cb7f2963"},"period":{"start":"2026-02-02T08:00:00.000Z","end":"2026-02-22T08:15:00.000Z"}},"request":{"method":"PUT","url":"Encounter/98fd7295-7332-4edf-93ba-46d70f3f1ec9"}},{"fullUrl":"https://madie.cms.gov/Procedure/499746c1-c88a-4c3a-a000-f62f147a381a","resource":{"resourceType":"Procedure","id":"499746c1-c88a-4c3a-a000-f62f147a381a","meta":{"profile":["http://hl7.org/fhir/us/qicore/StructureDefinition/qicore-procedure"]},"extension":[{"url":"http://hl7.org/fhir/us/qicore/StructureDefinition/qicore-recorded","valueDateTime":"2012-12-04T09:35:00-04:00"}],"status":"completed","code":{"coding":[{"system":"http://snomed.info/sct","code":"385763009","display":"Hospice care (regime/therapy)"}]},"subject":{"reference":"Patient/6ad4d973-4673-49bd-afb8-2678cb7f2963"},"performedPeriod":{"start":"2026-02-03T11:30:00.000Z","end":"2026-02-04T08:15:00.000Z"}},"request":{"method":"PUT","url":"Procedure/499746c1-c88a-4c3a-a000-f62f147a381a"}},{"fullUrl":"https://madie.cms.gov/Coverage/2bf6287f-85a8-4b92-8494-ecca7168d975","resource":{"resourceType":"Coverage","id":"2bf6287f-85a8-4b92-8494-ecca7168d975","meta":{"profile":["http://hl7.org/fhir/us/qicore/StructureDefinition/qicore-coverage"]},"status":"active","type":{"coding":[{"system":"https://nahdo.org/sopt","version":"9.2","code":"11","display":"Medicare Managed Care (Includes Medicare Advantage Plans)"}]},"beneficiary":{"reference":"Patient/6ad4d973-4673-49bd-afb8-2678cb7f2963"},"period":{"start":"2025-10-01T00:00:00+00:00"},"payor":[{"reference":"Organization/3e899f33-84eb-4634-a770-a5a0bd7a80e7"}]},"request":{"method":"PUT","url":"Coverage/2bf6287f-85a8-4b92-8494-ecca7168d975"}},{"fullUrl":"https://madie.cms.gov/Organization/368ce7d8-e337-4b0c-82a9-7477bce7dff0","resource":{"resourceType":"Organization","id":"3e899f33-84eb-4634-a770-a5a0bd7a80e7","meta":{"profile":["http://hl7.org/fhir/us/qicore/StructureDefinition/qicore-organization"]},"identifier":[{"use":"temp","system":"urn:oid:2.16.840.1.113883.4.4","value":"21-3259825"}],"active":true,"type":[{"coding":[{"system":"http://terminology.hl7.org/CodeSystem/organization-type","code":"pay","display":"Payer"}]}],"name":"Blue Cross Blue Shield of Texas","telecom":[{"system":"phone","value":"(+1) 972-766-6900"}],"address":[{"use":"billing","type":"postal","line":["P.O. Box 660044"],"city":"Dallas","state":"TX","postalCode":"75266-0044","country":"USA"}]},"request":{"method":"PUT","url":"Organization/3e899f33-84eb-4634-a770-a5a0bd7a80e7"}},{"fullUrl":"https://madie.cms.gov/MeasureReport/422b0452-55cd-4a0b-9de5-230cf3f62e71","resource":{"resourceType":"MeasureReport","id":"422b0452-55cd-4a0b-9de5-230cf3f62e71","meta":{"profile":["http://hl7.org/fhir/us/cqfmeasures/StructureDefinition/test-case-cqfm"]},"contained":[{"resourceType":"Parameters","id":"89bc4a97-c36b-457b-ad3e-6ef7f7deb760-parameters","parameter":[{"name":"subject","valueString":"6ad4d973-4673-49bd-afb8-2678cb7f2963"}]}],"extension":[{"url":"http://hl7.org/fhir/us/cqfmeasures/StructureDefinition/cqfm-inputParameters","valueReference":{"reference":"#89bc4a97-c36b-457b-ad3e-6ef7f7deb760-parameters"}},{"url":"http://hl7.org/fhir/us/cqfmeasures/StructureDefinition/cqfm-testCaseDescription","valueMarkdown":"Hospice status valueset"}],"modifierExtension":[{"url":"http://hl7.org/fhir/us/cqfmeasures/StructureDefinition/cqfm-isTestCase","valueBoolean":true}],"status":"complete","type":"individual","measure":"https://madie.cms.gov/Measure/CMS986FHIRMalnutritionScore","period":{"start":"2026-01-01","end":"2026-12-31"},"group":[{"population":[{"code":{"coding":[{"system":"http://terminology.hl7.org/CodeSystem/measure-population","code":"initial-population","display":"Initial Population"}]},"count":1},{"code":{"coding":[{"system":"http://terminology.hl7.org/CodeSystem/measure-population","code":"measure-population","display":"Measure Population"}]},"count":1},{"code":{"coding":[{"system":"http://terminology.hl7.org/CodeSystem/measure-population","code":"measure-population-exclusion","display":"Measure Population Exclusion"}]},"count":1}]},{"population":[{"code":{"coding":[{"system":"http://terminology.hl7.org/CodeSystem/measure-population","code":"initial-population","display":"Initial Population"}]},"count":1},{"code":{"coding":[{"system":"http://terminology.hl7.org/CodeSystem/measure-population","code":"measure-population","display":"Measure Population"}]},"count":1},{"code":{"coding":[{"system":"http://terminology.hl7.org/CodeSystem/measure-population","code":"measure-population-exclusion","display":"Measure Population Exclusion"}]},"count":1}]},{"population":[{"code":{"coding":[{"system":"http://terminology.hl7.org/CodeSystem/measure-population","code":"initial-population","display":"Initial Population"}]},"count":1},{"code":{"coding":[{"system":"http://terminology.hl7.org/CodeSystem/measure-population","code":"measure-population","display":"Measure Population"}]},"count":1},{"code":{"coding":[{"system":"http://terminology.hl7.org/CodeSystem/measure-population","code":"measure-population-exclusion","display":"Measure Population Exclusion"}]},"count":1}]},{"population":[{"code":{"coding":[{"system":"http://terminology.hl7.org/CodeSystem/measure-population","code":"initial-population","display":"Initial Population"}]},"count":1},{"code":{"coding":[{"system":"http://terminology.hl7.org/CodeSystem/measure-population","code":"measure-population","display":"Measure Population"}]},"count":1},{"code":{"coding":[{"system":"http://terminology.hl7.org/CodeSystem/measure-population","code":"measure-population-exclusion","display":"Measure Population Exclusion"}]},"count":1}]},{"population":[{"code":{"coding":[{"system":"http://terminology.hl7.org/CodeSystem/measure-population","code":"initial-population","display":"Initial Population"}]},"count":1},{"code":{"coding":[{"system":"http://terminology.hl7.org/CodeSystem/measure-population","code":"measure-population","display":"Measure Population"}]},"count":1},{"code":{"coding":[{"system":"http://terminology.hl7.org/CodeSystem/measure-population","code":"measure-population-exclusion","display":"Measure Population Exclusion"}]},"count":1}]},{"population":[{"code":{"coding":[{"system":"http://terminology.hl7.org/CodeSystem/measure-population","code":"initial-population","display":"Initial Population"}]},"count":1},{"code":{"coding":[{"system":"http://terminology.hl7.org/CodeSystem/measure-population","code":"measure-population","display":"Measure Population"}]},"count":1},{"code":{"coding":[{"system":"http://terminology.hl7.org/CodeSystem/measure-population","code":"measure-population-exclusion","display":"Measure Population Exclusion"}]},"count":1}]}]},"request":{"method":"PUT","url":"MeasureReport/422b0452-55cd-4a0b-9de5-230cf3f62e71"}}]}