{"resourceType":"Bundle","id":"tests-8090a147-702c-452a-b59d-524c2bcbaaad-bundle","type":"transaction","entry":[{"fullUrl":"https://madie.cms.gov/Patient/8090a147-702c-452a-b59d-524c2bcbaaad","resource":{"resourceType":"Patient","id":"8090a147-702c-452a-b59d-524c2bcbaaad","meta":{"profile":["http://hl7.org/fhir/us/qicore/StructureDefinition/qicore-patient"]},"text":{"status":"generated","div":"<div xmlns=\"http://www.w3.org/1999/xhtml\"><div class=\"hapiHeaderText\">yearoverlap2, Screened Not at risk Assessed Severely Malnourished Diagnosed Care Plan, <b>mo1111d4p100 </b></div><table class=\"hapiPropertyTable\"><tbody><tr><td>Identifier</td><td>yearoverlap2</td></tr><tr><td>Date of birth</td><td><span>14 May 1950</span></td></tr></tbody></table></div>"},"extension":[{"url":"http://hl7.org/fhir/us/core/StructureDefinition/us-core-race","extension":[{"url":"ombCategory","valueCoding":{"system":"urn:oid:2.16.840.1.113883.6.238","code":"2106-3","display":"White","userSelected":true}},{"url":"text","valueString":"White"}]},{"url":"http://hl7.org/fhir/us/core/StructureDefinition/us-core-ethnicity","extension":[{"url":"ombCategory","valueCoding":{"system":"urn:oid:2.16.840.1.113883.6.238","code":"2186-5","display":"Not Hispanic or Latino","userSelected":true}},{"url":"text","valueString":"Not Hispanic or Latino"}]}],"identifier":[{"type":{"coding":[{"system":"http://terminology.hl7.org/CodeSystem/v2-0203","code":"MR"}]},"system":"https://madie.cms.gov/","value":"yearoverlap2"}],"active":true,"name":[{"use":"usual","text":"yearoverlap2","family":"IPPFAIL","given":["yearoverlap2IPPFAIL"]}],"gender":"female","birthDate":"1958-01-01","address":[{"text":"yearoverlap2, Screened Not at risk Assessed Severely Malnourished Diagnosed Care Plan, ID=yearoverlap2, DOB: 14 May 1950"}]},"request":{"method":"PUT","url":"Patient/8090a147-702c-452a-b59d-524c2bcbaaad"}},{"fullUrl":"https://madie.cms.gov/Encounter/7618a780-4504-4bfd-8101-51b68790a2a9","resource":{"resourceType":"Encounter","id":"7618a780-4504-4bfd-8101-51b68790a2a9","meta":{"profile":["http://hl7.org/fhir/us/qicore/StructureDefinition/qicore-encounter"]},"status":"finished","class":{"system":"http://terminology.hl7.org/CodeSystem/v3-ActCode","code":"IMP","display":"inpatient encounter"},"type":[{"coding":[{"system":"http://snomed.info/sct","code":"183452005"}]}],"subject":{"reference":"Patient/8090a147-702c-452a-b59d-524c2bcbaaad"},"period":{"start":"2025-12-28T08:00:00.000Z","end":"2026-01-02T08:15:00.000Z"}},"request":{"method":"PUT","url":"Encounter/7618a780-4504-4bfd-8101-51b68790a2a9"}},{"fullUrl":"https://madie.cms.gov/Condition/63d6523d-45c3-4470-9a16-d59ac50bb1a0","resource":{"resourceType":"Condition","id":"63d6523d-45c3-4470-9a16-d59ac50bb1a0","meta":{"profile":["http://hl7.org/fhir/us/qicore/StructureDefinition/qicore-condition"]},"clinicalStatus":{"coding":[{"system":"http://terminology.hl7.org/CodeSystem/condition-clinical","code":"active","display":"Active","userSelected":true}]},"verificationStatus":{"coding":[{"system":"http://terminology.hl7.org/CodeSystem/condition-ver-status","code":"confirmed","display":"Confirmed","userSelected":true}]},"category":[{"coding":[{"system":"http://terminology.hl7.org/CodeSystem/condition-category","code":"encounter-diagnosis","display":"Encounter Diagnosis","userSelected":true}]}],"code":{"coding":[{"system":"http://snomed.info/sct","code":"190606006","display":"Moderate protein energy malnutrition (disorder)","userSelected":true}]},"subject":{"reference":"Patient/8090a147-702c-452a-b59d-524c2bcbaaad"},"onsetPeriod":{"start":"2026-12-31T08:00:00.000+00:00"},"recordedDate":"2027-01-04T11:00:00.000+00:00"},"request":{"method":"PUT","url":"Condition/63d6523d-45c3-4470-9a16-d59ac50bb1a0"}},{"fullUrl":"https://madie.cms.gov/Observation/8358e4d8-cbd2-4e84-a238-8d0796b4124f","resource":{"resourceType":"Observation","id":"8358e4d8-cbd2-4e84-a238-8d0796b4124f","meta":{"profile":["http://hl7.org/fhir/us/qicore/StructureDefinition/qicore-observation"]},"status":"final","category":[{"coding":[{"system":"http://terminology.hl7.org/CodeSystem/observation-category","code":"survey","display":"Survey"}]}],"code":{"coding":[{"system":"http://loinc.org","code":"101807-6","display":"Malnutrition risk screen results indicator","userSelected":true}]},"subject":{"reference":"Patient/8090a147-702c-452a-b59d-524c2bcbaaad"},"effectiveDateTime":"2025-12-31T08:00:00.000+00:00","valueCodeableConcept":{"coding":[{"system":"http://loinc.org","code":"LA33699-2","display":"Not at risk for malnutrition","userSelected":true}]}},"request":{"method":"PUT","url":"Observation/8358e4d8-cbd2-4e84-a238-8d0796b4124f"}},{"fullUrl":"https://madie.cms.gov/Observation/b10a3a46-7f47-4804-aeea-1bdfa3becc8a","resource":{"resourceType":"Observation","id":"b10a3a46-7f47-4804-aeea-1bdfa3becc8a","meta":{"profile":["http://hl7.org/fhir/us/qicore/StructureDefinition/qicore-observation"]},"status":"final","category":[{"coding":[{"system":"http://terminology.hl7.org/CodeSystem/observation-category","code":"survey","display":"Survey"}]}],"code":{"coding":[{"system":"http://loinc.org","code":"75282-4","display":"Nutrition assessment panel","userSelected":true}]},"subject":{"reference":"Patient/8090a147-702c-452a-b59d-524c2bcbaaad"},"effectiveDateTime":"2026-12-31T10:00:00.000+00:00","valueCodeableConcept":{"coding":[{"system":"http://snomed.info/sct","code":"102635008","display":"Acute nutritional deficiency (finding)","userSelected":true}]}},"request":{"method":"PUT","url":"Observation/b10a3a46-7f47-4804-aeea-1bdfa3becc8a"}},{"fullUrl":"https://madie.cms.gov/Procedure/db5fcc3d-72f0-4626-9fab-e18accb5b50a","resource":{"resourceType":"Procedure","id":"db5fcc3d-72f0-4626-9fab-e18accb5b50a","meta":{"profile":["http://hl7.org/fhir/us/qicore/StructureDefinition/qicore-procedure"]},"extension":[{"url":"http://hl7.org/fhir/us/qicore/StructureDefinition/qicore-recorded","valueDateTime":"2026-12-31T11:30:00.000Z"}],"status":"completed","code":{"coding":[{"system":"http://snomed.info/sct","code":"306165000","display":"Referral to hospital-based dietetics service (procedure)"}],"text":"Referral to hospital-based dietetics service (procedure)"},"subject":{"reference":"Patient/8090a147-702c-452a-b59d-524c2bcbaaad"},"encounter":{"reference":"Encounter/yearoverlap2IPPFAIL"},"performedPeriod":{"start":"2026-12-31T11:30:00.000Z","end":"2027-01-04T08:15:00.000Z"}},"request":{"method":"PUT","url":"Procedure/db5fcc3d-72f0-4626-9fab-e18accb5b50a"}},{"fullUrl":"https://madie.cms.gov/Procedure/ac17645d-910c-4083-a931-0cf2f13c07aa","resource":{"resourceType":"Procedure","id":"ac17645d-910c-4083-a931-0cf2f13c07aa","meta":{"profile":["http://hl7.org/fhir/us/qicore/StructureDefinition/qicore-procedure"]},"extension":[{"url":"http://hl7.org/fhir/us/qicore/StructureDefinition/qicore-recorded","valueDateTime":"2026-12-31T11:30:00.000Z"}],"status":"completed","code":{"coding":[{"system":"http://snomed.info/sct","code":"182922004","display":"Dietary regime (regime/therapy)"}],"text":"Dietary regime (regime/therapy)"},"subject":{"reference":"Patient/8090a147-702c-452a-b59d-524c2bcbaaad"},"encounter":{"reference":"Encounter/yearoverlap2IPPFAIL"},"performedPeriod":{"start":"2026-12-31T11:30:00.000Z","end":"2027-01-04T08:15:00.000Z"}},"request":{"method":"PUT","url":"Procedure/ac17645d-910c-4083-a931-0cf2f13c07aa"}},{"fullUrl":"https://madie.cms.gov/Coverage/e149cce8-3807-49b8-b260-822027055cda","resource":{"resourceType":"Coverage","id":"e149cce8-3807-49b8-b260-822027055cda","meta":{"profile":["http://hl7.org/fhir/us/qicore/StructureDefinition/qicore-coverage"]},"status":"active","type":{"coding":[{"system":"https://nahdo.org/sopt","version":"9.2","code":"11","display":"Medicare Managed Care (Includes Medicare Advantage Plans)"}]},"beneficiary":{"reference":"Patient/8090a147-702c-452a-b59d-524c2bcbaaad"},"period":{"start":"2024-10-01T00:00:00+00:00"},"payor":[{"reference":"Organization/607fdef9-3983-4cef-ab1a-95434d29b463"}]},"request":{"method":"PUT","url":"Coverage/e149cce8-3807-49b8-b260-822027055cda"}},{"fullUrl":"https://madie.cms.gov/Organization/53420f2f-68a3-4161-ac74-96ccdc26e8fd","resource":{"resourceType":"Organization","id":"607fdef9-3983-4cef-ab1a-95434d29b463","meta":{"profile":["http://hl7.org/fhir/us/qicore/StructureDefinition/qicore-organization"]},"identifier":[{"use":"temp","system":"urn:oid:2.16.840.1.113883.4.4","value":"21-3259825"}],"active":true,"type":[{"coding":[{"system":"http://terminology.hl7.org/CodeSystem/organization-type","code":"pay","display":"Payer"}]}],"name":"Blue Cross Blue Shield of Texas","telecom":[{"system":"phone","value":"(+1) 972-766-6900"}],"address":[{"use":"billing","type":"postal","line":["P.O. Box 660044"],"city":"Dallas","state":"TX","postalCode":"75266-0044","country":"USA"}]},"request":{"method":"PUT","url":"Organization/607fdef9-3983-4cef-ab1a-95434d29b463"}},{"fullUrl":"https://madie.cms.gov/MeasureReport/578cece7-e128-4afc-b050-fdd106a92663","resource":{"resourceType":"MeasureReport","id":"578cece7-e128-4afc-b050-fdd106a92663","meta":{"profile":["http://hl7.org/fhir/us/cqfmeasures/StructureDefinition/test-case-cqfm"]},"contained":[{"resourceType":"Parameters","id":"28b54851-c803-4903-b404-e381603006b4-parameters","parameter":[{"name":"subject","valueString":"8090a147-702c-452a-b59d-524c2bcbaaad"}]}],"extension":[{"url":"http://hl7.org/fhir/us/cqfmeasures/StructureDefinition/cqfm-inputParameters","valueReference":{"reference":"#28b54851-c803-4903-b404-e381603006b4-parameters"}},{"url":"http://hl7.org/fhir/us/cqfmeasures/StructureDefinition/cqfm-testCaseDescription","valueMarkdown":"EndsDuring"}],"modifierExtension":[{"url":"http://hl7.org/fhir/us/cqfmeasures/StructureDefinition/cqfm-isTestCase","valueBoolean":true}],"status":"complete","type":"individual","measure":"https://madie.cms.gov/Measure/CMS986FHIRMalnutritionScore","period":{"start":"2026-01-01","end":"2026-12-31"},"group":[{"population":[{"code":{"coding":[{"system":"http://terminology.hl7.org/CodeSystem/measure-population","code":"initial-population","display":"Initial Population"}]},"count":1},{"code":{"coding":[{"system":"http://terminology.hl7.org/CodeSystem/measure-population","code":"measure-population","display":"Measure Population"}]},"count":1},{"code":{"coding":[{"system":"http://terminology.hl7.org/CodeSystem/measure-population","code":"measure-population-exclusion","display":"Measure Population Exclusion"}]},"count":0},{"code":{"coding":[{"system":"http://terminology.hl7.org/CodeSystem/measure-population","code":"measure-population-observation","display":"Measure Population Observation"}]},"count":1}]},{"population":[{"code":{"coding":[{"system":"http://terminology.hl7.org/CodeSystem/measure-population","code":"initial-population","display":"Initial Population"}]},"count":1},{"code":{"coding":[{"system":"http://terminology.hl7.org/CodeSystem/measure-population","code":"measure-population","display":"Measure Population"}]},"count":1},{"code":{"coding":[{"system":"http://terminology.hl7.org/CodeSystem/measure-population","code":"measure-population-exclusion","display":"Measure Population Exclusion"}]},"count":0},{"code":{"coding":[{"system":"http://terminology.hl7.org/CodeSystem/measure-population","code":"measure-population-observation","display":"Measure Population Observation"}]},"count":0}]},{"population":[{"code":{"coding":[{"system":"http://terminology.hl7.org/CodeSystem/measure-population","code":"initial-population","display":"Initial Population"}]},"count":1},{"code":{"coding":[{"system":"http://terminology.hl7.org/CodeSystem/measure-population","code":"measure-population","display":"Measure Population"}]},"count":1},{"code":{"coding":[{"system":"http://terminology.hl7.org/CodeSystem/measure-population","code":"measure-population-exclusion","display":"Measure Population Exclusion"}]},"count":0},{"code":{"coding":[{"system":"http://terminology.hl7.org/CodeSystem/measure-population","code":"measure-population-observation","display":"Measure Population Observation"}]},"count":0}]},{"population":[{"code":{"coding":[{"system":"http://terminology.hl7.org/CodeSystem/measure-population","code":"initial-population","display":"Initial Population"}]},"count":1},{"code":{"coding":[{"system":"http://terminology.hl7.org/CodeSystem/measure-population","code":"measure-population","display":"Measure Population"}]},"count":1},{"code":{"coding":[{"system":"http://terminology.hl7.org/CodeSystem/measure-population","code":"measure-population-exclusion","display":"Measure Population Exclusion"}]},"count":0},{"code":{"coding":[{"system":"http://terminology.hl7.org/CodeSystem/measure-population","code":"measure-population-observation","display":"Measure Population Observation"}]},"count":0}]},{"population":[{"code":{"coding":[{"system":"http://terminology.hl7.org/CodeSystem/measure-population","code":"initial-population","display":"Initial Population"}]},"count":1},{"code":{"coding":[{"system":"http://terminology.hl7.org/CodeSystem/measure-population","code":"measure-population","display":"Measure Population"}]},"count":1},{"code":{"coding":[{"system":"http://terminology.hl7.org/CodeSystem/measure-population","code":"measure-population-exclusion","display":"Measure Population Exclusion"}]},"count":0},{"code":{"coding":[{"system":"http://terminology.hl7.org/CodeSystem/measure-population","code":"measure-population-observation","display":"Measure Population Observation"}]},"count":1}]},{"population":[{"code":{"coding":[{"system":"http://terminology.hl7.org/CodeSystem/measure-population","code":"initial-population","display":"Initial Population"}]},"count":1},{"code":{"coding":[{"system":"http://terminology.hl7.org/CodeSystem/measure-population","code":"measure-population","display":"Measure Population"}]},"count":1},{"code":{"coding":[{"system":"http://terminology.hl7.org/CodeSystem/measure-population","code":"measure-population-exclusion","display":"Measure Population Exclusion"}]},"count":0},{"code":{"coding":[{"system":"http://terminology.hl7.org/CodeSystem/measure-population","code":"measure-population-observation","display":"Measure Population Observation"}]},"count":100}]}]},"request":{"method":"PUT","url":"MeasureReport/578cece7-e128-4afc-b050-fdd106a92663"}}]}