{"resourceType":"Bundle","id":"tests-7645d28b-089e-4126-b8e4-b02a73d6493f-bundle","type":"transaction","entry":[{"fullUrl":"https://madie.cms.gov/Patient/7645d28b-089e-4126-b8e4-b02a73d6493f","resource":{"resourceType":"Patient","id":"7645d28b-089e-4126-b8e4-b02a73d6493f","meta":{"profile":["http://hl7.org/fhir/us/qicore/StructureDefinition/qicore-patient"]},"text":{"status":"generated","div":"<div xmlns=\"http://www.w3.org/1999/xhtml\"><div class=\"hapiHeaderText\">YearOverlap, Screened Not at risk Assessed Severely Malnourished Diagnosed Care Plan, <b>mo1111d4p100 </b></div><table class=\"hapiPropertyTable\"><tbody><tr><td>Identifier</td><td>YearOverlap</td></tr><tr><td>Date of birth</td><td><span>14 May 1950</span></td></tr></tbody></table></div>"},"extension":[{"url":"http://hl7.org/fhir/us/core/StructureDefinition/us-core-race","extension":[{"url":"ombCategory","valueCoding":{"system":"urn:oid:2.16.840.1.113883.6.238","code":"2106-3","display":"White","userSelected":true}},{"url":"text","valueString":"White"}]},{"url":"http://hl7.org/fhir/us/core/StructureDefinition/us-core-ethnicity","extension":[{"url":"ombCategory","valueCoding":{"system":"urn:oid:2.16.840.1.113883.6.238","code":"2186-5","display":"Not Hispanic or Latino","userSelected":true}},{"url":"text","valueString":"Not Hispanic or Latino"}]}],"identifier":[{"type":{"coding":[{"system":"http://terminology.hl7.org/CodeSystem/v2-0203","code":"MR"}]},"system":"https://madie.cms.gov/","value":"YearOverlap"}],"active":true,"name":[{"use":"usual","text":"YearOverlap","family":"IPPFAIL","given":["YearOverlapIPPFAIL"]}],"gender":"male","birthDate":"1961-01-01","address":[{"text":"YearOverlap, Screened Not at risk Assessed Severely Malnourished Diagnosed Care Plan, ID=YearOverlap, DOB: 14 May 1950"}]},"request":{"method":"PUT","url":"Patient/7645d28b-089e-4126-b8e4-b02a73d6493f"}},{"fullUrl":"https://madie.cms.gov/Encounter/97823b80-c3f7-4b1f-910a-4a43069fa010","resource":{"resourceType":"Encounter","id":"97823b80-c3f7-4b1f-910a-4a43069fa010","meta":{"profile":["http://hl7.org/fhir/us/qicore/StructureDefinition/qicore-encounter"]},"status":"finished","class":{"system":"http://terminology.hl7.org/CodeSystem/v3-ActCode","code":"IMP","display":"inpatient encounter"},"type":[{"coding":[{"system":"http://snomed.info/sct","code":"183452005"}]}],"subject":{"reference":"Patient/7645d28b-089e-4126-b8e4-b02a73d6493f"},"period":{"start":"2026-12-28T08:00:00.000Z","end":"2027-01-01T08:15:00.000Z"}},"request":{"method":"PUT","url":"Encounter/97823b80-c3f7-4b1f-910a-4a43069fa010"}},{"fullUrl":"https://madie.cms.gov/Condition/cd83cd1e-0469-4fd2-95a9-be460e798359","resource":{"resourceType":"Condition","id":"cd83cd1e-0469-4fd2-95a9-be460e798359","meta":{"profile":["http://hl7.org/fhir/us/qicore/StructureDefinition/qicore-condition"]},"clinicalStatus":{"coding":[{"system":"http://terminology.hl7.org/CodeSystem/condition-clinical","code":"active","display":"Active","userSelected":true}]},"verificationStatus":{"coding":[{"system":"http://terminology.hl7.org/CodeSystem/condition-ver-status","code":"confirmed","display":"Confirmed","userSelected":true}]},"category":[{"coding":[{"system":"http://terminology.hl7.org/CodeSystem/condition-category","code":"encounter-diagnosis","display":"Encounter Diagnosis","userSelected":true}]}],"code":{"coding":[{"system":"http://snomed.info/sct","code":"190606006","display":"Moderate protein energy malnutrition (disorder)","userSelected":true}]},"subject":{"reference":"Patient/7645d28b-089e-4126-b8e4-b02a73d6493f"},"onsetPeriod":{"start":"2025-12-31T08:00:00.000+00:00"},"recordedDate":"2026-01-04T11:00:00.000+00:00"},"request":{"method":"PUT","url":"Condition/cd83cd1e-0469-4fd2-95a9-be460e798359"}},{"fullUrl":"https://madie.cms.gov/Observation/0a84a0a1-8faf-4744-a502-f8c68cfb6114","resource":{"resourceType":"Observation","id":"0a84a0a1-8faf-4744-a502-f8c68cfb6114","meta":{"profile":["http://hl7.org/fhir/us/qicore/StructureDefinition/qicore-observation"]},"status":"final","category":[{"coding":[{"system":"http://terminology.hl7.org/CodeSystem/observation-category","code":"survey","display":"Survey"}]}],"code":{"coding":[{"system":"http://loinc.org","code":"98967-3","display":"Nutritional Risk Screening 2002 panel","userSelected":true}]},"subject":{"reference":"Patient/7645d28b-089e-4126-b8e4-b02a73d6493f"},"effectiveDateTime":"2025-12-31T08:00:00.000+00:00","valueCodeableConcept":{"coding":[{"system":"http://snomed.info/sct","code":"129689002","display":"At risk for nutritional problem (finding)","userSelected":true}]}},"request":{"method":"PUT","url":"Observation/0a84a0a1-8faf-4744-a502-f8c68cfb6114"}},{"fullUrl":"https://madie.cms.gov/Observation/6c6dd109-58c8-49b4-b4d8-3b0f02637b19","resource":{"resourceType":"Observation","id":"6c6dd109-58c8-49b4-b4d8-3b0f02637b19","meta":{"profile":["http://hl7.org/fhir/us/qicore/StructureDefinition/qicore-observation"]},"status":"final","category":[{"coding":[{"system":"http://terminology.hl7.org/CodeSystem/observation-category","code":"survey","display":"Survey"}]}],"code":{"coding":[{"system":"http://loinc.org","code":"75282-4","display":"Nutrition assessment panel","userSelected":true}]},"subject":{"reference":"Patient/7645d28b-089e-4126-b8e4-b02a73d6493f"},"effectiveDateTime":"2025-12-31T10:00:00.000+00:00","valueCodeableConcept":{"coding":[{"system":"http://snomed.info/sct","code":"102635008","display":"Acute nutritional deficiency (finding)","userSelected":true}]}},"request":{"method":"PUT","url":"Observation/6c6dd109-58c8-49b4-b4d8-3b0f02637b19"}},{"fullUrl":"https://madie.cms.gov/Procedure/4081d5f3-a457-4dd0-a511-aaf2a77af1a2","resource":{"resourceType":"Procedure","id":"4081d5f3-a457-4dd0-a511-aaf2a77af1a2","meta":{"profile":["http://hl7.org/fhir/us/qicore/StructureDefinition/qicore-procedure"]},"extension":[{"url":"http://hl7.org/fhir/us/qicore/StructureDefinition/qicore-recorded","valueDateTime":"2025-12-31T11:30:00.000Z"}],"status":"completed","code":{"coding":[{"system":"http://snomed.info/sct","code":"306165000","display":"Referral to hospital-based dietetics service (procedure)"}],"text":"Referral to hospital-based dietetics service (procedure)"},"subject":{"reference":"Patient/7645d28b-089e-4126-b8e4-b02a73d6493f"},"encounter":{"reference":"Encounter/YearOverlapIPPFAIL"},"performedPeriod":{"start":"2025-12-31T11:30:00.000Z","end":"2026-01-04T08:15:00.000Z"}},"request":{"method":"PUT","url":"Procedure/4081d5f3-a457-4dd0-a511-aaf2a77af1a2"}},{"fullUrl":"https://madie.cms.gov/Procedure/6df0d80c-39a4-48dc-a4e4-0f178a672b0e","resource":{"resourceType":"Procedure","id":"6df0d80c-39a4-48dc-a4e4-0f178a672b0e","meta":{"profile":["http://hl7.org/fhir/us/qicore/StructureDefinition/qicore-procedure"]},"extension":[{"url":"http://hl7.org/fhir/us/qicore/StructureDefinition/qicore-recorded","valueDateTime":"2026-12-31T11:30:00.000Z"}],"status":"completed","code":{"coding":[{"system":"http://snomed.info/sct","code":"1279742004","display":"Development of nutrition care plan (procedure)"}],"text":"Development of nutrition care plan (procedure)"},"subject":{"reference":"Patient/7645d28b-089e-4126-b8e4-b02a73d6493f"},"encounter":{"reference":"Encounter/YearOverlapIPPFAIL"},"performedPeriod":{"start":"2026-12-31T11:30:00.000Z","end":"2027-01-04T08:15:00.000Z"}},"request":{"method":"PUT","url":"Procedure/6df0d80c-39a4-48dc-a4e4-0f178a672b0e"}},{"fullUrl":"https://madie.cms.gov/Coverage/b126c16e-0040-41da-bf19-759cd3c14d03","resource":{"resourceType":"Coverage","id":"b126c16e-0040-41da-bf19-759cd3c14d03","meta":{"profile":["http://hl7.org/fhir/us/qicore/StructureDefinition/qicore-coverage"]},"status":"active","type":{"coding":[{"system":"https://nahdo.org/sopt","version":"9.2","code":"11","display":"Medicare Managed Care (Includes Medicare Advantage Plans)"}]},"beneficiary":{"reference":"Patient/7645d28b-089e-4126-b8e4-b02a73d6493f"},"period":{"start":"2026-10-01T00:00:00+00:00"},"payor":[{"reference":"Organization/3778262e-e084-4bb5-9a47-1a144735f786"}]},"request":{"method":"PUT","url":"Coverage/b126c16e-0040-41da-bf19-759cd3c14d03"}},{"fullUrl":"https://madie.cms.gov/Organization/c28f5b50-731d-4abe-804e-5eadc3d6a274","resource":{"resourceType":"Organization","id":"3778262e-e084-4bb5-9a47-1a144735f786","meta":{"profile":["http://hl7.org/fhir/us/qicore/StructureDefinition/qicore-organization"]},"identifier":[{"use":"temp","system":"urn:oid:2.16.840.1.113883.4.4","value":"21-3259825"}],"active":true,"type":[{"coding":[{"system":"http://terminology.hl7.org/CodeSystem/organization-type","code":"pay","display":"Payer"}]}],"name":"Blue Cross Blue Shield of Texas","telecom":[{"system":"phone","value":"(+1) 972-766-6900"}],"address":[{"use":"billing","type":"postal","line":["P.O. Box 660044"],"city":"Dallas","state":"TX","postalCode":"75266-0044","country":"USA"}]},"request":{"method":"PUT","url":"Organization/3778262e-e084-4bb5-9a47-1a144735f786"}},{"fullUrl":"https://madie.cms.gov/MeasureReport/e85f9a37-8f70-48b9-a862-2bda2e8b3fa2","resource":{"resourceType":"MeasureReport","id":"e85f9a37-8f70-48b9-a862-2bda2e8b3fa2","meta":{"profile":["http://hl7.org/fhir/us/cqfmeasures/StructureDefinition/test-case-cqfm"]},"contained":[{"resourceType":"Parameters","id":"0d619c50-78d1-43a3-8108-797c7d312e4f-parameters","parameter":[{"name":"subject","valueString":"7645d28b-089e-4126-b8e4-b02a73d6493f"}]}],"extension":[{"url":"http://hl7.org/fhir/us/cqfmeasures/StructureDefinition/cqfm-inputParameters","valueReference":{"reference":"#0d619c50-78d1-43a3-8108-797c7d312e4f-parameters"}},{"url":"http://hl7.org/fhir/us/cqfmeasures/StructureDefinition/cqfm-testCaseDescription","valueMarkdown":"Overlaps Year Boundary to end during following year"}],"modifierExtension":[{"url":"http://hl7.org/fhir/us/cqfmeasures/StructureDefinition/cqfm-isTestCase","valueBoolean":true}],"status":"complete","type":"individual","measure":"https://madie.cms.gov/Measure/CMS986FHIRMalnutritionScore","period":{"start":"2026-01-01","end":"2026-12-31"},"group":[{"population":[{"code":{"coding":[{"system":"http://terminology.hl7.org/CodeSystem/measure-population","code":"initial-population","display":"Initial Population"}]},"count":0},{"code":{"coding":[{"system":"http://terminology.hl7.org/CodeSystem/measure-population","code":"measure-population","display":"Measure Population"}]},"count":0},{"code":{"coding":[{"system":"http://terminology.hl7.org/CodeSystem/measure-population","code":"measure-population-exclusion","display":"Measure Population Exclusion"}]},"count":0}]},{"population":[{"code":{"coding":[{"system":"http://terminology.hl7.org/CodeSystem/measure-population","code":"initial-population","display":"Initial Population"}]},"count":0},{"code":{"coding":[{"system":"http://terminology.hl7.org/CodeSystem/measure-population","code":"measure-population","display":"Measure Population"}]},"count":0},{"code":{"coding":[{"system":"http://terminology.hl7.org/CodeSystem/measure-population","code":"measure-population-exclusion","display":"Measure Population Exclusion"}]},"count":0}]},{"population":[{"code":{"coding":[{"system":"http://terminology.hl7.org/CodeSystem/measure-population","code":"initial-population","display":"Initial Population"}]},"count":0},{"code":{"coding":[{"system":"http://terminology.hl7.org/CodeSystem/measure-population","code":"measure-population","display":"Measure Population"}]},"count":0},{"code":{"coding":[{"system":"http://terminology.hl7.org/CodeSystem/measure-population","code":"measure-population-exclusion","display":"Measure Population Exclusion"}]},"count":0}]},{"population":[{"code":{"coding":[{"system":"http://terminology.hl7.org/CodeSystem/measure-population","code":"initial-population","display":"Initial Population"}]},"count":0},{"code":{"coding":[{"system":"http://terminology.hl7.org/CodeSystem/measure-population","code":"measure-population","display":"Measure Population"}]},"count":0},{"code":{"coding":[{"system":"http://terminology.hl7.org/CodeSystem/measure-population","code":"measure-population-exclusion","display":"Measure Population Exclusion"}]},"count":0}]},{"population":[{"code":{"coding":[{"system":"http://terminology.hl7.org/CodeSystem/measure-population","code":"initial-population","display":"Initial Population"}]},"count":0},{"code":{"coding":[{"system":"http://terminology.hl7.org/CodeSystem/measure-population","code":"measure-population","display":"Measure Population"}]},"count":0},{"code":{"coding":[{"system":"http://terminology.hl7.org/CodeSystem/measure-population","code":"measure-population-exclusion","display":"Measure Population Exclusion"}]},"count":0}]},{"population":[{"code":{"coding":[{"system":"http://terminology.hl7.org/CodeSystem/measure-population","code":"initial-population","display":"Initial Population"}]},"count":0},{"code":{"coding":[{"system":"http://terminology.hl7.org/CodeSystem/measure-population","code":"measure-population","display":"Measure Population"}]},"count":0},{"code":{"coding":[{"system":"http://terminology.hl7.org/CodeSystem/measure-population","code":"measure-population-exclusion","display":"Measure Population Exclusion"}]},"count":0}]}]},"request":{"method":"PUT","url":"MeasureReport/e85f9a37-8f70-48b9-a862-2bda2e8b3fa2"}}]}