{"resourceType":"Bundle","id":"tests-98a1289e-18e0-4606-be91-5434433cd259-bundle","type":"transaction","entry":[{"fullUrl":"https://madie.cms.gov/Patient/98a1289e-18e0-4606-be91-5434433cd259","resource":{"resourceType":"Patient","id":"98a1289e-18e0-4606-be91-5434433cd259","meta":{"profile":["http://hl7.org/fhir/us/qicore/StructureDefinition/qicore-patient"]},"text":{"status":"generated","div":"<div xmlns=\"http://www.w3.org/1999/xhtml\"><div class=\"hapiHeaderText\">2Encounters100100L, , <b> </b></div><table class=\"hapiPropertyTable\"><tbody><tr><td>Identifier</td><td>2Encounters100100L</td></tr><tr><td>Date of birth</td><td><span>14 May 1950</span></td></tr></tbody></table></div>"},"extension":[{"url":"http://hl7.org/fhir/us/core/StructureDefinition/us-core-race","extension":[{"url":"ombCategory","valueCoding":{"system":"urn:oid:2.16.840.1.113883.6.238","code":"2106-3","display":"White","userSelected":true}},{"url":"text","valueString":"White"}]},{"url":"http://hl7.org/fhir/us/core/StructureDefinition/us-core-ethnicity","extension":[{"url":"ombCategory","valueCoding":{"system":"urn:oid:2.16.840.1.113883.6.238","code":"2186-5","display":"Not Hispanic or Latino","userSelected":true}},{"url":"text","valueString":"Not Hispanic or Latino"}]}],"identifier":[{"type":{"coding":[{"system":"http://terminology.hl7.org/CodeSystem/v2-0203","code":"MR"}]},"system":"https://madie.cms.gov/","value":"2Encounters100100L"}],"active":true,"name":[{"use":"usual","text":"2Encounters100100L","family":"OCCURPass44","given":["2Encounters10075OCCURPass44"]}],"gender":"male","birthDate":"1939-01-01","address":[{"text":"2Encounters100100L, Screened Not at risk Assessed Severely Malnourished Diagnosed Care Plan, ID=2Encounters100100L, DOB: 14 May 1950"}]},"request":{"method":"PUT","url":"Patient/98a1289e-18e0-4606-be91-5434433cd259"}},{"fullUrl":"https://madie.cms.gov/Encounter/9b9e959f-b69a-42d9-ae16-9a374a5621f0","resource":{"resourceType":"Encounter","id":"9b9e959f-b69a-42d9-ae16-9a374a5621f0","meta":{"profile":["http://hl7.org/fhir/us/qicore/StructureDefinition/qicore-encounter"]},"status":"finished","class":{"system":"http://terminology.hl7.org/CodeSystem/v3-ActCode","code":"IMP","display":"inpatient encounter"},"type":[{"coding":[{"system":"http://snomed.info/sct","code":"183452005"}]}],"subject":{"reference":"Patient/98a1289e-18e0-4606-be91-5434433cd259"},"period":{"start":"2026-03-02T08:00:00.000Z","end":"2026-03-04T08:15:00.000Z"}},"request":{"method":"PUT","url":"Encounter/9b9e959f-b69a-42d9-ae16-9a374a5621f0"}},{"fullUrl":"https://madie.cms.gov/Condition/3b8c091b-4ab8-4b37-827e-37d9007e62d7","resource":{"resourceType":"Condition","id":"3b8c091b-4ab8-4b37-827e-37d9007e62d7","meta":{"profile":["http://hl7.org/fhir/us/qicore/StructureDefinition/qicore-condition"]},"clinicalStatus":{"coding":[{"system":"http://terminology.hl7.org/CodeSystem/condition-clinical","code":"active","display":"Active","userSelected":true}]},"verificationStatus":{"coding":[{"system":"http://terminology.hl7.org/CodeSystem/condition-ver-status","code":"confirmed","display":"Confirmed","userSelected":true}]},"category":[{"coding":[{"system":"http://terminology.hl7.org/CodeSystem/condition-category","code":"encounter-diagnosis","display":"Encounter Diagnosis","userSelected":true}]}],"code":{"coding":[{"system":"http://snomed.info/sct","code":"190606006","display":"Mpoderate protein energy malnutrition (disorder)","userSelected":true}]},"subject":{"reference":"Patient/98a1289e-18e0-4606-be91-5434433cd259"},"onsetPeriod":{"start":"2026-03-01T08:00:00.000+00:00"},"recordedDate":"2026-03-01T11:00:00.000+00:00"},"request":{"method":"PUT","url":"Condition/3b8c091b-4ab8-4b37-827e-37d9007e62d7"}},{"fullUrl":"https://madie.cms.gov/Observation/8a4919e0-7d4f-4492-8e7f-20a965e62459","resource":{"resourceType":"Observation","id":"8a4919e0-7d4f-4492-8e7f-20a965e62459","meta":{"profile":["http://hl7.org/fhir/us/qicore/StructureDefinition/qicore-observation"]},"status":"final","category":[{"coding":[{"system":"http://terminology.hl7.org/CodeSystem/observation-category","code":"survey","display":"Survey"}]}],"code":{"coding":[{"system":"http://loinc.org","code":"98967-3","display":"Nutritional risk screening 2002 panel","userSelected":true}]},"subject":{"reference":"Patient/98a1289e-18e0-4606-be91-5434433cd259"},"effectiveDateTime":"2026-03-02T09:00:00.000+00:00","valueCodeableConcept":{"coding":[{"system":"http://snomed.info/sct","code":"129689002","display":"At risk for nutritional problem (finding)","userSelected":true}]}},"request":{"method":"PUT","url":"Observation/8a4919e0-7d4f-4492-8e7f-20a965e62459"}},{"fullUrl":"https://madie.cms.gov/Observation/09a07bc3-c580-46f4-97e0-3c2fb82d6401","resource":{"resourceType":"Observation","id":"09a07bc3-c580-46f4-97e0-3c2fb82d6401","meta":{"profile":["http://hl7.org/fhir/us/qicore/StructureDefinition/qicore-observation"]},"status":"final","category":[{"coding":[{"system":"http://terminology.hl7.org/CodeSystem/observation-category","code":"survey","display":"Survey"}]}],"code":{"coding":[{"system":"http://loinc.org","code":"75282-4","display":"nutrition assessment panel","userSelected":true}]},"subject":{"reference":"Patient/98a1289e-18e0-4606-be91-5434433cd259"},"effectiveDateTime":"2026-03-02T10:00:00.000+00:00","valueCodeableConcept":{"coding":[{"system":"http://snomed.info/sct","code":"272588001","display":"Malnutrition (calorie) (disorder)","userSelected":true}]}},"request":{"method":"PUT","url":"Observation/09a07bc3-c580-46f4-97e0-3c2fb82d6401"}},{"fullUrl":"https://madie.cms.gov/Procedure/a0becde1-ac66-4846-844d-60b84eb9258a","resource":{"resourceType":"Procedure","id":"a0becde1-ac66-4846-844d-60b84eb9258a","meta":{"profile":["http://hl7.org/fhir/us/qicore/StructureDefinition/qicore-procedure"]},"extension":[{"url":"http://hl7.org/fhir/us/qicore/StructureDefinition/qicore-recorded","valueDateTime":"2026-03-02T11:30:00.000Z"}],"status":"completed","code":{"coding":[{"system":"http://snomed.info/sct","code":"410175003","display":"Dietary regime management (procedure)"}],"text":"Dietary regime management (procedure)"},"subject":{"reference":"Patient/98a1289e-18e0-4606-be91-5434433cd259"},"encounter":{"reference":"Encounter/2Encounters100100LDENOMPass42"},"performedPeriod":{"start":"2026-03-02T11:30:00.000Z","end":"2026-03-03T08:15:00.000Z"}},"request":{"method":"PUT","url":"Procedure/a0becde1-ac66-4846-844d-60b84eb9258a"}},{"fullUrl":"https://madie.cms.gov/Coverage/b7dadfb2-df4d-4018-8f8e-bf75c424424a","resource":{"resourceType":"Coverage","id":"b7dadfb2-df4d-4018-8f8e-bf75c424424a","meta":{"profile":["http://hl7.org/fhir/us/qicore/StructureDefinition/qicore-coverage"]},"status":"active","type":{"coding":[{"system":"https://nahdo.org/sopt","version":"9.2","code":"11","display":"Medicare Managed Care (Includes Medicare Advantage Plans)"}]},"beneficiary":{"reference":"Patient/98a1289e-18e0-4606-be91-5434433cd259"},"period":{"start":"2024-10-01T00:00:00+00:00"},"payor":[{"reference":"Organization/80e3e0d1-b2aa-43a6-b1d2-00bfa3164a0f"}]},"request":{"method":"PUT","url":"Coverage/b7dadfb2-df4d-4018-8f8e-bf75c424424a"}},{"fullUrl":"https://madie.cms.gov/Encounter/fa085072-476b-46ca-96a7-22926c8a7e99","resource":{"resourceType":"Encounter","id":"fa085072-476b-46ca-96a7-22926c8a7e99","meta":{"profile":["http://hl7.org/fhir/us/qicore/StructureDefinition/qicore-encounter"]},"status":"finished","class":{"system":"http://terminology.hl7.org/CodeSystem/v3-ActCode","code":"IMP","display":"inpatient encounter"},"type":[{"coding":[{"system":"http://snomed.info/sct","code":"183452005"}]}],"subject":{"reference":"Patient/98a1289e-18e0-4606-be91-5434433cd259"},"period":{"start":"2026-05-02T08:00:00.000Z","end":"2026-05-04T08:15:00.000Z"}},"request":{"method":"PUT","url":"Encounter/fa085072-476b-46ca-96a7-22926c8a7e99"}},{"fullUrl":"https://madie.cms.gov/Condition/0e0f0f68-8b74-4406-a6d1-82a2484dc747","resource":{"resourceType":"Condition","id":"0e0f0f68-8b74-4406-a6d1-82a2484dc747","meta":{"profile":["http://hl7.org/fhir/us/qicore/StructureDefinition/qicore-condition"]},"clinicalStatus":{"coding":[{"system":"http://terminology.hl7.org/CodeSystem/condition-clinical","code":"active","display":"Active","userSelected":true}]},"verificationStatus":{"coding":[{"system":"http://terminology.hl7.org/CodeSystem/condition-ver-status","code":"confirmed","display":"Confirmed","userSelected":true}]},"category":[{"coding":[{"system":"http://terminology.hl7.org/CodeSystem/condition-category","code":"encounter-diagnosis","display":"Encounter Diagnosis","userSelected":true}]}],"code":{"coding":[{"system":"http://snomed.info/sct","code":"190606006","display":"Moderate protein energy malnutrition (disorder)","userSelected":true}]},"subject":{"reference":"Patient/98a1289e-18e0-4606-be91-5434433cd259"},"onsetPeriod":{"start":"2026-05-02T08:00:00.000+00:00"},"recordedDate":"2026-05-02T11:00:00.000+00:00"},"request":{"method":"PUT","url":"Condition/0e0f0f68-8b74-4406-a6d1-82a2484dc747"}},{"fullUrl":"https://madie.cms.gov/Observation/6c02ea5a-1446-4783-9e9b-0aa3ba2a07d3","resource":{"resourceType":"Observation","id":"6c02ea5a-1446-4783-9e9b-0aa3ba2a07d3","meta":{"profile":["http://hl7.org/fhir/us/qicore/StructureDefinition/qicore-observation"]},"status":"final","category":[{"coding":[{"system":"http://terminology.hl7.org/CodeSystem/observation-category","code":"survey","display":"Survey"}]}],"code":{"coding":[{"system":"http://loinc.org","code":"75282-4","display":"Nutrition assessment panel","userSelected":true}]},"subject":{"reference":"Patient/98a1289e-18e0-4606-be91-5434433cd259"},"effectiveDateTime":"2026-05-02T10:00:00.000+00:00","valueCodeableConcept":{"coding":[{"system":"http://snomed.info/sct","code":"272588001","display":"Malnutrition (calorie) (disorder)","userSelected":true}]}},"request":{"method":"PUT","url":"Observation/6c02ea5a-1446-4783-9e9b-0aa3ba2a07d3"}},{"fullUrl":"https://madie.cms.gov/Procedure/aa9cc29b-a309-4607-83d2-b47ce51bcaab","resource":{"resourceType":"Procedure","id":"aa9cc29b-a309-4607-83d2-b47ce51bcaab","meta":{"profile":["http://hl7.org/fhir/us/qicore/StructureDefinition/qicore-procedure"]},"extension":[{"url":"http://hl7.org/fhir/us/qicore/StructureDefinition/qicore-recorded","valueDateTime":"2026-05-02T11:30:00.000Z"}],"status":"completed","code":{"coding":[{"system":"http://snomed.info/sct","code":"306354000","display":"Referral to hospital-based dietitian (procedure)"}],"text":"Referral to hospital-based dietitian (procedure)"},"subject":{"reference":"Patient/98a1289e-18e0-4606-be91-5434433cd259"},"encounter":{"reference":"Encounter/2Encounters100100LDENOMPass42"},"performedPeriod":{"start":"2026-05-02T11:30:00.000Z","end":"2026-05-03T08:15:00.000Z"}},"request":{"method":"PUT","url":"Procedure/aa9cc29b-a309-4607-83d2-b47ce51bcaab"}},{"fullUrl":"https://madie.cms.gov/Coverage/4296258d-4a00-4832-80b8-abd084a68e80","resource":{"resourceType":"Coverage","id":"4296258d-4a00-4832-80b8-abd084a68e80","meta":{"profile":["http://hl7.org/fhir/us/qicore/StructureDefinition/qicore-coverage"]},"status":"active","type":{"coding":[{"system":"https://nahdo.org/sopt","version":"9.2","code":"11","display":"Medicare Managed Care (Includes Medicare Advantage Plans)"}]},"beneficiary":{"reference":"Patient/98a1289e-18e0-4606-be91-5434433cd259"},"period":{"start":"2024-10-01T00:00:00+00:00"},"payor":[{"reference":"Organization/80e3e0d1-b2aa-43a6-b1d2-00bfa3164a0f"}]},"request":{"method":"PUT","url":"Coverage/4296258d-4a00-4832-80b8-abd084a68e80"}},{"fullUrl":"https://madie.cms.gov/Organization/53c3ed29-de32-4c40-8fcc-99e2ec2d4677","resource":{"resourceType":"Organization","id":"80e3e0d1-b2aa-43a6-b1d2-00bfa3164a0f","meta":{"profile":["http://hl7.org/fhir/us/qicore/StructureDefinition/qicore-organization"]},"identifier":[{"use":"temp","system":"urn:oid:2.16.840.1.113883.4.4","value":"21-3259825"}],"active":true,"type":[{"coding":[{"system":"http://terminology.hl7.org/CodeSystem/organization-type","code":"pay","display":"Payer"}]}],"name":"Blue Cross Blue Shield of Texas","telecom":[{"system":"phone","value":"(+1) 972-766-6900"}],"address":[{"use":"billing","type":"postal","line":["P.O. Box 660044"],"city":"Dallas","state":"TX","postalCode":"75266-0044","country":"USA"}]},"request":{"method":"PUT","url":"Organization/80e3e0d1-b2aa-43a6-b1d2-00bfa3164a0f"}},{"fullUrl":"https://madie.cms.gov/MeasureReport/dab7b1be-fcd4-4351-a5ee-e798b21e47fe","resource":{"resourceType":"MeasureReport","id":"dab7b1be-fcd4-4351-a5ee-e798b21e47fe","meta":{"profile":["http://hl7.org/fhir/us/cqfmeasures/StructureDefinition/test-case-cqfm"]},"contained":[{"resourceType":"Parameters","id":"79f195de-28b6-4a8c-839e-1289b744f835-parameters","parameter":[{"name":"subject","valueString":"98a1289e-18e0-4606-be91-5434433cd259"}]}],"extension":[{"url":"http://hl7.org/fhir/us/cqfmeasures/StructureDefinition/cqfm-inputParameters","valueReference":{"reference":"#79f195de-28b6-4a8c-839e-1289b744f835-parameters"}},{"url":"http://hl7.org/fhir/us/cqfmeasures/StructureDefinition/cqfm-testCaseDescription","valueMarkdown":"Multiple Encounters-First encounter all 4 MOs, 2nd encounter missing CP"}],"modifierExtension":[{"url":"http://hl7.org/fhir/us/cqfmeasures/StructureDefinition/cqfm-isTestCase","valueBoolean":true}],"status":"complete","type":"individual","measure":"https://madie.cms.gov/Measure/CMS986FHIRMalnutritionScore","period":{"start":"2026-01-01","end":"2026-12-31"},"group":[{"population":[{"code":{"coding":[{"system":"http://terminology.hl7.org/CodeSystem/measure-population","code":"initial-population","display":"Initial Population"}]},"count":2},{"code":{"coding":[{"system":"http://terminology.hl7.org/CodeSystem/measure-population","code":"measure-population","display":"Measure Population"}]},"count":2},{"code":{"coding":[{"system":"http://terminology.hl7.org/CodeSystem/measure-population","code":"measure-population-exclusion","display":"Measure Population Exclusion"}]},"count":0},{"code":{"coding":[{"system":"http://terminology.hl7.org/CodeSystem/measure-population","code":"measure-population-observation","display":"Measure Population Observation"}]},"count":1},{"code":{"coding":[{"system":"http://terminology.hl7.org/CodeSystem/measure-population","code":"measure-population-observation","display":"Measure Population Observation"}]},"count":1}]},{"population":[{"code":{"coding":[{"system":"http://terminology.hl7.org/CodeSystem/measure-population","code":"initial-population","display":"Initial Population"}]},"count":2},{"code":{"coding":[{"system":"http://terminology.hl7.org/CodeSystem/measure-population","code":"measure-population","display":"Measure Population"}]},"count":2},{"code":{"coding":[{"system":"http://terminology.hl7.org/CodeSystem/measure-population","code":"measure-population-exclusion","display":"Measure Population Exclusion"}]},"count":0},{"code":{"coding":[{"system":"http://terminology.hl7.org/CodeSystem/measure-population","code":"measure-population-observation","display":"Measure Population Observation"}]},"count":1},{"code":{"coding":[{"system":"http://terminology.hl7.org/CodeSystem/measure-population","code":"measure-population-observation","display":"Measure Population Observation"}]},"count":1}]},{"population":[{"code":{"coding":[{"system":"http://terminology.hl7.org/CodeSystem/measure-population","code":"initial-population","display":"Initial Population"}]},"count":2},{"code":{"coding":[{"system":"http://terminology.hl7.org/CodeSystem/measure-population","code":"measure-population","display":"Measure Population"}]},"count":2},{"code":{"coding":[{"system":"http://terminology.hl7.org/CodeSystem/measure-population","code":"measure-population-exclusion","display":"Measure Population Exclusion"}]},"count":0},{"code":{"coding":[{"system":"http://terminology.hl7.org/CodeSystem/measure-population","code":"measure-population-observation","display":"Measure Population Observation"}]},"count":1},{"code":{"coding":[{"system":"http://terminology.hl7.org/CodeSystem/measure-population","code":"measure-population-observation","display":"Measure Population Observation"}]},"count":1}]},{"population":[{"code":{"coding":[{"system":"http://terminology.hl7.org/CodeSystem/measure-population","code":"initial-population","display":"Initial Population"}]},"count":2},{"code":{"coding":[{"system":"http://terminology.hl7.org/CodeSystem/measure-population","code":"measure-population","display":"Measure Population"}]},"count":2},{"code":{"coding":[{"system":"http://terminology.hl7.org/CodeSystem/measure-population","code":"measure-population-exclusion","display":"Measure Population Exclusion"}]},"count":0},{"code":{"coding":[{"system":"http://terminology.hl7.org/CodeSystem/measure-population","code":"measure-population-observation","display":"Measure Population Observation"}]},"count":1},{"code":{"coding":[{"system":"http://terminology.hl7.org/CodeSystem/measure-population","code":"measure-population-observation","display":"Measure Population Observation"}]},"count":0}]},{"population":[{"code":{"coding":[{"system":"http://terminology.hl7.org/CodeSystem/measure-population","code":"initial-population","display":"Initial Population"}]},"count":2},{"code":{"coding":[{"system":"http://terminology.hl7.org/CodeSystem/measure-population","code":"measure-population","display":"Measure Population"}]},"count":2},{"code":{"coding":[{"system":"http://terminology.hl7.org/CodeSystem/measure-population","code":"measure-population-exclusion","display":"Measure Population Exclusion"}]},"count":0},{"code":{"coding":[{"system":"http://terminology.hl7.org/CodeSystem/measure-population","code":"measure-population-observation","display":"Measure Population Observation"}]},"count":4},{"code":{"coding":[{"system":"http://terminology.hl7.org/CodeSystem/measure-population","code":"measure-population-observation","display":"Measure Population Observation"}]},"count":3}]},{"population":[{"code":{"coding":[{"system":"http://terminology.hl7.org/CodeSystem/measure-population","code":"initial-population","display":"Initial Population"}]},"count":2},{"code":{"coding":[{"system":"http://terminology.hl7.org/CodeSystem/measure-population","code":"measure-population","display":"Measure Population"}]},"count":2},{"code":{"coding":[{"system":"http://terminology.hl7.org/CodeSystem/measure-population","code":"measure-population-exclusion","display":"Measure Population Exclusion"}]},"count":0},{"code":{"coding":[{"system":"http://terminology.hl7.org/CodeSystem/measure-population","code":"measure-population-observation","display":"Measure Population Observation"}]},"count":100},{"code":{"coding":[{"system":"http://terminology.hl7.org/CodeSystem/measure-population","code":"measure-population-observation","display":"Measure Population Observation"}]},"count":75}]}]},"request":{"method":"PUT","url":"MeasureReport/dab7b1be-fcd4-4351-a5ee-e798b21e47fe"}}]}