{"resourceType":"Bundle","id":"tests-d7b8ad65-50f2-442f-8afc-1de38844a5ad-bundle","type":"transaction","entry":[{"fullUrl":"https://madie.cms.gov/Patient/d7b8ad65-50f2-442f-8afc-1de38844a5ad","resource":{"resourceType":"Patient","id":"d7b8ad65-50f2-442f-8afc-1de38844a5ad","meta":{"profile":["http://hl7.org/fhir/us/qicore/StructureDefinition/qicore-patient"]},"text":{"status":"generated","div":"<div xmlns=\"http://www.w3.org/1999/xhtml\"><div class=\"hapiHeaderText\">ScreNotatriNoref2AsseNotmModDxCp, , <b> </b></div><table class=\"hapiPropertyTable\"><tbody><tr><td>Identifier</td><td>ScreNotatriNoref2AsseNotmModDxCp</td></tr><tr><td>Date of birth</td><td><span>14 May 1950</span></td></tr></tbody></table></div>"},"extension":[{"url":"http://hl7.org/fhir/us/core/StructureDefinition/us-core-race","extension":[{"url":"ombCategory","valueCoding":{"system":"urn:oid:2.16.840.1.113883.6.238","code":"2106-3","display":"White","userSelected":true}},{"url":"text","valueString":"White"}]},{"url":"http://hl7.org/fhir/us/core/StructureDefinition/us-core-ethnicity","extension":[{"url":"ombCategory","valueCoding":{"system":"urn:oid:2.16.840.1.113883.6.238","code":"2186-5","display":"Not Hispanic or Latino","userSelected":true}},{"url":"text","valueString":"Not Hispanic or Latino"}]}],"identifier":[{"type":{"coding":[{"system":"http://terminology.hl7.org/CodeSystem/v2-0203","code":"MR"}]},"system":"https://madie.cms.gov/","value":"ScreNotatriNoref2AsseNotmModDxCp"}],"active":true,"name":[{"use":"usual","text":"ScreNotatriNoref2AsseNotmModDxCp","family":"OCCURPass1","given":["ScreNotatriNoref2AsseNotmModDxCpOCCURPass1"]}],"gender":"female","birthDate":"1954-01-01","address":[{"text":"ScreNotatriNoref2AsseNotmModDxCp, Screened Not at risk Assessed Severely Malnourished Diagnosed Care Plan, ID=ScreNotatriNoref2AsseNotmModDxCp, DOB: 14 May 1950"}]},"request":{"method":"PUT","url":"Patient/d7b8ad65-50f2-442f-8afc-1de38844a5ad"}},{"fullUrl":"https://madie.cms.gov/Encounter/1ddc4ab5-d46e-44e0-9583-e8ccbbe24c0f","resource":{"resourceType":"Encounter","id":"1ddc4ab5-d46e-44e0-9583-e8ccbbe24c0f","meta":{"profile":["http://hl7.org/fhir/us/qicore/StructureDefinition/qicore-encounter"]},"status":"finished","class":{"system":"http://terminology.hl7.org/CodeSystem/v3-ActCode","code":"IMP","display":"inpatient encounter"},"type":[{"coding":[{"system":"http://snomed.info/sct","code":"183452005"}]}],"subject":{"reference":"Patient/d7b8ad65-50f2-442f-8afc-1de38844a5ad"},"period":{"start":"2026-07-14T08:00:00.000Z","end":"2026-07-15T08:15:00.000Z"}},"request":{"method":"PUT","url":"Encounter/1ddc4ab5-d46e-44e0-9583-e8ccbbe24c0f"}},{"fullUrl":"https://madie.cms.gov/Condition/754f292a-1e25-43cf-813d-c7e38de2dfae","resource":{"resourceType":"Condition","id":"754f292a-1e25-43cf-813d-c7e38de2dfae","meta":{"profile":["http://hl7.org/fhir/us/qicore/StructureDefinition/qicore-condition"]},"clinicalStatus":{"coding":[{"system":"http://terminology.hl7.org/CodeSystem/condition-clinical","code":"active","display":"Active","userSelected":true}]},"verificationStatus":{"coding":[{"system":"http://terminology.hl7.org/CodeSystem/condition-ver-status","code":"confirmed","display":"Confirmed","userSelected":true}]},"category":[{"coding":[{"system":"http://terminology.hl7.org/CodeSystem/condition-category","code":"encounter-diagnosis","display":"Encounter Diagnosis","userSelected":true}]}],"code":{"coding":[{"system":"http://snomed.info/sct","code":"722960005","display":"Anorexia nervosa co-occurrent with significantly low body weight (disorder)","userSelected":true}]},"subject":{"reference":"Patient/d7b8ad65-50f2-442f-8afc-1de38844a5ad"},"onsetPeriod":{"start":"2026-07-14T08:00:00.000+00:00"},"recordedDate":"2026-07-14T11:00:00.000+00:00"},"request":{"method":"PUT","url":"Condition/754f292a-1e25-43cf-813d-c7e38de2dfae"}},{"fullUrl":"https://madie.cms.gov/Observation/da7f0421-76ec-45c7-9adf-ce8de5683048","resource":{"resourceType":"Observation","id":"da7f0421-76ec-45c7-9adf-ce8de5683048","meta":{"profile":["http://hl7.org/fhir/us/qicore/StructureDefinition/qicore-observation"]},"status":"final","category":[{"coding":[{"system":"http://terminology.hl7.org/CodeSystem/observation-category","code":"survey","display":"Survey"}]}],"code":{"coding":[{"system":"http://loinc.org","code":"98968-1","display":"Initial Screening NRS_2002","userSelected":true}]},"subject":{"reference":"Patient/d7b8ad65-50f2-442f-8afc-1de38844a5ad"},"effectiveDateTime":"2026-07-14T09:00:00.000+00:00","valueCodeableConcept":{"coding":[{"system":"http://loinc.org","code":"LA27538-0","display":"At risk for malnutrition","userSelected":true}]}},"request":{"method":"PUT","url":"Observation/da7f0421-76ec-45c7-9adf-ce8de5683048"}},{"fullUrl":"https://madie.cms.gov/Observation/0694e050-6ace-418a-aafe-5ba2b306ab5e","resource":{"resourceType":"Observation","id":"0694e050-6ace-418a-aafe-5ba2b306ab5e","meta":{"profile":["http://hl7.org/fhir/us/qicore/StructureDefinition/qicore-observation"]},"status":"final","category":[{"coding":[{"system":"http://terminology.hl7.org/CodeSystem/observation-category","code":"survey","display":"Survey"}]}],"code":{"coding":[{"system":"http://loinc.org","code":"75303-8","display":"Nutrition assessment narrative","userSelected":true}]},"subject":{"reference":"Patient/d7b8ad65-50f2-442f-8afc-1de38844a5ad"},"effectiveDateTime":"2026-07-14T10:00:00.000+00:00","valueCodeableConcept":{"coding":[{"system":"http://snomed.info/sct","code":"56882008","display":"Anorexia nervosa (disorder)","userSelected":true}]}},"request":{"method":"PUT","url":"Observation/0694e050-6ace-418a-aafe-5ba2b306ab5e"}},{"fullUrl":"https://madie.cms.gov/Observation/62032227-d128-4ccb-92fa-eec5d603e0b6","resource":{"resourceType":"Observation","id":"62032227-d128-4ccb-92fa-eec5d603e0b6","meta":{"profile":["http://hl7.org/fhir/us/qicore/StructureDefinition/qicore-observation"]},"status":"final","category":[{"coding":[{"system":"http://terminology.hl7.org/CodeSystem/observation-category","code":"survey","display":"Survey"}]}],"code":{"coding":[{"system":"http://loinc.org","code":"75304-6","display":"Nutrition status observation panel","userSelected":true}]},"subject":{"reference":"Patient/d7b8ad65-50f2-442f-8afc-1de38844a5ad"},"effectiveDateTime":"2026-07-14T10:00:00.000+00:00","valueCodeableConcept":{"coding":[{"system":"http://snomed.info/sct","code":"248324001","display":"Well nourished (finding)","userSelected":true}]}},"request":{"method":"PUT","url":"Observation/62032227-d128-4ccb-92fa-eec5d603e0b6"}},{"fullUrl":"https://madie.cms.gov/Procedure/bfe92f1e-6c4a-41cd-a802-cc5400e0ba99","resource":{"resourceType":"Procedure","id":"bfe92f1e-6c4a-41cd-a802-cc5400e0ba99","meta":{"profile":["http://hl7.org/fhir/us/qicore/StructureDefinition/qicore-procedure"]},"extension":[{"url":"http://hl7.org/fhir/us/qicore/StructureDefinition/qicore-recorded","valueDateTime":"2026-02-02T11:30:00.000Z"}],"status":"completed","code":{"coding":[{"system":"http://snomed.info/sct","code":"410172000","display":"Nutrition care management (procedure)"}],"text":"Nutrition care management (procedure)"},"subject":{"reference":"Patient/d7b8ad65-50f2-442f-8afc-1de38844a5ad"},"encounter":{"reference":"Encounter/ScreNotatriNoref2AsseNotmModDxCpOCCURPass1"},"performedPeriod":{"start":"2026-02-01T11:30:00.000Z","end":"2026-02-07T08:15:00.000Z"}},"request":{"method":"PUT","url":"Procedure/bfe92f1e-6c4a-41cd-a802-cc5400e0ba99"}},{"fullUrl":"https://madie.cms.gov/Coverage/c89a0d91-1681-464b-b2f5-d49c24e43fcc","resource":{"resourceType":"Coverage","id":"c89a0d91-1681-464b-b2f5-d49c24e43fcc","meta":{"profile":["http://hl7.org/fhir/us/qicore/StructureDefinition/qicore-coverage"]},"status":"active","type":{"coding":[{"system":"https://nahdo.org/sopt","version":"9.2","code":"11","display":"Medicare Managed Care (Includes Medicare Advantage Plans)"}]},"beneficiary":{"reference":"Patient/d7b8ad65-50f2-442f-8afc-1de38844a5ad"},"period":{"start":"2026-10-01T00:00:00+00:00"},"payor":[{"reference":"Organization/18ca435c-cae6-4c34-8033-af717477f9fc"}]},"request":{"method":"PUT","url":"Coverage/c89a0d91-1681-464b-b2f5-d49c24e43fcc"}},{"fullUrl":"https://madie.cms.gov/Organization/34ece2a1-4d53-45ea-a685-cda18e437de6","resource":{"resourceType":"Organization","id":"18ca435c-cae6-4c34-8033-af717477f9fc","meta":{"profile":["http://hl7.org/fhir/us/qicore/StructureDefinition/qicore-organization"]},"identifier":[{"use":"temp","system":"urn:oid:2.16.840.1.113883.4.4","value":"21-3259825"}],"active":true,"type":[{"coding":[{"system":"http://terminology.hl7.org/CodeSystem/organization-type","code":"pay","display":"Payer"}]}],"name":"Blue Cross Blue Shield of Texas","telecom":[{"system":"phone","value":"(+1) 972-766-6900"}],"address":[{"use":"billing","type":"postal","line":["P.O. Box 660044"],"city":"Dallas","state":"TX","postalCode":"75266-0044","country":"USA"}]},"request":{"method":"PUT","url":"Organization/18ca435c-cae6-4c34-8033-af717477f9fc"}},{"fullUrl":"https://madie.cms.gov/MeasureReport/de317761-7ead-458a-8efd-d28926e1cd5e","resource":{"resourceType":"MeasureReport","id":"de317761-7ead-458a-8efd-d28926e1cd5e","meta":{"profile":["http://hl7.org/fhir/us/cqfmeasures/StructureDefinition/test-case-cqfm"]},"contained":[{"resourceType":"Parameters","id":"5a0cb841-7d4e-44b4-b01a-417be2a8f8b7-parameters","parameter":[{"name":"subject","valueString":"d7b8ad65-50f2-442f-8afc-1de38844a5ad"}]}],"extension":[{"url":"http://hl7.org/fhir/us/cqfmeasures/StructureDefinition/cqfm-inputParameters","valueReference":{"reference":"#5a0cb841-7d4e-44b4-b01a-417be2a8f8b7-parameters"}},{"url":"http://hl7.org/fhir/us/cqfmeasures/StructureDefinition/cqfm-testCaseDescription","valueMarkdown":"Screened, At Risk, No Referral, Assessment, Not/Mildly Malnutrition, Severe Malnutrition, Diagnosis, Care Plan"}],"modifierExtension":[{"url":"http://hl7.org/fhir/us/cqfmeasures/StructureDefinition/cqfm-isTestCase","valueBoolean":true}],"status":"complete","type":"individual","measure":"https://madie.cms.gov/Measure/CMS986FHIRMalnutritionScore","period":{"start":"2026-01-01","end":"2026-12-31"},"group":[{"population":[{"code":{"coding":[{"system":"http://terminology.hl7.org/CodeSystem/measure-population","code":"initial-population","display":"Initial Population"}]},"count":1},{"code":{"coding":[{"system":"http://terminology.hl7.org/CodeSystem/measure-population","code":"measure-population","display":"Measure Population"}]},"count":1},{"code":{"coding":[{"system":"http://terminology.hl7.org/CodeSystem/measure-population","code":"measure-population-exclusion","display":"Measure Population Exclusion"}]},"count":0},{"code":{"coding":[{"system":"http://terminology.hl7.org/CodeSystem/measure-population","code":"measure-population-observation","display":"Measure Population Observation"}]},"count":1}]},{"population":[{"code":{"coding":[{"system":"http://terminology.hl7.org/CodeSystem/measure-population","code":"initial-population","display":"Initial Population"}]},"count":1},{"code":{"coding":[{"system":"http://terminology.hl7.org/CodeSystem/measure-population","code":"measure-population","display":"Measure Population"}]},"count":1},{"code":{"coding":[{"system":"http://terminology.hl7.org/CodeSystem/measure-population","code":"measure-population-exclusion","display":"Measure Population Exclusion"}]},"count":0},{"code":{"coding":[{"system":"http://terminology.hl7.org/CodeSystem/measure-population","code":"measure-population-observation","display":"Measure Population Observation"}]},"count":1}]},{"population":[{"code":{"coding":[{"system":"http://terminology.hl7.org/CodeSystem/measure-population","code":"initial-population","display":"Initial Population"}]},"count":1},{"code":{"coding":[{"system":"http://terminology.hl7.org/CodeSystem/measure-population","code":"measure-population","display":"Measure Population"}]},"count":1},{"code":{"coding":[{"system":"http://terminology.hl7.org/CodeSystem/measure-population","code":"measure-population-exclusion","display":"Measure Population Exclusion"}]},"count":0},{"code":{"coding":[{"system":"http://terminology.hl7.org/CodeSystem/measure-population","code":"measure-population-observation","display":"Measure Population Observation"}]},"count":0}]},{"population":[{"code":{"coding":[{"system":"http://terminology.hl7.org/CodeSystem/measure-population","code":"initial-population","display":"Initial Population"}]},"count":1},{"code":{"coding":[{"system":"http://terminology.hl7.org/CodeSystem/measure-population","code":"measure-population","display":"Measure Population"}]},"count":1},{"code":{"coding":[{"system":"http://terminology.hl7.org/CodeSystem/measure-population","code":"measure-population-exclusion","display":"Measure Population Exclusion"}]},"count":0},{"code":{"coding":[{"system":"http://terminology.hl7.org/CodeSystem/measure-population","code":"measure-population-observation","display":"Measure Population Observation"}]},"count":0}]},{"population":[{"code":{"coding":[{"system":"http://terminology.hl7.org/CodeSystem/measure-population","code":"initial-population","display":"Initial Population"}]},"count":1},{"code":{"coding":[{"system":"http://terminology.hl7.org/CodeSystem/measure-population","code":"measure-population","display":"Measure Population"}]},"count":1},{"code":{"coding":[{"system":"http://terminology.hl7.org/CodeSystem/measure-population","code":"measure-population-exclusion","display":"Measure Population Exclusion"}]},"count":0},{"code":{"coding":[{"system":"http://terminology.hl7.org/CodeSystem/measure-population","code":"measure-population-observation","display":"Measure Population Observation"}]},"count":2}]},{"population":[{"code":{"coding":[{"system":"http://terminology.hl7.org/CodeSystem/measure-population","code":"initial-population","display":"Initial Population"}]},"count":1},{"code":{"coding":[{"system":"http://terminology.hl7.org/CodeSystem/measure-population","code":"measure-population","display":"Measure Population"}]},"count":1},{"code":{"coding":[{"system":"http://terminology.hl7.org/CodeSystem/measure-population","code":"measure-population-exclusion","display":"Measure Population Exclusion"}]},"count":0},{"code":{"coding":[{"system":"http://terminology.hl7.org/CodeSystem/measure-population","code":"measure-population-observation","display":"Measure Population Observation"}]},"count":100}]}]},"request":{"method":"PUT","url":"MeasureReport/de317761-7ead-458a-8efd-d28926e1cd5e"}}]}