{"resourceType":"Bundle","id":"tests-abe408d9-f5a5-4bdc-952b-7162a2aa7d31-bundle","type":"transaction","entry":[{"fullUrl":"https://madie.cms.gov/Patient/abe408d9-f5a5-4bdc-952b-7162a2aa7d31","resource":{"resourceType":"Patient","id":"abe408d9-f5a5-4bdc-952b-7162a2aa7d31","meta":{"profile":["http://hl7.org/fhir/us/qicore/StructureDefinition/qicore-patient"]},"text":{"status":"generated","div":"<div xmlns=\"http://www.w3.org/1999/xhtml\"><div class=\"hapiHeaderText\">ScreAtriRefNoasseDxNoCp2, , <b> </b></div><table class=\"hapiPropertyTable\"><tbody><tr><td>Identifier</td><td>ScreAtriRefNoasseDxNoCp2</td></tr><tr><td>Date of birth</td><td><span>14 May 1950</span></td></tr></tbody></table></div>"},"extension":[{"url":"http://hl7.org/fhir/us/core/StructureDefinition/us-core-race","extension":[{"url":"ombCategory","valueCoding":{"system":"urn:oid:2.16.840.1.113883.6.238","code":"2106-3","display":"White","userSelected":true}},{"url":"text","valueString":"White"}]},{"url":"http://hl7.org/fhir/us/core/StructureDefinition/us-core-ethnicity","extension":[{"url":"ombCategory","valueCoding":{"system":"urn:oid:2.16.840.1.113883.6.238","code":"2186-5","display":"Not Hispanic or Latino","userSelected":true}},{"url":"text","valueString":"Not Hispanic or Latino"}]}],"identifier":[{"type":{"coding":[{"system":"http://terminology.hl7.org/CodeSystem/v2-0203","code":"MR"}]},"system":"https://madie.cms.gov/","value":"ScreAtriRefNoasseDxNoCp2"}],"active":true,"name":[{"use":"usual","text":"ScreAtriRefNoasseDxNoCp2","family":"OCCURPass2","given":["ScreAtriRefNoasseDxNoCp2DENOMPass2"]}],"gender":"female","birthDate":"1941-01-01","address":[{"text":"ScreAtriRefNoasseDxNoCp2, Screened Not at risk Assessed Severely Malnourished Diagnosed Care Plan, ID=ScreAtriRefNoasseDxNoCp2, DOB: 14 May 1950"}]},"request":{"method":"PUT","url":"Patient/abe408d9-f5a5-4bdc-952b-7162a2aa7d31"}},{"fullUrl":"https://madie.cms.gov/Encounter/77623d12-68bf-4406-a91c-08b021ecfd10","resource":{"resourceType":"Encounter","id":"77623d12-68bf-4406-a91c-08b021ecfd10","meta":{"profile":["http://hl7.org/fhir/us/qicore/StructureDefinition/qicore-encounter"]},"status":"finished","class":{"system":"http://terminology.hl7.org/CodeSystem/v3-ActCode","code":"IMP","display":"inpatient encounter"},"type":[{"coding":[{"system":"http://snomed.info/sct","code":"183452005"}]}],"subject":{"reference":"Patient/abe408d9-f5a5-4bdc-952b-7162a2aa7d31"},"period":{"start":"2026-02-01T08:00:00.000Z","end":"2026-02-07T08:15:00.000Z"}},"request":{"method":"PUT","url":"Encounter/77623d12-68bf-4406-a91c-08b021ecfd10"}},{"fullUrl":"https://madie.cms.gov/Encounter/c1fbf2c9-01a0-4490-9496-ee9d6470ec32","resource":{"resourceType":"Encounter","id":"c1fbf2c9-01a0-4490-9496-ee9d6470ec32","meta":{"profile":["http://hl7.org/fhir/us/qicore/StructureDefinition/qicore-encounter"]},"status":"finished","class":{"system":"http://terminology.hl7.org/CodeSystem/v3-ActCode","code":"IMP","display":"emergency department patient visit (procedure)"},"type":[{"coding":[{"system":"http://snomed.info/sct","code":"4525004"}]}],"subject":{"reference":"Patient/abe408d9-f5a5-4bdc-952b-7162a2aa7d31"},"period":{"start":"2026-01-30T08:00:00.000Z","end":"2026-02-01T08:00:00.000Z"}},"request":{"method":"PUT","url":"Encounter/c1fbf2c9-01a0-4490-9496-ee9d6470ec32"}},{"fullUrl":"https://madie.cms.gov/Condition/596ebcde-9944-4f7f-be1c-7cf831d26200","resource":{"resourceType":"Condition","id":"596ebcde-9944-4f7f-be1c-7cf831d26200","meta":{"profile":["http://hl7.org/fhir/us/qicore/StructureDefinition/qicore-condition"]},"clinicalStatus":{"coding":[{"system":"http://terminology.hl7.org/CodeSystem/condition-clinical","code":"active","display":"Active","userSelected":true}]},"verificationStatus":{"coding":[{"system":"http://terminology.hl7.org/CodeSystem/condition-ver-status","code":"confirmed","display":"Confirmed","userSelected":true}]},"category":[{"coding":[{"system":"http://terminology.hl7.org/CodeSystem/condition-category","code":"encounter-diagnosis","display":"Encounter Diagnosis","userSelected":true}]}],"code":{"coding":[{"system":"http://snomed.info/sct","code":"722959000","display":"Anorexia nervosa co-occurrent with dangerously low body weight (disorder)","userSelected":true}]},"subject":{"reference":"Patient/abe408d9-f5a5-4bdc-952b-7162a2aa7d31"},"onsetPeriod":{"start":"2026-01-30T08:00:00.000+00:00"},"recordedDate":"2026-01-30T11:00:00.000+00:00"},"request":{"method":"PUT","url":"Condition/596ebcde-9944-4f7f-be1c-7cf831d26200"}},{"fullUrl":"https://madie.cms.gov/Observation/f67beb53-3683-4a4b-a452-9c5cc61cc553","resource":{"resourceType":"Observation","id":"f67beb53-3683-4a4b-a452-9c5cc61cc553","meta":{"profile":["http://hl7.org/fhir/us/qicore/StructureDefinition/qicore-observation"]},"status":"final","category":[{"coding":[{"system":"http://terminology.hl7.org/CodeSystem/observation-category","code":"survey","display":"Survey"}]}],"code":{"coding":[{"system":"http://loinc.org","code":"101807-6","display":"Malnutrition risk screen results indicator","userSelected":true}]},"subject":{"reference":"Patient/abe408d9-f5a5-4bdc-952b-7162a2aa7d31"},"effectiveDateTime":"2026-01-30T09:00:00.000+00:00","valueCodeableConcept":{"coding":[{"system":"http://loinc.org","code":"27538-0","display":"At risk for malnutrition","userSelected":true}]}},"request":{"method":"PUT","url":"Observation/f67beb53-3683-4a4b-a452-9c5cc61cc553"}},{"fullUrl":"https://madie.cms.gov/Observation/d96047b8-f487-433a-ab04-b53d700b49bb","resource":{"resourceType":"Observation","id":"d96047b8-f487-433a-ab04-b53d700b49bb","meta":{"profile":["http://hl7.org/fhir/us/qicore/StructureDefinition/qicore-observation"]},"status":"final","category":[{"coding":[{"system":"http://terminology.hl7.org/CodeSystem/observation-category","code":"survey","display":"Survey"}]}],"code":{"coding":[{"system":"http://loinc.org","code":"101819-1","display":"Nutritional assessment for malnutrition status","userSelected":true}]},"subject":{"reference":"Patient/abe408d9-f5a5-4bdc-952b-7162a2aa7d31"},"effectiveDateTime":"2026-01-30T09:00:00.000+00:00","valueCodeableConcept":{"coding":[{"system":"http://snomed.info/sct","code":"2492009","display":"Nutritional disorder (disorder)","userSelected":true}]}},"request":{"method":"PUT","url":"Observation/d96047b8-f487-433a-ab04-b53d700b49bb"}},{"fullUrl":"https://madie.cms.gov/Procedure/9c0b1ee1-0704-417a-94f7-020d1513d019","resource":{"resourceType":"Procedure","id":"9c0b1ee1-0704-417a-94f7-020d1513d019","meta":{"profile":["http://hl7.org/fhir/us/qicore/StructureDefinition/qicore-procedure"]},"extension":[{"url":"http://hl7.org/fhir/us/qicore/StructureDefinition/qicore-recorded","valueDateTime":"2026-01-31T11:30:00.000Z"}],"status":"completed","code":{"coding":[{"system":"http://snomed.info/sct","code":"306165000","display":"Referral to hospital-based dietetics service (procedure)"}],"text":"Referral to hospital-based dietetics service (procedure)"},"subject":{"reference":"Patient/abe408d9-f5a5-4bdc-952b-7162a2aa7d31"},"encounter":{"reference":"Encounter/ScreAtriRefNoasseDxNoCp2DENOMPass2"},"performedPeriod":{"start":"2026-01-31T11:30:00.000Z","end":"2026-02-01T08:15:00.000Z"}},"request":{"method":"PUT","url":"Procedure/9c0b1ee1-0704-417a-94f7-020d1513d019"}},{"fullUrl":"https://madie.cms.gov/Procedure/c74a2c4c-f598-4a91-b8ae-dfb4dd742b5e","resource":{"resourceType":"Procedure","id":"c74a2c4c-f598-4a91-b8ae-dfb4dd742b5e","meta":{"profile":["http://hl7.org/fhir/us/qicore/StructureDefinition/qicore-procedure"]},"extension":[{"url":"http://hl7.org/fhir/us/qicore/StructureDefinition/qicore-recorded","valueDateTime":"2026-02-02T11:30:00.000Z"}],"status":"completed","code":{"coding":[{"system":"http://snomed.info/sct","code":"413315001","display":"Nutrition/feeding management (regime/therapy)"}],"text":"Nutrition/feeding management (regime/therapy)"},"subject":{"reference":"Patient/abe408d9-f5a5-4bdc-952b-7162a2aa7d31"},"encounter":{"reference":"Encounter/ScreAtriRefNoasseDxNoCp2DENOMPass2"},"performedPeriod":{"start":"2026-01-30T11:30:00.000Z","end":"2026-02-02T08:15:00.000Z"}},"request":{"method":"PUT","url":"Procedure/c74a2c4c-f598-4a91-b8ae-dfb4dd742b5e"}},{"fullUrl":"https://madie.cms.gov/Coverage/079c37cd-6741-4c63-9c43-6b2e01f95867","resource":{"resourceType":"Coverage","id":"079c37cd-6741-4c63-9c43-6b2e01f95867","meta":{"profile":["http://hl7.org/fhir/us/qicore/StructureDefinition/qicore-coverage"]},"status":"active","type":{"coding":[{"system":"https://nahdo.org/sopt","version":"9.2","code":"11","display":"Medicare Managed Care (Includes Medicare Advantage Plans)"}]},"beneficiary":{"reference":"Patient/abe408d9-f5a5-4bdc-952b-7162a2aa7d31"},"period":{"start":"2024-10-01T00:00:00+00:00"},"payor":[{"reference":"Organization/e75793c9-fdf6-463a-8c1d-4ee44320dc25"}]},"request":{"method":"PUT","url":"Coverage/079c37cd-6741-4c63-9c43-6b2e01f95867"}},{"fullUrl":"https://madie.cms.gov/Organization/d2c4e06e-2db1-473d-a53e-19ee63818eac","resource":{"resourceType":"Organization","id":"e75793c9-fdf6-463a-8c1d-4ee44320dc25","meta":{"profile":["http://hl7.org/fhir/us/qicore/StructureDefinition/qicore-organization"]},"identifier":[{"use":"temp","system":"urn:oid:2.16.840.1.113883.4.4","value":"21-3259825"}],"active":true,"type":[{"coding":[{"system":"http://terminology.hl7.org/CodeSystem/organization-type","code":"pay","display":"Payer"}]}],"name":"Blue Cross Blue Shield of Texas","telecom":[{"system":"phone","value":"(+1) 972-766-6900"}],"address":[{"use":"billing","type":"postal","line":["P.O. Box 660044"],"city":"Dallas","state":"TX","postalCode":"75266-0044","country":"USA"}]},"request":{"method":"PUT","url":"Organization/e75793c9-fdf6-463a-8c1d-4ee44320dc25"}},{"fullUrl":"https://madie.cms.gov/MeasureReport/599d84af-ce06-4c5b-be42-979e6d1867ff","resource":{"resourceType":"MeasureReport","id":"599d84af-ce06-4c5b-be42-979e6d1867ff","meta":{"profile":["http://hl7.org/fhir/us/cqfmeasures/StructureDefinition/test-case-cqfm"]},"contained":[{"resourceType":"Parameters","id":"052061b9-f5d4-4a0a-a4e0-06fd04ad88b5-parameters","parameter":[{"name":"subject","valueString":"abe408d9-f5a5-4bdc-952b-7162a2aa7d31"}]}],"extension":[{"url":"http://hl7.org/fhir/us/cqfmeasures/StructureDefinition/cqfm-inputParameters","valueReference":{"reference":"#052061b9-f5d4-4a0a-a4e0-06fd04ad88b5-parameters"}},{"url":"http://hl7.org/fhir/us/cqfmeasures/StructureDefinition/cqfm-testCaseDescription","valueMarkdown":"Screened, at Risk, Referral, No Assessment, DX, CP, All in ED"}],"modifierExtension":[{"url":"http://hl7.org/fhir/us/cqfmeasures/StructureDefinition/cqfm-isTestCase","valueBoolean":true}],"status":"complete","type":"individual","measure":"https://madie.cms.gov/Measure/CMS986FHIRMalnutritionScore","period":{"start":"2026-01-01","end":"2026-12-31"},"group":[{"population":[{"code":{"coding":[{"system":"http://terminology.hl7.org/CodeSystem/measure-population","code":"initial-population","display":"Initial Population"}]},"count":1},{"code":{"coding":[{"system":"http://terminology.hl7.org/CodeSystem/measure-population","code":"measure-population","display":"Measure Population"}]},"count":1},{"code":{"coding":[{"system":"http://terminology.hl7.org/CodeSystem/measure-population","code":"measure-population-exclusion","display":"Measure Population Exclusion"}]},"count":0},{"code":{"coding":[{"system":"http://terminology.hl7.org/CodeSystem/measure-population","code":"measure-population-observation","display":"Measure Population Observation"}]},"count":1}]},{"population":[{"code":{"coding":[{"system":"http://terminology.hl7.org/CodeSystem/measure-population","code":"initial-population","display":"Initial Population"}]},"count":1},{"code":{"coding":[{"system":"http://terminology.hl7.org/CodeSystem/measure-population","code":"measure-population","display":"Measure Population"}]},"count":1},{"code":{"coding":[{"system":"http://terminology.hl7.org/CodeSystem/measure-population","code":"measure-population-exclusion","display":"Measure Population Exclusion"}]},"count":0},{"code":{"coding":[{"system":"http://terminology.hl7.org/CodeSystem/measure-population","code":"measure-population-observation","display":"Measure Population Observation"}]},"count":1}]},{"population":[{"code":{"coding":[{"system":"http://terminology.hl7.org/CodeSystem/measure-population","code":"initial-population","display":"Initial Population"}]},"count":1},{"code":{"coding":[{"system":"http://terminology.hl7.org/CodeSystem/measure-population","code":"measure-population","display":"Measure Population"}]},"count":1},{"code":{"coding":[{"system":"http://terminology.hl7.org/CodeSystem/measure-population","code":"measure-population-exclusion","display":"Measure Population Exclusion"}]},"count":0},{"code":{"coding":[{"system":"http://terminology.hl7.org/CodeSystem/measure-population","code":"measure-population-observation","display":"Measure Population Observation"}]},"count":1}]},{"population":[{"code":{"coding":[{"system":"http://terminology.hl7.org/CodeSystem/measure-population","code":"initial-population","display":"Initial Population"}]},"count":1},{"code":{"coding":[{"system":"http://terminology.hl7.org/CodeSystem/measure-population","code":"measure-population","display":"Measure Population"}]},"count":1},{"code":{"coding":[{"system":"http://terminology.hl7.org/CodeSystem/measure-population","code":"measure-population-exclusion","display":"Measure Population Exclusion"}]},"count":0},{"code":{"coding":[{"system":"http://terminology.hl7.org/CodeSystem/measure-population","code":"measure-population-observation","display":"Measure Population Observation"}]},"count":1}]},{"population":[{"code":{"coding":[{"system":"http://terminology.hl7.org/CodeSystem/measure-population","code":"initial-population","display":"Initial Population"}]},"count":1},{"code":{"coding":[{"system":"http://terminology.hl7.org/CodeSystem/measure-population","code":"measure-population","display":"Measure Population"}]},"count":1},{"code":{"coding":[{"system":"http://terminology.hl7.org/CodeSystem/measure-population","code":"measure-population-exclusion","display":"Measure Population Exclusion"}]},"count":0},{"code":{"coding":[{"system":"http://terminology.hl7.org/CodeSystem/measure-population","code":"measure-population-observation","display":"Measure Population Observation"}]},"count":4}]},{"population":[{"code":{"coding":[{"system":"http://terminology.hl7.org/CodeSystem/measure-population","code":"initial-population","display":"Initial Population"}]},"count":1},{"code":{"coding":[{"system":"http://terminology.hl7.org/CodeSystem/measure-population","code":"measure-population","display":"Measure Population"}]},"count":1},{"code":{"coding":[{"system":"http://terminology.hl7.org/CodeSystem/measure-population","code":"measure-population-exclusion","display":"Measure Population Exclusion"}]},"count":0},{"code":{"coding":[{"system":"http://terminology.hl7.org/CodeSystem/measure-population","code":"measure-population-observation","display":"Measure Population Observation"}]},"count":100}]}]},"request":{"method":"PUT","url":"MeasureReport/599d84af-ce06-4c5b-be42-979e6d1867ff"}}]}