{"resourceType":"Bundle","id":"tests-4e1967c5-7fe0-4920-97aa-28d02e117c31-bundle","type":"transaction","entry":[{"fullUrl":"https://madie.cms.gov/Patient/4e1967c5-7fe0-4920-97aa-28d02e117c31","resource":{"resourceType":"Patient","id":"4e1967c5-7fe0-4920-97aa-28d02e117c31","meta":{"profile":["http://hl7.org/fhir/us/qicore/StructureDefinition/qicore-patient"]},"text":{"status":"generated","div":"<div xmlns=\"http://www.w3.org/1999/xhtml\"><div class=\"hapiHeaderText\">2ScreNotatriAtriRefAsseModNodxNoCp, , <b> </b></div><table class=\"hapiPropertyTable\"><tbody><tr><td>Identifier</td><td>2ScreNotatriAtriRefAsseModNodxNoCp</td></tr><tr><td>Date of birth</td><td><span>14 May 1950</span></td></tr></tbody></table></div>"},"extension":[{"url":"http://hl7.org/fhir/us/core/StructureDefinition/us-core-race","extension":[{"url":"ombCategory","valueCoding":{"system":"urn:oid:2.16.840.1.113883.6.238","code":"2076-8","display":"Native Hawaiian or Other Pacific Islander","userSelected":true}},{"url":"text","valueString":"Native Hawaiian or Other Pacific Islander"}]},{"url":"http://hl7.org/fhir/us/core/StructureDefinition/us-core-ethnicity","extension":[{"url":"ombCategory","valueCoding":{"system":"urn:oid:2.16.840.1.113883.6.238","code":"2186-5","display":"Not Hispanic or Latino","userSelected":true}},{"url":"text","valueString":"Not Hispanic or Latino"}]}],"identifier":[{"type":{"coding":[{"system":"http://terminology.hl7.org/CodeSystem/v2-0203","code":"MR"}]},"system":"https://madie.cms.gov/","value":"2ScreNotatriAtriRefAsseModNodxNoCp"}],"active":true,"name":[{"use":"usual","text":"2ScreNotatriAtriRefAsseModNodxNoCp","family":"OCCURPass4","given":["2ScreNotatriAtriRefAsseModNodxNoCpOCCURPass4"]}],"gender":"male","birthDate":"1953-01-01","address":[{"text":"2ScreNotatriAtriRefAsseModNodxNoCp, Screened Not at risk Assessed Severely Malnourished Diagnosed Care Plan, ID=2ScreNotatriAtriRefAsseModNodxNoCp, DOB: 14 May 1950"}]},"request":{"method":"PUT","url":"Patient/4e1967c5-7fe0-4920-97aa-28d02e117c31"}},{"fullUrl":"https://madie.cms.gov/Encounter/b667b24d-f797-4f30-938a-07d41265224f","resource":{"resourceType":"Encounter","id":"b667b24d-f797-4f30-938a-07d41265224f","meta":{"profile":["http://hl7.org/fhir/us/qicore/StructureDefinition/qicore-encounter"]},"status":"finished","class":{"system":"http://terminology.hl7.org/CodeSystem/v3-ActCode","code":"IMP","display":"inpatient encounter"},"type":[{"coding":[{"system":"http://snomed.info/sct","code":"8715000"}]}],"subject":{"reference":"Patient/4e1967c5-7fe0-4920-97aa-28d02e117c31"},"period":{"start":"2026-06-01T08:00:00.000Z","end":"2026-06-11T08:15:00.000Z"}},"request":{"method":"PUT","url":"Encounter/b667b24d-f797-4f30-938a-07d41265224f"}},{"fullUrl":"https://madie.cms.gov/Observation/135f0d88-a60d-449b-a458-8f69697e1cdb","resource":{"resourceType":"Observation","id":"135f0d88-a60d-449b-a458-8f69697e1cdb","meta":{"profile":["http://hl7.org/fhir/us/qicore/StructureDefinition/qicore-observation"]},"status":"final","category":[{"coding":[{"system":"http://terminology.hl7.org/CodeSystem/observation-category","code":"survey","display":"Survey"}]}],"code":{"coding":[{"system":"http://loinc.org","code":"98968-1","display":"Initial screening NRS_2002","userSelected":true}]},"subject":{"reference":"Patient/4e1967c5-7fe0-4920-97aa-28d02e117c31"},"effectiveDateTime":"2026-06-01T09:00:00.000+00:00","valueCodeableConcept":{"coding":[{"system":"http://loinc.org","code":"LA33699-2","display":"Not at risk for malnutrition","userSelected":true}]}},"request":{"method":"PUT","url":"Observation/135f0d88-a60d-449b-a458-8f69697e1cdb"}},{"fullUrl":"https://madie.cms.gov/Observation/b7a43682-72fa-4663-84d6-343a7c981731","resource":{"resourceType":"Observation","id":"b7a43682-72fa-4663-84d6-343a7c981731","meta":{"profile":["http://hl7.org/fhir/us/qicore/StructureDefinition/qicore-observation"]},"status":"final","category":[{"coding":[{"system":"http://terminology.hl7.org/CodeSystem/observation-category","code":"survey","display":"Survey"}]}],"code":{"coding":[{"system":"http://loinc.org","code":"98968-1","display":"Initial screening NRS_2002","userSelected":true}]},"subject":{"reference":"Patient/4e1967c5-7fe0-4920-97aa-28d02e117c31"},"effectiveDateTime":"2026-06-01T09:00:00.000+00:00","valueCodeableConcept":{"coding":[{"system":"http://snomed.info/sct","code":"129689002","display":"At risk for nutritional problem(finding)","userSelected":true}]}},"request":{"method":"PUT","url":"Observation/b7a43682-72fa-4663-84d6-343a7c981731"}},{"fullUrl":"https://madie.cms.gov/Observation/dbcc9080-ddf8-497b-80ea-2acdb4896dc3","resource":{"resourceType":"Observation","id":"dbcc9080-ddf8-497b-80ea-2acdb4896dc3","meta":{"profile":["http://hl7.org/fhir/us/qicore/StructureDefinition/qicore-observation"]},"status":"final","category":[{"coding":[{"system":"http://terminology.hl7.org/CodeSystem/observation-category","code":"survey","display":"Survey"}]}],"code":{"coding":[{"system":"http://loinc.org","code":"75282-4","display":"Nutrition assessment panel","userSelected":true}]},"subject":{"reference":"Patient/4e1967c5-7fe0-4920-97aa-28d02e117c31"},"effectiveDateTime":"2026-06-01T10:00:00.000+00:00","valueCodeableConcept":{"coding":[{"system":"http://snomed.info/sct","code":"70241007","display":"Nutritional deficiency disorder (disorder)","userSelected":true}]}},"request":{"method":"PUT","url":"Observation/dbcc9080-ddf8-497b-80ea-2acdb4896dc3"}},{"fullUrl":"https://madie.cms.gov/Procedure/661abaea-3763-477e-bbf4-541b5c73164b","resource":{"resourceType":"Procedure","id":"661abaea-3763-477e-bbf4-541b5c73164b","meta":{"profile":["http://hl7.org/fhir/us/qicore/StructureDefinition/qicore-procedure"]},"extension":[{"url":"http://hl7.org/fhir/us/qicore/StructureDefinition/qicore-recorded","valueDateTime":"2026-06-01T11:30:00.000Z"}],"status":"completed","code":{"coding":[{"system":"http://snomed.info/sct","code":"306165000","display":"Referral to hospital-based dietetics service (procedure)"}],"text":"Referral to hospital-based dietetics service (procedure)"},"subject":{"reference":"Patient/4e1967c5-7fe0-4920-97aa-28d02e117c31"},"encounter":{"reference":"Encounter/2ScreNotatriAtriRefAsseModNodxNoCpOCCURPass4"},"performedPeriod":{"start":"2026-06-01T11:30:00.000Z","end":"2026-06-07T08:15:00.000Z"}},"request":{"method":"PUT","url":"Procedure/661abaea-3763-477e-bbf4-541b5c73164b"}},{"fullUrl":"https://madie.cms.gov/Coverage/302b79ad-7441-4713-9224-c95d26a3eac6","resource":{"resourceType":"Coverage","id":"302b79ad-7441-4713-9224-c95d26a3eac6","meta":{"profile":["http://hl7.org/fhir/us/qicore/StructureDefinition/qicore-coverage"]},"status":"active","type":{"coding":[{"system":"https://nahdo.org/sopt","version":"9.2","code":"11","display":"Medicare Managed Care (Includes Medicare Advantage Plans)"}]},"beneficiary":{"reference":"Patient/4e1967c5-7fe0-4920-97aa-28d02e117c31"},"period":{"start":"2025-10-01T00:00:00+00:00"},"payor":[{"reference":"Organization/e75793c9-fdf6-463a-8c1d-4ee44320dc25"}]},"request":{"method":"PUT","url":"Coverage/302b79ad-7441-4713-9224-c95d26a3eac6"}},{"fullUrl":"https://madie.cms.gov/Organization/c1bf067f-a50c-4f44-827b-25724b27b8a9","resource":{"resourceType":"Organization","id":"e75793c9-fdf6-463a-8c1d-4ee44320dc25","meta":{"profile":["http://hl7.org/fhir/us/qicore/StructureDefinition/qicore-organization"]},"identifier":[{"use":"temp","system":"urn:oid:2.16.840.1.113883.4.4","value":"21-3259825"}],"active":true,"type":[{"coding":[{"system":"http://terminology.hl7.org/CodeSystem/organization-type","code":"pay","display":"Payer"}]}],"name":"Blue Cross Blue Shield of Texas","telecom":[{"system":"phone","value":"(+1) 972-766-6900"}],"address":[{"use":"billing","type":"postal","line":["P.O. Box 660044"],"city":"Dallas","state":"TX","postalCode":"75266-0044","country":"USA"}]},"request":{"method":"PUT","url":"Organization/e75793c9-fdf6-463a-8c1d-4ee44320dc25"}},{"fullUrl":"https://madie.cms.gov/MeasureReport/5d95c6ee-0057-4a5b-b5e2-674c5730593d","resource":{"resourceType":"MeasureReport","id":"5d95c6ee-0057-4a5b-b5e2-674c5730593d","meta":{"profile":["http://hl7.org/fhir/us/cqfmeasures/StructureDefinition/test-case-cqfm"]},"contained":[{"resourceType":"Parameters","id":"3edc073b-68fb-4daf-92d1-0a5599567495-parameters","parameter":[{"name":"subject","valueString":"4e1967c5-7fe0-4920-97aa-28d02e117c31"}]}],"extension":[{"url":"http://hl7.org/fhir/us/cqfmeasures/StructureDefinition/cqfm-inputParameters","valueReference":{"reference":"#3edc073b-68fb-4daf-92d1-0a5599567495-parameters"}},{"url":"http://hl7.org/fhir/us/cqfmeasures/StructureDefinition/cqfm-testCaseDescription","valueMarkdown":"Screened, Not at Risk, At Risk, Referral, Assessed, Moderately Malnourished, No Diagnosis, No Nutrition Care Plan"}],"modifierExtension":[{"url":"http://hl7.org/fhir/us/cqfmeasures/StructureDefinition/cqfm-isTestCase","valueBoolean":true}],"status":"complete","type":"individual","measure":"https://madie.cms.gov/Measure/CMS986FHIRMalnutritionScore","period":{"start":"2026-01-01","end":"2026-12-31"},"group":[{"population":[{"code":{"coding":[{"system":"http://terminology.hl7.org/CodeSystem/measure-population","code":"initial-population","display":"Initial Population"}]},"count":1},{"code":{"coding":[{"system":"http://terminology.hl7.org/CodeSystem/measure-population","code":"measure-population","display":"Measure Population"}]},"count":1},{"code":{"coding":[{"system":"http://terminology.hl7.org/CodeSystem/measure-population","code":"measure-population-exclusion","display":"Measure Population Exclusion"}]},"count":0},{"code":{"coding":[{"system":"http://terminology.hl7.org/CodeSystem/measure-population","code":"measure-population-observation","display":"Measure Population Observation"}]},"count":1}]},{"population":[{"code":{"coding":[{"system":"http://terminology.hl7.org/CodeSystem/measure-population","code":"initial-population","display":"Initial Population"}]},"count":1},{"code":{"coding":[{"system":"http://terminology.hl7.org/CodeSystem/measure-population","code":"measure-population","display":"Measure Population"}]},"count":1},{"code":{"coding":[{"system":"http://terminology.hl7.org/CodeSystem/measure-population","code":"measure-population-exclusion","display":"Measure Population Exclusion"}]},"count":0},{"code":{"coding":[{"system":"http://terminology.hl7.org/CodeSystem/measure-population","code":"measure-population-observation","display":"Measure Population Observation"}]},"count":1}]},{"population":[{"code":{"coding":[{"system":"http://terminology.hl7.org/CodeSystem/measure-population","code":"initial-population","display":"Initial Population"}]},"count":1},{"code":{"coding":[{"system":"http://terminology.hl7.org/CodeSystem/measure-population","code":"measure-population","display":"Measure Population"}]},"count":1},{"code":{"coding":[{"system":"http://terminology.hl7.org/CodeSystem/measure-population","code":"measure-population-exclusion","display":"Measure Population Exclusion"}]},"count":0},{"code":{"coding":[{"system":"http://terminology.hl7.org/CodeSystem/measure-population","code":"measure-population-observation","display":"Measure Population Observation"}]},"count":0}]},{"population":[{"code":{"coding":[{"system":"http://terminology.hl7.org/CodeSystem/measure-population","code":"initial-population","display":"Initial Population"}]},"count":1},{"code":{"coding":[{"system":"http://terminology.hl7.org/CodeSystem/measure-population","code":"measure-population","display":"Measure Population"}]},"count":1},{"code":{"coding":[{"system":"http://terminology.hl7.org/CodeSystem/measure-population","code":"measure-population-exclusion","display":"Measure Population Exclusion"}]},"count":0},{"code":{"coding":[{"system":"http://terminology.hl7.org/CodeSystem/measure-population","code":"measure-population-observation","display":"Measure Population Observation"}]},"count":0}]},{"population":[{"code":{"coding":[{"system":"http://terminology.hl7.org/CodeSystem/measure-population","code":"initial-population","display":"Initial Population"}]},"count":1},{"code":{"coding":[{"system":"http://terminology.hl7.org/CodeSystem/measure-population","code":"measure-population","display":"Measure Population"}]},"count":1},{"code":{"coding":[{"system":"http://terminology.hl7.org/CodeSystem/measure-population","code":"measure-population-exclusion","display":"Measure Population Exclusion"}]},"count":0},{"code":{"coding":[{"system":"http://terminology.hl7.org/CodeSystem/measure-population","code":"measure-population-observation","display":"Measure Population Observation"}]},"count":2}]},{"population":[{"code":{"coding":[{"system":"http://terminology.hl7.org/CodeSystem/measure-population","code":"initial-population","display":"Initial Population"}]},"count":1},{"code":{"coding":[{"system":"http://terminology.hl7.org/CodeSystem/measure-population","code":"measure-population","display":"Measure Population"}]},"count":1},{"code":{"coding":[{"system":"http://terminology.hl7.org/CodeSystem/measure-population","code":"measure-population-exclusion","display":"Measure Population Exclusion"}]},"count":0},{"code":{"coding":[{"system":"http://terminology.hl7.org/CodeSystem/measure-population","code":"measure-population-observation","display":"Measure Population Observation"}]},"count":50}]}]},"request":{"method":"PUT","url":"MeasureReport/5d95c6ee-0057-4a5b-b5e2-674c5730593d"}}]}