{"resourceType":"Bundle","id":"tests-b1b79c28-6fb7-4900-8332-1378089486dd-bundle","type":"transaction","entry":[{"fullUrl":"https://madie.cms.gov/Patient/b1b79c28-6fb7-4900-8332-1378089486dd","resource":{"resourceType":"Patient","id":"b1b79c28-6fb7-4900-8332-1378089486dd","meta":{"profile":["http://hl7.org/fhir/us/qicore/StructureDefinition/qicore-patient"]},"text":{"status":"generated","div":"<div xmlns=\"http://www.w3.org/1999/xhtml\"><div class=\"hapiHeaderText\">MultiScreAtriskNorefAsseModDxCp, , <b> </b></div><table class=\"hapiPropertyTable\"><tbody><tr><td>Identifier</td><td>MultiScreAtriskNorefAsseModDxCp</td></tr><tr><td>Date of birth</td><td><span>14 May 1950</span></td></tr></tbody></table></div>"},"extension":[{"url":"http://hl7.org/fhir/us/core/StructureDefinition/us-core-race","extension":[{"url":"ombCategory","valueCoding":{"system":"urn:oid:2.16.840.1.113883.6.238","code":"2106-3","display":"White","userSelected":true}},{"url":"text","valueString":"White"}]},{"url":"http://hl7.org/fhir/us/core/StructureDefinition/us-core-ethnicity","extension":[{"url":"ombCategory","valueCoding":{"system":"urn:oid:2.16.840.1.113883.6.238","code":"2186-5","display":"Not Hispanic or Latino","userSelected":true}},{"url":"text","valueString":"Not Hispanic or Latino"}]}],"identifier":[{"type":{"coding":[{"system":"http://terminology.hl7.org/CodeSystem/v2-0203","code":"MR"}]},"system":"https://madie.cms.gov/","value":"MultiScreAtriskNorefAsseModDxCp"}],"active":true,"name":[{"use":"usual","text":"MultiScreAtriskNorefAsseModDxCp","family":"denompass444","given":["MultiScreAtriskNorefAsseModDxCpdenompass444"]}],"gender":"male","birthDate":"1952-01-01","address":[{"text":"MultiScreAtriskNorefAsseModDxCp, Screened Not at risk Assessed Severely Malnourished Diagnosed Care Plan, ID=MultiScreAtriskNorefAsseModDxCp, DOB: 14 May 1950"}]},"request":{"method":"PUT","url":"Patient/b1b79c28-6fb7-4900-8332-1378089486dd"}},{"fullUrl":"https://madie.cms.gov/Encounter/009e4048-e9d3-464a-8bb2-84ef68be61c3","resource":{"resourceType":"Encounter","id":"009e4048-e9d3-464a-8bb2-84ef68be61c3","meta":{"profile":["http://hl7.org/fhir/us/qicore/StructureDefinition/qicore-encounter"]},"status":"finished","class":{"system":"http://terminology.hl7.org/CodeSystem/v3-ActCode","code":"IMP","display":"inpatient encounter"},"type":[{"coding":[{"system":"http://snomed.info/sct","code":"183452005"}]}],"subject":{"reference":"Patient/b1b79c28-6fb7-4900-8332-1378089486dd"},"period":{"start":"2026-02-01T08:00:00.000Z","end":"2026-02-07T08:15:00.000Z"}},"request":{"method":"PUT","url":"Encounter/009e4048-e9d3-464a-8bb2-84ef68be61c3"}},{"fullUrl":"https://madie.cms.gov/Condition/96259940-3964-4e1b-b578-77ec8d8569e4","resource":{"resourceType":"Condition","id":"96259940-3964-4e1b-b578-77ec8d8569e4","meta":{"profile":["http://hl7.org/fhir/us/qicore/StructureDefinition/qicore-condition"]},"clinicalStatus":{"coding":[{"system":"http://terminology.hl7.org/CodeSystem/condition-clinical","code":"active","display":"Active","userSelected":true}]},"verificationStatus":{"coding":[{"system":"http://terminology.hl7.org/CodeSystem/condition-ver-status","code":"confirmed","display":"Confirmed","userSelected":true}]},"category":[{"coding":[{"system":"http://terminology.hl7.org/CodeSystem/condition-category","code":"encounter-diagnosis","display":"Encounter Diagnosis","userSelected":true}]}],"code":{"coding":[{"system":"http://snomed.info/sct","code":"190606006","display":"Malnutrition (calorie) (disorder)","userSelected":true}]},"subject":{"reference":"Patient/b1b79c28-6fb7-4900-8332-1378089486dd"},"onsetPeriod":{"start":"2026-02-01T08:00:00.000+00:00"},"recordedDate":"2026-02-01T11:00:00.000+00:00"},"request":{"method":"PUT","url":"Condition/96259940-3964-4e1b-b578-77ec8d8569e4"}},{"fullUrl":"https://madie.cms.gov/Observation/b012d108-b9ee-4636-92ce-9765ae6f4797","resource":{"resourceType":"Observation","id":"b012d108-b9ee-4636-92ce-9765ae6f4797","meta":{"profile":["http://hl7.org/fhir/us/qicore/StructureDefinition/qicore-observation"]},"status":"final","category":[{"coding":[{"system":"http://terminology.hl7.org/CodeSystem/observation-category","code":"survey","display":"Survey"}]}],"code":{"coding":[{"system":"http://loinc.org","code":"98967-3","display":"Initial Screening NRS_2002","userSelected":true}]},"subject":{"reference":"Patient/b1b79c28-6fb7-4900-8332-1378089486dd"},"effectiveDateTime":"2026-02-01T09:00:00.000+00:00","valueCodeableConcept":{"coding":[{"system":"http://snomed.info/sct","code":"129689002","display":"Normal diet (finding)","userSelected":true}]}},"request":{"method":"PUT","url":"Observation/b012d108-b9ee-4636-92ce-9765ae6f4797"}},{"fullUrl":"https://madie.cms.gov/Observation/04b80b17-9107-4230-a761-1f50186f94fa","resource":{"resourceType":"Observation","id":"04b80b17-9107-4230-a761-1f50186f94fa","meta":{"profile":["http://hl7.org/fhir/us/qicore/StructureDefinition/qicore-observation"]},"status":"final","category":[{"coding":[{"system":"http://terminology.hl7.org/CodeSystem/observation-category","code":"survey","display":"Survey"}]}],"code":{"coding":[{"system":"http://loinc.org","code":"75282-4","display":"Comparative nutrition assessment standards panel","userSelected":true}]},"subject":{"reference":"Patient/b1b79c28-6fb7-4900-8332-1378089486dd"},"effectiveDateTime":"2026-02-01T10:00:00.000+00:00","valueCodeableConcept":{"coding":[{"system":"http://snomed.info/sct","code":"102636009","display":"Malnutrition (calorie) (disorder)","userSelected":true}]}},"request":{"method":"PUT","url":"Observation/04b80b17-9107-4230-a761-1f50186f94fa"}},{"fullUrl":"https://madie.cms.gov/Procedure/a54641c6-3ca0-4613-acb1-1f07a5216d8a","resource":{"resourceType":"Procedure","id":"a54641c6-3ca0-4613-acb1-1f07a5216d8a","meta":{"profile":["http://hl7.org/fhir/us/qicore/StructureDefinition/qicore-procedure"]},"extension":[{"url":"http://hl7.org/fhir/us/qicore/StructureDefinition/qicore-recorded","valueDateTime":"2026-02-01T11:30:00.000Z"}],"status":"completed","code":{"coding":[{"system":"http://snomed.info/sct","code":"306354000","display":"Referral to hospital-based dietitian (procedure)"}],"text":"Referral to hospital-based dietitian (procedure)"},"subject":{"reference":"Patient/b1b79c28-6fb7-4900-8332-1378089486dd"},"encounter":{"reference":"Encounter/MultiScreAtriskNorefAsseModDxCpdenompass444"},"performedPeriod":{"start":"2026-02-01T11:30:00.000Z","end":"2026-02-07T08:15:00.000Z"}},"request":{"method":"PUT","url":"Procedure/a54641c6-3ca0-4613-acb1-1f07a5216d8a"}},{"fullUrl":"https://madie.cms.gov/Procedure/528cda1b-b8ee-4f17-9bec-174fe4228981","resource":{"resourceType":"Procedure","id":"528cda1b-b8ee-4f17-9bec-174fe4228981","meta":{"profile":["http://hl7.org/fhir/us/qicore/StructureDefinition/qicore-procedure"]},"extension":[{"url":"http://hl7.org/fhir/us/qicore/StructureDefinition/qicore-recorded","valueDateTime":"2026-02-02T11:30:00.000Z"}],"status":"completed","code":{"coding":[{"system":"http://snomed.info/sct","code":"386372009","display":"Nutrition management (regime/therapy)"}],"text":"Nutrition management (regime/therapy)"},"subject":{"reference":"Patient/b1b79c28-6fb7-4900-8332-1378089486dd"},"encounter":{"reference":"Encounter/MultiScreAtriskNorefAsseModDxCpdenompass444"},"performedPeriod":{"start":"2026-02-01T11:30:00.000Z","end":"2026-02-07T08:15:00.000Z"}},"request":{"method":"PUT","url":"Procedure/528cda1b-b8ee-4f17-9bec-174fe4228981"}},{"fullUrl":"https://madie.cms.gov/Coverage/8b687a50-664a-40cd-98c6-3dde9b1b5c82","resource":{"resourceType":"Coverage","id":"8b687a50-664a-40cd-98c6-3dde9b1b5c82","meta":{"profile":["http://hl7.org/fhir/us/qicore/StructureDefinition/qicore-coverage"]},"status":"active","type":{"coding":[{"system":"https://nahdo.org/sopt","version":"9.2","code":"11","display":"Medicare Managed Care (Includes Medicare Advantage Plans)"}]},"beneficiary":{"reference":"Patient/b1b79c28-6fb7-4900-8332-1378089486dd"},"period":{"start":"2026-10-01T00:00:00+00:00"},"payor":[{"reference":"Organization/4d7da20f-8773-4347-8f6b-80adcdcee1f4"}]},"request":{"method":"PUT","url":"Coverage/8b687a50-664a-40cd-98c6-3dde9b1b5c82"}},{"fullUrl":"https://madie.cms.gov/Encounter/1f44f3bc-2f1b-4044-82fb-f244087c037a","resource":{"resourceType":"Encounter","id":"1f44f3bc-2f1b-4044-82fb-f244087c037a","meta":{"profile":["http://hl7.org/fhir/us/qicore/StructureDefinition/qicore-encounter"]},"status":"finished","class":{"system":"http://terminology.hl7.org/CodeSystem/v3-ActCode","code":"IMP","display":"inpatient encounter"},"type":[{"coding":[{"system":"http://snomed.info/sct","code":"183452005"}]}],"subject":{"reference":"Patient/b1b79c28-6fb7-4900-8332-1378089486dd"},"period":{"start":"2026-03-01T08:00:00.000Z","end":"2026-03-07T08:15:00.000Z"}},"request":{"method":"PUT","url":"Encounter/1f44f3bc-2f1b-4044-82fb-f244087c037a"}},{"fullUrl":"https://madie.cms.gov/Condition/d229d1f2-bcfe-4ef4-a839-15e160323b8b","resource":{"resourceType":"Condition","id":"d229d1f2-bcfe-4ef4-a839-15e160323b8b","meta":{"profile":["http://hl7.org/fhir/us/qicore/StructureDefinition/qicore-condition"]},"clinicalStatus":{"coding":[{"system":"http://terminology.hl7.org/CodeSystem/condition-clinical","code":"active","display":"Active","userSelected":true}]},"verificationStatus":{"coding":[{"system":"http://terminology.hl7.org/CodeSystem/condition-ver-status","code":"confirmed","display":"Confirmed","userSelected":true}]},"category":[{"coding":[{"system":"http://terminology.hl7.org/CodeSystem/condition-category","code":"encounter-diagnosis","display":"Encounter Diagnosis","userSelected":true}]}],"code":{"coding":[{"system":"http://snomed.info/sct","code":"272588001","display":"Malnutrition (calorie) (disorder)","userSelected":true}]},"subject":{"reference":"Patient/b1b79c28-6fb7-4900-8332-1378089486dd"},"onsetPeriod":{"start":"2026-03-01T08:00:00.000+00:00"},"recordedDate":"2026-03-01T11:00:00.000+00:00"},"request":{"method":"PUT","url":"Condition/d229d1f2-bcfe-4ef4-a839-15e160323b8b"}},{"fullUrl":"https://madie.cms.gov/Observation/7ee73009-acd6-4cbf-be66-984c8988a513","resource":{"resourceType":"Observation","id":"7ee73009-acd6-4cbf-be66-984c8988a513","meta":{"profile":["http://hl7.org/fhir/us/qicore/StructureDefinition/qicore-observation"]},"status":"final","category":[{"coding":[{"system":"http://terminology.hl7.org/CodeSystem/observation-category","code":"survey","display":"Survey"}]}],"code":{"coding":[{"system":"http://loinc.org","code":"98968-1","display":"Initial Screening NRS_2002","userSelected":true}]},"subject":{"reference":"Patient/b1b79c28-6fb7-4900-8332-1378089486dd"},"effectiveDateTime":"2026-03-01T09:00:00.000+00:00","valueCodeableConcept":{"coding":[{"system":"http://snomed.info/sct","code":"36823005","display":"Normal diet (finding)","userSelected":true}]}},"request":{"method":"PUT","url":"Observation/7ee73009-acd6-4cbf-be66-984c8988a513"}},{"fullUrl":"https://madie.cms.gov/Observation/261e0bf4-f0b1-47ed-a74a-b6a5a7038f08","resource":{"resourceType":"Observation","id":"261e0bf4-f0b1-47ed-a74a-b6a5a7038f08","meta":{"profile":["http://hl7.org/fhir/us/qicore/StructureDefinition/qicore-observation"]},"status":"final","category":[{"coding":[{"system":"http://terminology.hl7.org/CodeSystem/observation-category","code":"survey","display":"Survey"}]}],"code":{"coding":[{"system":"http://loinc.org","code":"75285-7","display":"Comparative nutrition assessment standards panel","userSelected":true}]},"subject":{"reference":"Patient/b1b79c28-6fb7-4900-8332-1378089486dd"},"effectiveDateTime":"2026-03-01T10:00:00.000+00:00","valueCodeableConcept":{"coding":[{"system":"http://snomed.info/sct","code":"272588001","display":"Malnutrition (calorie) (disorder)","userSelected":true}]}},"request":{"method":"PUT","url":"Observation/261e0bf4-f0b1-47ed-a74a-b6a5a7038f08"}},{"fullUrl":"https://madie.cms.gov/Procedure/f075a800-ef77-4cd4-bfb9-9621a96e8822","resource":{"resourceType":"Procedure","id":"f075a800-ef77-4cd4-bfb9-9621a96e8822","meta":{"profile":["http://hl7.org/fhir/us/qicore/StructureDefinition/qicore-procedure"]},"extension":[{"url":"http://hl7.org/fhir/us/qicore/StructureDefinition/qicore-recorded","valueDateTime":"2026-03-01T11:30:00.000Z"}],"status":"completed","code":{"coding":[{"system":"http://snomed.info/sct","code":"306354000","display":"Referral to hospital-based dietitian (procedure)"}],"text":"Referral to hospital-based dietitian (procedure)"},"subject":{"reference":"Patient/b1b79c28-6fb7-4900-8332-1378089486dd"},"encounter":{"reference":"Encounter/MultiScreAtriskNorefAsseModDxCpdenompass444"},"performedPeriod":{"start":"2026-03-01T11:30:00.000Z","end":"2026-03-07T08:15:00.000Z"}},"request":{"method":"PUT","url":"Procedure/f075a800-ef77-4cd4-bfb9-9621a96e8822"}},{"fullUrl":"https://madie.cms.gov/Procedure/494b5b67-4732-436d-8d07-f71b921375cf","resource":{"resourceType":"Procedure","id":"494b5b67-4732-436d-8d07-f71b921375cf","meta":{"profile":["http://hl7.org/fhir/us/qicore/StructureDefinition/qicore-procedure"]},"extension":[{"url":"http://hl7.org/fhir/us/qicore/StructureDefinition/qicore-recorded","valueDateTime":"2026-03-02T11:30:00.000Z"}],"status":"completed","code":{"coding":[{"system":"http://snomed.info/sct","code":"386372009","display":"Nutrition management (regime/therapy)"}],"text":"Nutrition management (regime/therapy)"},"subject":{"reference":"Patient/b1b79c28-6fb7-4900-8332-1378089486dd"},"encounter":{"reference":"Encounter/MultiScreAtriskNorefAsseModDxCpdenompass444"},"performedPeriod":{"start":"2026-03-01T11:30:00.000Z","end":"2026-03-07T08:15:00.000Z"}},"request":{"method":"PUT","url":"Procedure/494b5b67-4732-436d-8d07-f71b921375cf"}},{"fullUrl":"https://madie.cms.gov/Encounter/ddbd50be-86b5-4f06-adb3-63e8458d44a3","resource":{"resourceType":"Encounter","id":"ddbd50be-86b5-4f06-adb3-63e8458d44a3","meta":{"profile":["http://hl7.org/fhir/us/qicore/StructureDefinition/qicore-encounter"]},"status":"finished","class":{"system":"http://terminology.hl7.org/CodeSystem/v3-ActCode","code":"IMP","display":"inpatient encounter"},"type":[{"coding":[{"system":"http://snomed.info/sct","code":"183452005"}]}],"subject":{"reference":"Patient/b1b79c28-6fb7-4900-8332-1378089486dd"},"period":{"start":"2026-04-01T08:00:00.000Z","end":"2026-04-07T08:15:00.000Z"}},"request":{"method":"PUT","url":"Encounter/ddbd50be-86b5-4f06-adb3-63e8458d44a3"}},{"fullUrl":"https://madie.cms.gov/Condition/7a11c199-689c-467e-b3e8-9cd03d14da23","resource":{"resourceType":"Condition","id":"7a11c199-689c-467e-b3e8-9cd03d14da23","meta":{"profile":["http://hl7.org/fhir/us/qicore/StructureDefinition/qicore-condition"]},"clinicalStatus":{"coding":[{"system":"http://terminology.hl7.org/CodeSystem/condition-clinical","code":"active","display":"Active","userSelected":true}]},"verificationStatus":{"coding":[{"system":"http://terminology.hl7.org/CodeSystem/condition-ver-status","code":"confirmed","display":"Confirmed","userSelected":true}]},"category":[{"coding":[{"system":"http://terminology.hl7.org/CodeSystem/condition-category","code":"encounter-diagnosis","display":"Encounter Diagnosis","userSelected":true}]}],"code":{"coding":[{"system":"http://snomed.info/sct","code":"272588001","display":"Malnutrition (calorie) (disorder)","userSelected":true}]},"subject":{"reference":"Patient/b1b79c28-6fb7-4900-8332-1378089486dd"},"onsetPeriod":{"start":"2026-04-01T08:00:00.000+00:00"},"recordedDate":"2026-04-01T11:00:00.000+00:00"},"request":{"method":"PUT","url":"Condition/7a11c199-689c-467e-b3e8-9cd03d14da23"}},{"fullUrl":"https://madie.cms.gov/Observation/bb92e414-5a04-4600-b4d8-b5531b6d97ed","resource":{"resourceType":"Observation","id":"bb92e414-5a04-4600-b4d8-b5531b6d97ed","meta":{"profile":["http://hl7.org/fhir/us/qicore/StructureDefinition/qicore-observation"]},"status":"final","category":[{"coding":[{"system":"http://terminology.hl7.org/CodeSystem/observation-category","code":"survey","display":"Survey"}]}],"code":{"coding":[{"system":"http://loinc.org","code":"98968-1","display":"Initial Screening NRS_2002","userSelected":true}]},"subject":{"reference":"Patient/b1b79c28-6fb7-4900-8332-1378089486dd"},"effectiveDateTime":"2026-02-01T09:00:00.000+00:00","valueCodeableConcept":{"coding":[{"system":"http://snomed.info/sct","code":"36823005","display":"Normal diet (finding)","userSelected":true}]}},"request":{"method":"PUT","url":"Observation/bb92e414-5a04-4600-b4d8-b5531b6d97ed"}},{"fullUrl":"https://madie.cms.gov/Observation/0558117c-ac33-47a5-97af-7251928f5817","resource":{"resourceType":"Observation","id":"0558117c-ac33-47a5-97af-7251928f5817","meta":{"profile":["http://hl7.org/fhir/us/qicore/StructureDefinition/qicore-observation"]},"status":"final","category":[{"coding":[{"system":"http://terminology.hl7.org/CodeSystem/observation-category","code":"survey","display":"Survey"}]}],"code":{"coding":[{"system":"http://loinc.org","code":"75285-7","display":"Comparative nutrition assessment standards panel","userSelected":true}]},"subject":{"reference":"Patient/b1b79c28-6fb7-4900-8332-1378089486dd"},"effectiveDateTime":"2026-04-01T10:00:00.000+00:00","valueCodeableConcept":{"coding":[{"system":"http://snomed.info/sct","code":"272588001","display":"Malnutrition (calorie) (disorder)","userSelected":true}]}},"request":{"method":"PUT","url":"Observation/0558117c-ac33-47a5-97af-7251928f5817"}},{"fullUrl":"https://madie.cms.gov/Procedure/21a9dab8-c4b2-442b-9003-9895623d19f3","resource":{"resourceType":"Procedure","id":"21a9dab8-c4b2-442b-9003-9895623d19f3","meta":{"profile":["http://hl7.org/fhir/us/qicore/StructureDefinition/qicore-procedure"]},"extension":[{"url":"http://hl7.org/fhir/us/qicore/StructureDefinition/qicore-recorded","valueDateTime":"2026-04-01T11:30:00.000Z"}],"status":"completed","code":{"coding":[{"system":"http://snomed.info/sct","code":"306354000","display":"Referral to hospital-based dietitian (procedure)"}],"text":"Referral to hospital-based dietitian (procedure)"},"subject":{"reference":"Patient/b1b79c28-6fb7-4900-8332-1378089486dd"},"encounter":{"reference":"Encounter/MultiScreAtriskNorefAsseModDxCpdenompass444"},"performedPeriod":{"start":"2026-04-01T11:30:00.000Z","end":"2026-04-07T08:15:00.000Z"}},"request":{"method":"PUT","url":"Procedure/21a9dab8-c4b2-442b-9003-9895623d19f3"}},{"fullUrl":"https://madie.cms.gov/Procedure/12b76338-856e-420e-95a6-1bbf1ad27c24","resource":{"resourceType":"Procedure","id":"12b76338-856e-420e-95a6-1bbf1ad27c24","meta":{"profile":["http://hl7.org/fhir/us/qicore/StructureDefinition/qicore-procedure"]},"extension":[{"url":"http://hl7.org/fhir/us/qicore/StructureDefinition/qicore-recorded","valueDateTime":"2026-04-02T11:30:00.000Z"}],"status":"completed","code":{"coding":[{"system":"http://snomed.info/sct","code":"386372009","display":"Nutrition management (regime/therapy)"}],"text":"Nutrition management (regime/therapy)"},"subject":{"reference":"Patient/b1b79c28-6fb7-4900-8332-1378089486dd"},"encounter":{"reference":"Encounter/MultiScreAtriskNorefAsseModDxCpdenompass444"},"performedPeriod":{"start":"2026-04-01T11:30:00.000Z","end":"2026-04-07T08:15:00.000Z"}},"request":{"method":"PUT","url":"Procedure/12b76338-856e-420e-95a6-1bbf1ad27c24"}},{"fullUrl":"https://madie.cms.gov/Coverage/6d6a3741-7225-4ba3-a21e-bf68b1e4c8e5","resource":{"resourceType":"Coverage","id":"6d6a3741-7225-4ba3-a21e-bf68b1e4c8e5","meta":{"profile":["http://hl7.org/fhir/us/qicore/StructureDefinition/qicore-coverage"]},"status":"active","type":{"coding":[{"system":"https://nahdo.org/sopt","version":"9.2","code":"11","display":"Medicare Managed Care (Includes Medicare Advantage Plans)"}]},"beneficiary":{"reference":"Patient/b1b79c28-6fb7-4900-8332-1378089486dd"},"period":{"start":"2026-10-01T00:00:00+00:00"},"payor":[{"reference":"Organization/4d7da20f-8773-4347-8f6b-80adcdcee1f4"}]},"request":{"method":"PUT","url":"Coverage/6d6a3741-7225-4ba3-a21e-bf68b1e4c8e5"}},{"fullUrl":"https://madie.cms.gov/Organization/158439d2-43f8-47b5-aae7-455297fe0686","resource":{"resourceType":"Organization","id":"4d7da20f-8773-4347-8f6b-80adcdcee1f4","meta":{"profile":["http://hl7.org/fhir/us/qicore/StructureDefinition/qicore-organization"]},"identifier":[{"use":"temp","system":"urn:oid:2.16.840.1.113883.4.4","value":"21-3259825"}],"active":true,"type":[{"coding":[{"system":"http://terminology.hl7.org/CodeSystem/organization-type","code":"pay","display":"Payer"}]}],"name":"Blue Cross Blue Shield of Texas","telecom":[{"system":"phone","value":"(+1) 972-766-6900"}],"address":[{"use":"billing","type":"postal","line":["P.O. Box 660044"],"city":"Dallas","state":"TX","postalCode":"75266-0044","country":"USA"}]},"request":{"method":"PUT","url":"Organization/4d7da20f-8773-4347-8f6b-80adcdcee1f4"}},{"fullUrl":"https://madie.cms.gov/MeasureReport/d7c2f366-c013-4d5e-93fa-3c95c5940710","resource":{"resourceType":"MeasureReport","id":"d7c2f366-c013-4d5e-93fa-3c95c5940710","meta":{"profile":["http://hl7.org/fhir/us/cqfmeasures/StructureDefinition/test-case-cqfm"]},"contained":[{"resourceType":"Parameters","id":"c644b63b-e3c0-4153-adf1-31883abc0c71-parameters","parameter":[{"name":"subject","valueString":"b1b79c28-6fb7-4900-8332-1378089486dd"}]}],"extension":[{"url":"http://hl7.org/fhir/us/cqfmeasures/StructureDefinition/cqfm-inputParameters","valueReference":{"reference":"#c644b63b-e3c0-4153-adf1-31883abc0c71-parameters"}},{"url":"http://hl7.org/fhir/us/cqfmeasures/StructureDefinition/cqfm-testCaseDescription","valueMarkdown":"3 Encounters, all components met in each"}],"modifierExtension":[{"url":"http://hl7.org/fhir/us/cqfmeasures/StructureDefinition/cqfm-isTestCase","valueBoolean":true}],"status":"complete","type":"individual","measure":"https://madie.cms.gov/Measure/CMS986FHIRMalnutritionScore","period":{"start":"2026-01-01","end":"2026-12-31"},"group":[{"population":[{"code":{"coding":[{"system":"http://terminology.hl7.org/CodeSystem/measure-population","code":"initial-population","display":"Initial Population"}]},"count":3},{"code":{"coding":[{"system":"http://terminology.hl7.org/CodeSystem/measure-population","code":"measure-population","display":"Measure Population"}]},"count":3},{"code":{"coding":[{"system":"http://terminology.hl7.org/CodeSystem/measure-population","code":"measure-population-exclusion","display":"Measure Population Exclusion"}]},"count":0},{"code":{"coding":[{"system":"http://terminology.hl7.org/CodeSystem/measure-population","code":"measure-population-observation","display":"Measure Population Observation"}]},"count":1},{"code":{"coding":[{"system":"http://terminology.hl7.org/CodeSystem/measure-population","code":"measure-population-observation","display":"Measure Population Observation"}]},"count":1},{"code":{"coding":[{"system":"http://terminology.hl7.org/CodeSystem/measure-population","code":"measure-population-observation","display":"Measure Population Observation"}]},"count":1}]},{"population":[{"code":{"coding":[{"system":"http://terminology.hl7.org/CodeSystem/measure-population","code":"initial-population","display":"Initial Population"}]},"count":3},{"code":{"coding":[{"system":"http://terminology.hl7.org/CodeSystem/measure-population","code":"measure-population","display":"Measure Population"}]},"count":3},{"code":{"coding":[{"system":"http://terminology.hl7.org/CodeSystem/measure-population","code":"measure-population-exclusion","display":"Measure Population Exclusion"}]},"count":0},{"code":{"coding":[{"system":"http://terminology.hl7.org/CodeSystem/measure-population","code":"measure-population-observation","display":"Measure Population Observation"}]},"count":1},{"code":{"coding":[{"system":"http://terminology.hl7.org/CodeSystem/measure-population","code":"measure-population-observation","display":"Measure Population Observation"}]},"count":1},{"code":{"coding":[{"system":"http://terminology.hl7.org/CodeSystem/measure-population","code":"measure-population-observation","display":"Measure Population Observation"}]},"count":1}]},{"population":[{"code":{"coding":[{"system":"http://terminology.hl7.org/CodeSystem/measure-population","code":"initial-population","display":"Initial Population"}]},"count":3},{"code":{"coding":[{"system":"http://terminology.hl7.org/CodeSystem/measure-population","code":"measure-population","display":"Measure Population"}]},"count":3},{"code":{"coding":[{"system":"http://terminology.hl7.org/CodeSystem/measure-population","code":"measure-population-exclusion","display":"Measure Population Exclusion"}]},"count":0},{"code":{"coding":[{"system":"http://terminology.hl7.org/CodeSystem/measure-population","code":"measure-population-observation","display":"Measure Population Observation"}]},"count":1},{"code":{"coding":[{"system":"http://terminology.hl7.org/CodeSystem/measure-population","code":"measure-population-observation","display":"Measure Population Observation"}]},"count":1},{"code":{"coding":[{"system":"http://terminology.hl7.org/CodeSystem/measure-population","code":"measure-population-observation","display":"Measure Population Observation"}]},"count":1}]},{"population":[{"code":{"coding":[{"system":"http://terminology.hl7.org/CodeSystem/measure-population","code":"initial-population","display":"Initial Population"}]},"count":3},{"code":{"coding":[{"system":"http://terminology.hl7.org/CodeSystem/measure-population","code":"measure-population","display":"Measure Population"}]},"count":3},{"code":{"coding":[{"system":"http://terminology.hl7.org/CodeSystem/measure-population","code":"measure-population-exclusion","display":"Measure Population Exclusion"}]},"count":0},{"code":{"coding":[{"system":"http://terminology.hl7.org/CodeSystem/measure-population","code":"measure-population-observation","display":"Measure Population Observation"}]},"count":1},{"code":{"coding":[{"system":"http://terminology.hl7.org/CodeSystem/measure-population","code":"measure-population-observation","display":"Measure Population Observation"}]},"count":1},{"code":{"coding":[{"system":"http://terminology.hl7.org/CodeSystem/measure-population","code":"measure-population-observation","display":"Measure Population Observation"}]},"count":1}]},{"population":[{"code":{"coding":[{"system":"http://terminology.hl7.org/CodeSystem/measure-population","code":"initial-population","display":"Initial Population"}]},"count":3},{"code":{"coding":[{"system":"http://terminology.hl7.org/CodeSystem/measure-population","code":"measure-population","display":"Measure Population"}]},"count":3},{"code":{"coding":[{"system":"http://terminology.hl7.org/CodeSystem/measure-population","code":"measure-population-exclusion","display":"Measure Population Exclusion"}]},"count":0},{"code":{"coding":[{"system":"http://terminology.hl7.org/CodeSystem/measure-population","code":"measure-population-observation","display":"Measure Population Observation"}]},"count":4},{"code":{"coding":[{"system":"http://terminology.hl7.org/CodeSystem/measure-population","code":"measure-population-observation","display":"Measure Population Observation"}]},"count":4},{"code":{"coding":[{"system":"http://terminology.hl7.org/CodeSystem/measure-population","code":"measure-population-observation","display":"Measure Population Observation"}]},"count":4}]},{"population":[{"code":{"coding":[{"system":"http://terminology.hl7.org/CodeSystem/measure-population","code":"initial-population","display":"Initial Population"}]},"count":3},{"code":{"coding":[{"system":"http://terminology.hl7.org/CodeSystem/measure-population","code":"measure-population","display":"Measure Population"}]},"count":3},{"code":{"coding":[{"system":"http://terminology.hl7.org/CodeSystem/measure-population","code":"measure-population-exclusion","display":"Measure Population Exclusion"}]},"count":0},{"code":{"coding":[{"system":"http://terminology.hl7.org/CodeSystem/measure-population","code":"measure-population-observation","display":"Measure Population Observation"}]},"count":100},{"code":{"coding":[{"system":"http://terminology.hl7.org/CodeSystem/measure-population","code":"measure-population-observation","display":"Measure Population Observation"}]},"count":100},{"code":{"coding":[{"system":"http://terminology.hl7.org/CodeSystem/measure-population","code":"measure-population-observation","display":"Measure Population Observation"}]},"count":100}]}]},"request":{"method":"PUT","url":"MeasureReport/d7c2f366-c013-4d5e-93fa-3c95c5940710"}}]}