{"resourceType":"Bundle","id":"tests-7d065cf3-b345-4761-a9cb-1246372b933f-bundle","type":"transaction","entry":[{"fullUrl":"https://madie.cms.gov/Patient/7d065cf3-b345-4761-a9cb-1246372b933f","resource":{"resourceType":"Patient","id":"7d065cf3-b345-4761-a9cb-1246372b933f","meta":{"profile":["http://hl7.org/fhir/us/qicore/StructureDefinition/qicore-patient"]},"text":{"status":"generated","div":"<div xmlns=\"http://www.w3.org/1999/xhtml\"><div class=\"hapiHeaderText\">Turns 18 day of Encounter <b>NUMERPass </b></div><table class=\"hapiPropertyTable\"><tbody><tr><td>Identifier</td><td>f0eda1c9668fdacdcad3378589bf6e0a71e7dec1618f14fca4d442ec96e402b1</td></tr><tr><td>Date of birth</td><td><span>29 September 2006</span></td></tr></tbody></table></div>"},"extension":[{"url":"http://hl7.org/fhir/us/core/StructureDefinition/us-core-race","extension":[{"url":"ombCategory","valueCoding":{"system":"urn:oid:2.16.840.1.113883.6.238","code":"1002-5","display":"American Indian or Alaska Native","userSelected":true}},{"url":"text","valueString":"American Indian or Alaska Native"}]},{"url":"http://hl7.org/fhir/us/core/StructureDefinition/us-core-ethnicity","extension":[{"url":"ombCategory","valueCoding":{"system":"urn:oid:2.16.840.1.113883.6.238","code":"2135-2","display":"Hispanic or Latino","userSelected":true}},{"url":"text","valueString":"Hispanic or Latino"}]}],"identifier":[{"type":{"coding":[{"system":"http://terminology.hl7.org/CodeSystem/v2-0203","code":"MR"}]},"system":"http://bonnie-fhir.healthit.gov/","value":"NUMERPass-SCrIncrease2xExtended"}],"active":true,"name":[{"use":"usual","family":"NUMERPass","given":["SCrIncrease2xExtended"]}],"gender":"male","birthDate":"1982-10-10"},"request":{"method":"PUT","url":"Patient/7d065cf3-b345-4761-a9cb-1246372b933f"}},{"fullUrl":"https://madie.cms.gov/Encounter/933ae732-3933-4978-9e76-b657dce36dc8","resource":{"resourceType":"Encounter","id":"933ae732-3933-4978-9e76-b657dce36dc8","meta":{"profile":["http://hl7.org/fhir/us/qicore/StructureDefinition/qicore-encounter"]},"status":"finished","class":{"system":"http://terminology.hl7.org/CodeSystem/v3-ActCode","code":"EMER","display":"emergency"},"type":[{"coding":[{"system":"http://snomed.info/sct","code":"4525004"}]}],"subject":{"reference":"Patient/7d065cf3-b345-4761-a9cb-1246372b933f"},"period":{"start":"2025-09-29T08:00:00.000Z","end":"2025-09-30T20:00:00.000Z"}},"request":{"method":"PUT","url":"Encounter/933ae732-3933-4978-9e76-b657dce36dc8"}},{"fullUrl":"https://madie.cms.gov/Encounter/28505dfa-25ba-4c46-88e0-49e246e4246e","resource":{"resourceType":"Encounter","id":"28505dfa-25ba-4c46-88e0-49e246e4246e","meta":{"profile":["http://hl7.org/fhir/us/qicore/StructureDefinition/qicore-encounter"]},"status":"finished","class":{"system":"http://terminology.hl7.org/CodeSystem/v3-ActCode","code":"IMP","display":"inpatient encounter"},"type":[{"coding":[{"system":"http://snomed.info/sct","code":"183452005"}]}],"subject":{"reference":"Patient/7d065cf3-b345-4761-a9cb-1246372b933f"},"period":{"start":"2025-09-29T20:00:00.000Z","end":"2025-10-11T08:15:00.000Z"}},"request":{"method":"PUT","url":"Encounter/28505dfa-25ba-4c46-88e0-49e246e4246e"}},{"fullUrl":"https://madie.cms.gov/Observation/c3164bbd-4e44-46a6-af26-eceeeb1d983b","resource":{"resourceType":"Observation","id":"c3164bbd-4e44-46a6-af26-eceeeb1d983b","meta":{"profile":["http://hl7.org/fhir/us/qicore/StructureDefinition/qicore-observation"]},"status":"final","category":[{"coding":[{"system":"http://terminology.hl7.org/CodeSystem/observation-category","code":"laboratory","display":"Laboratory"}]}],"code":{"coding":[{"system":"http://loinc.org","version":"2.72","code":"2160-0","display":"Creatinine [Mass/volume] in Serum or Plasma","userSelected":true}]},"subject":{"reference":"Patient/7d065cf3-b345-4761-a9cb-1246372b933f"},"effectiveDateTime":"2025-09-30T09:00:00+00:00","issued":"2025-09-30T09:30:00+00:00","valueQuantity":{"value":1.1,"unit":"mg/dL","system":"http://unitsofmeasure.org","code":"mg/dL"}},"request":{"method":"PUT","url":"Observation/c3164bbd-4e44-46a6-af26-eceeeb1d983b"}},{"fullUrl":"https://madie.cms.gov/Observation/f6983bbb-1fa9-40ee-9533-9f231289107c","resource":{"resourceType":"Observation","id":"f6983bbb-1fa9-40ee-9533-9f231289107c","meta":{"profile":["http://hl7.org/fhir/us/qicore/StructureDefinition/qicore-observation"]},"status":"final","category":[{"coding":[{"system":"http://terminology.hl7.org/CodeSystem/observation-category","code":"laboratory","display":"Laboratory"}]}],"code":{"coding":[{"system":"http://loinc.org","version":"2.72","code":"2160-0","display":"Creatinine [Mass/volume] in Serum or Plasma","userSelected":true}]},"subject":{"reference":"Patient/7d065cf3-b345-4761-a9cb-1246372b933f"},"effectiveDateTime":"2025-09-30T08:00:00+00:00","issued":"2025-09-30T08:30:00+00:00","valueQuantity":{"value":1,"unit":"mg/dL","system":"http://unitsofmeasure.org","code":"mg/dL"}},"request":{"method":"PUT","url":"Observation/f6983bbb-1fa9-40ee-9533-9f231289107c"}},{"fullUrl":"https://madie.cms.gov/Observation/bb913baf-b66d-401c-848c-ed4ce5a850f7","resource":{"resourceType":"Observation","id":"bb913baf-b66d-401c-848c-ed4ce5a850f7","meta":{"profile":["http://hl7.org/fhir/us/qicore/StructureDefinition/qicore-observation"]},"status":"final","category":[{"coding":[{"system":"http://terminology.hl7.org/CodeSystem/observation-category","code":"laboratory","display":"Laboratory"}]}],"code":{"coding":[{"system":"http://loinc.org","version":"2.72","code":"2160-0","display":"Creatinine [Mass/volume] in Serum or Plasma","userSelected":true}]},"subject":{"reference":"Patient/7d065cf3-b345-4761-a9cb-1246372b933f"},"effectiveDateTime":"2025-10-02T08:00:00+00:00","issued":"2025-10-02T08:30:00+00:00","valueQuantity":{"value":1.1,"unit":"mg/dL","system":"http://unitsofmeasure.org","code":"mg/dL"}},"request":{"method":"PUT","url":"Observation/bb913baf-b66d-401c-848c-ed4ce5a850f7"}},{"fullUrl":"https://madie.cms.gov/Observation/28600078-b547-479b-a789-71a1713102d7","resource":{"resourceType":"Observation","id":"28600078-b547-479b-a789-71a1713102d7","meta":{"profile":["http://hl7.org/fhir/us/qicore/StructureDefinition/qicore-observation"]},"status":"final","category":[{"coding":[{"system":"http://terminology.hl7.org/CodeSystem/observation-category","code":"laboratory","display":"Laboratory"}]}],"code":{"coding":[{"system":"http://loinc.org","code":"2160-0","display":"Creatinine [Mass/volume] in Serum or Plasma"}]},"subject":{"reference":"Patient/7d065cf3-b345-4761-a9cb-1246372b933f"},"effectiveDateTime":"2025-10-03T08:00:00+00:00","issued":"2025-10-03T08:30:00+00:00","valueQuantity":{"value":2.2,"unit":"mg/dL","system":"http://unitsofmeasure.org","code":"mg/dL"}},"request":{"method":"PUT","url":"Observation/28600078-b547-479b-a789-71a1713102d7"}},{"fullUrl":"https://madie.cms.gov/Observation/d3631c23-8b7a-4c5d-b333-63a53f00fafe","resource":{"resourceType":"Observation","id":"d3631c23-8b7a-4c5d-b333-63a53f00fafe","meta":{"profile":["http://hl7.org/fhir/us/qicore/StructureDefinition/qicore-observation"]},"status":"final","category":[{"coding":[{"system":"http://terminology.hl7.org/CodeSystem/observation-category","code":"laboratory","display":"Laboratory"}]}],"code":{"coding":[{"system":"http://loinc.org","code":"2160-0","display":"Creatinine [Mass/volume] in Serum or Plasma"}]},"subject":{"reference":"Patient/7d065cf3-b345-4761-a9cb-1246372b933f"},"effectiveDateTime":"2025-10-05T08:00:00+00:00","issued":"2025-10-05T08:30:00+00:00","valueQuantity":{"value":1.9,"unit":"mg/dL","system":"http://unitsofmeasure.org","code":"mg/dL"}},"request":{"method":"PUT","url":"Observation/d3631c23-8b7a-4c5d-b333-63a53f00fafe"}},{"fullUrl":"https://madie.cms.gov/Observation/8cd33285-9c94-42bc-84e1-b62f12e23b6e","resource":{"resourceType":"Observation","id":"8cd33285-9c94-42bc-84e1-b62f12e23b6e","meta":{"profile":["http://hl7.org/fhir/us/qicore/StructureDefinition/qicore-observation"]},"status":"final","category":[{"coding":[{"system":"http://terminology.hl7.org/CodeSystem/observation-category","code":"laboratory","display":"Laboratory"}]}],"code":{"coding":[{"system":"http://loinc.org","code":"2160-0","display":"Creatinine [Mass/volume] in Serum or Plasma"}]},"subject":{"reference":"Patient/7d065cf3-b345-4761-a9cb-1246372b933f"},"effectiveDateTime":"2025-10-07T08:00:00+00:00","issued":"2025-10-07T08:30:00+00:00","valueQuantity":{"value":1.8,"unit":"mg/dL","system":"http://unitsofmeasure.org","code":"mg/dL"}},"request":{"method":"PUT","url":"Observation/8cd33285-9c94-42bc-84e1-b62f12e23b6e"}},{"fullUrl":"https://madie.cms.gov/Coverage/186fa6eb-6059-42d1-8bf6-18ceee64147b","resource":{"resourceType":"Coverage","id":"186fa6eb-6059-42d1-8bf6-18ceee64147b","meta":{"profile":["http://hl7.org/fhir/us/qicore/StructureDefinition/qicore-coverage"]},"status":"active","type":{"coding":[{"system":"https://nahdo.org/sopt","version":"9.2","code":"211","display":"Medicaid HMO"}]},"beneficiary":{"reference":"Patient/7d065cf3-b345-4761-a9cb-1246372b933f"},"period":{"start":"2023-12-01T00:00:00+00:00"},"payor":[{"reference":"Organization/80e3e0d1-b2aa-43a6-b1d2-00bfa3164a0f"}]},"request":{"method":"PUT","url":"Coverage/186fa6eb-6059-42d1-8bf6-18ceee64147b"}},{"fullUrl":"https://madie.cms.gov/Organization/ef164e8a-016c-472a-8c4a-ea3fa5eb2511","resource":{"resourceType":"Organization","id":"80e3e0d1-b2aa-43a6-b1d2-00bfa3164a0f","meta":{"profile":["http://hl7.org/fhir/us/qicore/StructureDefinition/qicore-organization"]},"identifier":[{"use":"temp","system":"urn:oid:2.16.840.1.113883.4.4","value":"21-3259825"}],"active":true,"type":[{"coding":[{"system":"http://terminology.hl7.org/CodeSystem/organization-type","code":"pay","display":"Payer"}]}],"name":"Blue Cross Blue Shield of Texas","telecom":[{"system":"phone","value":"(+1) 972-766-6900"}],"address":[{"use":"billing","type":"postal","line":["P.O. Box 660044"],"city":"Dallas","state":"TX","postalCode":"75266-0044","country":"USA"}]},"request":{"method":"PUT","url":"Organization/80e3e0d1-b2aa-43a6-b1d2-00bfa3164a0f"}},{"fullUrl":"https://madie.cms.gov/MeasureReport/c36bdaa0-70df-4ae8-aaff-6a0d2546678b","resource":{"resourceType":"MeasureReport","id":"c36bdaa0-70df-4ae8-aaff-6a0d2546678b","meta":{"profile":["http://hl7.org/fhir/us/cqfmeasures/StructureDefinition/test-case-cqfm"]},"contained":[{"resourceType":"Parameters","id":"cb925acc-b8d8-4802-9ca8-df4601887598-parameters","parameter":[{"name":"subject","valueString":"7d065cf3-b345-4761-a9cb-1246372b933f"}]}],"extension":[{"url":"http://hl7.org/fhir/us/cqfmeasures/StructureDefinition/cqfm-inputParameters","valueReference":{"reference":"#cb925acc-b8d8-4802-9ca8-df4601887598-parameters"}},{"url":"http://hl7.org/fhir/us/cqfmeasures/StructureDefinition/cqfm-testCaseDescription","valueMarkdown":"2TimeIncreaseInCreatUseRelevantPeriod MALE\nVScode: Numerator=[Encounter(id=NUMERPass-SCrIncrease2xExtended-02)]"}],"modifierExtension":[{"url":"http://hl7.org/fhir/us/cqfmeasures/StructureDefinition/cqfm-isTestCase","valueBoolean":true}],"status":"complete","type":"individual","measure":"https://madie.cms.gov/Measure/CMS832HHAKIFHIR","period":{"start":"2025-01-01","end":"2025-12-31"},"group":[{"population":[{"code":{"coding":[{"system":"http://terminology.hl7.org/CodeSystem/measure-population","code":"initial-population","display":"Initial Population"}]},"count":1},{"code":{"coding":[{"system":"http://terminology.hl7.org/CodeSystem/measure-population","code":"denominator","display":"Denominator"}]},"count":1},{"code":{"coding":[{"system":"http://terminology.hl7.org/CodeSystem/measure-population","code":"denominator-exclusion","display":"Denominator Exclusion"}]},"count":0},{"code":{"coding":[{"system":"http://terminology.hl7.org/CodeSystem/measure-population","code":"numerator","display":"Numerator"}]},"count":1}]}]},"request":{"method":"PUT","url":"MeasureReport/c36bdaa0-70df-4ae8-aaff-6a0d2546678b"}}]}