{"resourceType":"Bundle","id":"tests-9baac6c5-1826-4c06-a4a4-6ef5bfda76ba-bundle","type":"transaction","entry":[{"fullUrl":"https://madie.cms.gov/Patient/9baac6c5-1826-4c06-a4a4-6ef5bfda76ba","resource":{"resourceType":"Patient","id":"9baac6c5-1826-4c06-a4a4-6ef5bfda76ba","meta":{"profile":["http://hl7.org/fhir/us/qicore/StructureDefinition/qicore-patient"]},"text":{"status":"generated","div":"<div xmlns=\"http://www.w3.org/1999/xhtml\"><div class=\"hapiHeaderText\">Turns 18 day of Encounter <b>NUMERPass </b></div><table class=\"hapiPropertyTable\"><tbody><tr><td>Identifier</td><td>f0eda1c9668fdacdcad3378589bf6e0a71e7dec1618f14fca4d442ec96e402b1</td></tr><tr><td>Date of birth</td><td><span>29 September 2006</span></td></tr></tbody></table></div>"},"extension":[{"url":"http://hl7.org/fhir/us/core/StructureDefinition/us-core-race","extension":[{"url":"ombCategory","valueCoding":{"system":"urn:oid:2.16.840.1.113883.6.238","code":"1002-5","display":"American Indian or Alaska Native","userSelected":true}},{"url":"text","valueString":"American Indian or Alaska Native"}]},{"url":"http://hl7.org/fhir/us/core/StructureDefinition/us-core-ethnicity","extension":[{"url":"ombCategory","valueCoding":{"system":"urn:oid:2.16.840.1.113883.6.238","code":"2135-2","display":"Hispanic or Latino","userSelected":true}},{"url":"text","valueString":"Hispanic or Latino"}]}],"identifier":[{"type":{"coding":[{"system":"http://terminology.hl7.org/CodeSystem/v2-0203","code":"MR"}]},"system":"http://bonnie-fhir.healthit.gov/","value":"NUMERPass-SCrIncrease2x"}],"active":true,"name":[{"use":"usual","family":"NUMERPass","given":["SCrIncrease2x"]}],"gender":"female","birthDate":"1982-10-10"},"request":{"method":"PUT","url":"Patient/9baac6c5-1826-4c06-a4a4-6ef5bfda76ba"}},{"fullUrl":"https://madie.cms.gov/Encounter/b59cc242-1c5c-42bd-b5ab-782f995dec67","resource":{"resourceType":"Encounter","id":"b59cc242-1c5c-42bd-b5ab-782f995dec67","meta":{"profile":["http://hl7.org/fhir/us/qicore/StructureDefinition/qicore-encounter"]},"status":"finished","class":{"system":"http://terminology.hl7.org/CodeSystem/v3-ActCode","code":"EMER","display":"emergency"},"type":[{"coding":[{"system":"http://snomed.info/sct","code":"4525004"}]}],"subject":{"reference":"Patient/9baac6c5-1826-4c06-a4a4-6ef5bfda76ba"},"period":{"start":"2025-09-29T08:00:00.000Z","end":"2025-09-30T20:00:00.000Z"}},"request":{"method":"PUT","url":"Encounter/b59cc242-1c5c-42bd-b5ab-782f995dec67"}},{"fullUrl":"https://madie.cms.gov/Encounter/e8f992c1-c479-4b2e-87fc-2361fb86af10","resource":{"resourceType":"Encounter","id":"e8f992c1-c479-4b2e-87fc-2361fb86af10","meta":{"profile":["http://hl7.org/fhir/us/qicore/StructureDefinition/qicore-encounter"]},"status":"finished","class":{"system":"http://terminology.hl7.org/CodeSystem/v3-ActCode","code":"IMP","display":"inpatient encounter"},"type":[{"coding":[{"system":"http://snomed.info/sct","code":"183452005"}]}],"subject":{"reference":"Patient/9baac6c5-1826-4c06-a4a4-6ef5bfda76ba"},"period":{"start":"2025-09-29T20:00:00.000Z","end":"2025-10-04T08:15:00.000Z"}},"request":{"method":"PUT","url":"Encounter/e8f992c1-c479-4b2e-87fc-2361fb86af10"}},{"fullUrl":"https://madie.cms.gov/Observation/758acaaa-f8f0-4380-bb4f-29ba41511fd6","resource":{"resourceType":"Observation","id":"758acaaa-f8f0-4380-bb4f-29ba41511fd6","meta":{"profile":["http://hl7.org/fhir/us/qicore/StructureDefinition/qicore-observation"]},"status":"final","category":[{"coding":[{"system":"http://terminology.hl7.org/CodeSystem/observation-category","code":"laboratory","display":"Laboratory"}]}],"code":{"coding":[{"system":"http://loinc.org","version":"2.72","code":"2160-0","display":"Creatinine [Mass/volume] in Serum or Plasma","userSelected":true}]},"subject":{"reference":"Patient/9baac6c5-1826-4c06-a4a4-6ef5bfda76ba"},"effectiveDateTime":"2025-09-30T09:00:00+00:00","issued":"2025-09-30T09:30:00+00:00","valueQuantity":{"value":1.1,"unit":"mg/dL","system":"http://unitsofmeasure.org","code":"mg/dL"}},"request":{"method":"PUT","url":"Observation/758acaaa-f8f0-4380-bb4f-29ba41511fd6"}},{"fullUrl":"https://madie.cms.gov/Observation/e644cf36-b1aa-410f-bfd0-061671ca903b","resource":{"resourceType":"Observation","id":"e644cf36-b1aa-410f-bfd0-061671ca903b","meta":{"profile":["http://hl7.org/fhir/us/qicore/StructureDefinition/qicore-observation"]},"status":"final","category":[{"coding":[{"system":"http://terminology.hl7.org/CodeSystem/observation-category","code":"laboratory","display":"Laboratory"}]}],"code":{"coding":[{"system":"http://loinc.org","version":"2.72","code":"2160-0","display":"Creatinine [Mass/volume] in Serum or Plasma","userSelected":true}]},"subject":{"reference":"Patient/9baac6c5-1826-4c06-a4a4-6ef5bfda76ba"},"effectiveDateTime":"2025-09-30T08:00:00+00:00","issued":"2025-09-30T08:30:00+00:00","valueQuantity":{"value":1,"unit":"mg/dL","system":"http://unitsofmeasure.org","code":"mg/dL"}},"request":{"method":"PUT","url":"Observation/e644cf36-b1aa-410f-bfd0-061671ca903b"}},{"fullUrl":"https://madie.cms.gov/Observation/32210f42-b064-4804-b820-4806565a9bc2","resource":{"resourceType":"Observation","id":"32210f42-b064-4804-b820-4806565a9bc2","meta":{"profile":["http://hl7.org/fhir/us/qicore/StructureDefinition/qicore-observation"]},"status":"final","category":[{"coding":[{"system":"http://terminology.hl7.org/CodeSystem/observation-category","code":"laboratory","display":"Laboratory"}]}],"code":{"coding":[{"system":"http://loinc.org","version":"2.72","code":"2160-0","display":"Creatinine [Mass/volume] in Serum or Plasma","userSelected":true}]},"subject":{"reference":"Patient/9baac6c5-1826-4c06-a4a4-6ef5bfda76ba"},"effectiveDateTime":"2025-10-02T08:00:00+00:00","issued":"2025-10-02T08:30:00+00:00","valueQuantity":{"value":1.1,"unit":"mg/dL","system":"http://unitsofmeasure.org","code":"mg/dL"}},"request":{"method":"PUT","url":"Observation/32210f42-b064-4804-b820-4806565a9bc2"}},{"fullUrl":"https://madie.cms.gov/Observation/c7a522d0-4648-4c20-858d-e695949a910f","resource":{"resourceType":"Observation","id":"c7a522d0-4648-4c20-858d-e695949a910f","meta":{"profile":["http://hl7.org/fhir/us/qicore/StructureDefinition/qicore-observation"]},"status":"final","category":[{"coding":[{"system":"http://terminology.hl7.org/CodeSystem/observation-category","code":"laboratory","display":"Laboratory"}]}],"code":{"coding":[{"system":"http://loinc.org","code":"2160-0","display":"Creatinine [Mass/volume] in Serum or Plasma"}]},"subject":{"reference":"Patient/9baac6c5-1826-4c06-a4a4-6ef5bfda76ba"},"effectiveDateTime":"2025-10-03T08:00:00+00:00","issued":"2025-10-03T08:30:00+00:00","valueQuantity":{"value":2.2,"unit":"mg/dL","system":"http://unitsofmeasure.org","code":"mg/dL"}},"request":{"method":"PUT","url":"Observation/c7a522d0-4648-4c20-858d-e695949a910f"}},{"fullUrl":"https://madie.cms.gov/Coverage/57587e87-b999-45a7-9b4e-9e2bf1ec9ce8","resource":{"resourceType":"Coverage","id":"57587e87-b999-45a7-9b4e-9e2bf1ec9ce8","meta":{"profile":["http://hl7.org/fhir/us/qicore/StructureDefinition/qicore-coverage"]},"status":"active","type":{"coding":[{"system":"https://nahdo.org/sopt","version":"9.2","code":"211","display":"Medicaid HMO"}]},"beneficiary":{"reference":"Patient/9baac6c5-1826-4c06-a4a4-6ef5bfda76ba"},"period":{"start":"2023-12-01T00:00:00+00:00"},"payor":[{"reference":"Organization/5ad6ea38-07e9-4482-9e1b-c09eee595be9"}]},"request":{"method":"PUT","url":"Coverage/57587e87-b999-45a7-9b4e-9e2bf1ec9ce8"}},{"fullUrl":"https://madie.cms.gov/Organization/c1752da8-c56a-484c-8865-a5fcadd975dc","resource":{"resourceType":"Organization","id":"5ad6ea38-07e9-4482-9e1b-c09eee595be9","meta":{"profile":["http://hl7.org/fhir/us/qicore/StructureDefinition/qicore-organization"]},"identifier":[{"use":"temp","system":"urn:oid:2.16.840.1.113883.4.4","value":"21-3259825"}],"active":true,"type":[{"coding":[{"system":"http://terminology.hl7.org/CodeSystem/organization-type","code":"pay","display":"Payer"}]}],"name":"Blue Cross Blue Shield of Texas","telecom":[{"system":"phone","value":"(+1) 972-766-6900"}],"address":[{"use":"billing","type":"postal","line":["P.O. Box 660044"],"city":"Dallas","state":"TX","postalCode":"75266-0044","country":"USA"}]},"request":{"method":"PUT","url":"Organization/5ad6ea38-07e9-4482-9e1b-c09eee595be9"}},{"fullUrl":"https://madie.cms.gov/MeasureReport/ead84474-d3fc-4427-b7c9-bfc3ab745476","resource":{"resourceType":"MeasureReport","id":"ead84474-d3fc-4427-b7c9-bfc3ab745476","meta":{"profile":["http://hl7.org/fhir/us/cqfmeasures/StructureDefinition/test-case-cqfm"]},"contained":[{"resourceType":"Parameters","id":"0b19151d-a1c9-4d79-8b14-263e6fe6004c-parameters","parameter":[{"name":"subject","valueString":"9baac6c5-1826-4c06-a4a4-6ef5bfda76ba"}]}],"extension":[{"url":"http://hl7.org/fhir/us/cqfmeasures/StructureDefinition/cqfm-inputParameters","valueReference":{"reference":"#0b19151d-a1c9-4d79-8b14-263e6fe6004c-parameters"}},{"url":"http://hl7.org/fhir/us/cqfmeasures/StructureDefinition/cqfm-testCaseDescription","valueMarkdown":"2TimeIncreaseInCreatUseRelevantPeriod FEMALE\nVScode: Numerator=[Encounter(id=NUMERPass-SCrIncrease2x-02)]\n"}],"modifierExtension":[{"url":"http://hl7.org/fhir/us/cqfmeasures/StructureDefinition/cqfm-isTestCase","valueBoolean":true}],"status":"complete","type":"individual","measure":"https://madie.cms.gov/Measure/CMS832HHAKIFHIR","period":{"start":"2025-01-01","end":"2025-12-31"},"group":[{"population":[{"code":{"coding":[{"system":"http://terminology.hl7.org/CodeSystem/measure-population","code":"initial-population","display":"Initial Population"}]},"count":1},{"code":{"coding":[{"system":"http://terminology.hl7.org/CodeSystem/measure-population","code":"denominator","display":"Denominator"}]},"count":1},{"code":{"coding":[{"system":"http://terminology.hl7.org/CodeSystem/measure-population","code":"denominator-exclusion","display":"Denominator Exclusion"}]},"count":0},{"code":{"coding":[{"system":"http://terminology.hl7.org/CodeSystem/measure-population","code":"numerator","display":"Numerator"}]},"count":1}]}]},"request":{"method":"PUT","url":"MeasureReport/ead84474-d3fc-4427-b7c9-bfc3ab745476"}}]}