{"resourceType":"Bundle","id":"tests-75cf10f8-a7a4-4ac5-b60f-f73bfc9ae92e-bundle","type":"transaction","entry":[{"fullUrl":"https://madie.cms.gov/Patient/75cf10f8-a7a4-4ac5-b60f-f73bfc9ae92e","resource":{"resourceType":"Patient","id":"75cf10f8-a7a4-4ac5-b60f-f73bfc9ae92e","meta":{"profile":["http://hl7.org/fhir/us/qicore/StructureDefinition/qicore-patient"]},"text":{"status":"generated","div":"<div xmlns=\"http://www.w3.org/1999/xhtml\"><div class=\"hapiHeaderText\">Turns 18 day of Encounter <b>DENEXPass </b></div><table class=\"hapiPropertyTable\"><tbody><tr><td>Identifier</td><td>f0eda1c9668fdacdcad3378589bf6e0a71e7dec1618f14fca4d442ec96e402b1</td></tr><tr><td>Date of birth</td><td><span>29 September 2006</span></td></tr></tbody></table></div>"},"extension":[{"url":"http://hl7.org/fhir/us/core/StructureDefinition/us-core-race","extension":[{"url":"ombCategory","valueCoding":{"system":"urn:oid:2.16.840.1.113883.6.238","code":"1002-5","display":"American Indian or Alaska Native","userSelected":true}},{"url":"text","valueString":"American Indian or Alaska Native"}]},{"url":"http://hl7.org/fhir/us/core/StructureDefinition/us-core-ethnicity","extension":[{"url":"ombCategory","valueCoding":{"system":"urn:oid:2.16.840.1.113883.6.238","code":"2135-2","display":"Hispanic or Latino","userSelected":true}},{"url":"text","valueString":"Hispanic or Latino"}]}],"identifier":[{"type":{"coding":[{"system":"http://terminology.hl7.org/CodeSystem/v2-0203","code":"MR"}]},"system":"http://bonnie-fhir.healthit.gov/","value":"DENEXPass-CreatinineIncrease"}],"active":true,"name":[{"use":"usual","family":"DENEXPass","given":["CreatinineIncrease"]}],"gender":"female","birthDate":"1982-10-10"},"request":{"method":"PUT","url":"Patient/75cf10f8-a7a4-4ac5-b60f-f73bfc9ae92e"}},{"fullUrl":"https://madie.cms.gov/Encounter/cb38ac8f-8400-4f2f-a53b-2420e9c654c6","resource":{"resourceType":"Encounter","id":"cb38ac8f-8400-4f2f-a53b-2420e9c654c6","meta":{"profile":["http://hl7.org/fhir/us/qicore/StructureDefinition/qicore-encounter"]},"status":"finished","class":{"system":"http://terminology.hl7.org/CodeSystem/v3-ActCode","code":"IMP","display":"inpatient encounter"},"type":[{"coding":[{"system":"http://snomed.info/sct","code":"183452005"}]}],"subject":{"reference":"Patient/75cf10f8-a7a4-4ac5-b60f-f73bfc9ae92e"},"period":{"start":"2025-09-29T08:00:00.000Z","end":"2025-10-03T20:00:00.000Z"}},"request":{"method":"PUT","url":"Encounter/cb38ac8f-8400-4f2f-a53b-2420e9c654c6"}},{"fullUrl":"https://madie.cms.gov/Observation/3b9744ef-11a8-49ad-8b17-24cbb6861952","resource":{"resourceType":"Observation","id":"3b9744ef-11a8-49ad-8b17-24cbb6861952","meta":{"profile":["http://hl7.org/fhir/us/qicore/StructureDefinition/qicore-observation"]},"status":"final","category":[{"coding":[{"system":"http://terminology.hl7.org/CodeSystem/observation-category","code":"laboratory","display":"Laboratory"}]}],"code":{"coding":[{"system":"http://loinc.org","version":"2.72","code":"2160-0","display":"Creatinine [Mass/volume] in Serum or Plasma","userSelected":true}]},"subject":{"reference":"Patient/75cf10f8-a7a4-4ac5-b60f-f73bfc9ae92e"},"effectiveDateTime":"2025-10-01T08:01:00+00:00","issued":"2025-10-01T08:31:00+00:00","valueQuantity":{"value":0.9,"unit":"mg/dL","system":"http://unitsofmeasure.org","code":"mg/dL"}},"request":{"method":"PUT","url":"Observation/3b9744ef-11a8-49ad-8b17-24cbb6861952"}},{"fullUrl":"https://madie.cms.gov/Observation/4df5656a-bcd4-44ea-8751-aaa8a746a4ef","resource":{"resourceType":"Observation","id":"4df5656a-bcd4-44ea-8751-aaa8a746a4ef","meta":{"profile":["http://hl7.org/fhir/us/qicore/StructureDefinition/qicore-observation"]},"status":"final","category":[{"coding":[{"system":"http://terminology.hl7.org/CodeSystem/observation-category","code":"laboratory","display":"Laboratory"}]}],"code":{"coding":[{"system":"http://loinc.org","code":"2160-0","display":"Creatinine [Mass/volume] in Serum or Plasma"}]},"subject":{"reference":"Patient/75cf10f8-a7a4-4ac5-b60f-f73bfc9ae92e"},"effectiveDateTime":"2025-09-30T07:00:00+00:00","issued":"2025-09-30T07:30:00+00:00","valueQuantity":{"value":0.9,"unit":"mg/dL","system":"http://unitsofmeasure.org","code":"mg/dL"}},"request":{"method":"PUT","url":"Observation/4df5656a-bcd4-44ea-8751-aaa8a746a4ef"}},{"fullUrl":"https://madie.cms.gov/Observation/b351ccab-ec08-4b66-b6c3-977034ae916f","resource":{"resourceType":"Observation","id":"b351ccab-ec08-4b66-b6c3-977034ae916f","meta":{"profile":["http://hl7.org/fhir/us/qicore/StructureDefinition/qicore-observation"]},"status":"final","category":[{"coding":[{"system":"http://terminology.hl7.org/CodeSystem/observation-category","code":"laboratory","display":"Laboratory"}]}],"code":{"coding":[{"system":"http://loinc.org","version":"2.72","code":"2160-0","display":"Creatinine [Mass/volume] in Serum or Plasma","userSelected":true}]},"subject":{"reference":"Patient/75cf10f8-a7a4-4ac5-b60f-f73bfc9ae92e"},"effectiveDateTime":"2025-10-01T07:35:00+00:00","issued":"2025-10-01T08:05:00+00:00","valueQuantity":{"value":1.31,"unit":"mg/dL","system":"http://unitsofmeasure.org","code":"mg/dL"}},"request":{"method":"PUT","url":"Observation/b351ccab-ec08-4b66-b6c3-977034ae916f"}},{"fullUrl":"https://madie.cms.gov/Coverage/8ac18004-ceba-401c-8e45-751a82c206d8","resource":{"resourceType":"Coverage","id":"8ac18004-ceba-401c-8e45-751a82c206d8","meta":{"profile":["http://hl7.org/fhir/us/qicore/StructureDefinition/qicore-coverage"]},"status":"active","type":{"coding":[{"system":"https://nahdo.org/sopt","version":"9.2","code":"211","display":"Medicaid HMO"}]},"beneficiary":{"reference":"Patient/75cf10f8-a7a4-4ac5-b60f-f73bfc9ae92e"},"period":{"start":"2023-12-01T00:00:00+00:00"},"payor":[{"reference":"Organization/4da248b0-6e59-49b7-b80e-338aa21d299f"}]},"request":{"method":"PUT","url":"Coverage/8ac18004-ceba-401c-8e45-751a82c206d8"}},{"fullUrl":"https://madie.cms.gov/Organization/0413309a-9571-4953-976b-d101eed2e617","resource":{"resourceType":"Organization","id":"4da248b0-6e59-49b7-b80e-338aa21d299f","meta":{"profile":["http://hl7.org/fhir/us/qicore/StructureDefinition/qicore-organization"]},"identifier":[{"use":"temp","system":"urn:oid:2.16.840.1.113883.4.4","value":"21-3259825"}],"active":true,"type":[{"coding":[{"system":"http://terminology.hl7.org/CodeSystem/organization-type","code":"pay","display":"Payer"}]}],"name":"Blue Cross Blue Shield of Texas","telecom":[{"system":"phone","value":"(+1) 972-766-6900"}],"address":[{"use":"billing","type":"postal","line":["P.O. Box 660044"],"city":"Dallas","state":"TX","postalCode":"75266-0044","country":"USA"}]},"request":{"method":"PUT","url":"Organization/4da248b0-6e59-49b7-b80e-338aa21d299f"}},{"fullUrl":"https://madie.cms.gov/MeasureReport/aceedb96-00b8-4cc9-9188-cf5429215d68","resource":{"resourceType":"MeasureReport","id":"aceedb96-00b8-4cc9-9188-cf5429215d68","meta":{"profile":["http://hl7.org/fhir/us/cqfmeasures/StructureDefinition/test-case-cqfm"]},"contained":[{"resourceType":"Parameters","id":"6c35f10a-517a-4bd2-ace1-f5e134c57e16-parameters","parameter":[{"name":"subject","valueString":"75cf10f8-a7a4-4ac5-b60f-f73bfc9ae92e"}]}],"extension":[{"url":"http://hl7.org/fhir/us/cqfmeasures/StructureDefinition/cqfm-inputParameters","valueReference":{"reference":"#6c35f10a-517a-4bd2-ace1-f5e134c57e16-parameters"}},{"url":"http://hl7.org/fhir/us/cqfmeasures/StructureDefinition/cqfm-testCaseDescription","valueMarkdown":"IP Encounter with 0.4mg/dL increase in SCr. Meets Exclusion - must be at least a 0.3 increase. \nVScode: Denominator Exclusion=[Encounter(id=DENEXPass-CreatinineIncrease0.4mg-01)]\nMADiE highlight issue special characters even in titles"}],"modifierExtension":[{"url":"http://hl7.org/fhir/us/cqfmeasures/StructureDefinition/cqfm-isTestCase","valueBoolean":true}],"status":"complete","type":"individual","measure":"https://madie.cms.gov/Measure/CMS832HHAKIFHIR","period":{"start":"2025-01-01","end":"2025-12-31"},"group":[{"population":[{"code":{"coding":[{"system":"http://terminology.hl7.org/CodeSystem/measure-population","code":"initial-population","display":"Initial Population"}]},"count":1},{"code":{"coding":[{"system":"http://terminology.hl7.org/CodeSystem/measure-population","code":"denominator","display":"Denominator"}]},"count":1},{"code":{"coding":[{"system":"http://terminology.hl7.org/CodeSystem/measure-population","code":"denominator-exclusion","display":"Denominator Exclusion"}]},"count":1},{"code":{"coding":[{"system":"http://terminology.hl7.org/CodeSystem/measure-population","code":"numerator","display":"Numerator"}]},"count":0}]}]},"request":{"method":"PUT","url":"MeasureReport/aceedb96-00b8-4cc9-9188-cf5429215d68"}}]}