{"resourceType":"Bundle","id":"tests-0d0134b6-5f63-4083-96b3-a538359da42b-bundle","type":"transaction","entry":[{"fullUrl":"https://madie.cms.gov/Patient/0d0134b6-5f63-4083-96b3-a538359da42b","resource":{"resourceType":"Patient","id":"0d0134b6-5f63-4083-96b3-a538359da42b","meta":{"profile":["http://hl7.org/fhir/us/qicore/StructureDefinition/qicore-patient"]},"text":{"status":"generated","div":"<div xmlns=\"http://www.w3.org/1999/xhtml\"><div class=\"hapiHeaderText\">Turns 18 day of Encounter <b>DENOMPASS </b></div><table class=\"hapiPropertyTable\"><tbody><tr><td>Identifier</td><td>f0eda1c9668fdacdcad3378589bf6e0a71e7dec1618f14fca4d442ec96e402b1</td></tr><tr><td>Date of birth</td><td><span>29 September 2006</span></td></tr></tbody></table></div>"},"extension":[{"url":"http://hl7.org/fhir/us/core/StructureDefinition/us-core-race","extension":[{"url":"ombCategory","valueCoding":{"system":"urn:oid:2.16.840.1.113883.6.238","code":"1002-5","display":"American Indian or Alaska Native","userSelected":true}},{"url":"text","valueString":"American Indian or Alaska Native"}]},{"url":"http://hl7.org/fhir/us/core/StructureDefinition/us-core-ethnicity","extension":[{"url":"ombCategory","valueCoding":{"system":"urn:oid:2.16.840.1.113883.6.238","code":"2135-2","display":"Hispanic or Latino","userSelected":true}},{"url":"text","valueString":"Hispanic or Latino"}]}],"identifier":[{"type":{"coding":[{"system":"http://terminology.hl7.org/CodeSystem/v2-0203","code":"MR"}]},"system":"http://bonnie-fhir.healthit.gov/","value":"DENOMPass-CreatinineAfter48HoursPJM"}],"active":true,"name":[{"use":"usual","family":"DENOMPass","given":["CreatinineAfter48HoursPJM"]}],"gender":"female","birthDate":"1982-10-10"},"request":{"method":"PUT","url":"Patient/0d0134b6-5f63-4083-96b3-a538359da42b"}},{"fullUrl":"https://madie.cms.gov/Encounter/e5f5199d-70d4-4dfe-842d-91093251ae10","resource":{"resourceType":"Encounter","id":"e5f5199d-70d4-4dfe-842d-91093251ae10","meta":{"profile":["http://hl7.org/fhir/us/qicore/StructureDefinition/qicore-encounter"]},"status":"finished","class":{"system":"http://terminology.hl7.org/CodeSystem/v3-ActCode","code":"EMER","display":"emergency"},"type":[{"coding":[{"system":"http://snomed.info/sct","code":"4525004"}]}],"subject":{"reference":"Patient/0d0134b6-5f63-4083-96b3-a538359da42b"},"period":{"start":"2025-09-29T06:00:00.000Z","end":"2025-09-29T08:00:00.000Z"}},"request":{"method":"PUT","url":"Encounter/e5f5199d-70d4-4dfe-842d-91093251ae10"}},{"fullUrl":"https://madie.cms.gov/Encounter/8d9706a0-30fb-4c51-8257-83fd1746e450","resource":{"resourceType":"Encounter","id":"8d9706a0-30fb-4c51-8257-83fd1746e450","meta":{"profile":["http://hl7.org/fhir/us/qicore/StructureDefinition/qicore-encounter"]},"status":"finished","class":{"system":"http://terminology.hl7.org/CodeSystem/v3-ActCode","code":"IMP","display":"inpatient encounter"},"type":[{"coding":[{"system":"http://snomed.info/sct","code":"183452005"}]}],"subject":{"reference":"Patient/0d0134b6-5f63-4083-96b3-a538359da42b"},"period":{"start":"2025-09-29T08:00:00.000Z","end":"2025-10-03T20:00:00.000Z"}},"request":{"method":"PUT","url":"Encounter/8d9706a0-30fb-4c51-8257-83fd1746e450"}},{"fullUrl":"https://madie.cms.gov/MedicationAdministration/237c5ad5-d4fa-4189-8d52-9d2417c04249","resource":{"resourceType":"MedicationAdministration","id":"237c5ad5-d4fa-4189-8d52-9d2417c04249","meta":{"profile":["http://hl7.org/fhir/us/qicore/StructureDefinition/qicore-medicationadministration"]},"status":"completed","medicationCodeableConcept":{"coding":[{"system":"http://www.nlm.nih.gov/research/umls/rxnorm","code":"1010600"}]},"subject":{"reference":"Patient/0d0134b6-5f63-4083-96b3-a538359da42b"},"effectivePeriod":{"start":"2025-09-29T08:00:00.000Z","end":"2025-09-29T08:15:00.000Z"}},"request":{"method":"PUT","url":"MedicationAdministration/237c5ad5-d4fa-4189-8d52-9d2417c04249"}},{"fullUrl":"https://madie.cms.gov/Observation/baf65acc-9251-4e9e-a71f-11d31e7b9db1","resource":{"resourceType":"Observation","id":"baf65acc-9251-4e9e-a71f-11d31e7b9db1","meta":{"profile":["http://hl7.org/fhir/us/qicore/StructureDefinition/qicore-observation"]},"status":"final","category":[{"coding":[{"system":"http://terminology.hl7.org/CodeSystem/observation-category","code":"laboratory","display":"Laboratory"}]}],"code":{"coding":[{"system":"http://loinc.org","version":"2.72","code":"2160-0","display":"Creatinine [Mass/volume] in Serum or Plasma","userSelected":true}]},"subject":{"reference":"Patient/0d0134b6-5f63-4083-96b3-a538359da42b"},"effectiveDateTime":"2025-10-01T07:50:00+00:00","issued":"2025-10-01T08:20:00+00:00","valueQuantity":{"value":0.6,"unit":"mg/dL","system":"http://unitsofmeasure.org","code":"mg/dL"}},"request":{"method":"PUT","url":"Observation/baf65acc-9251-4e9e-a71f-11d31e7b9db1"}},{"fullUrl":"https://madie.cms.gov/Observation/a0ad1e36-d0a7-45b2-86ab-1370c1821194","resource":{"resourceType":"Observation","id":"a0ad1e36-d0a7-45b2-86ab-1370c1821194","meta":{"profile":["http://hl7.org/fhir/us/qicore/StructureDefinition/qicore-observation"]},"status":"final","category":[{"coding":[{"system":"http://terminology.hl7.org/CodeSystem/observation-category","code":"laboratory","display":"Laboratory"}]}],"code":{"coding":[{"system":"http://loinc.org","code":"2160-0","display":"Creatinine [Mass/volume] in Serum or Plasma"}]},"subject":{"reference":"Patient/0d0134b6-5f63-4083-96b3-a538359da42b"},"effectiveDateTime":"2025-09-29T07:59:00+00:00","issued":"2025-09-29T08:29:00+00:00","valueQuantity":{"value":0.8,"unit":"mg/dL","system":"http://unitsofmeasure.org","code":"mg/dL"}},"request":{"method":"PUT","url":"Observation/a0ad1e36-d0a7-45b2-86ab-1370c1821194"}},{"fullUrl":"https://madie.cms.gov/Observation/815cc187-f66c-48b9-a1c3-422445e8b106","resource":{"resourceType":"Observation","id":"815cc187-f66c-48b9-a1c3-422445e8b106","meta":{"profile":["http://hl7.org/fhir/us/qicore/StructureDefinition/qicore-observation"]},"status":"final","category":[{"coding":[{"system":"http://terminology.hl7.org/CodeSystem/observation-category","code":"laboratory","display":"Laboratory"}]}],"code":{"coding":[{"system":"http://loinc.org","version":"2.72","code":"2160-0","display":"Creatinine [Mass/volume] in Serum or Plasma","userSelected":true}]},"subject":{"reference":"Patient/0d0134b6-5f63-4083-96b3-a538359da42b"},"effectiveDateTime":"2025-09-29T08:01:00+00:00","issued":"2025-09-29T08:31:00+00:00","valueQuantity":{"value":1.1,"unit":"mg/dL","system":"http://unitsofmeasure.org","code":"mg/dL"}},"request":{"method":"PUT","url":"Observation/815cc187-f66c-48b9-a1c3-422445e8b106"}},{"fullUrl":"https://madie.cms.gov/Observation/36cde0c0-981e-4e18-922d-5a19f3deac9d","resource":{"resourceType":"Observation","id":"36cde0c0-981e-4e18-922d-5a19f3deac9d","meta":{"profile":["http://hl7.org/fhir/us/qicore/StructureDefinition/qicore-observation"]},"status":"final","category":[{"coding":[{"system":"http://terminology.hl7.org/CodeSystem/observation-category","code":"laboratory","display":"Laboratory"}]}],"code":{"coding":[{"system":"http://loinc.org","code":"2160-0","display":"Creatinine [Mass/volume] in Serum or Plasma"}]},"subject":{"reference":"Patient/0d0134b6-5f63-4083-96b3-a538359da42b"},"effectiveDateTime":"2025-09-29T07:00:00+00:00","issued":"2025-09-29T07:30:00+00:00","valueQuantity":{"value":0.9,"unit":"mg/dL","system":"http://unitsofmeasure.org","code":"mg/dL"}},"request":{"method":"PUT","url":"Observation/36cde0c0-981e-4e18-922d-5a19f3deac9d"}},{"fullUrl":"https://madie.cms.gov/Observation/c604a574-e140-4ace-8a9a-ee7a2a2c2aa9","resource":{"resourceType":"Observation","id":"c604a574-e140-4ace-8a9a-ee7a2a2c2aa9","meta":{"profile":["http://hl7.org/fhir/us/qicore/StructureDefinition/qicore-observation"]},"status":"final","category":[{"coding":[{"system":"http://terminology.hl7.org/CodeSystem/observation-category","code":"laboratory","display":"Laboratory"}]}],"code":{"coding":[{"system":"http://loinc.org","version":"2.72","code":"2160-0","display":"Creatinine [Mass/volume] in Serum or Plasma","userSelected":true}]},"subject":{"reference":"Patient/0d0134b6-5f63-4083-96b3-a538359da42b"},"effectiveDateTime":"2025-09-29T07:35:00+00:00","issued":"2025-09-29T08:05:00+00:00","valueQuantity":{"value":1,"unit":"mg/dL","system":"http://unitsofmeasure.org","code":"mg/dL"}},"request":{"method":"PUT","url":"Observation/c604a574-e140-4ace-8a9a-ee7a2a2c2aa9"}},{"fullUrl":"https://madie.cms.gov/Coverage/5eed9e9e-2350-478f-8399-631e74ab5e45","resource":{"resourceType":"Coverage","id":"5eed9e9e-2350-478f-8399-631e74ab5e45","meta":{"profile":["http://hl7.org/fhir/us/qicore/StructureDefinition/qicore-coverage"]},"status":"active","type":{"coding":[{"system":"https://nahdo.org/sopt","version":"9.2","code":"211","display":"Medicaid HMO"}]},"beneficiary":{"reference":"Patient/0d0134b6-5f63-4083-96b3-a538359da42b"},"period":{"start":"2023-12-01T00:00:00+00:00"},"payor":[{"reference":"Organization/18ca435c-cae6-4c34-8033-af717477f9fc"}]},"request":{"method":"PUT","url":"Coverage/5eed9e9e-2350-478f-8399-631e74ab5e45"}},{"fullUrl":"https://madie.cms.gov/Organization/7a5f29d8-b641-4165-8d9f-38ecd9c6ffec","resource":{"resourceType":"Organization","id":"18ca435c-cae6-4c34-8033-af717477f9fc","meta":{"profile":["http://hl7.org/fhir/us/qicore/StructureDefinition/qicore-organization"]},"identifier":[{"use":"temp","system":"urn:oid:2.16.840.1.113883.4.4","value":"21-3259825"}],"active":true,"type":[{"coding":[{"system":"http://terminology.hl7.org/CodeSystem/organization-type","code":"pay","display":"Payer"}]}],"name":"Blue Cross Blue Shield of Texas","telecom":[{"system":"phone","value":"(+1) 972-766-6900"}],"address":[{"use":"billing","type":"postal","line":["P.O. Box 660044"],"city":"Dallas","state":"TX","postalCode":"75266-0044","country":"USA"}]},"request":{"method":"PUT","url":"Organization/18ca435c-cae6-4c34-8033-af717477f9fc"}},{"fullUrl":"https://madie.cms.gov/MeasureReport/cf0de52c-3885-4827-9b31-fdc462028f85","resource":{"resourceType":"MeasureReport","id":"cf0de52c-3885-4827-9b31-fdc462028f85","meta":{"profile":["http://hl7.org/fhir/us/cqfmeasures/StructureDefinition/test-case-cqfm"]},"contained":[{"resourceType":"Parameters","id":"46abf278-e647-44fe-b3ee-e3dbffb06530-parameters","parameter":[{"name":"subject","valueString":"0d0134b6-5f63-4083-96b3-a538359da42b"}]}],"extension":[{"url":"http://hl7.org/fhir/us/cqfmeasures/StructureDefinition/cqfm-inputParameters","valueReference":{"reference":"#46abf278-e647-44fe-b3ee-e3dbffb06530-parameters"}},{"url":"http://hl7.org/fhir/us/cqfmeasures/StructureDefinition/cqfm-testCaseDescription","valueMarkdown":"ER-INPT, more Cr to test display sort.\nVScode: Denominator=[Encounter(id=DENOMPass-CreatinineAfter48HoursPJM-02)] ,  Denominator Exclusion=[]"}],"modifierExtension":[{"url":"http://hl7.org/fhir/us/cqfmeasures/StructureDefinition/cqfm-isTestCase","valueBoolean":true}],"status":"complete","type":"individual","measure":"https://madie.cms.gov/Measure/CMS832HHAKIFHIR","period":{"start":"2025-01-01","end":"2025-12-31"},"group":[{"population":[{"code":{"coding":[{"system":"http://terminology.hl7.org/CodeSystem/measure-population","code":"initial-population","display":"Initial Population"}]},"count":1},{"code":{"coding":[{"system":"http://terminology.hl7.org/CodeSystem/measure-population","code":"denominator","display":"Denominator"}]},"count":1},{"code":{"coding":[{"system":"http://terminology.hl7.org/CodeSystem/measure-population","code":"denominator-exclusion","display":"Denominator Exclusion"}]},"count":0},{"code":{"coding":[{"system":"http://terminology.hl7.org/CodeSystem/measure-population","code":"numerator","display":"Numerator"}]},"count":0}]}]},"request":{"method":"PUT","url":"MeasureReport/cf0de52c-3885-4827-9b31-fdc462028f85"}}]}