{"resourceType":"Bundle","id":"tests-e4178f9a-886d-45b8-b5a4-7ec61f7d4201-bundle","type":"transaction","entry":[{"fullUrl":"https://madie.cms.gov/Patient/e4178f9a-886d-45b8-b5a4-7ec61f7d4201","resource":{"resourceType":"Patient","id":"e4178f9a-886d-45b8-b5a4-7ec61f7d4201","meta":{"profile":["http://hl7.org/fhir/us/qicore/StructureDefinition/qicore-patient"]},"text":{"status":"generated","div":"<div xmlns=\"http://www.w3.org/1999/xhtml\"><div class=\"hapiHeaderText\">Turns 18 day of Encounter <b>NUMERPass </b></div><table class=\"hapiPropertyTable\"><tbody><tr><td>Identifier</td><td>f0eda1c9668fdacdcad3378589bf6e0a71e7dec1618f14fca4d442ec96e402b1</td></tr><tr><td>Date of birth</td><td><span>29 September 2006</span></td></tr></tbody></table></div>"},"extension":[{"url":"http://hl7.org/fhir/us/core/StructureDefinition/us-core-race","extension":[{"url":"ombCategory","valueCoding":{"system":"urn:oid:2.16.840.1.113883.6.238","code":"1002-5","display":"American Indian or Alaska Native","userSelected":true}},{"url":"text","valueString":"American Indian or Alaska Native"}]},{"url":"http://hl7.org/fhir/us/core/StructureDefinition/us-core-ethnicity","extension":[{"url":"ombCategory","valueCoding":{"system":"urn:oid:2.16.840.1.113883.6.238","code":"2135-2","display":"Hispanic or Latino","userSelected":true}},{"url":"text","valueString":"Hispanic or Latino"}]}],"identifier":[{"type":{"coding":[{"system":"http://terminology.hl7.org/CodeSystem/v2-0203","code":"MR"}]},"system":"http://bonnie-fhir.healthit.gov/","value":"NUMERPass-TwoEncountersSecondCreatinineDoubled"}],"active":true,"name":[{"use":"usual","family":"NUMERPass","given":["TwoEncountersSecondCreatinineDoubled"]}],"gender":"female","birthDate":"1982-10-10"},"request":{"method":"PUT","url":"Patient/e4178f9a-886d-45b8-b5a4-7ec61f7d4201"}},{"fullUrl":"https://madie.cms.gov/Encounter/bcce00ad-2228-48de-83d8-6a08a9a3e30c","resource":{"resourceType":"Encounter","id":"bcce00ad-2228-48de-83d8-6a08a9a3e30c","meta":{"profile":["http://hl7.org/fhir/us/qicore/StructureDefinition/qicore-encounter"]},"status":"finished","class":{"system":"http://terminology.hl7.org/CodeSystem/v3-ActCode","code":"IMP","display":"inpatient encounter"},"type":[{"coding":[{"system":"http://snomed.info/sct","code":"183452005"}]}],"subject":{"reference":"Patient/e4178f9a-886d-45b8-b5a4-7ec61f7d4201"},"period":{"start":"2025-09-29T08:00:00.000Z","end":"2025-10-03T20:00:00.000Z"}},"request":{"method":"PUT","url":"Encounter/bcce00ad-2228-48de-83d8-6a08a9a3e30c"}},{"fullUrl":"https://madie.cms.gov/Encounter/f919c62f-678b-4f64-8d34-4b693c50f3ca","resource":{"resourceType":"Encounter","id":"f919c62f-678b-4f64-8d34-4b693c50f3ca","meta":{"profile":["http://hl7.org/fhir/us/qicore/StructureDefinition/qicore-encounter"]},"status":"finished","class":{"system":"http://terminology.hl7.org/CodeSystem/v3-ActCode","code":"IMP","display":"inpatient encounter"},"type":[{"coding":[{"system":"http://snomed.info/sct","code":"183452005"}]}],"subject":{"reference":"Patient/e4178f9a-886d-45b8-b5a4-7ec61f7d4201"},"period":{"start":"2025-11-01T08:00:00.000Z","end":"2025-11-06T20:15:00.000Z"}},"request":{"method":"PUT","url":"Encounter/f919c62f-678b-4f64-8d34-4b693c50f3ca"}},{"fullUrl":"https://madie.cms.gov/Observation/92c298c1-a4e2-47b6-8187-e01bcd048f25","resource":{"resourceType":"Observation","id":"92c298c1-a4e2-47b6-8187-e01bcd048f25","meta":{"profile":["http://hl7.org/fhir/us/qicore/StructureDefinition/qicore-observation"]},"status":"final","category":[{"coding":[{"system":"http://terminology.hl7.org/CodeSystem/observation-category","code":"laboratory","display":"Laboratory"}]}],"code":{"coding":[{"system":"http://loinc.org","version":"2.72","code":"2160-0","display":"Creatinine [Mass/volume] in Serum or Plasma","userSelected":true}]},"subject":{"reference":"Patient/e4178f9a-886d-45b8-b5a4-7ec61f7d4201"},"effectiveDateTime":"2025-11-03T10:15:00+00:00","issued":"2025-11-03T10:45:00+00:00","valueQuantity":{"value":1.82,"unit":"mg/dL","system":"http://unitsofmeasure.org","code":"mg/dL"}},"request":{"method":"PUT","url":"Observation/92c298c1-a4e2-47b6-8187-e01bcd048f25"}},{"fullUrl":"https://madie.cms.gov/Observation/cc432b0d-fdf6-4ff7-9d26-aa486b964d37","resource":{"resourceType":"Observation","id":"cc432b0d-fdf6-4ff7-9d26-aa486b964d37","meta":{"profile":["http://hl7.org/fhir/us/qicore/StructureDefinition/qicore-observation"]},"status":"final","category":[{"coding":[{"system":"http://terminology.hl7.org/CodeSystem/observation-category","code":"laboratory","display":"Laboratory"}]}],"code":{"coding":[{"system":"http://loinc.org","version":"2.72","code":"2160-0","display":"Creatinine [Mass/volume] in Serum or Plasma","userSelected":true}]},"subject":{"reference":"Patient/e4178f9a-886d-45b8-b5a4-7ec61f7d4201"},"effectiveDateTime":"2025-11-01T10:15:00+00:00","issued":"2025-11-01T10:45:00+00:00","valueQuantity":{"value":0.91,"unit":"mg/dL","system":"http://unitsofmeasure.org","code":"mg/dL"}},"request":{"method":"PUT","url":"Observation/cc432b0d-fdf6-4ff7-9d26-aa486b964d37"}},{"fullUrl":"https://madie.cms.gov/Observation/876f6928-0be5-4ba2-abb7-2ef576f629d2","resource":{"resourceType":"Observation","id":"876f6928-0be5-4ba2-abb7-2ef576f629d2","meta":{"profile":["http://hl7.org/fhir/us/qicore/StructureDefinition/qicore-observation"]},"status":"final","category":[{"coding":[{"system":"http://terminology.hl7.org/CodeSystem/observation-category","code":"laboratory","display":"Laboratory"}]}],"code":{"coding":[{"system":"http://loinc.org","version":"2.72","code":"2160-0","display":"Creatinine [Mass/volume] in Serum or Plasma","userSelected":true}]},"subject":{"reference":"Patient/e4178f9a-886d-45b8-b5a4-7ec61f7d4201"},"effectiveDateTime":"2025-11-01T08:15:00+00:00","issued":"2025-11-01T08:45:00+00:00","valueQuantity":{"value":0.91,"unit":"mg/dL","system":"http://unitsofmeasure.org","code":"mg/dL"}},"request":{"method":"PUT","url":"Observation/876f6928-0be5-4ba2-abb7-2ef576f629d2"}},{"fullUrl":"https://madie.cms.gov/Observation/f8f80373-1946-4b0e-9c45-ca193c34a7df","resource":{"resourceType":"Observation","id":"f8f80373-1946-4b0e-9c45-ca193c34a7df","meta":{"profile":["http://hl7.org/fhir/us/qicore/StructureDefinition/qicore-observation"]},"status":"final","category":[{"coding":[{"system":"http://terminology.hl7.org/CodeSystem/observation-category","code":"laboratory","display":"Laboratory"}]}],"code":{"coding":[{"system":"http://loinc.org","code":"2160-0","display":"Creatinine [Mass/volume] in Serum or Plasma"}]},"subject":{"reference":"Patient/e4178f9a-886d-45b8-b5a4-7ec61f7d4201"},"effectiveDateTime":"2025-10-01T09:01:00+00:00","issued":"2025-10-01T09:31:00+00:00","valueQuantity":{"value":1.79,"unit":"mg/dL","system":"http://unitsofmeasure.org","code":"mg/dL"}},"request":{"method":"PUT","url":"Observation/f8f80373-1946-4b0e-9c45-ca193c34a7df"}},{"fullUrl":"https://madie.cms.gov/Observation/645c3d60-6c68-429e-a536-2ace2c1eb440","resource":{"resourceType":"Observation","id":"645c3d60-6c68-429e-a536-2ace2c1eb440","meta":{"profile":["http://hl7.org/fhir/us/qicore/StructureDefinition/qicore-observation"]},"status":"final","category":[{"coding":[{"system":"http://terminology.hl7.org/CodeSystem/observation-category","code":"laboratory","display":"Laboratory"}]}],"code":{"coding":[{"system":"http://loinc.org","version":"2.72","code":"2160-0","display":"Creatinine [Mass/volume] in Serum or Plasma","userSelected":true}]},"subject":{"reference":"Patient/e4178f9a-886d-45b8-b5a4-7ec61f7d4201"},"effectiveDateTime":"2025-10-01T08:01:00+00:00","issued":"2025-10-01T08:31:00+00:00","valueQuantity":{"value":0.9,"unit":"mg/dL","system":"http://unitsofmeasure.org","code":"mg/dL"}},"request":{"method":"PUT","url":"Observation/645c3d60-6c68-429e-a536-2ace2c1eb440"}},{"fullUrl":"https://madie.cms.gov/Observation/12a91e4f-1520-44d1-9b39-6f78bed89ac5","resource":{"resourceType":"Observation","id":"12a91e4f-1520-44d1-9b39-6f78bed89ac5","meta":{"profile":["http://hl7.org/fhir/us/qicore/StructureDefinition/qicore-observation"]},"status":"final","category":[{"coding":[{"system":"http://terminology.hl7.org/CodeSystem/observation-category","code":"laboratory","display":"Laboratory"}]}],"code":{"coding":[{"system":"http://loinc.org","code":"2160-0","display":"Creatinine [Mass/volume] in Serum or Plasma"}]},"subject":{"reference":"Patient/e4178f9a-886d-45b8-b5a4-7ec61f7d4201"},"effectiveDateTime":"2025-10-01T07:00:00+00:00","issued":"2025-10-01T07:30:00+00:00","valueQuantity":{"value":0.9,"unit":"mg/dL","system":"http://unitsofmeasure.org","code":"mg/dL"}},"request":{"method":"PUT","url":"Observation/12a91e4f-1520-44d1-9b39-6f78bed89ac5"}},{"fullUrl":"https://madie.cms.gov/Observation/9c0e494c-4128-44c1-8c5f-5652751699e1","resource":{"resourceType":"Observation","id":"9c0e494c-4128-44c1-8c5f-5652751699e1","meta":{"profile":["http://hl7.org/fhir/us/qicore/StructureDefinition/qicore-observation"]},"status":"final","category":[{"coding":[{"system":"http://terminology.hl7.org/CodeSystem/observation-category","code":"laboratory","display":"Laboratory"}]}],"code":{"coding":[{"system":"http://loinc.org","version":"2.72","code":"2160-0","display":"Creatinine [Mass/volume] in Serum or Plasma","userSelected":true}]},"subject":{"reference":"Patient/e4178f9a-886d-45b8-b5a4-7ec61f7d4201"},"effectiveDateTime":"2025-10-01T07:35:00+00:00","issued":"2025-10-01T08:05:00+00:00","valueQuantity":{"value":0.9,"unit":"mg/dL","system":"http://unitsofmeasure.org","code":"mg/dL"}},"request":{"method":"PUT","url":"Observation/9c0e494c-4128-44c1-8c5f-5652751699e1"}},{"fullUrl":"https://madie.cms.gov/Coverage/1c00a095-f777-4acf-a8f8-ea1913b6bc5c","resource":{"resourceType":"Coverage","id":"1c00a095-f777-4acf-a8f8-ea1913b6bc5c","meta":{"profile":["http://hl7.org/fhir/us/qicore/StructureDefinition/qicore-coverage"]},"status":"active","type":{"coding":[{"system":"https://nahdo.org/sopt","version":"9.2","code":"211","display":"Medicaid HMO"}]},"beneficiary":{"reference":"Patient/e4178f9a-886d-45b8-b5a4-7ec61f7d4201"},"period":{"start":"2023-12-01T00:00:00+00:00"},"payor":[{"reference":"Organization/3e899f33-84eb-4634-a770-a5a0bd7a80e7"}]},"request":{"method":"PUT","url":"Coverage/1c00a095-f777-4acf-a8f8-ea1913b6bc5c"}},{"fullUrl":"https://madie.cms.gov/Organization/37fe1bd3-5909-407e-a977-e80b7115b62f","resource":{"resourceType":"Organization","id":"3e899f33-84eb-4634-a770-a5a0bd7a80e7","meta":{"profile":["http://hl7.org/fhir/us/qicore/StructureDefinition/qicore-organization"]},"identifier":[{"use":"temp","system":"urn:oid:2.16.840.1.113883.4.4","value":"21-3259825"}],"active":true,"type":[{"coding":[{"system":"http://terminology.hl7.org/CodeSystem/organization-type","code":"pay","display":"Payer"}]}],"name":"Blue Cross Blue Shield of Texas","telecom":[{"system":"phone","value":"(+1) 972-766-6900"}],"address":[{"use":"billing","type":"postal","line":["P.O. Box 660044"],"city":"Dallas","state":"TX","postalCode":"75266-0044","country":"USA"}]},"request":{"method":"PUT","url":"Organization/3e899f33-84eb-4634-a770-a5a0bd7a80e7"}},{"fullUrl":"https://madie.cms.gov/MeasureReport/bf7e689b-c1b8-4dcb-95ec-7ab9b1719974","resource":{"resourceType":"MeasureReport","id":"bf7e689b-c1b8-4dcb-95ec-7ab9b1719974","meta":{"profile":["http://hl7.org/fhir/us/cqfmeasures/StructureDefinition/test-case-cqfm"]},"contained":[{"resourceType":"Parameters","id":"2b95ffb8-8657-4fc8-a85e-507671d53d26-parameters","parameter":[{"name":"subject","valueString":"e4178f9a-886d-45b8-b5a4-7ec61f7d4201"}]}],"extension":[{"url":"http://hl7.org/fhir/us/cqfmeasures/StructureDefinition/cqfm-inputParameters","valueReference":{"reference":"#2b95ffb8-8657-4fc8-a85e-507671d53d26-parameters"}},{"url":"http://hl7.org/fhir/us/cqfmeasures/StructureDefinition/cqfm-testCaseDescription","valueMarkdown":"IP Enc #2 w/creat after 48 hrs: 1.82. This is double of earlier creat .91. Meets Numerator for second Encounter"}],"modifierExtension":[{"url":"http://hl7.org/fhir/us/cqfmeasures/StructureDefinition/cqfm-isTestCase","valueBoolean":true}],"status":"complete","type":"individual","measure":"https://madie.cms.gov/Measure/CMS832HHAKIFHIR","period":{"start":"2025-01-01","end":"2025-12-31"},"group":[{"population":[{"code":{"coding":[{"system":"http://terminology.hl7.org/CodeSystem/measure-population","code":"initial-population","display":"Initial Population"}]},"count":2},{"code":{"coding":[{"system":"http://terminology.hl7.org/CodeSystem/measure-population","code":"denominator","display":"Denominator"}]},"count":2},{"code":{"coding":[{"system":"http://terminology.hl7.org/CodeSystem/measure-population","code":"denominator-exclusion","display":"Denominator Exclusion"}]},"count":0},{"code":{"coding":[{"system":"http://terminology.hl7.org/CodeSystem/measure-population","code":"numerator","display":"Numerator"}]},"count":1}]}]},"request":{"method":"PUT","url":"MeasureReport/bf7e689b-c1b8-4dcb-95ec-7ab9b1719974"}}]}