{"resourceType":"Bundle","id":"tests-7f657b60-128b-4453-b085-73e8b21a48cc-bundle","type":"transaction","entry":[{"fullUrl":"https://madie.cms.gov/Patient/7f657b60-128b-4453-b085-73e8b21a48cc","resource":{"resourceType":"Patient","id":"7f657b60-128b-4453-b085-73e8b21a48cc","meta":{"profile":["http://hl7.org/fhir/us/qicore/StructureDefinition/qicore-patient"]},"extension":[{"url":"http://hl7.org/fhir/us/core/StructureDefinition/us-core-race","extension":[{"url":"ombCategory","valueCoding":{"system":"urn:oid:2.16.840.1.113883.6.238","code":"2028-9","display":"Asian"}},{"url":"text","valueString":"Asian"}]},{"url":"http://hl7.org/fhir/us/core/StructureDefinition/us-core-ethnicity","extension":[{"url":"ombCategory","valueCoding":{"system":"urn:oid:2.16.840.1.113883.6.238","code":"2135-2","display":"Hispanic or Latino"}},{"url":"text","valueString":"Hispanic or Latino"}]}],"identifier":[{"system":"http://hospital.smarthealthit.org","value":"999999995"}],"name":[{"family":"Bertha","given":["Betty"]}],"gender":"female","birthDate":"2006-01-01"},"request":{"method":"PUT","url":"Patient/7f657b60-128b-4453-b085-73e8b21a48cc"}},{"fullUrl":"https://madie.cms.gov/Procedure/Procedure-34","resource":{"resourceType":"Procedure","id":"67d2df9f-8dbf-46b0-ba68-a8a33da1e65c","meta":{"profile":["http://hl7.org/fhir/us/qicore/StructureDefinition/qicore-procedure"]},"extension":[{"url":"http://hl7.org/fhir/us/qicore/StructureDefinition/qicore-recorded","valueDateTime":"2023-11-01T00:00:00.000Z"}],"status":"completed","code":{"coding":[{"system":"http://www.cms.gov/Medicare/Coding/ICD10","code":"0SR9019","display":"Replacement of Right Hip Joint with Metal Synthetic Substitute, Cemented, Open Approach"}]},"subject":{"reference":"Patient/7f657b60-128b-4453-b085-73e8b21a48cc"},"performedPeriod":{"start":"2023-11-01T00:00:00.000Z","end":"2023-11-01T01:00:00.000Z"}},"request":{"method":"PUT","url":"Procedure/67d2df9f-8dbf-46b0-ba68-a8a33da1e65c"}},{"fullUrl":"https://madie.cms.gov/Encounter/Encounter-34","resource":{"resourceType":"Encounter","id":"0b49f61c-cca0-4574-8c9d-c76c69f1c033","meta":{"profile":["http://hl7.org/fhir/us/qicore/StructureDefinition/qicore-encounter"]},"status":"finished","class":{"system":"http://terminology.hl7.org/CodeSystem/v3-ActCode","code":"AMB","display":"ambulatory"},"type":[{"coding":[{"system":"http://snomed.info/sct","code":"281036007","display":"Follow-up consultation (procedure)"}]}],"subject":{"reference":"Patient/7f657b60-128b-4453-b085-73e8b21a48cc"},"period":{"start":"2024-11-01T00:00:00.000Z","end":"2024-11-01T01:15:00.000Z"}},"request":{"method":"PUT","url":"Encounter/0b49f61c-cca0-4574-8c9d-c76c69f1c033"}},{"fullUrl":"https://madie.cms.gov/Observation/Observation-34.1-1","resource":{"resourceType":"Observation","id":"6086e68c-d492-4bd9-96bd-8088e060bad3","meta":{"profile":["http://hl7.org/fhir/us/qicore/StructureDefinition/qicore-observation"]},"status":"final","category":[{"coding":[{"system":"http://terminology.hl7.org/CodeSystem/observation-category","code":"survey"}]}],"code":{"coding":[{"system":"http://loinc.org","code":"72093-8","display":"Quality of life score [HOOS]"}]},"subject":{"reference":"Patient/7f657b60-128b-4453-b085-73e8b21a48cc"},"effectivePeriod":{"start":"2023-08-02T00:00:00.000Z","end":"2023-08-02T01:00:00.000Z"},"valueInteger":60},"request":{"method":"PUT","url":"Observation/6086e68c-d492-4bd9-96bd-8088e060bad3"}},{"fullUrl":"https://madie.cms.gov/Observation/Observation-34.1-2","resource":{"resourceType":"Observation","id":"b900396f-1cc4-4b06-97f4-8e7777c28658","meta":{"profile":["http://hl7.org/fhir/us/qicore/StructureDefinition/qicore-observation"]},"status":"final","category":[{"coding":[{"system":"http://terminology.hl7.org/CodeSystem/observation-category","code":"survey"}]}],"code":{"coding":[{"system":"http://loinc.org","code":"72094-6","display":"Sport-recreation score [HOOS]"}]},"subject":{"reference":"Patient/7f657b60-128b-4453-b085-73e8b21a48cc"},"effectivePeriod":{"start":"2023-08-02T00:00:00.000Z","end":"2023-08-02T01:00:00.000Z"},"valueInteger":60},"request":{"method":"PUT","url":"Observation/b900396f-1cc4-4b06-97f4-8e7777c28658"}},{"fullUrl":"https://madie.cms.gov/Observation/Observation-34.1-3","resource":{"resourceType":"Observation","id":"22e42892-8f68-429c-b44a-c3030e07cbe4","meta":{"profile":["http://hl7.org/fhir/us/qicore/StructureDefinition/qicore-observation"]},"status":"final","category":[{"coding":[{"system":"http://terminology.hl7.org/CodeSystem/observation-category","code":"survey"}]}],"code":{"coding":[{"system":"http://loinc.org","code":"72095-3","display":"Activities of daily living score [HOOS]"}]},"subject":{"reference":"Patient/7f657b60-128b-4453-b085-73e8b21a48cc"},"effectivePeriod":{"start":"2023-08-02T00:00:00.000Z","end":"2023-08-02T01:00:00.000Z"},"valueInteger":60},"request":{"method":"PUT","url":"Observation/22e42892-8f68-429c-b44a-c3030e07cbe4"}},{"fullUrl":"https://madie.cms.gov/Observation/Observation-34.1-4","resource":{"resourceType":"Observation","id":"8d29ad43-9516-4226-ab5a-136cb5d3e4c0","meta":{"profile":["http://hl7.org/fhir/us/qicore/StructureDefinition/qicore-observation"]},"status":"final","category":[{"coding":[{"system":"http://terminology.hl7.org/CodeSystem/observation-category","code":"survey"}]}],"code":{"coding":[{"system":"http://loinc.org","code":"72096-1","display":"Symptoms score [HOOS]"}]},"subject":{"reference":"Patient/7f657b60-128b-4453-b085-73e8b21a48cc"},"effectivePeriod":{"start":"2023-08-02T00:00:00.000Z","end":"2023-08-02T01:00:00.000Z"},"valueInteger":60},"request":{"method":"PUT","url":"Observation/8d29ad43-9516-4226-ab5a-136cb5d3e4c0"}},{"fullUrl":"https://madie.cms.gov/Observation/Observation-34.1-5","resource":{"resourceType":"Observation","id":"8b6244df-a3cf-43da-ad0e-02e3d78cce81","meta":{"profile":["http://hl7.org/fhir/us/qicore/StructureDefinition/qicore-observation"]},"status":"final","category":[{"coding":[{"system":"http://terminology.hl7.org/CodeSystem/observation-category","code":"survey"}]}],"code":{"coding":[{"system":"http://loinc.org","code":"72097-9","display":"Pain score [HOOS]"}]},"subject":{"reference":"Patient/7f657b60-128b-4453-b085-73e8b21a48cc"},"effectivePeriod":{"start":"2023-08-02T00:00:00.000Z","end":"2023-08-02T01:00:00.000Z"},"valueInteger":60},"request":{"method":"PUT","url":"Observation/8b6244df-a3cf-43da-ad0e-02e3d78cce81"}},{"fullUrl":"https://madie.cms.gov/Observation/Observation-34.2-1","resource":{"resourceType":"Observation","id":"c1960181-7162-46b8-859e-ccb3b106678d","meta":{"profile":["http://hl7.org/fhir/us/qicore/StructureDefinition/qicore-observation"]},"status":"final","category":[{"coding":[{"system":"http://terminology.hl7.org/CodeSystem/observation-category","code":"survey"}]}],"code":{"coding":[{"system":"http://loinc.org","code":"72093-8","display":"Quality of life score [HOOS]"}]},"subject":{"reference":"Patient/7f657b60-128b-4453-b085-73e8b21a48cc"},"effectivePeriod":{"start":"2024-12-30T00:00:00.000Z","end":"2024-12-30T01:00:00.000Z"},"valueInteger":60},"request":{"method":"PUT","url":"Observation/c1960181-7162-46b8-859e-ccb3b106678d"}},{"fullUrl":"https://madie.cms.gov/Observation/Observation-34.2-2","resource":{"resourceType":"Observation","id":"e91850bb-e307-4695-9d8e-af7536ad84fe","meta":{"profile":["http://hl7.org/fhir/us/qicore/StructureDefinition/qicore-observation"]},"status":"final","category":[{"coding":[{"system":"http://terminology.hl7.org/CodeSystem/observation-category","code":"survey"}]}],"code":{"coding":[{"system":"http://loinc.org","code":"72094-6","display":"Sport-recreation score [HOOS]"}]},"subject":{"reference":"Patient/7f657b60-128b-4453-b085-73e8b21a48cc"},"effectivePeriod":{"start":"2024-12-30T00:00:00.000Z","end":"2024-12-30T01:00:00.000Z"},"valueInteger":60},"request":{"method":"PUT","url":"Observation/e91850bb-e307-4695-9d8e-af7536ad84fe"}},{"fullUrl":"https://madie.cms.gov/Observation/Observation-34.2-3","resource":{"resourceType":"Observation","id":"f32ce2c6-c7b9-4ade-90af-5960e9ae9771","meta":{"profile":["http://hl7.org/fhir/us/qicore/StructureDefinition/qicore-observation"]},"status":"final","category":[{"coding":[{"system":"http://terminology.hl7.org/CodeSystem/observation-category","code":"survey"}]}],"code":{"coding":[{"system":"http://loinc.org","code":"72095-3","display":"Activities of daily living score [HOOS]"}]},"subject":{"reference":"Patient/7f657b60-128b-4453-b085-73e8b21a48cc"},"effectivePeriod":{"start":"2024-12-30T00:00:00.000Z","end":"2024-12-30T01:00:00.000Z"},"valueInteger":60},"request":{"method":"PUT","url":"Observation/f32ce2c6-c7b9-4ade-90af-5960e9ae9771"}},{"fullUrl":"https://madie.cms.gov/Observation/Observation-34.2-4","resource":{"resourceType":"Observation","id":"432521ba-f7d8-499f-9f75-1219e984f0a0","meta":{"profile":["http://hl7.org/fhir/us/qicore/StructureDefinition/qicore-observation"]},"status":"final","category":[{"coding":[{"system":"http://terminology.hl7.org/CodeSystem/observation-category","code":"survey"}]}],"code":{"coding":[{"system":"http://loinc.org","code":"72096-1","display":"Symptoms score [HOOS]"}]},"subject":{"reference":"Patient/7f657b60-128b-4453-b085-73e8b21a48cc"},"effectivePeriod":{"start":"2024-12-30T00:00:00.000Z","end":"2024-12-30T01:00:00.000Z"},"valueInteger":60},"request":{"method":"PUT","url":"Observation/432521ba-f7d8-499f-9f75-1219e984f0a0"}},{"fullUrl":"https://madie.cms.gov/Observation/Observation-34.2-5","resource":{"resourceType":"Observation","id":"3aee95db-2849-41fd-8d71-af254dc9e251","meta":{"profile":["http://hl7.org/fhir/us/qicore/StructureDefinition/qicore-observation"]},"status":"final","category":[{"coding":[{"system":"http://terminology.hl7.org/CodeSystem/observation-category","code":"survey"}]}],"code":{"coding":[{"system":"http://loinc.org","code":"72097-9","display":"Pain score [HOOS]"}]},"subject":{"reference":"Patient/7f657b60-128b-4453-b085-73e8b21a48cc"},"effectivePeriod":{"start":"2024-12-30T00:00:00.000Z","end":"2024-12-30T01:00:00.000Z"},"valueInteger":60},"request":{"method":"PUT","url":"Observation/3aee95db-2849-41fd-8d71-af254dc9e251"}},{"fullUrl":"https://madie.cms.gov/MeasureReport/0b9913ba-8752-41ab-8b1e-6675a3844926","resource":{"resourceType":"MeasureReport","id":"0b9913ba-8752-41ab-8b1e-6675a3844926","meta":{"profile":["http://hl7.org/fhir/us/cqfmeasures/StructureDefinition/test-case-cqfm"]},"contained":[{"resourceType":"Parameters","id":"1a0a3836-fc61-4a6b-b9a0-2484babc9869-parameters","parameter":[{"name":"subject","valueString":"7f657b60-128b-4453-b085-73e8b21a48cc"}]}],"extension":[{"url":"http://hl7.org/fhir/us/cqfmeasures/StructureDefinition/cqfm-inputParameters","valueReference":{"reference":"#1a0a3836-fc61-4a6b-b9a0-2484babc9869-parameters"}},{"url":"http://hl7.org/fhir/us/cqfmeasures/StructureDefinition/cqfm-testCaseDescription","valueMarkdown":"Patient w/ a THA Procedure 11/1, Initial Hip Assessment 91 days before THA Procedure(8/2), and FollowUp Hip Assessment HOOS 425 days after THA Procedure (12/30)\""}],"modifierExtension":[{"url":"http://hl7.org/fhir/us/cqfmeasures/StructureDefinition/cqfm-isTestCase","valueBoolean":true}],"status":"complete","type":"individual","measure":"https://madie.cms.gov/Measure/FunctionalStatusAssessmentforTotalHipReplacementFHIR","period":{"start":"2025-01-01","end":"2025-12-31"},"group":[{"population":[{"code":{"coding":[{"system":"http://terminology.hl7.org/CodeSystem/measure-population","code":"initial-population","display":"Initial Population"}]},"count":1},{"code":{"coding":[{"system":"http://terminology.hl7.org/CodeSystem/measure-population","code":"denominator","display":"Denominator"}]},"count":1},{"code":{"coding":[{"system":"http://terminology.hl7.org/CodeSystem/measure-population","code":"denominator-exclusion","display":"Denominator Exclusion"}]},"count":0},{"code":{"coding":[{"system":"http://terminology.hl7.org/CodeSystem/measure-population","code":"numerator","display":"Numerator"}]},"count":0}]}]},"request":{"method":"PUT","url":"MeasureReport/0b9913ba-8752-41ab-8b1e-6675a3844926"}}]}