{"resourceType":"Bundle","id":"tests-49640f81-b5ff-408a-82eb-436cf41a9d1d-bundle","type":"transaction","entry":[{"fullUrl":"https://madie.cms.gov/Patient/49640f81-b5ff-408a-82eb-436cf41a9d1d","resource":{"resourceType":"Patient","id":"49640f81-b5ff-408a-82eb-436cf41a9d1d","meta":{"profile":["http://hl7.org/fhir/us/qicore/StructureDefinition/qicore-patient"]},"extension":[{"url":"http://hl7.org/fhir/us/core/StructureDefinition/us-core-race","extension":[{"url":"ombCategory","valueCoding":{"system":"urn:oid:2.16.840.1.113883.6.238","code":"2028-9","display":"Asian"}},{"url":"text","valueString":"Asian"}]},{"url":"http://hl7.org/fhir/us/core/StructureDefinition/us-core-ethnicity","extension":[{"url":"ombCategory","valueCoding":{"system":"urn:oid:2.16.840.1.113883.6.238","code":"2135-2","display":"Hispanic or Latino"}},{"url":"text","valueString":"Hispanic or Latino"}]}],"identifier":[{"system":"http://hospital.smarthealthit.org","value":"999999995"}],"name":[{"family":"Bertha","given":["Betty"]}],"gender":"female","birthDate":"2006-01-01"},"request":{"method":"PUT","url":"Patient/49640f81-b5ff-408a-82eb-436cf41a9d1d"}},{"fullUrl":"https://madie.cms.gov/Procedure/Procedure-32","resource":{"resourceType":"Procedure","id":"e05c79fa-ee47-40dc-9c86-418b0350d827","meta":{"profile":["http://hl7.org/fhir/us/qicore/StructureDefinition/qicore-procedure"]},"extension":[{"url":"http://hl7.org/fhir/us/qicore/StructureDefinition/qicore-recorded","valueDateTime":"2023-11-01T00:00:00.000Z"}],"status":"completed","code":{"coding":[{"system":"http://www.cms.gov/Medicare/Coding/ICD10","code":"0SR9019","display":"Replacement of Right Hip Joint with Metal Synthetic Substitute, Cemented, Open Approach"}]},"subject":{"reference":"Patient/49640f81-b5ff-408a-82eb-436cf41a9d1d"},"performedPeriod":{"start":"2023-11-01T00:00:00.000Z","end":"2023-11-01T01:00:00.000Z"}},"request":{"method":"PUT","url":"Procedure/e05c79fa-ee47-40dc-9c86-418b0350d827"}},{"fullUrl":"https://madie.cms.gov/Encounter/Encounter-32","resource":{"resourceType":"Encounter","id":"0146c0ef-d16c-4fd1-8327-56788d8d227f","meta":{"profile":["http://hl7.org/fhir/us/qicore/StructureDefinition/qicore-encounter"]},"status":"finished","class":{"system":"http://terminology.hl7.org/CodeSystem/v3-ActCode","code":"AMB","display":"ambulatory"},"type":[{"coding":[{"system":"http://snomed.info/sct","code":"281036007","display":"Follow-up consultation (procedure)"}]}],"subject":{"reference":"Patient/49640f81-b5ff-408a-82eb-436cf41a9d1d"},"period":{"start":"2024-11-01T00:00:00.000Z","end":"2024-11-01T01:15:00.000Z"}},"request":{"method":"PUT","url":"Encounter/0146c0ef-d16c-4fd1-8327-56788d8d227f"}},{"fullUrl":"https://madie.cms.gov/Observation/Observation-32.1-1","resource":{"resourceType":"Observation","id":"0f26f919-8b15-462e-bf76-cc8dcc4230eb","meta":{"profile":["http://hl7.org/fhir/us/qicore/StructureDefinition/qicore-observation"]},"status":"final","category":[{"coding":[{"system":"http://terminology.hl7.org/CodeSystem/observation-category","code":"survey"}]}],"code":{"coding":[{"system":"http://loinc.org","code":"72093-8","display":"Quality of life score [HOOS]"}]},"subject":{"reference":"Patient/49640f81-b5ff-408a-82eb-436cf41a9d1d"},"effectivePeriod":{"start":"2023-11-02T00:00:00.000Z","end":"2023-11-02T01:00:00.000Z"},"valueInteger":60},"request":{"method":"PUT","url":"Observation/0f26f919-8b15-462e-bf76-cc8dcc4230eb"}},{"fullUrl":"https://madie.cms.gov/Observation/Observation-32.1-2","resource":{"resourceType":"Observation","id":"3b96e6ca-178e-48c4-85f2-eb1065ac105c","meta":{"profile":["http://hl7.org/fhir/us/qicore/StructureDefinition/qicore-observation"]},"status":"final","category":[{"coding":[{"system":"http://terminology.hl7.org/CodeSystem/observation-category","code":"survey"}]}],"code":{"coding":[{"system":"http://loinc.org","code":"72094-6","display":"Sport-recreation score [HOOS]"}]},"subject":{"reference":"Patient/49640f81-b5ff-408a-82eb-436cf41a9d1d"},"effectivePeriod":{"start":"2023-11-02T00:00:00.000Z","end":"2023-11-02T01:00:00.000Z"},"valueInteger":60},"request":{"method":"PUT","url":"Observation/3b96e6ca-178e-48c4-85f2-eb1065ac105c"}},{"fullUrl":"https://madie.cms.gov/Observation/Observation-32.1-3","resource":{"resourceType":"Observation","id":"ff2d2740-ba4b-4c64-952c-93df19bbc378","meta":{"profile":["http://hl7.org/fhir/us/qicore/StructureDefinition/qicore-observation"]},"status":"final","category":[{"coding":[{"system":"http://terminology.hl7.org/CodeSystem/observation-category","code":"survey"}]}],"code":{"coding":[{"system":"http://loinc.org","code":"72095-3","display":"Activities of daily living score [HOOS]"}]},"subject":{"reference":"Patient/49640f81-b5ff-408a-82eb-436cf41a9d1d"},"effectivePeriod":{"start":"2023-11-02T00:00:00.000Z","end":"2023-11-02T01:00:00.000Z"},"valueInteger":60},"request":{"method":"PUT","url":"Observation/ff2d2740-ba4b-4c64-952c-93df19bbc378"}},{"fullUrl":"https://madie.cms.gov/Observation/Observation-32.1-4","resource":{"resourceType":"Observation","id":"e64d2e60-df3e-4680-937a-86d8d8e5addb","meta":{"profile":["http://hl7.org/fhir/us/qicore/StructureDefinition/qicore-observation"]},"status":"final","category":[{"coding":[{"system":"http://terminology.hl7.org/CodeSystem/observation-category","code":"survey"}]}],"code":{"coding":[{"system":"http://loinc.org","code":"72096-1","display":"Symptoms score [HOOS]"}]},"subject":{"reference":"Patient/49640f81-b5ff-408a-82eb-436cf41a9d1d"},"effectivePeriod":{"start":"2023-11-02T00:00:00.000Z","end":"2023-11-02T01:00:00.000Z"},"valueInteger":60},"request":{"method":"PUT","url":"Observation/e64d2e60-df3e-4680-937a-86d8d8e5addb"}},{"fullUrl":"https://madie.cms.gov/Observation/Observation-32.1-5","resource":{"resourceType":"Observation","id":"cab33c6c-a4f4-428d-b928-09729465d1fc","meta":{"profile":["http://hl7.org/fhir/us/qicore/StructureDefinition/qicore-observation"]},"status":"final","category":[{"coding":[{"system":"http://terminology.hl7.org/CodeSystem/observation-category","code":"survey"}]}],"code":{"coding":[{"system":"http://loinc.org","code":"72097-9","display":"Pain score [HOOS]"}]},"subject":{"reference":"Patient/49640f81-b5ff-408a-82eb-436cf41a9d1d"},"effectivePeriod":{"start":"2023-11-02T00:00:00.000Z","end":"2023-11-02T01:00:00.000Z"},"valueInteger":60},"request":{"method":"PUT","url":"Observation/cab33c6c-a4f4-428d-b928-09729465d1fc"}},{"fullUrl":"https://madie.cms.gov/Observation/Observation-32.2-1","resource":{"resourceType":"Observation","id":"e7bc4838-05f4-4e8c-bcbb-29fb497fd42f","meta":{"profile":["http://hl7.org/fhir/us/qicore/StructureDefinition/qicore-observation"]},"status":"final","category":[{"coding":[{"system":"http://terminology.hl7.org/CodeSystem/observation-category","code":"survey"}]}],"code":{"coding":[{"system":"http://loinc.org","code":"72093-8","display":"Quality of life score [HOOS]"}]},"subject":{"reference":"Patient/49640f81-b5ff-408a-82eb-436cf41a9d1d"},"effectivePeriod":{"start":"2023-11-02T00:00:00.000Z","end":"2023-11-02T01:00:00.000Z"},"valueInteger":60},"request":{"method":"PUT","url":"Observation/e7bc4838-05f4-4e8c-bcbb-29fb497fd42f"}},{"fullUrl":"https://madie.cms.gov/Observation/Observation-32.2-2","resource":{"resourceType":"Observation","id":"0370acc8-00b6-4e3b-ac22-bff2ad90ece2","meta":{"profile":["http://hl7.org/fhir/us/qicore/StructureDefinition/qicore-observation"]},"status":"final","category":[{"coding":[{"system":"http://terminology.hl7.org/CodeSystem/observation-category","code":"survey"}]}],"code":{"coding":[{"system":"http://loinc.org","code":"72094-6","display":"Sport-recreation score [HOOS]"}]},"subject":{"reference":"Patient/49640f81-b5ff-408a-82eb-436cf41a9d1d"},"effectivePeriod":{"start":"2023-11-02T00:00:00.000Z","end":"2023-11-02T01:00:00.000Z"},"valueInteger":60},"request":{"method":"PUT","url":"Observation/0370acc8-00b6-4e3b-ac22-bff2ad90ece2"}},{"fullUrl":"https://madie.cms.gov/Observation/Observation-32.2-3","resource":{"resourceType":"Observation","id":"db146514-f70d-4af7-9428-44de37a6d70e","meta":{"profile":["http://hl7.org/fhir/us/qicore/StructureDefinition/qicore-observation"]},"status":"final","category":[{"coding":[{"system":"http://terminology.hl7.org/CodeSystem/observation-category","code":"survey"}]}],"code":{"coding":[{"system":"http://loinc.org","code":"72095-3","display":"Activities of daily living score [HOOS]"}]},"subject":{"reference":"Patient/49640f81-b5ff-408a-82eb-436cf41a9d1d"},"effectivePeriod":{"start":"2023-11-02T00:00:00.000Z","end":"2023-11-02T01:00:00.000Z"},"valueInteger":60},"request":{"method":"PUT","url":"Observation/db146514-f70d-4af7-9428-44de37a6d70e"}},{"fullUrl":"https://madie.cms.gov/Observation/Observation-32.2-4","resource":{"resourceType":"Observation","id":"73cbb3d0-8ed1-4ae6-bec2-d13442547d06","meta":{"profile":["http://hl7.org/fhir/us/qicore/StructureDefinition/qicore-observation"]},"status":"final","category":[{"coding":[{"system":"http://terminology.hl7.org/CodeSystem/observation-category","code":"survey"}]}],"code":{"coding":[{"system":"http://loinc.org","code":"72096-1","display":"Symptoms score [HOOS]"}]},"subject":{"reference":"Patient/49640f81-b5ff-408a-82eb-436cf41a9d1d"},"effectivePeriod":{"start":"2023-11-02T00:00:00.000Z","end":"2023-11-02T01:00:00.000Z"},"valueInteger":60},"request":{"method":"PUT","url":"Observation/73cbb3d0-8ed1-4ae6-bec2-d13442547d06"}},{"fullUrl":"https://madie.cms.gov/Observation/Observation-32.2-5","resource":{"resourceType":"Observation","id":"8354fea6-fa3e-4dc5-9a85-c2e8b69fe859","meta":{"profile":["http://hl7.org/fhir/us/qicore/StructureDefinition/qicore-observation"]},"status":"final","category":[{"coding":[{"system":"http://terminology.hl7.org/CodeSystem/observation-category","code":"survey"}]}],"code":{"coding":[{"system":"http://loinc.org","code":"72097-9","display":"Pain score [HOOS]"}]},"subject":{"reference":"Patient/49640f81-b5ff-408a-82eb-436cf41a9d1d"},"effectivePeriod":{"start":"2023-11-02T00:00:00.000Z","end":"2023-11-02T01:00:00.000Z"},"valueInteger":60},"request":{"method":"PUT","url":"Observation/8354fea6-fa3e-4dc5-9a85-c2e8b69fe859"}},{"fullUrl":"https://madie.cms.gov/MeasureReport/6b277e16-c6af-4236-b303-abafc187f6c5","resource":{"resourceType":"MeasureReport","id":"6b277e16-c6af-4236-b303-abafc187f6c5","meta":{"profile":["http://hl7.org/fhir/us/cqfmeasures/StructureDefinition/test-case-cqfm"]},"contained":[{"resourceType":"Parameters","id":"b052f2db-9ff7-4883-a51c-4c8756161dcd-parameters","parameter":[{"name":"subject","valueString":"49640f81-b5ff-408a-82eb-436cf41a9d1d"}]}],"extension":[{"url":"http://hl7.org/fhir/us/cqfmeasures/StructureDefinition/cqfm-inputParameters","valueReference":{"reference":"#b052f2db-9ff7-4883-a51c-4c8756161dcd-parameters"}},{"url":"http://hl7.org/fhir/us/cqfmeasures/StructureDefinition/cqfm-testCaseDescription","valueMarkdown":"Patient w/ a THA Procedure 11/1, Initial Hip Assessment HOOS day after THA Procedure(11/2), and FollowUp Hip Assessment HOOS 300 days after THA Procedure (8/27)"}],"modifierExtension":[{"url":"http://hl7.org/fhir/us/cqfmeasures/StructureDefinition/cqfm-isTestCase","valueBoolean":true}],"status":"complete","type":"individual","measure":"https://madie.cms.gov/Measure/FunctionalStatusAssessmentforTotalHipReplacementFHIR","period":{"start":"2025-01-01","end":"2025-12-31"},"group":[{"population":[{"code":{"coding":[{"system":"http://terminology.hl7.org/CodeSystem/measure-population","code":"initial-population","display":"Initial Population"}]},"count":1},{"code":{"coding":[{"system":"http://terminology.hl7.org/CodeSystem/measure-population","code":"denominator","display":"Denominator"}]},"count":1},{"code":{"coding":[{"system":"http://terminology.hl7.org/CodeSystem/measure-population","code":"denominator-exclusion","display":"Denominator Exclusion"}]},"count":0},{"code":{"coding":[{"system":"http://terminology.hl7.org/CodeSystem/measure-population","code":"numerator","display":"Numerator"}]},"count":0}]}]},"request":{"method":"PUT","url":"MeasureReport/6b277e16-c6af-4236-b303-abafc187f6c5"}}]}