{"resourceType":"Bundle","id":"tests-50c6997f-0aab-4baa-af63-a2d05a2ad3ac-bundle","type":"transaction","entry":[{"fullUrl":"https://madie.cms.gov/Patient/50c6997f-0aab-4baa-af63-a2d05a2ad3ac","resource":{"resourceType":"Patient","id":"50c6997f-0aab-4baa-af63-a2d05a2ad3ac","meta":{"profile":["http://hl7.org/fhir/us/qicore/StructureDefinition/qicore-patient"]},"extension":[{"url":"http://hl7.org/fhir/us/core/StructureDefinition/us-core-race","extension":[{"url":"ombCategory","valueCoding":{"system":"urn:oid:2.16.840.1.113883.6.238","code":"2028-9","display":"Asian"}},{"url":"text","valueString":"Asian"}]},{"url":"http://hl7.org/fhir/us/core/StructureDefinition/us-core-ethnicity","extension":[{"url":"ombCategory","valueCoding":{"system":"urn:oid:2.16.840.1.113883.6.238","code":"2135-2","display":"Hispanic or Latino"}},{"url":"text","valueString":"Hispanic or Latino"}]}],"identifier":[{"system":"http://hospital.smarthealthit.org","value":"999999995"}],"name":[{"family":"Bertha","given":["Betty"]}],"gender":"female","birthDate":"2006-01-01"},"request":{"method":"PUT","url":"Patient/50c6997f-0aab-4baa-af63-a2d05a2ad3ac"}},{"fullUrl":"https://madie.cms.gov/Procedure/Procedure-33","resource":{"resourceType":"Procedure","id":"02efaef9-3270-4893-b742-ac9a8f14ec70","meta":{"profile":["http://hl7.org/fhir/us/qicore/StructureDefinition/qicore-procedure"]},"extension":[{"url":"http://hl7.org/fhir/us/qicore/StructureDefinition/qicore-recorded","valueDateTime":"2023-11-01T00:00:00.000Z"}],"status":"completed","code":{"coding":[{"system":"http://www.cms.gov/Medicare/Coding/ICD10","code":"0SR9019","display":"Replacement of Right Hip Joint with Metal Synthetic Substitute, Cemented, Open Approach"}]},"subject":{"reference":"Patient/50c6997f-0aab-4baa-af63-a2d05a2ad3ac"},"performedPeriod":{"start":"2023-11-01T00:00:00.000Z","end":"2023-11-01T01:00:00.000Z"}},"request":{"method":"PUT","url":"Procedure/02efaef9-3270-4893-b742-ac9a8f14ec70"}},{"fullUrl":"https://madie.cms.gov/Encounter/Encounter-33","resource":{"resourceType":"Encounter","id":"5cda98c5-246b-44c7-bc19-ac260fb53e94","meta":{"profile":["http://hl7.org/fhir/us/qicore/StructureDefinition/qicore-encounter"]},"status":"finished","class":{"system":"http://terminology.hl7.org/CodeSystem/v3-ActCode","code":"AMB","display":"ambulatory"},"type":[{"coding":[{"system":"http://snomed.info/sct","code":"281036007","display":"Follow-up consultation (procedure)"}]}],"subject":{"reference":"Patient/50c6997f-0aab-4baa-af63-a2d05a2ad3ac"},"period":{"start":"2024-11-01T00:00:00.000Z","end":"2024-11-01T01:15:00.000Z"}},"request":{"method":"PUT","url":"Encounter/5cda98c5-246b-44c7-bc19-ac260fb53e94"}},{"fullUrl":"https://madie.cms.gov/Observation/Observation-33.1-1","resource":{"resourceType":"Observation","id":"a8d70b76-f201-4c0f-b4d5-5721ff85ab81","meta":{"profile":["http://hl7.org/fhir/us/qicore/StructureDefinition/qicore-observation"]},"status":"final","category":[{"coding":[{"system":"http://terminology.hl7.org/CodeSystem/observation-category","code":"survey"}]}],"code":{"coding":[{"system":"http://loinc.org","code":"72093-8","display":"Quality of life score [HOOS]"}]},"subject":{"reference":"Patient/50c6997f-0aab-4baa-af63-a2d05a2ad3ac"},"effectivePeriod":{"start":"2023-08-03T00:00:00.000Z","end":"2023-08-03T01:00:00.000Z"},"valueInteger":60},"request":{"method":"PUT","url":"Observation/a8d70b76-f201-4c0f-b4d5-5721ff85ab81"}},{"fullUrl":"https://madie.cms.gov/Observation/Observation-33.1-2","resource":{"resourceType":"Observation","id":"0b8c2345-b164-4c89-84b1-df8aaa86e626","meta":{"profile":["http://hl7.org/fhir/us/qicore/StructureDefinition/qicore-observation"]},"status":"final","category":[{"coding":[{"system":"http://terminology.hl7.org/CodeSystem/observation-category","code":"survey"}]}],"code":{"coding":[{"system":"http://loinc.org","code":"72094-6","display":"Sport-recreation score [HOOS]"}]},"subject":{"reference":"Patient/50c6997f-0aab-4baa-af63-a2d05a2ad3ac"},"effectivePeriod":{"start":"2023-08-03T00:00:00.000Z","end":"2023-08-03T01:00:00.000Z"},"valueInteger":60},"request":{"method":"PUT","url":"Observation/0b8c2345-b164-4c89-84b1-df8aaa86e626"}},{"fullUrl":"https://madie.cms.gov/Observation/Observation-33.1-3","resource":{"resourceType":"Observation","id":"7fc7922c-b28a-4bc7-85d4-f4240f39261e","meta":{"profile":["http://hl7.org/fhir/us/qicore/StructureDefinition/qicore-observation"]},"status":"final","category":[{"coding":[{"system":"http://terminology.hl7.org/CodeSystem/observation-category","code":"survey"}]}],"code":{"coding":[{"system":"http://loinc.org","code":"72095-3","display":"Activities of daily living score [HOOS]"}]},"subject":{"reference":"Patient/50c6997f-0aab-4baa-af63-a2d05a2ad3ac"},"effectivePeriod":{"start":"2023-08-03T00:00:00.000Z","end":"2023-08-03T01:00:00.000Z"},"valueInteger":60},"request":{"method":"PUT","url":"Observation/7fc7922c-b28a-4bc7-85d4-f4240f39261e"}},{"fullUrl":"https://madie.cms.gov/Observation/Observation-33.1-4","resource":{"resourceType":"Observation","id":"4d029326-acbe-4b68-8708-8bdab43c5743","meta":{"profile":["http://hl7.org/fhir/us/qicore/StructureDefinition/qicore-observation"]},"status":"final","category":[{"coding":[{"system":"http://terminology.hl7.org/CodeSystem/observation-category","code":"survey"}]}],"code":{"coding":[{"system":"http://loinc.org","code":"72096-1","display":"Symptoms score [HOOS]"}]},"subject":{"reference":"Patient/50c6997f-0aab-4baa-af63-a2d05a2ad3ac"},"effectivePeriod":{"start":"2023-08-03T00:00:00.000Z","end":"2023-08-03T01:00:00.000Z"},"valueInteger":60},"request":{"method":"PUT","url":"Observation/4d029326-acbe-4b68-8708-8bdab43c5743"}},{"fullUrl":"https://madie.cms.gov/Observation/Observation-33.1-5","resource":{"resourceType":"Observation","id":"39499f40-0a12-45ba-8c1f-11fde91fa57a","meta":{"profile":["http://hl7.org/fhir/us/qicore/StructureDefinition/qicore-observation"]},"status":"final","category":[{"coding":[{"system":"http://terminology.hl7.org/CodeSystem/observation-category","code":"survey"}]}],"code":{"coding":[{"system":"http://loinc.org","code":"72097-9","display":"Pain score [HOOS]"}]},"subject":{"reference":"Patient/50c6997f-0aab-4baa-af63-a2d05a2ad3ac"},"effectivePeriod":{"start":"2023-08-03T00:00:00.000Z","end":"2023-08-03T01:00:00.000Z"},"valueInteger":60},"request":{"method":"PUT","url":"Observation/39499f40-0a12-45ba-8c1f-11fde91fa57a"}},{"fullUrl":"https://madie.cms.gov/Observation/Observation-33.2-1","resource":{"resourceType":"Observation","id":"b6db00e5-366f-416d-8d42-d7831f53ea14","meta":{"profile":["http://hl7.org/fhir/us/qicore/StructureDefinition/qicore-observation"]},"status":"final","category":[{"coding":[{"system":"http://terminology.hl7.org/CodeSystem/observation-category","code":"survey"}]}],"code":{"coding":[{"system":"http://loinc.org","code":"72093-8","display":"Quality of life score [HOOS]"}]},"subject":{"reference":"Patient/50c6997f-0aab-4baa-af63-a2d05a2ad3ac"},"effectivePeriod":{"start":"2024-12-30T00:00:00.000Z","end":"2024-12-30T01:00:00.000Z"},"valueInteger":60},"request":{"method":"PUT","url":"Observation/b6db00e5-366f-416d-8d42-d7831f53ea14"}},{"fullUrl":"https://madie.cms.gov/Observation/Observation-33.2-2","resource":{"resourceType":"Observation","id":"61600b4a-b30b-401a-932c-2696559b4ba8","meta":{"profile":["http://hl7.org/fhir/us/qicore/StructureDefinition/qicore-observation"]},"status":"final","category":[{"coding":[{"system":"http://terminology.hl7.org/CodeSystem/observation-category","code":"survey"}]}],"code":{"coding":[{"system":"http://loinc.org","code":"72094-6","display":"Sport-recreation score [HOOS]"}]},"subject":{"reference":"Patient/50c6997f-0aab-4baa-af63-a2d05a2ad3ac"},"effectivePeriod":{"start":"2024-12-30T00:00:00.000Z","end":"2024-12-30T01:00:00.000Z"},"valueInteger":60},"request":{"method":"PUT","url":"Observation/61600b4a-b30b-401a-932c-2696559b4ba8"}},{"fullUrl":"https://madie.cms.gov/Observation/Observation-33.2-3","resource":{"resourceType":"Observation","id":"f2477f98-cbc9-49fd-9031-543429db39af","meta":{"profile":["http://hl7.org/fhir/us/qicore/StructureDefinition/qicore-observation"]},"status":"final","category":[{"coding":[{"system":"http://terminology.hl7.org/CodeSystem/observation-category","code":"survey"}]}],"code":{"coding":[{"system":"http://loinc.org","code":"72095-3","display":"Activities of daily living score [HOOS]"}]},"subject":{"reference":"Patient/50c6997f-0aab-4baa-af63-a2d05a2ad3ac"},"effectivePeriod":{"start":"2024-12-30T00:00:00.000Z","end":"2024-12-30T01:00:00.000Z"},"valueInteger":60},"request":{"method":"PUT","url":"Observation/f2477f98-cbc9-49fd-9031-543429db39af"}},{"fullUrl":"https://madie.cms.gov/Observation/Observation-33.2-4","resource":{"resourceType":"Observation","id":"5547b42f-d78d-4db6-84f6-baed528b6dc2","meta":{"profile":["http://hl7.org/fhir/us/qicore/StructureDefinition/qicore-observation"]},"status":"final","category":[{"coding":[{"system":"http://terminology.hl7.org/CodeSystem/observation-category","code":"survey"}]}],"code":{"coding":[{"system":"http://loinc.org","code":"72096-1","display":"Symptoms score [HOOS]"}]},"subject":{"reference":"Patient/50c6997f-0aab-4baa-af63-a2d05a2ad3ac"},"effectivePeriod":{"start":"2024-12-30T00:00:00.000Z","end":"2024-12-30T01:00:00.000Z"},"valueInteger":60},"request":{"method":"PUT","url":"Observation/5547b42f-d78d-4db6-84f6-baed528b6dc2"}},{"fullUrl":"https://madie.cms.gov/Observation/Observation-33.2-5","resource":{"resourceType":"Observation","id":"ac8f6d67-6b66-4f07-8bb2-59260df6f26a","meta":{"profile":["http://hl7.org/fhir/us/qicore/StructureDefinition/qicore-observation"]},"status":"final","category":[{"coding":[{"system":"http://terminology.hl7.org/CodeSystem/observation-category","code":"survey"}]}],"code":{"coding":[{"system":"http://loinc.org","code":"72097-9","display":"Pain score [HOOS]"}]},"subject":{"reference":"Patient/50c6997f-0aab-4baa-af63-a2d05a2ad3ac"},"effectivePeriod":{"start":"2024-12-30T00:00:00.000Z","end":"2024-12-30T01:00:00.000Z"},"valueInteger":60},"request":{"method":"PUT","url":"Observation/ac8f6d67-6b66-4f07-8bb2-59260df6f26a"}},{"fullUrl":"https://madie.cms.gov/MeasureReport/12c3cceb-8269-496a-8b47-19c7eca0a1c6","resource":{"resourceType":"MeasureReport","id":"12c3cceb-8269-496a-8b47-19c7eca0a1c6","meta":{"profile":["http://hl7.org/fhir/us/cqfmeasures/StructureDefinition/test-case-cqfm"]},"contained":[{"resourceType":"Parameters","id":"83ccdcc8-1283-4e94-93bd-2d6820d5afaa-parameters","parameter":[{"name":"subject","valueString":"50c6997f-0aab-4baa-af63-a2d05a2ad3ac"}]}],"extension":[{"url":"http://hl7.org/fhir/us/cqfmeasures/StructureDefinition/cqfm-inputParameters","valueReference":{"reference":"#83ccdcc8-1283-4e94-93bd-2d6820d5afaa-parameters"}},{"url":"http://hl7.org/fhir/us/cqfmeasures/StructureDefinition/cqfm-testCaseDescription","valueMarkdown":"Patient w/ a THA Procedure 11/1, Initial Hip Assessment 90 days before THA Procedure(8/3), and FollowUp Hip Assessment HOOS 425 days after THA Procedure (12/30)"}],"modifierExtension":[{"url":"http://hl7.org/fhir/us/cqfmeasures/StructureDefinition/cqfm-isTestCase","valueBoolean":true}],"status":"complete","type":"individual","measure":"https://madie.cms.gov/Measure/FunctionalStatusAssessmentforTotalHipReplacementFHIR","period":{"start":"2025-01-01","end":"2025-12-31"},"group":[{"population":[{"code":{"coding":[{"system":"http://terminology.hl7.org/CodeSystem/measure-population","code":"initial-population","display":"Initial Population"}]},"count":1},{"code":{"coding":[{"system":"http://terminology.hl7.org/CodeSystem/measure-population","code":"denominator","display":"Denominator"}]},"count":1},{"code":{"coding":[{"system":"http://terminology.hl7.org/CodeSystem/measure-population","code":"denominator-exclusion","display":"Denominator Exclusion"}]},"count":0},{"code":{"coding":[{"system":"http://terminology.hl7.org/CodeSystem/measure-population","code":"numerator","display":"Numerator"}]},"count":1}]}]},"request":{"method":"PUT","url":"MeasureReport/12c3cceb-8269-496a-8b47-19c7eca0a1c6"}}]}