{"resourceType":"Bundle","id":"tests-ba296236-cee8-4ec1-aa6b-341477c99af2-bundle","type":"transaction","entry":[{"fullUrl":"https://madie.cms.gov/Patient/ba296236-cee8-4ec1-aa6b-341477c99af2","resource":{"resourceType":"Patient","id":"ba296236-cee8-4ec1-aa6b-341477c99af2","meta":{"profile":["http://hl7.org/fhir/us/qicore/StructureDefinition/qicore-patient"]},"extension":[{"url":"http://hl7.org/fhir/us/core/StructureDefinition/us-core-race","extension":[{"url":"ombCategory","valueCoding":{"system":"urn:oid:2.16.840.1.113883.6.238","code":"2028-9","display":"Asian"}},{"url":"text","valueString":"Asian"}]},{"url":"http://hl7.org/fhir/us/core/StructureDefinition/us-core-ethnicity","extension":[{"url":"ombCategory","valueCoding":{"system":"urn:oid:2.16.840.1.113883.6.238","code":"2135-2","display":"Hispanic or Latino"}},{"url":"text","valueString":"Hispanic or Latino"}]}],"identifier":[{"system":"http://hospital.smarthealthit.org","value":"999999995"}],"name":[{"family":"Bertha","given":["Betty"]}],"gender":"female","birthDate":"2006-01-01"},"request":{"method":"PUT","url":"Patient/ba296236-cee8-4ec1-aa6b-341477c99af2"}},{"fullUrl":"https://madie.cms.gov/Procedure/Procedure-35","resource":{"resourceType":"Procedure","id":"5071643b-b7f0-4c54-9c8f-984b60c9b2f9","meta":{"profile":["http://hl7.org/fhir/us/qicore/StructureDefinition/qicore-procedure"]},"extension":[{"url":"http://hl7.org/fhir/us/qicore/StructureDefinition/qicore-recorded","valueDateTime":"2023-11-01T00:00:00.000Z"}],"status":"completed","code":{"coding":[{"system":"http://www.cms.gov/Medicare/Coding/ICD10","code":"0SR9019","display":"Replacement of Right Hip Joint with Metal Synthetic Substitute, Cemented, Open Approach"}]},"subject":{"reference":"Patient/ba296236-cee8-4ec1-aa6b-341477c99af2"},"performedPeriod":{"start":"2023-11-01T00:00:00.000Z","end":"2023-11-01T01:00:00.000Z"}},"request":{"method":"PUT","url":"Procedure/5071643b-b7f0-4c54-9c8f-984b60c9b2f9"}},{"fullUrl":"https://madie.cms.gov/Encounter/Encounter-35","resource":{"resourceType":"Encounter","id":"4b9e0f56-3597-4286-a85a-4652786d5077","meta":{"profile":["http://hl7.org/fhir/us/qicore/StructureDefinition/qicore-encounter"]},"status":"finished","class":{"system":"http://terminology.hl7.org/CodeSystem/v3-ActCode","code":"AMB","display":"ambulatory"},"type":[{"coding":[{"system":"http://snomed.info/sct","code":"281036007","display":"Follow-up consultation (procedure)"}]}],"subject":{"reference":"Patient/ba296236-cee8-4ec1-aa6b-341477c99af2"},"period":{"start":"2024-11-01T00:00:00.000Z","end":"2024-11-01T01:15:00.000Z"}},"request":{"method":"PUT","url":"Encounter/4b9e0f56-3597-4286-a85a-4652786d5077"}},{"fullUrl":"https://madie.cms.gov/Observation/Observation-35.1-1","resource":{"resourceType":"Observation","id":"e6d2a1b2-ab1a-4ea5-b0b9-15200f5c5aa6","meta":{"profile":["http://hl7.org/fhir/us/qicore/StructureDefinition/qicore-observation"]},"status":"final","category":[{"coding":[{"system":"http://terminology.hl7.org/CodeSystem/observation-category","code":"survey"}]}],"code":{"coding":[{"system":"http://loinc.org","code":"72093-8","display":"Quality of life score [HOOS]"}]},"subject":{"reference":"Patient/ba296236-cee8-4ec1-aa6b-341477c99af2"},"effectivePeriod":{"start":"2023-11-01T00:00:00.000Z","end":"2023-11-01T01:00:00.000Z"},"valueInteger":60},"request":{"method":"PUT","url":"Observation/e6d2a1b2-ab1a-4ea5-b0b9-15200f5c5aa6"}},{"fullUrl":"https://madie.cms.gov/Observation/Observation-35.1-2","resource":{"resourceType":"Observation","id":"90823f88-fbf4-40b1-9b6b-1d2af60f81ce","meta":{"profile":["http://hl7.org/fhir/us/qicore/StructureDefinition/qicore-observation"]},"status":"final","category":[{"coding":[{"system":"http://terminology.hl7.org/CodeSystem/observation-category","code":"survey"}]}],"code":{"coding":[{"system":"http://loinc.org","code":"72094-6","display":"Sport-recreation score [HOOS]"}]},"subject":{"reference":"Patient/ba296236-cee8-4ec1-aa6b-341477c99af2"},"effectivePeriod":{"start":"2023-11-01T00:00:00.000Z","end":"2023-11-01T01:00:00.000Z"},"valueInteger":60},"request":{"method":"PUT","url":"Observation/90823f88-fbf4-40b1-9b6b-1d2af60f81ce"}},{"fullUrl":"https://madie.cms.gov/Observation/Observation-35.1-3","resource":{"resourceType":"Observation","id":"cbd02a72-4eb5-43b9-adf1-7fa5f391a659","meta":{"profile":["http://hl7.org/fhir/us/qicore/StructureDefinition/qicore-observation"]},"status":"final","category":[{"coding":[{"system":"http://terminology.hl7.org/CodeSystem/observation-category","code":"survey"}]}],"code":{"coding":[{"system":"http://loinc.org","code":"72095-3","display":"Activities of daily living score [HOOS]"}]},"subject":{"reference":"Patient/ba296236-cee8-4ec1-aa6b-341477c99af2"},"effectivePeriod":{"start":"2023-11-01T00:00:00.000Z","end":"2023-11-01T01:00:00.000Z"},"valueInteger":60},"request":{"method":"PUT","url":"Observation/cbd02a72-4eb5-43b9-adf1-7fa5f391a659"}},{"fullUrl":"https://madie.cms.gov/Observation/Observation-35.1-4","resource":{"resourceType":"Observation","id":"be0c3eb3-5588-480b-a7da-f49ab44df775","meta":{"profile":["http://hl7.org/fhir/us/qicore/StructureDefinition/qicore-observation"]},"status":"final","category":[{"coding":[{"system":"http://terminology.hl7.org/CodeSystem/observation-category","code":"survey"}]}],"code":{"coding":[{"system":"http://loinc.org","code":"72096-1","display":"Symptoms score [HOOS]"}]},"subject":{"reference":"Patient/ba296236-cee8-4ec1-aa6b-341477c99af2"},"effectivePeriod":{"start":"2023-11-01T00:00:00.000Z","end":"2023-11-01T01:00:00.000Z"},"valueInteger":60},"request":{"method":"PUT","url":"Observation/be0c3eb3-5588-480b-a7da-f49ab44df775"}},{"fullUrl":"https://madie.cms.gov/Observation/Observation-35.1-5","resource":{"resourceType":"Observation","id":"52707465-d454-4101-a140-b4ceac82c78e","meta":{"profile":["http://hl7.org/fhir/us/qicore/StructureDefinition/qicore-observation"]},"status":"final","category":[{"coding":[{"system":"http://terminology.hl7.org/CodeSystem/observation-category","code":"survey"}]}],"code":{"coding":[{"system":"http://loinc.org","code":"72097-9","display":"Pain score [HOOS]"}]},"subject":{"reference":"Patient/ba296236-cee8-4ec1-aa6b-341477c99af2"},"effectivePeriod":{"start":"2023-11-01T00:00:00.000Z","end":"2023-11-01T01:00:00.000Z"},"valueInteger":60},"request":{"method":"PUT","url":"Observation/52707465-d454-4101-a140-b4ceac82c78e"}},{"fullUrl":"https://madie.cms.gov/Observation/Observation-35.2-1","resource":{"resourceType":"Observation","id":"e98c983a-0c27-4ec2-b847-e3c1059fc67d","meta":{"profile":["http://hl7.org/fhir/us/qicore/StructureDefinition/qicore-observation"]},"status":"final","category":[{"coding":[{"system":"http://terminology.hl7.org/CodeSystem/observation-category","code":"survey"}]}],"code":{"coding":[{"system":"http://loinc.org","code":"72093-8","display":"Quality of life score [HOOS]"}]},"subject":{"reference":"Patient/ba296236-cee8-4ec1-aa6b-341477c99af2"},"effectivePeriod":{"start":"2024-08-26T00:00:00.000Z","end":"2024-08-26T01:00:00.000Z"},"valueInteger":60},"request":{"method":"PUT","url":"Observation/e98c983a-0c27-4ec2-b847-e3c1059fc67d"}},{"fullUrl":"https://madie.cms.gov/Observation/Observation-35.2-2","resource":{"resourceType":"Observation","id":"a8249ab5-c4a9-444c-98d7-6e5ed6912c88","meta":{"profile":["http://hl7.org/fhir/us/qicore/StructureDefinition/qicore-observation"]},"status":"final","category":[{"coding":[{"system":"http://terminology.hl7.org/CodeSystem/observation-category","code":"survey"}]}],"code":{"coding":[{"system":"http://loinc.org","code":"72094-6","display":"Sport-recreation score [HOOS]"}]},"subject":{"reference":"Patient/ba296236-cee8-4ec1-aa6b-341477c99af2"},"effectivePeriod":{"start":"2024-08-26T00:00:00.000Z","end":"2024-08-26T01:00:00.000Z"},"valueInteger":60},"request":{"method":"PUT","url":"Observation/a8249ab5-c4a9-444c-98d7-6e5ed6912c88"}},{"fullUrl":"https://madie.cms.gov/Observation/Observation-35.2-3","resource":{"resourceType":"Observation","id":"52261a91-6f9a-4796-a421-1901a1458f6a","meta":{"profile":["http://hl7.org/fhir/us/qicore/StructureDefinition/qicore-observation"]},"status":"final","category":[{"coding":[{"system":"http://terminology.hl7.org/CodeSystem/observation-category","code":"survey"}]}],"code":{"coding":[{"system":"http://loinc.org","code":"72095-3","display":"Activities of daily living score [HOOS]"}]},"subject":{"reference":"Patient/ba296236-cee8-4ec1-aa6b-341477c99af2"},"effectivePeriod":{"start":"2024-08-26T00:00:00.000Z","end":"2024-08-26T01:00:00.000Z"},"valueInteger":60},"request":{"method":"PUT","url":"Observation/52261a91-6f9a-4796-a421-1901a1458f6a"}},{"fullUrl":"https://madie.cms.gov/Observation/Observation-35.2-4","resource":{"resourceType":"Observation","id":"f68dec34-7430-4a45-8d6f-adf03fb4b5ba","meta":{"profile":["http://hl7.org/fhir/us/qicore/StructureDefinition/qicore-observation"]},"status":"final","category":[{"coding":[{"system":"http://terminology.hl7.org/CodeSystem/observation-category","code":"survey"}]}],"code":{"coding":[{"system":"http://loinc.org","code":"72096-1","display":"Symptoms score [HOOS]"}]},"subject":{"reference":"Patient/ba296236-cee8-4ec1-aa6b-341477c99af2"},"effectivePeriod":{"start":"2024-08-26T00:00:00.000Z","end":"2024-08-26T01:00:00.000Z"},"valueInteger":60},"request":{"method":"PUT","url":"Observation/f68dec34-7430-4a45-8d6f-adf03fb4b5ba"}},{"fullUrl":"https://madie.cms.gov/Observation/Observation-35.2-5","resource":{"resourceType":"Observation","id":"eaf53b39-9638-40ea-aa94-79cfc5aadd1b","meta":{"profile":["http://hl7.org/fhir/us/qicore/StructureDefinition/qicore-observation"]},"status":"final","category":[{"coding":[{"system":"http://terminology.hl7.org/CodeSystem/observation-category","code":"survey"}]}],"code":{"coding":[{"system":"http://loinc.org","code":"72097-9","display":"Pain score [HOOS]"}]},"subject":{"reference":"Patient/ba296236-cee8-4ec1-aa6b-341477c99af2"},"effectivePeriod":{"start":"2024-08-26T00:00:00.000Z","end":"2024-08-26T01:00:00.000Z"},"valueInteger":60},"request":{"method":"PUT","url":"Observation/eaf53b39-9638-40ea-aa94-79cfc5aadd1b"}},{"fullUrl":"https://madie.cms.gov/MeasureReport/2357baea-8370-4dd0-a9d2-222ecabe49ee","resource":{"resourceType":"MeasureReport","id":"2357baea-8370-4dd0-a9d2-222ecabe49ee","meta":{"profile":["http://hl7.org/fhir/us/cqfmeasures/StructureDefinition/test-case-cqfm"]},"contained":[{"resourceType":"Parameters","id":"62ea43ee-5970-4b2e-a706-acc87e38d382-parameters","parameter":[{"name":"subject","valueString":"ba296236-cee8-4ec1-aa6b-341477c99af2"}]}],"extension":[{"url":"http://hl7.org/fhir/us/cqfmeasures/StructureDefinition/cqfm-inputParameters","valueReference":{"reference":"#62ea43ee-5970-4b2e-a706-acc87e38d382-parameters"}},{"url":"http://hl7.org/fhir/us/cqfmeasures/StructureDefinition/cqfm-testCaseDescription","valueMarkdown":"Patient w/ a THA Procedure 11/1, Initial Hip Assessment HOOS Same day as THA Procedure(11/1), and FollowUp Hip Assessment HOOS 299 days after THA Procedure (8/26)"}],"modifierExtension":[{"url":"http://hl7.org/fhir/us/cqfmeasures/StructureDefinition/cqfm-isTestCase","valueBoolean":true}],"status":"complete","type":"individual","measure":"https://madie.cms.gov/Measure/FunctionalStatusAssessmentforTotalHipReplacementFHIR","period":{"start":"2025-01-01","end":"2025-12-31"},"group":[{"population":[{"code":{"coding":[{"system":"http://terminology.hl7.org/CodeSystem/measure-population","code":"initial-population","display":"Initial Population"}]},"count":1},{"code":{"coding":[{"system":"http://terminology.hl7.org/CodeSystem/measure-population","code":"denominator","display":"Denominator"}]},"count":1},{"code":{"coding":[{"system":"http://terminology.hl7.org/CodeSystem/measure-population","code":"denominator-exclusion","display":"Denominator Exclusion"}]},"count":0},{"code":{"coding":[{"system":"http://terminology.hl7.org/CodeSystem/measure-population","code":"numerator","display":"Numerator"}]},"count":0}]}]},"request":{"method":"PUT","url":"MeasureReport/2357baea-8370-4dd0-a9d2-222ecabe49ee"}}]}