{"resourceType":"Bundle","id":"tests-b73c50b0-bf5a-4060-aede-3b8cf7ef85e8-bundle","type":"transaction","entry":[{"fullUrl":"https://madie.cms.gov/Patient/b73c50b0-bf5a-4060-aede-3b8cf7ef85e8","resource":{"resourceType":"Patient","id":"b73c50b0-bf5a-4060-aede-3b8cf7ef85e8","meta":{"profile":["http://hl7.org/fhir/us/qicore/StructureDefinition/qicore-patient"]},"extension":[{"url":"http://hl7.org/fhir/us/core/StructureDefinition/us-core-race","extension":[{"url":"ombCategory","valueCoding":{"system":"urn:oid:2.16.840.1.113883.6.238","code":"2028-9","display":"Asian"}},{"url":"text","valueString":"Asian"}]},{"url":"http://hl7.org/fhir/us/core/StructureDefinition/us-core-ethnicity","extension":[{"url":"ombCategory","valueCoding":{"system":"urn:oid:2.16.840.1.113883.6.238","code":"2135-2","display":"Hispanic or Latino"}},{"url":"text","valueString":"Hispanic or Latino"}]}],"identifier":[{"system":"http://hospital.smarthealthit.org","value":"999999995"}],"name":[{"family":"Bertha","given":["Betty"]}],"gender":"female","birthDate":"2006-01-01"},"request":{"method":"PUT","url":"Patient/b73c50b0-bf5a-4060-aede-3b8cf7ef85e8"}},{"fullUrl":"https://madie.cms.gov/Procedure/Procedure-44","resource":{"resourceType":"Procedure","id":"ed744915-000b-403e-a31c-a9b37340279b","meta":{"profile":["http://hl7.org/fhir/us/qicore/StructureDefinition/qicore-procedure"]},"extension":[{"url":"http://hl7.org/fhir/us/qicore/StructureDefinition/qicore-recorded","valueDateTime":"2023-11-01T00:00:00.000Z"}],"status":"completed","code":{"coding":[{"system":"http://www.cms.gov/Medicare/Coding/ICD10","code":"0SR9019","display":"Replacement of Right Hip Joint with Metal Synthetic Substitute, Cemented, Open Approach"}]},"subject":{"reference":"Patient/b73c50b0-bf5a-4060-aede-3b8cf7ef85e8"},"performedPeriod":{"start":"2023-11-01T00:00:00.000Z","end":"2023-11-01T01:00:00.000Z"}},"request":{"method":"PUT","url":"Procedure/ed744915-000b-403e-a31c-a9b37340279b"}},{"fullUrl":"https://madie.cms.gov/Encounter/Encounter-44","resource":{"resourceType":"Encounter","id":"ae4ee91b-efd0-46c5-8236-5b033f819f25","meta":{"profile":["http://hl7.org/fhir/us/qicore/StructureDefinition/qicore-encounter"]},"status":"finished","class":{"system":"http://terminology.hl7.org/CodeSystem/v3-ActCode","code":"AMB","display":"ambulatory"},"type":[{"coding":[{"system":"http://snomed.info/sct","code":"281036007","display":"Follow-up consultation (procedure)"}]}],"subject":{"reference":"Patient/b73c50b0-bf5a-4060-aede-3b8cf7ef85e8"},"period":{"start":"2024-11-01T00:00:00.000Z","end":"2024-11-01T01:15:00.000Z"}},"request":{"method":"PUT","url":"Encounter/ae4ee91b-efd0-46c5-8236-5b033f819f25"}},{"fullUrl":"https://madie.cms.gov/Observation/Observation-44.1-1","resource":{"resourceType":"Observation","id":"8d44709e-1e1a-487c-93d8-ec9f1c27ccd3","meta":{"profile":["http://hl7.org/fhir/us/qicore/StructureDefinition/qicore-observation"]},"status":"final","category":[{"coding":[{"system":"http://terminology.hl7.org/CodeSystem/observation-category","code":"survey"}]}],"code":{"coding":[{"system":"http://loinc.org","code":"72028-4","display":"VR-12 Mental component summary (MCS) score - oblique method T-score"}]},"subject":{"reference":"Patient/b73c50b0-bf5a-4060-aede-3b8cf7ef85e8"},"effectivePeriod":{"start":"2023-08-03T00:00:00.000Z","end":"2023-08-03T01:00:00.000Z"},"valueInteger":60},"request":{"method":"PUT","url":"Observation/8d44709e-1e1a-487c-93d8-ec9f1c27ccd3"}},{"fullUrl":"https://madie.cms.gov/Observation/Observation-44.1-2","resource":{"resourceType":"Observation","id":"b20ed839-4277-4c56-95fb-0c358acc1c5f","meta":{"profile":["http://hl7.org/fhir/us/qicore/StructureDefinition/qicore-observation"]},"status":"final","category":[{"coding":[{"system":"http://terminology.hl7.org/CodeSystem/observation-category","code":"survey"}]}],"code":{"coding":[{"system":"http://loinc.org","code":"72027-6","display":"VR-12 Physical component summary (PCS) score - orthogonal method T-score"}]},"subject":{"reference":"Patient/b73c50b0-bf5a-4060-aede-3b8cf7ef85e8"},"effectivePeriod":{"start":"2023-08-03T00:00:00.000Z","end":"2023-08-03T01:00:00.000Z"},"valueInteger":60},"request":{"method":"PUT","url":"Observation/b20ed839-4277-4c56-95fb-0c358acc1c5f"}},{"fullUrl":"https://madie.cms.gov/Observation/Observation-44.2-1","resource":{"resourceType":"Observation","id":"d5d8213e-2bbb-4c78-98d0-dddf442087e1","meta":{"profile":["http://hl7.org/fhir/us/qicore/StructureDefinition/qicore-observation"]},"status":"final","category":[{"coding":[{"system":"http://terminology.hl7.org/CodeSystem/observation-category","code":"survey"}]}],"code":{"coding":[{"system":"http://loinc.org","code":"72028-4","display":"VR-12 Mental component summary (MCS) score - oblique method T-score"}]},"subject":{"reference":"Patient/b73c50b0-bf5a-4060-aede-3b8cf7ef85e8"},"effectivePeriod":{"start":"2024-12-30T00:00:00.000Z","end":"2024-12-30T01:00:00.000Z"},"valueInteger":60},"request":{"method":"PUT","url":"Observation/d5d8213e-2bbb-4c78-98d0-dddf442087e1"}},{"fullUrl":"https://madie.cms.gov/Observation/Observation-44.2-2","resource":{"resourceType":"Observation","id":"ad3818ea-1f48-4085-ac70-60805bb3632a","meta":{"profile":["http://hl7.org/fhir/us/qicore/StructureDefinition/qicore-observation"]},"status":"final","category":[{"coding":[{"system":"http://terminology.hl7.org/CodeSystem/observation-category","code":"survey"}]}],"code":{"coding":[{"system":"http://loinc.org","code":"72027-6","display":"VR-12 Physical component summary (PCS) score - orthogonal method T-score"}]},"subject":{"reference":"Patient/b73c50b0-bf5a-4060-aede-3b8cf7ef85e8"},"effectivePeriod":{"start":"2024-12-30T00:00:00.000Z","end":"2024-12-30T01:00:00.000Z"},"valueInteger":60},"request":{"method":"PUT","url":"Observation/ad3818ea-1f48-4085-ac70-60805bb3632a"}},{"fullUrl":"https://madie.cms.gov/MeasureReport/02299523-4f74-450e-b8d4-1e3944e7c55d","resource":{"resourceType":"MeasureReport","id":"02299523-4f74-450e-b8d4-1e3944e7c55d","meta":{"profile":["http://hl7.org/fhir/us/cqfmeasures/StructureDefinition/test-case-cqfm"]},"contained":[{"resourceType":"Parameters","id":"f6cad633-b599-458c-b476-062fc66452d0-parameters","parameter":[{"name":"subject","valueString":"b73c50b0-bf5a-4060-aede-3b8cf7ef85e8"}]}],"extension":[{"url":"http://hl7.org/fhir/us/cqfmeasures/StructureDefinition/cqfm-inputParameters","valueReference":{"reference":"#f6cad633-b599-458c-b476-062fc66452d0-parameters"}},{"url":"http://hl7.org/fhir/us/cqfmeasures/StructureDefinition/cqfm-testCaseDescription","valueMarkdown":"Patient w/ a THA Procedure 11/1, Initial Hip Assessment Orthogonal 90 days before THA Procedure(8/3), and FollowUp Hip Assessment Orthogonal 425 days after THA Procedure (12/30)"}],"modifierExtension":[{"url":"http://hl7.org/fhir/us/cqfmeasures/StructureDefinition/cqfm-isTestCase","valueBoolean":true}],"status":"complete","type":"individual","measure":"https://madie.cms.gov/Measure/FunctionalStatusAssessmentforTotalHipReplacementFHIR","period":{"start":"2025-01-01","end":"2025-12-31"},"group":[{"population":[{"code":{"coding":[{"system":"http://terminology.hl7.org/CodeSystem/measure-population","code":"initial-population","display":"Initial Population"}]},"count":1},{"code":{"coding":[{"system":"http://terminology.hl7.org/CodeSystem/measure-population","code":"denominator","display":"Denominator"}]},"count":1},{"code":{"coding":[{"system":"http://terminology.hl7.org/CodeSystem/measure-population","code":"denominator-exclusion","display":"Denominator Exclusion"}]},"count":0},{"code":{"coding":[{"system":"http://terminology.hl7.org/CodeSystem/measure-population","code":"numerator","display":"Numerator"}]},"count":1}]}]},"request":{"method":"PUT","url":"MeasureReport/02299523-4f74-450e-b8d4-1e3944e7c55d"}}]}