{"resourceType":"Bundle","id":"tests-98493a07-9ac2-4760-b215-bda012ce1877-bundle","type":"transaction","entry":[{"fullUrl":"https://madie.cms.gov/Patient/98493a07-9ac2-4760-b215-bda012ce1877","resource":{"resourceType":"Patient","id":"98493a07-9ac2-4760-b215-bda012ce1877","meta":{"profile":["http://hl7.org/fhir/us/qicore/StructureDefinition/qicore-patient"]},"extension":[{"url":"http://hl7.org/fhir/us/core/StructureDefinition/us-core-race","extension":[{"url":"ombCategory","valueCoding":{"system":"urn:oid:2.16.840.1.113883.6.238","code":"2028-9","display":"Asian"}},{"url":"text","valueString":"Asian"}]},{"url":"http://hl7.org/fhir/us/core/StructureDefinition/us-core-ethnicity","extension":[{"url":"ombCategory","valueCoding":{"system":"urn:oid:2.16.840.1.113883.6.238","code":"2135-2","display":"Hispanic or Latino"}},{"url":"text","valueString":"Hispanic or Latino"}]}],"identifier":[{"system":"http://hospital.smarthealthit.org","value":"999999995"}],"name":[{"family":"Bertha","given":["Betty"]}],"gender":"female","birthDate":"2006-01-01"},"request":{"method":"PUT","url":"Patient/98493a07-9ac2-4760-b215-bda012ce1877"}},{"fullUrl":"https://madie.cms.gov/Procedure/Procedure-31","resource":{"resourceType":"Procedure","id":"6a9680a2-d890-4eac-865e-5d7bcdc0dd1f","meta":{"profile":["http://hl7.org/fhir/us/qicore/StructureDefinition/qicore-procedure"]},"extension":[{"url":"http://hl7.org/fhir/us/qicore/StructureDefinition/qicore-recorded","valueDateTime":"2023-11-01T00:00:00.000Z"}],"status":"completed","code":{"coding":[{"system":"http://www.cms.gov/Medicare/Coding/ICD10","code":"0SR9019","display":"Replacement of Right Hip Joint with Metal Synthetic Substitute, Cemented, Open Approach"}]},"subject":{"reference":"Patient/98493a07-9ac2-4760-b215-bda012ce1877"},"performedPeriod":{"start":"2023-11-01T00:00:00.000Z","end":"2023-11-01T01:00:00.000Z"}},"request":{"method":"PUT","url":"Procedure/6a9680a2-d890-4eac-865e-5d7bcdc0dd1f"}},{"fullUrl":"https://madie.cms.gov/Encounter/Encounter-31","resource":{"resourceType":"Encounter","id":"d38b3db3-62e2-4750-8947-efe9b813606d","meta":{"profile":["http://hl7.org/fhir/us/qicore/StructureDefinition/qicore-encounter"]},"status":"finished","class":{"system":"http://terminology.hl7.org/CodeSystem/v3-ActCode","code":"AMB","display":"ambulatory"},"type":[{"coding":[{"system":"http://snomed.info/sct","code":"281036007","display":"Follow-up consultation (procedure)"}]}],"subject":{"reference":"Patient/98493a07-9ac2-4760-b215-bda012ce1877"},"period":{"start":"2024-11-01T00:00:00.000Z","end":"2024-11-01T01:15:00.000Z"}},"request":{"method":"PUT","url":"Encounter/d38b3db3-62e2-4750-8947-efe9b813606d"}},{"fullUrl":"https://madie.cms.gov/Observation/Observation-31.1-1","resource":{"resourceType":"Observation","id":"f3786d29-af5c-4981-9aec-68cd758e570a","meta":{"profile":["http://hl7.org/fhir/us/qicore/StructureDefinition/qicore-observation"]},"status":"final","category":[{"coding":[{"system":"http://terminology.hl7.org/CodeSystem/observation-category","code":"survey"}]}],"code":{"coding":[{"system":"http://loinc.org","code":"72093-8","display":"Quality of life score [HOOS]"}]},"subject":{"reference":"Patient/98493a07-9ac2-4760-b215-bda012ce1877"},"effectivePeriod":{"start":"2023-11-01T00:00:00.000Z","end":"2023-11-01T01:00:00.000Z"},"valueInteger":60},"request":{"method":"PUT","url":"Observation/f3786d29-af5c-4981-9aec-68cd758e570a"}},{"fullUrl":"https://madie.cms.gov/Observation/Observation-31.1-2","resource":{"resourceType":"Observation","id":"51bd26ce-f1c2-40be-a16a-28a992ba3768","meta":{"profile":["http://hl7.org/fhir/us/qicore/StructureDefinition/qicore-observation"]},"status":"final","category":[{"coding":[{"system":"http://terminology.hl7.org/CodeSystem/observation-category","code":"survey"}]}],"code":{"coding":[{"system":"http://loinc.org","code":"72094-6","display":"Sport-recreation score [HOOS]"}]},"subject":{"reference":"Patient/98493a07-9ac2-4760-b215-bda012ce1877"},"effectivePeriod":{"start":"2023-11-01T00:00:00.000Z","end":"2023-11-01T01:00:00.000Z"},"valueInteger":60},"request":{"method":"PUT","url":"Observation/51bd26ce-f1c2-40be-a16a-28a992ba3768"}},{"fullUrl":"https://madie.cms.gov/Observation/Observation-31.1-3","resource":{"resourceType":"Observation","id":"b1a7a309-2b4b-4043-aa96-74d02365f3eb","meta":{"profile":["http://hl7.org/fhir/us/qicore/StructureDefinition/qicore-observation"]},"status":"final","category":[{"coding":[{"system":"http://terminology.hl7.org/CodeSystem/observation-category","code":"survey"}]}],"code":{"coding":[{"system":"http://loinc.org","code":"72095-3","display":"Activities of daily living score [HOOS]"}]},"subject":{"reference":"Patient/98493a07-9ac2-4760-b215-bda012ce1877"},"effectivePeriod":{"start":"2023-11-01T00:00:00.000Z","end":"2023-11-01T01:00:00.000Z"},"valueInteger":60},"request":{"method":"PUT","url":"Observation/b1a7a309-2b4b-4043-aa96-74d02365f3eb"}},{"fullUrl":"https://madie.cms.gov/Observation/Observation-31.1-4","resource":{"resourceType":"Observation","id":"954944ac-a46f-4309-aaf1-4a29a56db88a","meta":{"profile":["http://hl7.org/fhir/us/qicore/StructureDefinition/qicore-observation"]},"status":"final","category":[{"coding":[{"system":"http://terminology.hl7.org/CodeSystem/observation-category","code":"survey"}]}],"code":{"coding":[{"system":"http://loinc.org","code":"72096-1","display":"Symptoms score [HOOS]"}]},"subject":{"reference":"Patient/98493a07-9ac2-4760-b215-bda012ce1877"},"effectivePeriod":{"start":"2023-11-01T00:00:00.000Z","end":"2023-11-01T01:00:00.000Z"},"valueInteger":60},"request":{"method":"PUT","url":"Observation/954944ac-a46f-4309-aaf1-4a29a56db88a"}},{"fullUrl":"https://madie.cms.gov/Observation/Observation-31.1-5","resource":{"resourceType":"Observation","id":"50e21cae-535b-439a-b6ec-72a122bc64a8","meta":{"profile":["http://hl7.org/fhir/us/qicore/StructureDefinition/qicore-observation"]},"status":"final","category":[{"coding":[{"system":"http://terminology.hl7.org/CodeSystem/observation-category","code":"survey"}]}],"code":{"coding":[{"system":"http://loinc.org","code":"72097-9","display":"Pain score [HOOS]"}]},"subject":{"reference":"Patient/98493a07-9ac2-4760-b215-bda012ce1877"},"effectivePeriod":{"start":"2023-11-01T00:00:00.000Z","end":"2023-11-01T01:00:00.000Z"},"valueInteger":60},"request":{"method":"PUT","url":"Observation/50e21cae-535b-439a-b6ec-72a122bc64a8"}},{"fullUrl":"https://madie.cms.gov/Observation/Observation-31.2-1","resource":{"resourceType":"Observation","id":"026d17b8-4cd4-4d1f-912b-f04f24ff41f5","meta":{"profile":["http://hl7.org/fhir/us/qicore/StructureDefinition/qicore-observation"]},"status":"final","category":[{"coding":[{"system":"http://terminology.hl7.org/CodeSystem/observation-category","code":"survey"}]}],"code":{"coding":[{"system":"http://loinc.org","code":"72093-8","display":"Quality of life score [HOOS]"}]},"subject":{"reference":"Patient/98493a07-9ac2-4760-b215-bda012ce1877"},"effectivePeriod":{"start":"2024-08-27T00:00:00.000Z","end":"2024-08-27T01:00:00.000Z"},"valueInteger":60},"request":{"method":"PUT","url":"Observation/026d17b8-4cd4-4d1f-912b-f04f24ff41f5"}},{"fullUrl":"https://madie.cms.gov/Observation/Observation-31.2-2","resource":{"resourceType":"Observation","id":"dc6e8bc4-015f-445e-a7dd-8635be55069f","meta":{"profile":["http://hl7.org/fhir/us/qicore/StructureDefinition/qicore-observation"]},"status":"final","category":[{"coding":[{"system":"http://terminology.hl7.org/CodeSystem/observation-category","code":"survey"}]}],"code":{"coding":[{"system":"http://loinc.org","code":"72094-6","display":"Sport-recreation score [HOOS]"}]},"subject":{"reference":"Patient/98493a07-9ac2-4760-b215-bda012ce1877"},"effectivePeriod":{"start":"2024-08-27T00:00:00.000Z","end":"2024-08-27T01:00:00.000Z"},"valueInteger":60},"request":{"method":"PUT","url":"Observation/dc6e8bc4-015f-445e-a7dd-8635be55069f"}},{"fullUrl":"https://madie.cms.gov/Observation/Observation-31.2-3","resource":{"resourceType":"Observation","id":"9bebda1e-05e8-44e2-9a1d-05b03f5f8798","meta":{"profile":["http://hl7.org/fhir/us/qicore/StructureDefinition/qicore-observation"]},"status":"final","category":[{"coding":[{"system":"http://terminology.hl7.org/CodeSystem/observation-category","code":"survey"}]}],"code":{"coding":[{"system":"http://loinc.org","code":"72095-3","display":"Activities of daily living score [HOOS]"}]},"subject":{"reference":"Patient/98493a07-9ac2-4760-b215-bda012ce1877"},"effectivePeriod":{"start":"2024-08-27T00:00:00.000Z","end":"2024-08-27T01:00:00.000Z"},"valueInteger":60},"request":{"method":"PUT","url":"Observation/9bebda1e-05e8-44e2-9a1d-05b03f5f8798"}},{"fullUrl":"https://madie.cms.gov/Observation/Observation-31.2-4","resource":{"resourceType":"Observation","id":"ec9a39a4-481d-4b46-93d0-26a528e86906","meta":{"profile":["http://hl7.org/fhir/us/qicore/StructureDefinition/qicore-observation"]},"status":"final","category":[{"coding":[{"system":"http://terminology.hl7.org/CodeSystem/observation-category","code":"survey"}]}],"code":{"coding":[{"system":"http://loinc.org","code":"72096-1","display":"Symptoms score [HOOS]"}]},"subject":{"reference":"Patient/98493a07-9ac2-4760-b215-bda012ce1877"},"effectivePeriod":{"start":"2024-08-27T00:00:00.000Z","end":"2024-08-27T01:00:00.000Z"},"valueInteger":60},"request":{"method":"PUT","url":"Observation/ec9a39a4-481d-4b46-93d0-26a528e86906"}},{"fullUrl":"https://madie.cms.gov/Observation/Observation-31.2-5","resource":{"resourceType":"Observation","id":"de0fdf1a-4283-4bd0-9e01-8adf98afece9","meta":{"profile":["http://hl7.org/fhir/us/qicore/StructureDefinition/qicore-observation"]},"status":"final","category":[{"coding":[{"system":"http://terminology.hl7.org/CodeSystem/observation-category","code":"survey"}]}],"code":{"coding":[{"system":"http://loinc.org","code":"72097-9","display":"Pain score [HOOS]"}]},"subject":{"reference":"Patient/98493a07-9ac2-4760-b215-bda012ce1877"},"effectivePeriod":{"start":"2024-08-27T00:00:00.000Z","end":"2024-08-27T01:00:00.000Z"},"valueInteger":60},"request":{"method":"PUT","url":"Observation/de0fdf1a-4283-4bd0-9e01-8adf98afece9"}},{"fullUrl":"https://madie.cms.gov/MeasureReport/aa9f78a4-bbc2-4d62-a6ce-f00b075d4fc9","resource":{"resourceType":"MeasureReport","id":"aa9f78a4-bbc2-4d62-a6ce-f00b075d4fc9","meta":{"profile":["http://hl7.org/fhir/us/cqfmeasures/StructureDefinition/test-case-cqfm"]},"contained":[{"resourceType":"Parameters","id":"3a9afb0c-4326-4a08-941e-a3e0a660dda7-parameters","parameter":[{"name":"subject","valueString":"98493a07-9ac2-4760-b215-bda012ce1877"}]}],"extension":[{"url":"http://hl7.org/fhir/us/cqfmeasures/StructureDefinition/cqfm-inputParameters","valueReference":{"reference":"#3a9afb0c-4326-4a08-941e-a3e0a660dda7-parameters"}},{"url":"http://hl7.org/fhir/us/cqfmeasures/StructureDefinition/cqfm-testCaseDescription","valueMarkdown":"Patient w/ a THA Procedure 11/1, Initial Hip Assessment HOOS Same day as THA Procedure(11/1), and FollowUp Hip Assessment HOOS 300 days after THA Procedure (8/27)"}],"modifierExtension":[{"url":"http://hl7.org/fhir/us/cqfmeasures/StructureDefinition/cqfm-isTestCase","valueBoolean":true}],"status":"complete","type":"individual","measure":"https://madie.cms.gov/Measure/FunctionalStatusAssessmentforTotalHipReplacementFHIR","period":{"start":"2025-01-01","end":"2025-12-31"},"group":[{"population":[{"code":{"coding":[{"system":"http://terminology.hl7.org/CodeSystem/measure-population","code":"initial-population","display":"Initial Population"}]},"count":1},{"code":{"coding":[{"system":"http://terminology.hl7.org/CodeSystem/measure-population","code":"denominator","display":"Denominator"}]},"count":1},{"code":{"coding":[{"system":"http://terminology.hl7.org/CodeSystem/measure-population","code":"denominator-exclusion","display":"Denominator Exclusion"}]},"count":0},{"code":{"coding":[{"system":"http://terminology.hl7.org/CodeSystem/measure-population","code":"numerator","display":"Numerator"}]},"count":1}]}]},"request":{"method":"PUT","url":"MeasureReport/aa9f78a4-bbc2-4d62-a6ce-f00b075d4fc9"}}]}