{"resourceType":"Bundle","id":"tests-d79d1c9d-5a9c-4f54-8c7c-e61801697c55-bundle","type":"transaction","entry":[{"fullUrl":"https://madie.cms.gov/Patient/d79d1c9d-5a9c-4f54-8c7c-e61801697c55","resource":{"resourceType":"Patient","id":"d79d1c9d-5a9c-4f54-8c7c-e61801697c55","meta":{"profile":["http://hl7.org/fhir/us/qicore/StructureDefinition/qicore-patient"]},"extension":[{"url":"http://hl7.org/fhir/us/core/StructureDefinition/us-core-race","extension":[{"url":"ombCategory","valueCoding":{"system":"urn:oid:2.16.840.1.113883.6.238","code":"2028-9","display":"Asian"}},{"url":"text","valueString":"Asian"}]},{"url":"http://hl7.org/fhir/us/core/StructureDefinition/us-core-ethnicity","extension":[{"url":"ombCategory","valueCoding":{"system":"urn:oid:2.16.840.1.113883.6.238","code":"2135-2","display":"Hispanic or Latino"}},{"url":"text","valueString":"Hispanic or Latino"}]}],"identifier":[{"system":"http://hospital.smarthealthit.org","value":"999999995"}],"name":[{"family":"Bertha","given":["Betty"]}],"gender":"female","birthDate":"2006-01-01"},"request":{"method":"PUT","url":"Patient/d79d1c9d-5a9c-4f54-8c7c-e61801697c55"}},{"fullUrl":"https://madie.cms.gov/Procedure/Procedure-36","resource":{"resourceType":"Procedure","id":"cb886fc6-119a-4721-93bf-924faea7ed3d","meta":{"profile":["http://hl7.org/fhir/us/qicore/StructureDefinition/qicore-procedure"]},"extension":[{"url":"http://hl7.org/fhir/us/qicore/StructureDefinition/qicore-recorded","valueDateTime":"2023-11-01T00:00:00.000Z"}],"status":"completed","code":{"coding":[{"system":"http://www.cms.gov/Medicare/Coding/ICD10","code":"0SR9019","display":"Replacement of Right Hip Joint with Metal Synthetic Substitute, Cemented, Open Approach"}]},"subject":{"reference":"Patient/d79d1c9d-5a9c-4f54-8c7c-e61801697c55"},"performedPeriod":{"start":"2023-11-01T00:00:00.000Z","end":"2023-11-01T01:00:00.000Z"}},"request":{"method":"PUT","url":"Procedure/cb886fc6-119a-4721-93bf-924faea7ed3d"}},{"fullUrl":"https://madie.cms.gov/Encounter/Encounter-36","resource":{"resourceType":"Encounter","id":"4b3318ed-1eec-4565-9ed2-11f5d6382045","meta":{"profile":["http://hl7.org/fhir/us/qicore/StructureDefinition/qicore-encounter"]},"status":"finished","class":{"system":"http://terminology.hl7.org/CodeSystem/v3-ActCode","code":"AMB","display":"ambulatory"},"type":[{"coding":[{"system":"http://snomed.info/sct","code":"281036007","display":"Follow-up consultation (procedure)"}]}],"subject":{"reference":"Patient/d79d1c9d-5a9c-4f54-8c7c-e61801697c55"},"period":{"start":"2024-11-01T00:00:00.000Z","end":"2024-11-01T01:15:00.000Z"}},"request":{"method":"PUT","url":"Encounter/4b3318ed-1eec-4565-9ed2-11f5d6382045"}},{"fullUrl":"https://madie.cms.gov/Observation/Observation-36.1-1","resource":{"resourceType":"Observation","id":"d55f2830-6192-42d8-9e99-df14d178ce76","meta":{"profile":["http://hl7.org/fhir/us/qicore/StructureDefinition/qicore-observation"]},"status":"final","category":[{"coding":[{"system":"http://terminology.hl7.org/CodeSystem/observation-category","code":"survey"}]}],"code":{"coding":[{"system":"http://loinc.org","code":"72093-8","display":"Quality of life score [HOOS]"}]},"subject":{"reference":"Patient/d79d1c9d-5a9c-4f54-8c7c-e61801697c55"},"effectivePeriod":{"start":"2023-08-02T00:00:00.000Z","end":"2023-08-02T01:00:00.000Z"},"valueInteger":60},"request":{"method":"PUT","url":"Observation/d55f2830-6192-42d8-9e99-df14d178ce76"}},{"fullUrl":"https://madie.cms.gov/Observation/Observation-36.1-2","resource":{"resourceType":"Observation","id":"ab3dc613-1594-4912-90e1-a0de81f81eed","meta":{"profile":["http://hl7.org/fhir/us/qicore/StructureDefinition/qicore-observation"]},"status":"final","category":[{"coding":[{"system":"http://terminology.hl7.org/CodeSystem/observation-category","code":"survey"}]}],"code":{"coding":[{"system":"http://loinc.org","code":"72094-6","display":"Sport-recreation score [HOOS]"}]},"subject":{"reference":"Patient/d79d1c9d-5a9c-4f54-8c7c-e61801697c55"},"effectivePeriod":{"start":"2023-08-02T00:00:00.000Z","end":"2023-08-02T01:00:00.000Z"},"valueInteger":60},"request":{"method":"PUT","url":"Observation/ab3dc613-1594-4912-90e1-a0de81f81eed"}},{"fullUrl":"https://madie.cms.gov/Observation/Observation-36.1-3","resource":{"resourceType":"Observation","id":"624f439a-4a4f-4379-87d0-38dce4fefb55","meta":{"profile":["http://hl7.org/fhir/us/qicore/StructureDefinition/qicore-observation"]},"status":"final","category":[{"coding":[{"system":"http://terminology.hl7.org/CodeSystem/observation-category","code":"survey"}]}],"code":{"coding":[{"system":"http://loinc.org","code":"72095-3","display":"Activities of daily living score [HOOS]"}]},"subject":{"reference":"Patient/d79d1c9d-5a9c-4f54-8c7c-e61801697c55"},"effectivePeriod":{"start":"2023-08-02T00:00:00.000Z","end":"2023-08-02T01:00:00.000Z"},"valueInteger":60},"request":{"method":"PUT","url":"Observation/624f439a-4a4f-4379-87d0-38dce4fefb55"}},{"fullUrl":"https://madie.cms.gov/Observation/Observation-36.1-4","resource":{"resourceType":"Observation","id":"48d233ce-5a15-4403-b486-142114e57e33","meta":{"profile":["http://hl7.org/fhir/us/qicore/StructureDefinition/qicore-observation"]},"status":"final","category":[{"coding":[{"system":"http://terminology.hl7.org/CodeSystem/observation-category","code":"survey"}]}],"code":{"coding":[{"system":"http://loinc.org","code":"72096-1","display":"Symptoms score [HOOS]"}]},"subject":{"reference":"Patient/d79d1c9d-5a9c-4f54-8c7c-e61801697c55"},"effectivePeriod":{"start":"2023-08-02T00:00:00.000Z","end":"2023-08-02T01:00:00.000Z"},"valueInteger":60},"request":{"method":"PUT","url":"Observation/48d233ce-5a15-4403-b486-142114e57e33"}},{"fullUrl":"https://madie.cms.gov/Observation/Observation-36.1-5","resource":{"resourceType":"Observation","id":"36cfd882-0feb-45cf-a8a6-3cd0dfd7b823","meta":{"profile":["http://hl7.org/fhir/us/qicore/StructureDefinition/qicore-observation"]},"status":"final","category":[{"coding":[{"system":"http://terminology.hl7.org/CodeSystem/observation-category","code":"survey"}]}],"code":{"coding":[{"system":"http://loinc.org","code":"72097-9","display":"Pain score [HOOS]"}]},"subject":{"reference":"Patient/d79d1c9d-5a9c-4f54-8c7c-e61801697c55"},"effectivePeriod":{"start":"2023-08-02T00:00:00.000Z","end":"2023-08-02T01:00:00.000Z"},"valueInteger":60},"request":{"method":"PUT","url":"Observation/36cfd882-0feb-45cf-a8a6-3cd0dfd7b823"}},{"fullUrl":"https://madie.cms.gov/Observation/Observation-36.2-1","resource":{"resourceType":"Observation","id":"5bb0b5a2-2114-4bfe-b0eb-1a914d2b1663","meta":{"profile":["http://hl7.org/fhir/us/qicore/StructureDefinition/qicore-observation"]},"status":"final","category":[{"coding":[{"system":"http://terminology.hl7.org/CodeSystem/observation-category","code":"survey"}]}],"code":{"coding":[{"system":"http://loinc.org","code":"72093-8","display":"Quality of life score [HOOS]"}]},"subject":{"reference":"Patient/d79d1c9d-5a9c-4f54-8c7c-e61801697c55"},"effectivePeriod":{"start":"2024-12-31T00:00:00.000Z","end":"2024-12-31T01:00:00.000Z"},"valueInteger":60},"request":{"method":"PUT","url":"Observation/5bb0b5a2-2114-4bfe-b0eb-1a914d2b1663"}},{"fullUrl":"https://madie.cms.gov/Observation/Observation-36.2-2","resource":{"resourceType":"Observation","id":"ec69310e-61e7-4b51-aaf6-a0688e3a388c","meta":{"profile":["http://hl7.org/fhir/us/qicore/StructureDefinition/qicore-observation"]},"status":"final","category":[{"coding":[{"system":"http://terminology.hl7.org/CodeSystem/observation-category","code":"survey"}]}],"code":{"coding":[{"system":"http://loinc.org","code":"72094-6","display":"Sport-recreation score [HOOS]"}]},"subject":{"reference":"Patient/d79d1c9d-5a9c-4f54-8c7c-e61801697c55"},"effectivePeriod":{"start":"2024-12-31T00:00:00.000Z","end":"2024-12-31T01:00:00.000Z"},"valueInteger":60},"request":{"method":"PUT","url":"Observation/ec69310e-61e7-4b51-aaf6-a0688e3a388c"}},{"fullUrl":"https://madie.cms.gov/Observation/Observation-36.2-3","resource":{"resourceType":"Observation","id":"064d2446-4190-41aa-b871-f2ffe48a1a61","meta":{"profile":["http://hl7.org/fhir/us/qicore/StructureDefinition/qicore-observation"]},"status":"final","category":[{"coding":[{"system":"http://terminology.hl7.org/CodeSystem/observation-category","code":"survey"}]}],"code":{"coding":[{"system":"http://loinc.org","code":"72095-3","display":"Activities of daily living score [HOOS]"}]},"subject":{"reference":"Patient/d79d1c9d-5a9c-4f54-8c7c-e61801697c55"},"effectivePeriod":{"start":"2024-12-31T00:00:00.000Z","end":"2024-12-31T01:00:00.000Z"},"valueInteger":60},"request":{"method":"PUT","url":"Observation/064d2446-4190-41aa-b871-f2ffe48a1a61"}},{"fullUrl":"https://madie.cms.gov/Observation/Observation-36.2-4","resource":{"resourceType":"Observation","id":"5e80448b-b5b6-4716-b50b-279f5083a0c3","meta":{"profile":["http://hl7.org/fhir/us/qicore/StructureDefinition/qicore-observation"]},"status":"final","category":[{"coding":[{"system":"http://terminology.hl7.org/CodeSystem/observation-category","code":"survey"}]}],"code":{"coding":[{"system":"http://loinc.org","code":"72096-1","display":"Symptoms score [HOOS]"}]},"subject":{"reference":"Patient/d79d1c9d-5a9c-4f54-8c7c-e61801697c55"},"effectivePeriod":{"start":"2024-12-31T00:00:00.000Z","end":"2024-12-31T01:00:00.000Z"},"valueInteger":60},"request":{"method":"PUT","url":"Observation/5e80448b-b5b6-4716-b50b-279f5083a0c3"}},{"fullUrl":"https://madie.cms.gov/Observation/Observation-36.2-5","resource":{"resourceType":"Observation","id":"dcfaba22-0624-49aa-9979-65bc2887f20d","meta":{"profile":["http://hl7.org/fhir/us/qicore/StructureDefinition/qicore-observation"]},"status":"final","category":[{"coding":[{"system":"http://terminology.hl7.org/CodeSystem/observation-category","code":"survey"}]}],"code":{"coding":[{"system":"http://loinc.org","code":"72097-9","display":"Pain score [HOOS]"}]},"subject":{"reference":"Patient/d79d1c9d-5a9c-4f54-8c7c-e61801697c55"},"effectivePeriod":{"start":"2024-12-31T00:00:00.000Z","end":"2024-12-31T01:00:00.000Z"},"valueInteger":60},"request":{"method":"PUT","url":"Observation/dcfaba22-0624-49aa-9979-65bc2887f20d"}},{"fullUrl":"https://madie.cms.gov/MeasureReport/537ff646-cde4-4951-8d97-a7f2f551d27a","resource":{"resourceType":"MeasureReport","id":"537ff646-cde4-4951-8d97-a7f2f551d27a","meta":{"profile":["http://hl7.org/fhir/us/cqfmeasures/StructureDefinition/test-case-cqfm"]},"contained":[{"resourceType":"Parameters","id":"5ee9fb9a-bf44-40b8-a4e2-f0202adacc84-parameters","parameter":[{"name":"subject","valueString":"d79d1c9d-5a9c-4f54-8c7c-e61801697c55"}]}],"extension":[{"url":"http://hl7.org/fhir/us/cqfmeasures/StructureDefinition/cqfm-inputParameters","valueReference":{"reference":"#5ee9fb9a-bf44-40b8-a4e2-f0202adacc84-parameters"}},{"url":"http://hl7.org/fhir/us/cqfmeasures/StructureDefinition/cqfm-testCaseDescription","valueMarkdown":"Patient w/ a THA Procedure 11/1, Initial Hip Assessment 91 days before THA Procedure(8/2), and FollowUp Hip Assessment HOOS 425 days after THA Procedure (12/30)"}],"modifierExtension":[{"url":"http://hl7.org/fhir/us/cqfmeasures/StructureDefinition/cqfm-isTestCase","valueBoolean":true}],"status":"complete","type":"individual","measure":"https://madie.cms.gov/Measure/FunctionalStatusAssessmentforTotalHipReplacementFHIR","period":{"start":"2025-01-01","end":"2025-12-31"},"group":[{"population":[{"code":{"coding":[{"system":"http://terminology.hl7.org/CodeSystem/measure-population","code":"initial-population","display":"Initial Population"}]},"count":1},{"code":{"coding":[{"system":"http://terminology.hl7.org/CodeSystem/measure-population","code":"denominator","display":"Denominator"}]},"count":1},{"code":{"coding":[{"system":"http://terminology.hl7.org/CodeSystem/measure-population","code":"denominator-exclusion","display":"Denominator Exclusion"}]},"count":0},{"code":{"coding":[{"system":"http://terminology.hl7.org/CodeSystem/measure-population","code":"numerator","display":"Numerator"}]},"count":0}]}]},"request":{"method":"PUT","url":"MeasureReport/537ff646-cde4-4951-8d97-a7f2f551d27a"}}]}