{"resourceType":"Bundle","id":"tests-7f657b60-128b-4453-b085-73e8b21a48cc-bundle","type":"transaction","entry":[{"fullUrl":"https://madie.cms.gov/Patient/7f657b60-128b-4453-b085-73e8b21a48cc","resource":{"resourceType":"Patient","id":"7f657b60-128b-4453-b085-73e8b21a48cc","meta":{"profile":["http://hl7.org/fhir/us/qicore/StructureDefinition/qicore-patient"]},"extension":[{"url":"http://hl7.org/fhir/us/core/StructureDefinition/us-core-race","extension":[{"url":"ombCategory","valueCoding":{"system":"urn:oid:2.16.840.1.113883.6.238","code":"2028-9","display":"Asian"}},{"url":"text","valueString":"Asian"}]},{"url":"http://hl7.org/fhir/us/core/StructureDefinition/us-core-ethnicity","extension":[{"url":"ombCategory","valueCoding":{"system":"urn:oid:2.16.840.1.113883.6.238","code":"2135-2","display":"Hispanic or Latino"}},{"url":"text","valueString":"Hispanic or Latino"}]}],"identifier":[{"system":"http://hospital.smarthealthit.org","value":"999999995"}],"name":[{"family":"Bertha","given":["Betty"]}],"gender":"female","birthDate":"2006-01-01"},"request":{"method":"PUT","url":"Patient/7f657b60-128b-4453-b085-73e8b21a48cc"}},{"fullUrl":"https://madie.cms.gov/Procedure/Procedure-34","resource":{"resourceType":"Procedure","id":"dfac8f8b-7810-4440-908a-fff48c6163c6","meta":{"profile":["http://hl7.org/fhir/us/qicore/StructureDefinition/qicore-procedure"]},"extension":[{"url":"http://hl7.org/fhir/us/qicore/StructureDefinition/qicore-recorded","valueDateTime":"2023-11-01T00:00:00.000Z"}],"status":"completed","code":{"coding":[{"system":"http://www.cms.gov/Medicare/Coding/ICD10","code":"0SR9019","display":"Replacement of Right Hip Joint with Metal Synthetic Substitute, Cemented, Open Approach"}]},"subject":{"reference":"Patient/7f657b60-128b-4453-b085-73e8b21a48cc"},"performedPeriod":{"start":"2023-11-01T00:00:00.000Z","end":"2023-11-01T01:00:00.000Z"}},"request":{"method":"PUT","url":"Procedure/dfac8f8b-7810-4440-908a-fff48c6163c6"}},{"fullUrl":"https://madie.cms.gov/Encounter/Encounter-34","resource":{"resourceType":"Encounter","id":"53ea23f2-54d3-4241-a64a-121195c195c3","meta":{"profile":["http://hl7.org/fhir/us/qicore/StructureDefinition/qicore-encounter"]},"status":"finished","class":{"system":"http://terminology.hl7.org/CodeSystem/v3-ActCode","code":"AMB","display":"ambulatory"},"type":[{"coding":[{"system":"http://snomed.info/sct","code":"281036007","display":"Follow-up consultation (procedure)"}]}],"subject":{"reference":"Patient/7f657b60-128b-4453-b085-73e8b21a48cc"},"period":{"start":"2024-11-01T00:00:00.000Z","end":"2024-11-01T01:15:00.000Z"}},"request":{"method":"PUT","url":"Encounter/53ea23f2-54d3-4241-a64a-121195c195c3"}},{"fullUrl":"https://madie.cms.gov/Observation/Observation-34.1-1","resource":{"resourceType":"Observation","id":"2373c1fc-2809-4c60-8bed-bcef61e80de4","meta":{"profile":["http://hl7.org/fhir/us/qicore/StructureDefinition/qicore-observation"]},"status":"final","category":[{"coding":[{"system":"http://terminology.hl7.org/CodeSystem/observation-category","code":"survey"}]}],"code":{"coding":[{"system":"http://loinc.org","code":"72093-8","display":"Quality of life score [HOOS]"}]},"subject":{"reference":"Patient/7f657b60-128b-4453-b085-73e8b21a48cc"},"effectivePeriod":{"start":"2023-08-02T00:00:00.000Z","end":"2023-08-02T01:00:00.000Z"},"valueInteger":60},"request":{"method":"PUT","url":"Observation/2373c1fc-2809-4c60-8bed-bcef61e80de4"}},{"fullUrl":"https://madie.cms.gov/Observation/Observation-34.1-2","resource":{"resourceType":"Observation","id":"1a003ef5-1301-452d-96da-6d7ff162914a","meta":{"profile":["http://hl7.org/fhir/us/qicore/StructureDefinition/qicore-observation"]},"status":"final","category":[{"coding":[{"system":"http://terminology.hl7.org/CodeSystem/observation-category","code":"survey"}]}],"code":{"coding":[{"system":"http://loinc.org","code":"72094-6","display":"Sport-recreation score [HOOS]"}]},"subject":{"reference":"Patient/7f657b60-128b-4453-b085-73e8b21a48cc"},"effectivePeriod":{"start":"2023-08-02T00:00:00.000Z","end":"2023-08-02T01:00:00.000Z"},"valueInteger":60},"request":{"method":"PUT","url":"Observation/1a003ef5-1301-452d-96da-6d7ff162914a"}},{"fullUrl":"https://madie.cms.gov/Observation/Observation-34.1-3","resource":{"resourceType":"Observation","id":"c0a29fbd-6f87-4dd9-88f9-cae86f93ba41","meta":{"profile":["http://hl7.org/fhir/us/qicore/StructureDefinition/qicore-observation"]},"status":"final","category":[{"coding":[{"system":"http://terminology.hl7.org/CodeSystem/observation-category","code":"survey"}]}],"code":{"coding":[{"system":"http://loinc.org","code":"72095-3","display":"Activities of daily living score [HOOS]"}]},"subject":{"reference":"Patient/7f657b60-128b-4453-b085-73e8b21a48cc"},"effectivePeriod":{"start":"2023-08-02T00:00:00.000Z","end":"2023-08-02T01:00:00.000Z"},"valueInteger":60},"request":{"method":"PUT","url":"Observation/c0a29fbd-6f87-4dd9-88f9-cae86f93ba41"}},{"fullUrl":"https://madie.cms.gov/Observation/Observation-34.1-4","resource":{"resourceType":"Observation","id":"4eff6bbc-828a-4622-af96-12e7c95372ee","meta":{"profile":["http://hl7.org/fhir/us/qicore/StructureDefinition/qicore-observation"]},"status":"final","category":[{"coding":[{"system":"http://terminology.hl7.org/CodeSystem/observation-category","code":"survey"}]}],"code":{"coding":[{"system":"http://loinc.org","code":"72096-1","display":"Symptoms score [HOOS]"}]},"subject":{"reference":"Patient/7f657b60-128b-4453-b085-73e8b21a48cc"},"effectivePeriod":{"start":"2023-08-02T00:00:00.000Z","end":"2023-08-02T01:00:00.000Z"},"valueInteger":60},"request":{"method":"PUT","url":"Observation/4eff6bbc-828a-4622-af96-12e7c95372ee"}},{"fullUrl":"https://madie.cms.gov/Observation/Observation-34.1-5","resource":{"resourceType":"Observation","id":"8f03d551-2b17-477e-88bd-8eb6ea8e1f15","meta":{"profile":["http://hl7.org/fhir/us/qicore/StructureDefinition/qicore-observation"]},"status":"final","category":[{"coding":[{"system":"http://terminology.hl7.org/CodeSystem/observation-category","code":"survey"}]}],"code":{"coding":[{"system":"http://loinc.org","code":"72097-9","display":"Pain score [HOOS]"}]},"subject":{"reference":"Patient/7f657b60-128b-4453-b085-73e8b21a48cc"},"effectivePeriod":{"start":"2023-08-02T00:00:00.000Z","end":"2023-08-02T01:00:00.000Z"},"valueInteger":60},"request":{"method":"PUT","url":"Observation/8f03d551-2b17-477e-88bd-8eb6ea8e1f15"}},{"fullUrl":"https://madie.cms.gov/Observation/Observation-34.2-1","resource":{"resourceType":"Observation","id":"3d10f300-781a-4d5d-b153-8af80a3125e9","meta":{"profile":["http://hl7.org/fhir/us/qicore/StructureDefinition/qicore-observation"]},"status":"final","category":[{"coding":[{"system":"http://terminology.hl7.org/CodeSystem/observation-category","code":"survey"}]}],"code":{"coding":[{"system":"http://loinc.org","code":"72093-8","display":"Quality of life score [HOOS]"}]},"subject":{"reference":"Patient/7f657b60-128b-4453-b085-73e8b21a48cc"},"effectivePeriod":{"start":"2024-12-30T00:00:00.000Z","end":"2024-12-30T01:00:00.000Z"},"valueInteger":60},"request":{"method":"PUT","url":"Observation/3d10f300-781a-4d5d-b153-8af80a3125e9"}},{"fullUrl":"https://madie.cms.gov/Observation/Observation-34.2-2","resource":{"resourceType":"Observation","id":"7b22cc55-a008-45ce-b251-8d3ee94386fa","meta":{"profile":["http://hl7.org/fhir/us/qicore/StructureDefinition/qicore-observation"]},"status":"final","category":[{"coding":[{"system":"http://terminology.hl7.org/CodeSystem/observation-category","code":"survey"}]}],"code":{"coding":[{"system":"http://loinc.org","code":"72094-6","display":"Sport-recreation score [HOOS]"}]},"subject":{"reference":"Patient/7f657b60-128b-4453-b085-73e8b21a48cc"},"effectivePeriod":{"start":"2024-12-30T00:00:00.000Z","end":"2024-12-30T01:00:00.000Z"},"valueInteger":60},"request":{"method":"PUT","url":"Observation/7b22cc55-a008-45ce-b251-8d3ee94386fa"}},{"fullUrl":"https://madie.cms.gov/Observation/Observation-34.2-3","resource":{"resourceType":"Observation","id":"4251890a-ddf1-4ad2-87ec-d8009942bf7e","meta":{"profile":["http://hl7.org/fhir/us/qicore/StructureDefinition/qicore-observation"]},"status":"final","category":[{"coding":[{"system":"http://terminology.hl7.org/CodeSystem/observation-category","code":"survey"}]}],"code":{"coding":[{"system":"http://loinc.org","code":"72095-3","display":"Activities of daily living score [HOOS]"}]},"subject":{"reference":"Patient/7f657b60-128b-4453-b085-73e8b21a48cc"},"effectivePeriod":{"start":"2024-12-30T00:00:00.000Z","end":"2024-12-30T01:00:00.000Z"},"valueInteger":60},"request":{"method":"PUT","url":"Observation/4251890a-ddf1-4ad2-87ec-d8009942bf7e"}},{"fullUrl":"https://madie.cms.gov/Observation/Observation-34.2-4","resource":{"resourceType":"Observation","id":"f5dab4f6-8a26-46e4-b727-bdcc76b57864","meta":{"profile":["http://hl7.org/fhir/us/qicore/StructureDefinition/qicore-observation"]},"status":"final","category":[{"coding":[{"system":"http://terminology.hl7.org/CodeSystem/observation-category","code":"survey"}]}],"code":{"coding":[{"system":"http://loinc.org","code":"72096-1","display":"Symptoms score [HOOS]"}]},"subject":{"reference":"Patient/7f657b60-128b-4453-b085-73e8b21a48cc"},"effectivePeriod":{"start":"2024-12-30T00:00:00.000Z","end":"2024-12-30T01:00:00.000Z"},"valueInteger":60},"request":{"method":"PUT","url":"Observation/f5dab4f6-8a26-46e4-b727-bdcc76b57864"}},{"fullUrl":"https://madie.cms.gov/Observation/Observation-34.2-5","resource":{"resourceType":"Observation","id":"0856776b-fe33-4436-87e1-3dd44a813a03","meta":{"profile":["http://hl7.org/fhir/us/qicore/StructureDefinition/qicore-observation"]},"status":"final","category":[{"coding":[{"system":"http://terminology.hl7.org/CodeSystem/observation-category","code":"survey"}]}],"code":{"coding":[{"system":"http://loinc.org","code":"72097-9","display":"Pain score [HOOS]"}]},"subject":{"reference":"Patient/7f657b60-128b-4453-b085-73e8b21a48cc"},"effectivePeriod":{"start":"2024-12-30T00:00:00.000Z","end":"2024-12-30T01:00:00.000Z"},"valueInteger":60},"request":{"method":"PUT","url":"Observation/0856776b-fe33-4436-87e1-3dd44a813a03"}},{"fullUrl":"https://madie.cms.gov/MeasureReport/0b9913ba-8752-41ab-8b1e-6675a3844926","resource":{"resourceType":"MeasureReport","id":"0b9913ba-8752-41ab-8b1e-6675a3844926","meta":{"profile":["http://hl7.org/fhir/us/cqfmeasures/StructureDefinition/test-case-cqfm"]},"contained":[{"resourceType":"Parameters","id":"1a0a3836-fc61-4a6b-b9a0-2484babc9869-parameters","parameter":[{"name":"subject","valueString":"7f657b60-128b-4453-b085-73e8b21a48cc"}]}],"extension":[{"url":"http://hl7.org/fhir/us/cqfmeasures/StructureDefinition/cqfm-inputParameters","valueReference":{"reference":"#1a0a3836-fc61-4a6b-b9a0-2484babc9869-parameters"}},{"url":"http://hl7.org/fhir/us/cqfmeasures/StructureDefinition/cqfm-testCaseDescription","valueMarkdown":"Patient w/ a THA Procedure 11/1, Initial Hip Assessment 91 days before THA Procedure(8/2), and FollowUp Hip Assessment HOOS 425 days after THA Procedure (12/30)\""}],"modifierExtension":[{"url":"http://hl7.org/fhir/us/cqfmeasures/StructureDefinition/cqfm-isTestCase","valueBoolean":true}],"status":"complete","type":"individual","measure":"https://madie.cms.gov/Measure/FunctionalStatusAssessmentforTotalHipReplacementFHIR","period":{"start":"2025-01-01","end":"2025-12-31"},"group":[{"population":[{"code":{"coding":[{"system":"http://terminology.hl7.org/CodeSystem/measure-population","code":"initial-population","display":"Initial Population"}]},"count":1},{"code":{"coding":[{"system":"http://terminology.hl7.org/CodeSystem/measure-population","code":"denominator","display":"Denominator"}]},"count":1},{"code":{"coding":[{"system":"http://terminology.hl7.org/CodeSystem/measure-population","code":"denominator-exclusion","display":"Denominator Exclusion"}]},"count":0},{"code":{"coding":[{"system":"http://terminology.hl7.org/CodeSystem/measure-population","code":"numerator","display":"Numerator"}]},"count":0}]}]},"request":{"method":"PUT","url":"MeasureReport/0b9913ba-8752-41ab-8b1e-6675a3844926"}}]}