{"resourceType":"Bundle","id":"tests-43cf7738-291f-4ca4-92cc-1d148a99c5c8-bundle","type":"transaction","entry":[{"fullUrl":"https://madie.cms.gov/Patient/43cf7738-291f-4ca4-92cc-1d148a99c5c8","resource":{"resourceType":"Patient","id":"43cf7738-291f-4ca4-92cc-1d148a99c5c8","meta":{"profile":["http://hl7.org/fhir/us/qicore/StructureDefinition/qicore-patient"]},"extension":[{"url":"http://hl7.org/fhir/us/core/StructureDefinition/us-core-race","extension":[{"url":"ombCategory","valueCoding":{"system":"urn:oid:2.16.840.1.113883.6.238","code":"2028-9","display":"Asian"}},{"url":"text","valueString":"Asian"}]},{"url":"http://hl7.org/fhir/us/core/StructureDefinition/us-core-ethnicity","extension":[{"url":"ombCategory","valueCoding":{"system":"urn:oid:2.16.840.1.113883.6.238","code":"2135-2","display":"Hispanic or Latino"}},{"url":"text","valueString":"Hispanic or Latino"}]}],"identifier":[{"system":"http://hospital.smarthealthit.org","value":"999999995"}],"name":[{"family":"Bertha","given":["Betty"]}],"gender":"female","birthDate":"2006-01-01"},"request":{"method":"PUT","url":"Patient/43cf7738-291f-4ca4-92cc-1d148a99c5c8"}},{"fullUrl":"https://madie.cms.gov/Procedure/Procedure-40","resource":{"resourceType":"Procedure","id":"7dc31038-6d35-4459-99ee-97a6a2be00b6","meta":{"profile":["http://hl7.org/fhir/us/qicore/StructureDefinition/qicore-procedure"]},"extension":[{"url":"http://hl7.org/fhir/us/qicore/StructureDefinition/qicore-recorded","valueDateTime":"2023-11-01T00:00:00.000Z"}],"status":"completed","code":{"coding":[{"system":"http://www.cms.gov/Medicare/Coding/ICD10","code":"0SR9019","display":"Replacement of Right Hip Joint with Metal Synthetic Substitute, Cemented, Open Approach"}]},"subject":{"reference":"Patient/43cf7738-291f-4ca4-92cc-1d148a99c5c8"},"performedPeriod":{"start":"2023-11-01T00:00:00.000Z","end":"2023-11-01T01:00:00.000Z"}},"request":{"method":"PUT","url":"Procedure/7dc31038-6d35-4459-99ee-97a6a2be00b6"}},{"fullUrl":"https://madie.cms.gov/Encounter/Encounter-40","resource":{"resourceType":"Encounter","id":"0860cebc-1779-4eee-b2d6-d11d60fcfe9e","meta":{"profile":["http://hl7.org/fhir/us/qicore/StructureDefinition/qicore-encounter"]},"status":"finished","class":{"system":"http://terminology.hl7.org/CodeSystem/v3-ActCode","code":"AMB","display":"ambulatory"},"type":[{"coding":[{"system":"http://snomed.info/sct","code":"281036007","display":"Follow-up consultation (procedure)"}]}],"subject":{"reference":"Patient/43cf7738-291f-4ca4-92cc-1d148a99c5c8"},"period":{"start":"2024-11-01T00:00:00.000Z","end":"2024-11-01T01:15:00.000Z"}},"request":{"method":"PUT","url":"Encounter/0860cebc-1779-4eee-b2d6-d11d60fcfe9e"}},{"fullUrl":"https://madie.cms.gov/Observation/Observation-40.1-1","resource":{"resourceType":"Observation","id":"494a2853-8750-4349-b17a-fd79294ba320","meta":{"profile":["http://hl7.org/fhir/us/qicore/StructureDefinition/qicore-observation"]},"status":"final","category":[{"coding":[{"system":"http://terminology.hl7.org/CodeSystem/observation-category","code":"survey"}]}],"code":{"coding":[{"system":"http://loinc.org","code":"71969-0","display":"PROMIS-10 Global Mental Health (GMH) score T-score"}]},"subject":{"reference":"Patient/43cf7738-291f-4ca4-92cc-1d148a99c5c8"},"effectivePeriod":{"start":"2023-08-03T00:00:00.000Z","end":"2023-08-03T01:00:00.000Z"},"valueInteger":60},"request":{"method":"PUT","url":"Observation/494a2853-8750-4349-b17a-fd79294ba320"}},{"fullUrl":"https://madie.cms.gov/Observation/Observation-40.1-2","resource":{"resourceType":"Observation","id":"bae5f610-a040-4fcb-82ba-cabf482b8569","meta":{"profile":["http://hl7.org/fhir/us/qicore/StructureDefinition/qicore-observation"]},"status":"final","category":[{"coding":[{"system":"http://terminology.hl7.org/CodeSystem/observation-category","code":"survey"}]}],"code":{"coding":[{"system":"http://loinc.org","code":"71971-6","display":"PROMIS-10 Global Physical Health (GPH) score T-score"}]},"subject":{"reference":"Patient/43cf7738-291f-4ca4-92cc-1d148a99c5c8"},"effectivePeriod":{"start":"2023-08-03T00:00:00.000Z","end":"2023-08-03T01:00:00.000Z"},"valueInteger":60},"request":{"method":"PUT","url":"Observation/bae5f610-a040-4fcb-82ba-cabf482b8569"}},{"fullUrl":"https://madie.cms.gov/Observation/Observation-40.2-1","resource":{"resourceType":"Observation","id":"62255327-666b-4035-b075-3b787f059bdf","meta":{"profile":["http://hl7.org/fhir/us/qicore/StructureDefinition/qicore-observation"]},"status":"final","category":[{"coding":[{"system":"http://terminology.hl7.org/CodeSystem/observation-category","code":"survey"}]}],"code":{"coding":[{"system":"http://loinc.org","code":"71969-0","display":"PROMIS-10 Global Mental Health (GMH) score T-score"}]},"subject":{"reference":"Patient/43cf7738-291f-4ca4-92cc-1d148a99c5c8"},"effectivePeriod":{"start":"2024-12-30T00:00:00.000Z","end":"2024-12-30T01:00:00.000Z"},"valueInteger":60},"request":{"method":"PUT","url":"Observation/62255327-666b-4035-b075-3b787f059bdf"}},{"fullUrl":"https://madie.cms.gov/Observation/Observation-40.2-2","resource":{"resourceType":"Observation","id":"ba4b4d79-df64-4b04-a1e4-a4e0ad8d2450","meta":{"profile":["http://hl7.org/fhir/us/qicore/StructureDefinition/qicore-observation"]},"status":"final","category":[{"coding":[{"system":"http://terminology.hl7.org/CodeSystem/observation-category","code":"survey"}]}],"code":{"coding":[{"system":"http://loinc.org","code":"71971-6","display":"PROMIS-10 Global Physical Health (GPH) score T-score"}]},"subject":{"reference":"Patient/43cf7738-291f-4ca4-92cc-1d148a99c5c8"},"effectivePeriod":{"start":"2024-12-30T00:00:00.000Z","end":"2024-12-30T01:00:00.000Z"},"valueInteger":60},"request":{"method":"PUT","url":"Observation/ba4b4d79-df64-4b04-a1e4-a4e0ad8d2450"}},{"fullUrl":"https://madie.cms.gov/MeasureReport/00a53b02-7c68-4828-89de-952be1048ba7","resource":{"resourceType":"MeasureReport","id":"00a53b02-7c68-4828-89de-952be1048ba7","meta":{"profile":["http://hl7.org/fhir/us/cqfmeasures/StructureDefinition/test-case-cqfm"]},"contained":[{"resourceType":"Parameters","id":"9f004362-02ad-4d6f-b04a-800d9177930c-parameters","parameter":[{"name":"subject","valueString":"43cf7738-291f-4ca4-92cc-1d148a99c5c8"}]}],"extension":[{"url":"http://hl7.org/fhir/us/cqfmeasures/StructureDefinition/cqfm-inputParameters","valueReference":{"reference":"#9f004362-02ad-4d6f-b04a-800d9177930c-parameters"}},{"url":"http://hl7.org/fhir/us/cqfmeasures/StructureDefinition/cqfm-testCaseDescription","valueMarkdown":"Patient w/ a THA Procedure 11/1, Initial Hip Assessment PROMIS10 90 days before THA Procedure(8/3), and FollowUp Hip Assessment PROMIS10 425 days after THA Procedure (12/30)"}],"modifierExtension":[{"url":"http://hl7.org/fhir/us/cqfmeasures/StructureDefinition/cqfm-isTestCase","valueBoolean":true}],"status":"complete","type":"individual","measure":"https://madie.cms.gov/Measure/FunctionalStatusAssessmentforTotalHipReplacementFHIR","period":{"start":"2025-01-01","end":"2025-12-31"},"group":[{"population":[{"code":{"coding":[{"system":"http://terminology.hl7.org/CodeSystem/measure-population","code":"initial-population","display":"Initial Population"}]},"count":1},{"code":{"coding":[{"system":"http://terminology.hl7.org/CodeSystem/measure-population","code":"denominator","display":"Denominator"}]},"count":1},{"code":{"coding":[{"system":"http://terminology.hl7.org/CodeSystem/measure-population","code":"denominator-exclusion","display":"Denominator Exclusion"}]},"count":0},{"code":{"coding":[{"system":"http://terminology.hl7.org/CodeSystem/measure-population","code":"numerator","display":"Numerator"}]},"count":1}]}]},"request":{"method":"PUT","url":"MeasureReport/00a53b02-7c68-4828-89de-952be1048ba7"}}]}