{"resourceType":"Bundle","id":"tests-ba296236-cee8-4ec1-aa6b-341477c99af2-bundle","type":"transaction","entry":[{"fullUrl":"https://madie.cms.gov/Patient/ba296236-cee8-4ec1-aa6b-341477c99af2","resource":{"resourceType":"Patient","id":"ba296236-cee8-4ec1-aa6b-341477c99af2","meta":{"profile":["http://hl7.org/fhir/us/qicore/StructureDefinition/qicore-patient"]},"extension":[{"url":"http://hl7.org/fhir/us/core/StructureDefinition/us-core-race","extension":[{"url":"ombCategory","valueCoding":{"system":"urn:oid:2.16.840.1.113883.6.238","code":"2028-9","display":"Asian"}},{"url":"text","valueString":"Asian"}]},{"url":"http://hl7.org/fhir/us/core/StructureDefinition/us-core-ethnicity","extension":[{"url":"ombCategory","valueCoding":{"system":"urn:oid:2.16.840.1.113883.6.238","code":"2135-2","display":"Hispanic or Latino"}},{"url":"text","valueString":"Hispanic or Latino"}]}],"identifier":[{"system":"http://hospital.smarthealthit.org","value":"999999995"}],"name":[{"family":"Bertha","given":["Betty"]}],"gender":"female","birthDate":"2006-01-01"},"request":{"method":"PUT","url":"Patient/ba296236-cee8-4ec1-aa6b-341477c99af2"}},{"fullUrl":"https://madie.cms.gov/Procedure/Procedure-35","resource":{"resourceType":"Procedure","id":"284bca1a-5c38-470a-b200-1f16ba558eb6","meta":{"profile":["http://hl7.org/fhir/us/qicore/StructureDefinition/qicore-procedure"]},"extension":[{"url":"http://hl7.org/fhir/us/qicore/StructureDefinition/qicore-recorded","valueDateTime":"2023-11-01T00:00:00.000Z"}],"status":"completed","code":{"coding":[{"system":"http://www.cms.gov/Medicare/Coding/ICD10","code":"0SR9019","display":"Replacement of Right Hip Joint with Metal Synthetic Substitute, Cemented, Open Approach"}]},"subject":{"reference":"Patient/ba296236-cee8-4ec1-aa6b-341477c99af2"},"performedPeriod":{"start":"2023-11-01T00:00:00.000Z","end":"2023-11-01T01:00:00.000Z"}},"request":{"method":"PUT","url":"Procedure/284bca1a-5c38-470a-b200-1f16ba558eb6"}},{"fullUrl":"https://madie.cms.gov/Encounter/Encounter-35","resource":{"resourceType":"Encounter","id":"d9debade-824e-4a18-9544-546d152106cd","meta":{"profile":["http://hl7.org/fhir/us/qicore/StructureDefinition/qicore-encounter"]},"status":"finished","class":{"system":"http://terminology.hl7.org/CodeSystem/v3-ActCode","code":"AMB","display":"ambulatory"},"type":[{"coding":[{"system":"http://snomed.info/sct","code":"281036007","display":"Follow-up consultation (procedure)"}]}],"subject":{"reference":"Patient/ba296236-cee8-4ec1-aa6b-341477c99af2"},"period":{"start":"2024-11-01T00:00:00.000Z","end":"2024-11-01T01:15:00.000Z"}},"request":{"method":"PUT","url":"Encounter/d9debade-824e-4a18-9544-546d152106cd"}},{"fullUrl":"https://madie.cms.gov/Observation/Observation-35.1-1","resource":{"resourceType":"Observation","id":"928cc4e7-00cb-4c1c-8a8e-ab8a34f268d1","meta":{"profile":["http://hl7.org/fhir/us/qicore/StructureDefinition/qicore-observation"]},"status":"final","category":[{"coding":[{"system":"http://terminology.hl7.org/CodeSystem/observation-category","code":"survey"}]}],"code":{"coding":[{"system":"http://loinc.org","code":"72093-8","display":"Quality of life score [HOOS]"}]},"subject":{"reference":"Patient/ba296236-cee8-4ec1-aa6b-341477c99af2"},"effectivePeriod":{"start":"2023-11-01T00:00:00.000Z","end":"2023-11-01T01:00:00.000Z"},"valueInteger":60},"request":{"method":"PUT","url":"Observation/928cc4e7-00cb-4c1c-8a8e-ab8a34f268d1"}},{"fullUrl":"https://madie.cms.gov/Observation/Observation-35.1-2","resource":{"resourceType":"Observation","id":"ee8221de-16ed-473e-8411-e733e2180716","meta":{"profile":["http://hl7.org/fhir/us/qicore/StructureDefinition/qicore-observation"]},"status":"final","category":[{"coding":[{"system":"http://terminology.hl7.org/CodeSystem/observation-category","code":"survey"}]}],"code":{"coding":[{"system":"http://loinc.org","code":"72094-6","display":"Sport-recreation score [HOOS]"}]},"subject":{"reference":"Patient/ba296236-cee8-4ec1-aa6b-341477c99af2"},"effectivePeriod":{"start":"2023-11-01T00:00:00.000Z","end":"2023-11-01T01:00:00.000Z"},"valueInteger":60},"request":{"method":"PUT","url":"Observation/ee8221de-16ed-473e-8411-e733e2180716"}},{"fullUrl":"https://madie.cms.gov/Observation/Observation-35.1-3","resource":{"resourceType":"Observation","id":"3be765b2-36ca-4cfb-bc9f-2ae8bc166847","meta":{"profile":["http://hl7.org/fhir/us/qicore/StructureDefinition/qicore-observation"]},"status":"final","category":[{"coding":[{"system":"http://terminology.hl7.org/CodeSystem/observation-category","code":"survey"}]}],"code":{"coding":[{"system":"http://loinc.org","code":"72095-3","display":"Activities of daily living score [HOOS]"}]},"subject":{"reference":"Patient/ba296236-cee8-4ec1-aa6b-341477c99af2"},"effectivePeriod":{"start":"2023-11-01T00:00:00.000Z","end":"2023-11-01T01:00:00.000Z"},"valueInteger":60},"request":{"method":"PUT","url":"Observation/3be765b2-36ca-4cfb-bc9f-2ae8bc166847"}},{"fullUrl":"https://madie.cms.gov/Observation/Observation-35.1-4","resource":{"resourceType":"Observation","id":"55d3c219-a3be-4376-b816-546fe3387ddb","meta":{"profile":["http://hl7.org/fhir/us/qicore/StructureDefinition/qicore-observation"]},"status":"final","category":[{"coding":[{"system":"http://terminology.hl7.org/CodeSystem/observation-category","code":"survey"}]}],"code":{"coding":[{"system":"http://loinc.org","code":"72096-1","display":"Symptoms score [HOOS]"}]},"subject":{"reference":"Patient/ba296236-cee8-4ec1-aa6b-341477c99af2"},"effectivePeriod":{"start":"2023-11-01T00:00:00.000Z","end":"2023-11-01T01:00:00.000Z"},"valueInteger":60},"request":{"method":"PUT","url":"Observation/55d3c219-a3be-4376-b816-546fe3387ddb"}},{"fullUrl":"https://madie.cms.gov/Observation/Observation-35.1-5","resource":{"resourceType":"Observation","id":"4c15bf34-cb2c-493f-ae23-fbf58916b0ba","meta":{"profile":["http://hl7.org/fhir/us/qicore/StructureDefinition/qicore-observation"]},"status":"final","category":[{"coding":[{"system":"http://terminology.hl7.org/CodeSystem/observation-category","code":"survey"}]}],"code":{"coding":[{"system":"http://loinc.org","code":"72097-9","display":"Pain score [HOOS]"}]},"subject":{"reference":"Patient/ba296236-cee8-4ec1-aa6b-341477c99af2"},"effectivePeriod":{"start":"2023-11-01T00:00:00.000Z","end":"2023-11-01T01:00:00.000Z"},"valueInteger":60},"request":{"method":"PUT","url":"Observation/4c15bf34-cb2c-493f-ae23-fbf58916b0ba"}},{"fullUrl":"https://madie.cms.gov/Observation/Observation-35.2-1","resource":{"resourceType":"Observation","id":"9dae9c98-2b2b-46f4-9234-e283addc8aa9","meta":{"profile":["http://hl7.org/fhir/us/qicore/StructureDefinition/qicore-observation"]},"status":"final","category":[{"coding":[{"system":"http://terminology.hl7.org/CodeSystem/observation-category","code":"survey"}]}],"code":{"coding":[{"system":"http://loinc.org","code":"72093-8","display":"Quality of life score [HOOS]"}]},"subject":{"reference":"Patient/ba296236-cee8-4ec1-aa6b-341477c99af2"},"effectivePeriod":{"start":"2024-08-26T00:00:00.000Z","end":"2024-08-26T01:00:00.000Z"},"valueInteger":60},"request":{"method":"PUT","url":"Observation/9dae9c98-2b2b-46f4-9234-e283addc8aa9"}},{"fullUrl":"https://madie.cms.gov/Observation/Observation-35.2-2","resource":{"resourceType":"Observation","id":"176e27bb-c244-45b0-8587-fda6dc5fba93","meta":{"profile":["http://hl7.org/fhir/us/qicore/StructureDefinition/qicore-observation"]},"status":"final","category":[{"coding":[{"system":"http://terminology.hl7.org/CodeSystem/observation-category","code":"survey"}]}],"code":{"coding":[{"system":"http://loinc.org","code":"72094-6","display":"Sport-recreation score [HOOS]"}]},"subject":{"reference":"Patient/ba296236-cee8-4ec1-aa6b-341477c99af2"},"effectivePeriod":{"start":"2024-08-26T00:00:00.000Z","end":"2024-08-26T01:00:00.000Z"},"valueInteger":60},"request":{"method":"PUT","url":"Observation/176e27bb-c244-45b0-8587-fda6dc5fba93"}},{"fullUrl":"https://madie.cms.gov/Observation/Observation-35.2-3","resource":{"resourceType":"Observation","id":"c714c3b8-424e-4a6a-b5c7-d5d48608b7dc","meta":{"profile":["http://hl7.org/fhir/us/qicore/StructureDefinition/qicore-observation"]},"status":"final","category":[{"coding":[{"system":"http://terminology.hl7.org/CodeSystem/observation-category","code":"survey"}]}],"code":{"coding":[{"system":"http://loinc.org","code":"72095-3","display":"Activities of daily living score [HOOS]"}]},"subject":{"reference":"Patient/ba296236-cee8-4ec1-aa6b-341477c99af2"},"effectivePeriod":{"start":"2024-08-26T00:00:00.000Z","end":"2024-08-26T01:00:00.000Z"},"valueInteger":60},"request":{"method":"PUT","url":"Observation/c714c3b8-424e-4a6a-b5c7-d5d48608b7dc"}},{"fullUrl":"https://madie.cms.gov/Observation/Observation-35.2-4","resource":{"resourceType":"Observation","id":"4fb98b37-c17d-4c13-9cc2-4b7a46e2c601","meta":{"profile":["http://hl7.org/fhir/us/qicore/StructureDefinition/qicore-observation"]},"status":"final","category":[{"coding":[{"system":"http://terminology.hl7.org/CodeSystem/observation-category","code":"survey"}]}],"code":{"coding":[{"system":"http://loinc.org","code":"72096-1","display":"Symptoms score [HOOS]"}]},"subject":{"reference":"Patient/ba296236-cee8-4ec1-aa6b-341477c99af2"},"effectivePeriod":{"start":"2024-08-26T00:00:00.000Z","end":"2024-08-26T01:00:00.000Z"},"valueInteger":60},"request":{"method":"PUT","url":"Observation/4fb98b37-c17d-4c13-9cc2-4b7a46e2c601"}},{"fullUrl":"https://madie.cms.gov/Observation/Observation-35.2-5","resource":{"resourceType":"Observation","id":"c54b74b8-f339-42d8-813c-bd84b5effc75","meta":{"profile":["http://hl7.org/fhir/us/qicore/StructureDefinition/qicore-observation"]},"status":"final","category":[{"coding":[{"system":"http://terminology.hl7.org/CodeSystem/observation-category","code":"survey"}]}],"code":{"coding":[{"system":"http://loinc.org","code":"72097-9","display":"Pain score [HOOS]"}]},"subject":{"reference":"Patient/ba296236-cee8-4ec1-aa6b-341477c99af2"},"effectivePeriod":{"start":"2024-08-26T00:00:00.000Z","end":"2024-08-26T01:00:00.000Z"},"valueInteger":60},"request":{"method":"PUT","url":"Observation/c54b74b8-f339-42d8-813c-bd84b5effc75"}},{"fullUrl":"https://madie.cms.gov/MeasureReport/2357baea-8370-4dd0-a9d2-222ecabe49ee","resource":{"resourceType":"MeasureReport","id":"2357baea-8370-4dd0-a9d2-222ecabe49ee","meta":{"profile":["http://hl7.org/fhir/us/cqfmeasures/StructureDefinition/test-case-cqfm"]},"contained":[{"resourceType":"Parameters","id":"62ea43ee-5970-4b2e-a706-acc87e38d382-parameters","parameter":[{"name":"subject","valueString":"ba296236-cee8-4ec1-aa6b-341477c99af2"}]}],"extension":[{"url":"http://hl7.org/fhir/us/cqfmeasures/StructureDefinition/cqfm-inputParameters","valueReference":{"reference":"#62ea43ee-5970-4b2e-a706-acc87e38d382-parameters"}},{"url":"http://hl7.org/fhir/us/cqfmeasures/StructureDefinition/cqfm-testCaseDescription","valueMarkdown":"Patient w/ a THA Procedure 11/1, Initial Hip Assessment HOOS Same day as THA Procedure(11/1), and FollowUp Hip Assessment HOOS 299 days after THA Procedure (8/26)"}],"modifierExtension":[{"url":"http://hl7.org/fhir/us/cqfmeasures/StructureDefinition/cqfm-isTestCase","valueBoolean":true}],"status":"complete","type":"individual","measure":"https://madie.cms.gov/Measure/FunctionalStatusAssessmentforTotalHipReplacementFHIR","period":{"start":"2025-01-01","end":"2025-12-31"},"group":[{"population":[{"code":{"coding":[{"system":"http://terminology.hl7.org/CodeSystem/measure-population","code":"initial-population","display":"Initial Population"}]},"count":1},{"code":{"coding":[{"system":"http://terminology.hl7.org/CodeSystem/measure-population","code":"denominator","display":"Denominator"}]},"count":1},{"code":{"coding":[{"system":"http://terminology.hl7.org/CodeSystem/measure-population","code":"denominator-exclusion","display":"Denominator Exclusion"}]},"count":0},{"code":{"coding":[{"system":"http://terminology.hl7.org/CodeSystem/measure-population","code":"numerator","display":"Numerator"}]},"count":0}]}]},"request":{"method":"PUT","url":"MeasureReport/2357baea-8370-4dd0-a9d2-222ecabe49ee"}}]}