{"resourceType":"Bundle","id":"tests-49640f81-b5ff-408a-82eb-436cf41a9d1d-bundle","type":"transaction","entry":[{"fullUrl":"https://madie.cms.gov/Patient/49640f81-b5ff-408a-82eb-436cf41a9d1d","resource":{"resourceType":"Patient","id":"49640f81-b5ff-408a-82eb-436cf41a9d1d","meta":{"profile":["http://hl7.org/fhir/us/qicore/StructureDefinition/qicore-patient"]},"extension":[{"url":"http://hl7.org/fhir/us/core/StructureDefinition/us-core-race","extension":[{"url":"ombCategory","valueCoding":{"system":"urn:oid:2.16.840.1.113883.6.238","code":"2028-9","display":"Asian"}},{"url":"text","valueString":"Asian"}]},{"url":"http://hl7.org/fhir/us/core/StructureDefinition/us-core-ethnicity","extension":[{"url":"ombCategory","valueCoding":{"system":"urn:oid:2.16.840.1.113883.6.238","code":"2135-2","display":"Hispanic or Latino"}},{"url":"text","valueString":"Hispanic or Latino"}]}],"identifier":[{"system":"http://hospital.smarthealthit.org","value":"999999995"}],"name":[{"family":"Bertha","given":["Betty"]}],"gender":"female","birthDate":"2006-01-01"},"request":{"method":"PUT","url":"Patient/49640f81-b5ff-408a-82eb-436cf41a9d1d"}},{"fullUrl":"https://madie.cms.gov/Procedure/Procedure-32","resource":{"resourceType":"Procedure","id":"71e2b13e-0509-45bf-af2f-70230d1739fb","meta":{"profile":["http://hl7.org/fhir/us/qicore/StructureDefinition/qicore-procedure"]},"extension":[{"url":"http://hl7.org/fhir/us/qicore/StructureDefinition/qicore-recorded","valueDateTime":"2023-11-01T00:00:00.000Z"}],"status":"completed","code":{"coding":[{"system":"http://www.cms.gov/Medicare/Coding/ICD10","code":"0SR9019","display":"Replacement of Right Hip Joint with Metal Synthetic Substitute, Cemented, Open Approach"}]},"subject":{"reference":"Patient/49640f81-b5ff-408a-82eb-436cf41a9d1d"},"performedPeriod":{"start":"2023-11-01T00:00:00.000Z","end":"2023-11-01T01:00:00.000Z"}},"request":{"method":"PUT","url":"Procedure/71e2b13e-0509-45bf-af2f-70230d1739fb"}},{"fullUrl":"https://madie.cms.gov/Encounter/Encounter-32","resource":{"resourceType":"Encounter","id":"2b8353d7-f1a4-482c-8068-4b9f1632850e","meta":{"profile":["http://hl7.org/fhir/us/qicore/StructureDefinition/qicore-encounter"]},"status":"finished","class":{"system":"http://terminology.hl7.org/CodeSystem/v3-ActCode","code":"AMB","display":"ambulatory"},"type":[{"coding":[{"system":"http://snomed.info/sct","code":"281036007","display":"Follow-up consultation (procedure)"}]}],"subject":{"reference":"Patient/49640f81-b5ff-408a-82eb-436cf41a9d1d"},"period":{"start":"2024-11-01T00:00:00.000Z","end":"2024-11-01T01:15:00.000Z"}},"request":{"method":"PUT","url":"Encounter/2b8353d7-f1a4-482c-8068-4b9f1632850e"}},{"fullUrl":"https://madie.cms.gov/Observation/Observation-32.1-1","resource":{"resourceType":"Observation","id":"7f2c5b8f-e1b3-400c-8346-9d653c62e56a","meta":{"profile":["http://hl7.org/fhir/us/qicore/StructureDefinition/qicore-observation"]},"status":"final","category":[{"coding":[{"system":"http://terminology.hl7.org/CodeSystem/observation-category","code":"survey"}]}],"code":{"coding":[{"system":"http://loinc.org","code":"72093-8","display":"Quality of life score [HOOS]"}]},"subject":{"reference":"Patient/49640f81-b5ff-408a-82eb-436cf41a9d1d"},"effectivePeriod":{"start":"2023-11-02T00:00:00.000Z","end":"2023-11-02T01:00:00.000Z"},"valueInteger":60},"request":{"method":"PUT","url":"Observation/7f2c5b8f-e1b3-400c-8346-9d653c62e56a"}},{"fullUrl":"https://madie.cms.gov/Observation/Observation-32.1-2","resource":{"resourceType":"Observation","id":"091fecda-a324-4972-8fab-6c1d5f6644fd","meta":{"profile":["http://hl7.org/fhir/us/qicore/StructureDefinition/qicore-observation"]},"status":"final","category":[{"coding":[{"system":"http://terminology.hl7.org/CodeSystem/observation-category","code":"survey"}]}],"code":{"coding":[{"system":"http://loinc.org","code":"72094-6","display":"Sport-recreation score [HOOS]"}]},"subject":{"reference":"Patient/49640f81-b5ff-408a-82eb-436cf41a9d1d"},"effectivePeriod":{"start":"2023-11-02T00:00:00.000Z","end":"2023-11-02T01:00:00.000Z"},"valueInteger":60},"request":{"method":"PUT","url":"Observation/091fecda-a324-4972-8fab-6c1d5f6644fd"}},{"fullUrl":"https://madie.cms.gov/Observation/Observation-32.1-3","resource":{"resourceType":"Observation","id":"a986a14b-eef3-4879-8985-619e6d648d20","meta":{"profile":["http://hl7.org/fhir/us/qicore/StructureDefinition/qicore-observation"]},"status":"final","category":[{"coding":[{"system":"http://terminology.hl7.org/CodeSystem/observation-category","code":"survey"}]}],"code":{"coding":[{"system":"http://loinc.org","code":"72095-3","display":"Activities of daily living score [HOOS]"}]},"subject":{"reference":"Patient/49640f81-b5ff-408a-82eb-436cf41a9d1d"},"effectivePeriod":{"start":"2023-11-02T00:00:00.000Z","end":"2023-11-02T01:00:00.000Z"},"valueInteger":60},"request":{"method":"PUT","url":"Observation/a986a14b-eef3-4879-8985-619e6d648d20"}},{"fullUrl":"https://madie.cms.gov/Observation/Observation-32.1-4","resource":{"resourceType":"Observation","id":"f79b8dc3-f720-4f81-8033-7c0005a64ef9","meta":{"profile":["http://hl7.org/fhir/us/qicore/StructureDefinition/qicore-observation"]},"status":"final","category":[{"coding":[{"system":"http://terminology.hl7.org/CodeSystem/observation-category","code":"survey"}]}],"code":{"coding":[{"system":"http://loinc.org","code":"72096-1","display":"Symptoms score [HOOS]"}]},"subject":{"reference":"Patient/49640f81-b5ff-408a-82eb-436cf41a9d1d"},"effectivePeriod":{"start":"2023-11-02T00:00:00.000Z","end":"2023-11-02T01:00:00.000Z"},"valueInteger":60},"request":{"method":"PUT","url":"Observation/f79b8dc3-f720-4f81-8033-7c0005a64ef9"}},{"fullUrl":"https://madie.cms.gov/Observation/Observation-32.1-5","resource":{"resourceType":"Observation","id":"19b63bb8-2e44-4013-b407-9597e345860e","meta":{"profile":["http://hl7.org/fhir/us/qicore/StructureDefinition/qicore-observation"]},"status":"final","category":[{"coding":[{"system":"http://terminology.hl7.org/CodeSystem/observation-category","code":"survey"}]}],"code":{"coding":[{"system":"http://loinc.org","code":"72097-9","display":"Pain score [HOOS]"}]},"subject":{"reference":"Patient/49640f81-b5ff-408a-82eb-436cf41a9d1d"},"effectivePeriod":{"start":"2023-11-02T00:00:00.000Z","end":"2023-11-02T01:00:00.000Z"},"valueInteger":60},"request":{"method":"PUT","url":"Observation/19b63bb8-2e44-4013-b407-9597e345860e"}},{"fullUrl":"https://madie.cms.gov/Observation/Observation-32.2-1","resource":{"resourceType":"Observation","id":"b05e9edc-1db9-4a30-a923-aff65ff9c1a0","meta":{"profile":["http://hl7.org/fhir/us/qicore/StructureDefinition/qicore-observation"]},"status":"final","category":[{"coding":[{"system":"http://terminology.hl7.org/CodeSystem/observation-category","code":"survey"}]}],"code":{"coding":[{"system":"http://loinc.org","code":"72093-8","display":"Quality of life score [HOOS]"}]},"subject":{"reference":"Patient/49640f81-b5ff-408a-82eb-436cf41a9d1d"},"effectivePeriod":{"start":"2023-11-02T00:00:00.000Z","end":"2023-11-02T01:00:00.000Z"},"valueInteger":60},"request":{"method":"PUT","url":"Observation/b05e9edc-1db9-4a30-a923-aff65ff9c1a0"}},{"fullUrl":"https://madie.cms.gov/Observation/Observation-32.2-2","resource":{"resourceType":"Observation","id":"f3586d6c-2436-4ced-8f25-e0636090a376","meta":{"profile":["http://hl7.org/fhir/us/qicore/StructureDefinition/qicore-observation"]},"status":"final","category":[{"coding":[{"system":"http://terminology.hl7.org/CodeSystem/observation-category","code":"survey"}]}],"code":{"coding":[{"system":"http://loinc.org","code":"72094-6","display":"Sport-recreation score [HOOS]"}]},"subject":{"reference":"Patient/49640f81-b5ff-408a-82eb-436cf41a9d1d"},"effectivePeriod":{"start":"2023-11-02T00:00:00.000Z","end":"2023-11-02T01:00:00.000Z"},"valueInteger":60},"request":{"method":"PUT","url":"Observation/f3586d6c-2436-4ced-8f25-e0636090a376"}},{"fullUrl":"https://madie.cms.gov/Observation/Observation-32.2-3","resource":{"resourceType":"Observation","id":"5755d020-3274-4a7b-832a-999268deaaba","meta":{"profile":["http://hl7.org/fhir/us/qicore/StructureDefinition/qicore-observation"]},"status":"final","category":[{"coding":[{"system":"http://terminology.hl7.org/CodeSystem/observation-category","code":"survey"}]}],"code":{"coding":[{"system":"http://loinc.org","code":"72095-3","display":"Activities of daily living score [HOOS]"}]},"subject":{"reference":"Patient/49640f81-b5ff-408a-82eb-436cf41a9d1d"},"effectivePeriod":{"start":"2023-11-02T00:00:00.000Z","end":"2023-11-02T01:00:00.000Z"},"valueInteger":60},"request":{"method":"PUT","url":"Observation/5755d020-3274-4a7b-832a-999268deaaba"}},{"fullUrl":"https://madie.cms.gov/Observation/Observation-32.2-4","resource":{"resourceType":"Observation","id":"f343da8a-abe6-4b18-966d-2bc208a6a724","meta":{"profile":["http://hl7.org/fhir/us/qicore/StructureDefinition/qicore-observation"]},"status":"final","category":[{"coding":[{"system":"http://terminology.hl7.org/CodeSystem/observation-category","code":"survey"}]}],"code":{"coding":[{"system":"http://loinc.org","code":"72096-1","display":"Symptoms score [HOOS]"}]},"subject":{"reference":"Patient/49640f81-b5ff-408a-82eb-436cf41a9d1d"},"effectivePeriod":{"start":"2023-11-02T00:00:00.000Z","end":"2023-11-02T01:00:00.000Z"},"valueInteger":60},"request":{"method":"PUT","url":"Observation/f343da8a-abe6-4b18-966d-2bc208a6a724"}},{"fullUrl":"https://madie.cms.gov/Observation/Observation-32.2-5","resource":{"resourceType":"Observation","id":"f0568094-0337-4542-9a97-e2e10a6704fd","meta":{"profile":["http://hl7.org/fhir/us/qicore/StructureDefinition/qicore-observation"]},"status":"final","category":[{"coding":[{"system":"http://terminology.hl7.org/CodeSystem/observation-category","code":"survey"}]}],"code":{"coding":[{"system":"http://loinc.org","code":"72097-9","display":"Pain score [HOOS]"}]},"subject":{"reference":"Patient/49640f81-b5ff-408a-82eb-436cf41a9d1d"},"effectivePeriod":{"start":"2023-11-02T00:00:00.000Z","end":"2023-11-02T01:00:00.000Z"},"valueInteger":60},"request":{"method":"PUT","url":"Observation/f0568094-0337-4542-9a97-e2e10a6704fd"}},{"fullUrl":"https://madie.cms.gov/MeasureReport/6b277e16-c6af-4236-b303-abafc187f6c5","resource":{"resourceType":"MeasureReport","id":"6b277e16-c6af-4236-b303-abafc187f6c5","meta":{"profile":["http://hl7.org/fhir/us/cqfmeasures/StructureDefinition/test-case-cqfm"]},"contained":[{"resourceType":"Parameters","id":"b052f2db-9ff7-4883-a51c-4c8756161dcd-parameters","parameter":[{"name":"subject","valueString":"49640f81-b5ff-408a-82eb-436cf41a9d1d"}]}],"extension":[{"url":"http://hl7.org/fhir/us/cqfmeasures/StructureDefinition/cqfm-inputParameters","valueReference":{"reference":"#b052f2db-9ff7-4883-a51c-4c8756161dcd-parameters"}},{"url":"http://hl7.org/fhir/us/cqfmeasures/StructureDefinition/cqfm-testCaseDescription","valueMarkdown":"Patient w/ a THA Procedure 11/1, Initial Hip Assessment HOOS day after THA Procedure(11/2), and FollowUp Hip Assessment HOOS 300 days after THA Procedure (8/27)"}],"modifierExtension":[{"url":"http://hl7.org/fhir/us/cqfmeasures/StructureDefinition/cqfm-isTestCase","valueBoolean":true}],"status":"complete","type":"individual","measure":"https://madie.cms.gov/Measure/FunctionalStatusAssessmentforTotalHipReplacementFHIR","period":{"start":"2025-01-01","end":"2025-12-31"},"group":[{"population":[{"code":{"coding":[{"system":"http://terminology.hl7.org/CodeSystem/measure-population","code":"initial-population","display":"Initial Population"}]},"count":1},{"code":{"coding":[{"system":"http://terminology.hl7.org/CodeSystem/measure-population","code":"denominator","display":"Denominator"}]},"count":1},{"code":{"coding":[{"system":"http://terminology.hl7.org/CodeSystem/measure-population","code":"denominator-exclusion","display":"Denominator Exclusion"}]},"count":0},{"code":{"coding":[{"system":"http://terminology.hl7.org/CodeSystem/measure-population","code":"numerator","display":"Numerator"}]},"count":0}]}]},"request":{"method":"PUT","url":"MeasureReport/6b277e16-c6af-4236-b303-abafc187f6c5"}}]}