{"resourceType":"Bundle","id":"tests-98493a07-9ac2-4760-b215-bda012ce1877-bundle","type":"transaction","entry":[{"fullUrl":"https://madie.cms.gov/Patient/98493a07-9ac2-4760-b215-bda012ce1877","resource":{"resourceType":"Patient","id":"98493a07-9ac2-4760-b215-bda012ce1877","meta":{"profile":["http://hl7.org/fhir/us/qicore/StructureDefinition/qicore-patient"]},"extension":[{"url":"http://hl7.org/fhir/us/core/StructureDefinition/us-core-race","extension":[{"url":"ombCategory","valueCoding":{"system":"urn:oid:2.16.840.1.113883.6.238","code":"2028-9","display":"Asian"}},{"url":"text","valueString":"Asian"}]},{"url":"http://hl7.org/fhir/us/core/StructureDefinition/us-core-ethnicity","extension":[{"url":"ombCategory","valueCoding":{"system":"urn:oid:2.16.840.1.113883.6.238","code":"2135-2","display":"Hispanic or Latino"}},{"url":"text","valueString":"Hispanic or Latino"}]}],"identifier":[{"system":"http://hospital.smarthealthit.org","value":"999999995"}],"name":[{"family":"Bertha","given":["Betty"]}],"gender":"female","birthDate":"2006-01-01"},"request":{"method":"PUT","url":"Patient/98493a07-9ac2-4760-b215-bda012ce1877"}},{"fullUrl":"https://madie.cms.gov/Procedure/Procedure-31","resource":{"resourceType":"Procedure","id":"37bebf52-113b-4db5-ae6f-5e589f85f1a9","meta":{"profile":["http://hl7.org/fhir/us/qicore/StructureDefinition/qicore-procedure"]},"extension":[{"url":"http://hl7.org/fhir/us/qicore/StructureDefinition/qicore-recorded","valueDateTime":"2023-11-01T00:00:00.000Z"}],"status":"completed","code":{"coding":[{"system":"http://www.cms.gov/Medicare/Coding/ICD10","code":"0SR9019","display":"Replacement of Right Hip Joint with Metal Synthetic Substitute, Cemented, Open Approach"}]},"subject":{"reference":"Patient/98493a07-9ac2-4760-b215-bda012ce1877"},"performedPeriod":{"start":"2023-11-01T00:00:00.000Z","end":"2023-11-01T01:00:00.000Z"}},"request":{"method":"PUT","url":"Procedure/37bebf52-113b-4db5-ae6f-5e589f85f1a9"}},{"fullUrl":"https://madie.cms.gov/Encounter/Encounter-31","resource":{"resourceType":"Encounter","id":"9f39b6a5-7566-47cf-9d41-2af10d81a580","meta":{"profile":["http://hl7.org/fhir/us/qicore/StructureDefinition/qicore-encounter"]},"status":"finished","class":{"system":"http://terminology.hl7.org/CodeSystem/v3-ActCode","code":"AMB","display":"ambulatory"},"type":[{"coding":[{"system":"http://snomed.info/sct","code":"281036007","display":"Follow-up consultation (procedure)"}]}],"subject":{"reference":"Patient/98493a07-9ac2-4760-b215-bda012ce1877"},"period":{"start":"2024-11-01T00:00:00.000Z","end":"2024-11-01T01:15:00.000Z"}},"request":{"method":"PUT","url":"Encounter/9f39b6a5-7566-47cf-9d41-2af10d81a580"}},{"fullUrl":"https://madie.cms.gov/Observation/Observation-31.1-1","resource":{"resourceType":"Observation","id":"2265aadc-c2dc-4778-9992-75d1a52110e8","meta":{"profile":["http://hl7.org/fhir/us/qicore/StructureDefinition/qicore-observation"]},"status":"final","category":[{"coding":[{"system":"http://terminology.hl7.org/CodeSystem/observation-category","code":"survey"}]}],"code":{"coding":[{"system":"http://loinc.org","code":"72093-8","display":"Quality of life score [HOOS]"}]},"subject":{"reference":"Patient/98493a07-9ac2-4760-b215-bda012ce1877"},"effectivePeriod":{"start":"2023-11-01T00:00:00.000Z","end":"2023-11-01T01:00:00.000Z"},"valueInteger":60},"request":{"method":"PUT","url":"Observation/2265aadc-c2dc-4778-9992-75d1a52110e8"}},{"fullUrl":"https://madie.cms.gov/Observation/Observation-31.1-2","resource":{"resourceType":"Observation","id":"e5a35f48-5397-4786-b3a3-f0b6f755ceda","meta":{"profile":["http://hl7.org/fhir/us/qicore/StructureDefinition/qicore-observation"]},"status":"final","category":[{"coding":[{"system":"http://terminology.hl7.org/CodeSystem/observation-category","code":"survey"}]}],"code":{"coding":[{"system":"http://loinc.org","code":"72094-6","display":"Sport-recreation score [HOOS]"}]},"subject":{"reference":"Patient/98493a07-9ac2-4760-b215-bda012ce1877"},"effectivePeriod":{"start":"2023-11-01T00:00:00.000Z","end":"2023-11-01T01:00:00.000Z"},"valueInteger":60},"request":{"method":"PUT","url":"Observation/e5a35f48-5397-4786-b3a3-f0b6f755ceda"}},{"fullUrl":"https://madie.cms.gov/Observation/Observation-31.1-3","resource":{"resourceType":"Observation","id":"b03c16ac-c968-4f06-85f9-90e1e2ae76f1","meta":{"profile":["http://hl7.org/fhir/us/qicore/StructureDefinition/qicore-observation"]},"status":"final","category":[{"coding":[{"system":"http://terminology.hl7.org/CodeSystem/observation-category","code":"survey"}]}],"code":{"coding":[{"system":"http://loinc.org","code":"72095-3","display":"Activities of daily living score [HOOS]"}]},"subject":{"reference":"Patient/98493a07-9ac2-4760-b215-bda012ce1877"},"effectivePeriod":{"start":"2023-11-01T00:00:00.000Z","end":"2023-11-01T01:00:00.000Z"},"valueInteger":60},"request":{"method":"PUT","url":"Observation/b03c16ac-c968-4f06-85f9-90e1e2ae76f1"}},{"fullUrl":"https://madie.cms.gov/Observation/Observation-31.1-4","resource":{"resourceType":"Observation","id":"5646ba7e-5b58-4663-b5c6-4ac40f591a28","meta":{"profile":["http://hl7.org/fhir/us/qicore/StructureDefinition/qicore-observation"]},"status":"final","category":[{"coding":[{"system":"http://terminology.hl7.org/CodeSystem/observation-category","code":"survey"}]}],"code":{"coding":[{"system":"http://loinc.org","code":"72096-1","display":"Symptoms score [HOOS]"}]},"subject":{"reference":"Patient/98493a07-9ac2-4760-b215-bda012ce1877"},"effectivePeriod":{"start":"2023-11-01T00:00:00.000Z","end":"2023-11-01T01:00:00.000Z"},"valueInteger":60},"request":{"method":"PUT","url":"Observation/5646ba7e-5b58-4663-b5c6-4ac40f591a28"}},{"fullUrl":"https://madie.cms.gov/Observation/Observation-31.1-5","resource":{"resourceType":"Observation","id":"b4d7af1d-fcb2-4f6a-aa17-c047eadcff3b","meta":{"profile":["http://hl7.org/fhir/us/qicore/StructureDefinition/qicore-observation"]},"status":"final","category":[{"coding":[{"system":"http://terminology.hl7.org/CodeSystem/observation-category","code":"survey"}]}],"code":{"coding":[{"system":"http://loinc.org","code":"72097-9","display":"Pain score [HOOS]"}]},"subject":{"reference":"Patient/98493a07-9ac2-4760-b215-bda012ce1877"},"effectivePeriod":{"start":"2023-11-01T00:00:00.000Z","end":"2023-11-01T01:00:00.000Z"},"valueInteger":60},"request":{"method":"PUT","url":"Observation/b4d7af1d-fcb2-4f6a-aa17-c047eadcff3b"}},{"fullUrl":"https://madie.cms.gov/Observation/Observation-31.2-1","resource":{"resourceType":"Observation","id":"acd28ed1-8482-4a21-bb55-184f6833380d","meta":{"profile":["http://hl7.org/fhir/us/qicore/StructureDefinition/qicore-observation"]},"status":"final","category":[{"coding":[{"system":"http://terminology.hl7.org/CodeSystem/observation-category","code":"survey"}]}],"code":{"coding":[{"system":"http://loinc.org","code":"72093-8","display":"Quality of life score [HOOS]"}]},"subject":{"reference":"Patient/98493a07-9ac2-4760-b215-bda012ce1877"},"effectivePeriod":{"start":"2024-08-27T00:00:00.000Z","end":"2024-08-27T01:00:00.000Z"},"valueInteger":60},"request":{"method":"PUT","url":"Observation/acd28ed1-8482-4a21-bb55-184f6833380d"}},{"fullUrl":"https://madie.cms.gov/Observation/Observation-31.2-2","resource":{"resourceType":"Observation","id":"e9a28918-db86-4e77-b9de-c4631024fe26","meta":{"profile":["http://hl7.org/fhir/us/qicore/StructureDefinition/qicore-observation"]},"status":"final","category":[{"coding":[{"system":"http://terminology.hl7.org/CodeSystem/observation-category","code":"survey"}]}],"code":{"coding":[{"system":"http://loinc.org","code":"72094-6","display":"Sport-recreation score [HOOS]"}]},"subject":{"reference":"Patient/98493a07-9ac2-4760-b215-bda012ce1877"},"effectivePeriod":{"start":"2024-08-27T00:00:00.000Z","end":"2024-08-27T01:00:00.000Z"},"valueInteger":60},"request":{"method":"PUT","url":"Observation/e9a28918-db86-4e77-b9de-c4631024fe26"}},{"fullUrl":"https://madie.cms.gov/Observation/Observation-31.2-3","resource":{"resourceType":"Observation","id":"1ef71f33-65b3-4b79-8d33-db5d745e39b1","meta":{"profile":["http://hl7.org/fhir/us/qicore/StructureDefinition/qicore-observation"]},"status":"final","category":[{"coding":[{"system":"http://terminology.hl7.org/CodeSystem/observation-category","code":"survey"}]}],"code":{"coding":[{"system":"http://loinc.org","code":"72095-3","display":"Activities of daily living score [HOOS]"}]},"subject":{"reference":"Patient/98493a07-9ac2-4760-b215-bda012ce1877"},"effectivePeriod":{"start":"2024-08-27T00:00:00.000Z","end":"2024-08-27T01:00:00.000Z"},"valueInteger":60},"request":{"method":"PUT","url":"Observation/1ef71f33-65b3-4b79-8d33-db5d745e39b1"}},{"fullUrl":"https://madie.cms.gov/Observation/Observation-31.2-4","resource":{"resourceType":"Observation","id":"e54583cf-45ec-4915-9060-202df73a0895","meta":{"profile":["http://hl7.org/fhir/us/qicore/StructureDefinition/qicore-observation"]},"status":"final","category":[{"coding":[{"system":"http://terminology.hl7.org/CodeSystem/observation-category","code":"survey"}]}],"code":{"coding":[{"system":"http://loinc.org","code":"72096-1","display":"Symptoms score [HOOS]"}]},"subject":{"reference":"Patient/98493a07-9ac2-4760-b215-bda012ce1877"},"effectivePeriod":{"start":"2024-08-27T00:00:00.000Z","end":"2024-08-27T01:00:00.000Z"},"valueInteger":60},"request":{"method":"PUT","url":"Observation/e54583cf-45ec-4915-9060-202df73a0895"}},{"fullUrl":"https://madie.cms.gov/Observation/Observation-31.2-5","resource":{"resourceType":"Observation","id":"28ea551d-ec32-4a88-a401-36e58823cd19","meta":{"profile":["http://hl7.org/fhir/us/qicore/StructureDefinition/qicore-observation"]},"status":"final","category":[{"coding":[{"system":"http://terminology.hl7.org/CodeSystem/observation-category","code":"survey"}]}],"code":{"coding":[{"system":"http://loinc.org","code":"72097-9","display":"Pain score [HOOS]"}]},"subject":{"reference":"Patient/98493a07-9ac2-4760-b215-bda012ce1877"},"effectivePeriod":{"start":"2024-08-27T00:00:00.000Z","end":"2024-08-27T01:00:00.000Z"},"valueInteger":60},"request":{"method":"PUT","url":"Observation/28ea551d-ec32-4a88-a401-36e58823cd19"}},{"fullUrl":"https://madie.cms.gov/MeasureReport/aa9f78a4-bbc2-4d62-a6ce-f00b075d4fc9","resource":{"resourceType":"MeasureReport","id":"aa9f78a4-bbc2-4d62-a6ce-f00b075d4fc9","meta":{"profile":["http://hl7.org/fhir/us/cqfmeasures/StructureDefinition/test-case-cqfm"]},"contained":[{"resourceType":"Parameters","id":"3a9afb0c-4326-4a08-941e-a3e0a660dda7-parameters","parameter":[{"name":"subject","valueString":"98493a07-9ac2-4760-b215-bda012ce1877"}]}],"extension":[{"url":"http://hl7.org/fhir/us/cqfmeasures/StructureDefinition/cqfm-inputParameters","valueReference":{"reference":"#3a9afb0c-4326-4a08-941e-a3e0a660dda7-parameters"}},{"url":"http://hl7.org/fhir/us/cqfmeasures/StructureDefinition/cqfm-testCaseDescription","valueMarkdown":"Patient w/ a THA Procedure 11/1, Initial Hip Assessment HOOS Same day as THA Procedure(11/1), and FollowUp Hip Assessment HOOS 300 days after THA Procedure (8/27)"}],"modifierExtension":[{"url":"http://hl7.org/fhir/us/cqfmeasures/StructureDefinition/cqfm-isTestCase","valueBoolean":true}],"status":"complete","type":"individual","measure":"https://madie.cms.gov/Measure/FunctionalStatusAssessmentforTotalHipReplacementFHIR","period":{"start":"2025-01-01","end":"2025-12-31"},"group":[{"population":[{"code":{"coding":[{"system":"http://terminology.hl7.org/CodeSystem/measure-population","code":"initial-population","display":"Initial Population"}]},"count":1},{"code":{"coding":[{"system":"http://terminology.hl7.org/CodeSystem/measure-population","code":"denominator","display":"Denominator"}]},"count":1},{"code":{"coding":[{"system":"http://terminology.hl7.org/CodeSystem/measure-population","code":"denominator-exclusion","display":"Denominator Exclusion"}]},"count":0},{"code":{"coding":[{"system":"http://terminology.hl7.org/CodeSystem/measure-population","code":"numerator","display":"Numerator"}]},"count":1}]}]},"request":{"method":"PUT","url":"MeasureReport/aa9f78a4-bbc2-4d62-a6ce-f00b075d4fc9"}}]}