{"resourceType":"Bundle","id":"tests-49640f81-b5ff-408a-82eb-436cf41a9d1d-bundle","type":"transaction","entry":[{"fullUrl":"https://madie.cms.gov/Patient/49640f81-b5ff-408a-82eb-436cf41a9d1d","resource":{"resourceType":"Patient","id":"49640f81-b5ff-408a-82eb-436cf41a9d1d","meta":{"profile":["http://hl7.org/fhir/us/qicore/StructureDefinition/qicore-patient"]},"extension":[{"url":"http://hl7.org/fhir/us/core/StructureDefinition/us-core-race","extension":[{"url":"ombCategory","valueCoding":{"system":"urn:oid:2.16.840.1.113883.6.238","code":"2028-9","display":"Asian"}},{"url":"text","valueString":"Asian"}]},{"url":"http://hl7.org/fhir/us/core/StructureDefinition/us-core-ethnicity","extension":[{"url":"ombCategory","valueCoding":{"system":"urn:oid:2.16.840.1.113883.6.238","code":"2135-2","display":"Hispanic or Latino"}},{"url":"text","valueString":"Hispanic or Latino"}]}],"identifier":[{"system":"http://hospital.smarthealthit.org","value":"999999995"}],"name":[{"family":"Bertha","given":["Betty"]}],"gender":"female","birthDate":"2006-01-01"},"request":{"method":"PUT","url":"Patient/49640f81-b5ff-408a-82eb-436cf41a9d1d"}},{"fullUrl":"https://madie.cms.gov/Procedure/Procedure-32","resource":{"resourceType":"Procedure","id":"ead53d36-6050-464c-b381-ec6e1f638f95","meta":{"profile":["http://hl7.org/fhir/us/qicore/StructureDefinition/qicore-procedure"]},"extension":[{"url":"http://hl7.org/fhir/us/qicore/StructureDefinition/qicore-recorded","valueDateTime":"2023-11-01T00:00:00.000Z"}],"status":"completed","code":{"coding":[{"system":"http://www.cms.gov/Medicare/Coding/ICD10","code":"0SR9019","display":"Replacement of Right Hip Joint with Metal Synthetic Substitute, Cemented, Open Approach"}]},"subject":{"reference":"Patient/49640f81-b5ff-408a-82eb-436cf41a9d1d"},"performedPeriod":{"start":"2023-11-01T00:00:00.000Z","end":"2023-11-01T01:00:00.000Z"}},"request":{"method":"PUT","url":"Procedure/ead53d36-6050-464c-b381-ec6e1f638f95"}},{"fullUrl":"https://madie.cms.gov/Encounter/Encounter-32","resource":{"resourceType":"Encounter","id":"12124f39-aea2-4a2e-a896-cede6abedde4","meta":{"profile":["http://hl7.org/fhir/us/qicore/StructureDefinition/qicore-encounter"]},"status":"finished","class":{"system":"http://terminology.hl7.org/CodeSystem/v3-ActCode","code":"AMB","display":"ambulatory"},"type":[{"coding":[{"system":"http://snomed.info/sct","code":"281036007","display":"Follow-up consultation (procedure)"}]}],"subject":{"reference":"Patient/49640f81-b5ff-408a-82eb-436cf41a9d1d"},"period":{"start":"2024-11-01T00:00:00.000Z","end":"2024-11-01T01:15:00.000Z"}},"request":{"method":"PUT","url":"Encounter/12124f39-aea2-4a2e-a896-cede6abedde4"}},{"fullUrl":"https://madie.cms.gov/Observation/Observation-32.1-1","resource":{"resourceType":"Observation","id":"bd533bc0-d5d8-4319-b0c8-475480d5cea7","meta":{"profile":["http://hl7.org/fhir/us/qicore/StructureDefinition/qicore-observation"]},"status":"final","category":[{"coding":[{"system":"http://terminology.hl7.org/CodeSystem/observation-category","code":"survey"}]}],"code":{"coding":[{"system":"http://loinc.org","code":"72093-8","display":"Quality of life score [HOOS]"}]},"subject":{"reference":"Patient/49640f81-b5ff-408a-82eb-436cf41a9d1d"},"effectivePeriod":{"start":"2023-11-02T00:00:00.000Z","end":"2023-11-02T01:00:00.000Z"},"valueInteger":60},"request":{"method":"PUT","url":"Observation/bd533bc0-d5d8-4319-b0c8-475480d5cea7"}},{"fullUrl":"https://madie.cms.gov/Observation/Observation-32.1-2","resource":{"resourceType":"Observation","id":"7638dee1-f610-4a03-9db1-5a30f74d2296","meta":{"profile":["http://hl7.org/fhir/us/qicore/StructureDefinition/qicore-observation"]},"status":"final","category":[{"coding":[{"system":"http://terminology.hl7.org/CodeSystem/observation-category","code":"survey"}]}],"code":{"coding":[{"system":"http://loinc.org","code":"72094-6","display":"Sport-recreation score [HOOS]"}]},"subject":{"reference":"Patient/49640f81-b5ff-408a-82eb-436cf41a9d1d"},"effectivePeriod":{"start":"2023-11-02T00:00:00.000Z","end":"2023-11-02T01:00:00.000Z"},"valueInteger":60},"request":{"method":"PUT","url":"Observation/7638dee1-f610-4a03-9db1-5a30f74d2296"}},{"fullUrl":"https://madie.cms.gov/Observation/Observation-32.1-3","resource":{"resourceType":"Observation","id":"201a8dd4-124f-4429-8d37-e600f96a7809","meta":{"profile":["http://hl7.org/fhir/us/qicore/StructureDefinition/qicore-observation"]},"status":"final","category":[{"coding":[{"system":"http://terminology.hl7.org/CodeSystem/observation-category","code":"survey"}]}],"code":{"coding":[{"system":"http://loinc.org","code":"72095-3","display":"Activities of daily living score [HOOS]"}]},"subject":{"reference":"Patient/49640f81-b5ff-408a-82eb-436cf41a9d1d"},"effectivePeriod":{"start":"2023-11-02T00:00:00.000Z","end":"2023-11-02T01:00:00.000Z"},"valueInteger":60},"request":{"method":"PUT","url":"Observation/201a8dd4-124f-4429-8d37-e600f96a7809"}},{"fullUrl":"https://madie.cms.gov/Observation/Observation-32.1-4","resource":{"resourceType":"Observation","id":"8c37be91-6bd9-40c8-9625-5fca35ddd944","meta":{"profile":["http://hl7.org/fhir/us/qicore/StructureDefinition/qicore-observation"]},"status":"final","category":[{"coding":[{"system":"http://terminology.hl7.org/CodeSystem/observation-category","code":"survey"}]}],"code":{"coding":[{"system":"http://loinc.org","code":"72096-1","display":"Symptoms score [HOOS]"}]},"subject":{"reference":"Patient/49640f81-b5ff-408a-82eb-436cf41a9d1d"},"effectivePeriod":{"start":"2023-11-02T00:00:00.000Z","end":"2023-11-02T01:00:00.000Z"},"valueInteger":60},"request":{"method":"PUT","url":"Observation/8c37be91-6bd9-40c8-9625-5fca35ddd944"}},{"fullUrl":"https://madie.cms.gov/Observation/Observation-32.1-5","resource":{"resourceType":"Observation","id":"e3ccc156-94f6-4600-85dd-3239fdd465f2","meta":{"profile":["http://hl7.org/fhir/us/qicore/StructureDefinition/qicore-observation"]},"status":"final","category":[{"coding":[{"system":"http://terminology.hl7.org/CodeSystem/observation-category","code":"survey"}]}],"code":{"coding":[{"system":"http://loinc.org","code":"72097-9","display":"Pain score [HOOS]"}]},"subject":{"reference":"Patient/49640f81-b5ff-408a-82eb-436cf41a9d1d"},"effectivePeriod":{"start":"2023-11-02T00:00:00.000Z","end":"2023-11-02T01:00:00.000Z"},"valueInteger":60},"request":{"method":"PUT","url":"Observation/e3ccc156-94f6-4600-85dd-3239fdd465f2"}},{"fullUrl":"https://madie.cms.gov/Observation/Observation-32.2-1","resource":{"resourceType":"Observation","id":"b4b7c29e-393b-4ac2-9698-14c37da5520a","meta":{"profile":["http://hl7.org/fhir/us/qicore/StructureDefinition/qicore-observation"]},"status":"final","category":[{"coding":[{"system":"http://terminology.hl7.org/CodeSystem/observation-category","code":"survey"}]}],"code":{"coding":[{"system":"http://loinc.org","code":"72093-8","display":"Quality of life score [HOOS]"}]},"subject":{"reference":"Patient/49640f81-b5ff-408a-82eb-436cf41a9d1d"},"effectivePeriod":{"start":"2023-11-02T00:00:00.000Z","end":"2023-11-02T01:00:00.000Z"},"valueInteger":60},"request":{"method":"PUT","url":"Observation/b4b7c29e-393b-4ac2-9698-14c37da5520a"}},{"fullUrl":"https://madie.cms.gov/Observation/Observation-32.2-2","resource":{"resourceType":"Observation","id":"31350d52-bc13-4af7-9dc6-8f654e0126be","meta":{"profile":["http://hl7.org/fhir/us/qicore/StructureDefinition/qicore-observation"]},"status":"final","category":[{"coding":[{"system":"http://terminology.hl7.org/CodeSystem/observation-category","code":"survey"}]}],"code":{"coding":[{"system":"http://loinc.org","code":"72094-6","display":"Sport-recreation score [HOOS]"}]},"subject":{"reference":"Patient/49640f81-b5ff-408a-82eb-436cf41a9d1d"},"effectivePeriod":{"start":"2023-11-02T00:00:00.000Z","end":"2023-11-02T01:00:00.000Z"},"valueInteger":60},"request":{"method":"PUT","url":"Observation/31350d52-bc13-4af7-9dc6-8f654e0126be"}},{"fullUrl":"https://madie.cms.gov/Observation/Observation-32.2-3","resource":{"resourceType":"Observation","id":"29ebf9b5-0acf-4412-a64f-ae73c9baba5f","meta":{"profile":["http://hl7.org/fhir/us/qicore/StructureDefinition/qicore-observation"]},"status":"final","category":[{"coding":[{"system":"http://terminology.hl7.org/CodeSystem/observation-category","code":"survey"}]}],"code":{"coding":[{"system":"http://loinc.org","code":"72095-3","display":"Activities of daily living score [HOOS]"}]},"subject":{"reference":"Patient/49640f81-b5ff-408a-82eb-436cf41a9d1d"},"effectivePeriod":{"start":"2023-11-02T00:00:00.000Z","end":"2023-11-02T01:00:00.000Z"},"valueInteger":60},"request":{"method":"PUT","url":"Observation/29ebf9b5-0acf-4412-a64f-ae73c9baba5f"}},{"fullUrl":"https://madie.cms.gov/Observation/Observation-32.2-4","resource":{"resourceType":"Observation","id":"a33e3813-ba0f-4b42-b740-e3dcac57e89e","meta":{"profile":["http://hl7.org/fhir/us/qicore/StructureDefinition/qicore-observation"]},"status":"final","category":[{"coding":[{"system":"http://terminology.hl7.org/CodeSystem/observation-category","code":"survey"}]}],"code":{"coding":[{"system":"http://loinc.org","code":"72096-1","display":"Symptoms score [HOOS]"}]},"subject":{"reference":"Patient/49640f81-b5ff-408a-82eb-436cf41a9d1d"},"effectivePeriod":{"start":"2023-11-02T00:00:00.000Z","end":"2023-11-02T01:00:00.000Z"},"valueInteger":60},"request":{"method":"PUT","url":"Observation/a33e3813-ba0f-4b42-b740-e3dcac57e89e"}},{"fullUrl":"https://madie.cms.gov/Observation/Observation-32.2-5","resource":{"resourceType":"Observation","id":"701f0eab-f25d-4399-87a5-8ebae9285a0c","meta":{"profile":["http://hl7.org/fhir/us/qicore/StructureDefinition/qicore-observation"]},"status":"final","category":[{"coding":[{"system":"http://terminology.hl7.org/CodeSystem/observation-category","code":"survey"}]}],"code":{"coding":[{"system":"http://loinc.org","code":"72097-9","display":"Pain score [HOOS]"}]},"subject":{"reference":"Patient/49640f81-b5ff-408a-82eb-436cf41a9d1d"},"effectivePeriod":{"start":"2023-11-02T00:00:00.000Z","end":"2023-11-02T01:00:00.000Z"},"valueInteger":60},"request":{"method":"PUT","url":"Observation/701f0eab-f25d-4399-87a5-8ebae9285a0c"}},{"fullUrl":"https://madie.cms.gov/MeasureReport/6b277e16-c6af-4236-b303-abafc187f6c5","resource":{"resourceType":"MeasureReport","id":"6b277e16-c6af-4236-b303-abafc187f6c5","meta":{"profile":["http://hl7.org/fhir/us/cqfmeasures/StructureDefinition/test-case-cqfm"]},"contained":[{"resourceType":"Parameters","id":"b052f2db-9ff7-4883-a51c-4c8756161dcd-parameters","parameter":[{"name":"subject","valueString":"49640f81-b5ff-408a-82eb-436cf41a9d1d"}]}],"extension":[{"url":"http://hl7.org/fhir/us/cqfmeasures/StructureDefinition/cqfm-inputParameters","valueReference":{"reference":"#b052f2db-9ff7-4883-a51c-4c8756161dcd-parameters"}},{"url":"http://hl7.org/fhir/us/cqfmeasures/StructureDefinition/cqfm-testCaseDescription","valueMarkdown":"Patient w/ a THA Procedure 11/1, Initial Hip Assessment HOOS day after THA Procedure(11/2), and FollowUp Hip Assessment HOOS 300 days after THA Procedure (8/27)"}],"modifierExtension":[{"url":"http://hl7.org/fhir/us/cqfmeasures/StructureDefinition/cqfm-isTestCase","valueBoolean":true}],"status":"complete","type":"individual","measure":"https://madie.cms.gov/Measure/FunctionalStatusAssessmentforTotalHipReplacementFHIR","period":{"start":"2025-01-01","end":"2025-12-31"},"group":[{"population":[{"code":{"coding":[{"system":"http://terminology.hl7.org/CodeSystem/measure-population","code":"initial-population","display":"Initial Population"}]},"count":1},{"code":{"coding":[{"system":"http://terminology.hl7.org/CodeSystem/measure-population","code":"denominator","display":"Denominator"}]},"count":1},{"code":{"coding":[{"system":"http://terminology.hl7.org/CodeSystem/measure-population","code":"denominator-exclusion","display":"Denominator Exclusion"}]},"count":0},{"code":{"coding":[{"system":"http://terminology.hl7.org/CodeSystem/measure-population","code":"numerator","display":"Numerator"}]},"count":0}]}]},"request":{"method":"PUT","url":"MeasureReport/6b277e16-c6af-4236-b303-abafc187f6c5"}}]}