{"resourceType":"Bundle","id":"tests-ba296236-cee8-4ec1-aa6b-341477c99af2-bundle","type":"transaction","entry":[{"fullUrl":"https://madie.cms.gov/Patient/ba296236-cee8-4ec1-aa6b-341477c99af2","resource":{"resourceType":"Patient","id":"ba296236-cee8-4ec1-aa6b-341477c99af2","meta":{"profile":["http://hl7.org/fhir/us/qicore/StructureDefinition/qicore-patient"]},"extension":[{"url":"http://hl7.org/fhir/us/core/StructureDefinition/us-core-race","extension":[{"url":"ombCategory","valueCoding":{"system":"urn:oid:2.16.840.1.113883.6.238","code":"2028-9","display":"Asian"}},{"url":"text","valueString":"Asian"}]},{"url":"http://hl7.org/fhir/us/core/StructureDefinition/us-core-ethnicity","extension":[{"url":"ombCategory","valueCoding":{"system":"urn:oid:2.16.840.1.113883.6.238","code":"2135-2","display":"Hispanic or Latino"}},{"url":"text","valueString":"Hispanic or Latino"}]}],"identifier":[{"system":"http://hospital.smarthealthit.org","value":"999999995"}],"name":[{"family":"Bertha","given":["Betty"]}],"gender":"female","birthDate":"2006-01-01"},"request":{"method":"PUT","url":"Patient/ba296236-cee8-4ec1-aa6b-341477c99af2"}},{"fullUrl":"https://madie.cms.gov/Procedure/Procedure-35","resource":{"resourceType":"Procedure","id":"8391e0d6-a34e-46b8-ba71-59c876b73733","meta":{"profile":["http://hl7.org/fhir/us/qicore/StructureDefinition/qicore-procedure"]},"extension":[{"url":"http://hl7.org/fhir/us/qicore/StructureDefinition/qicore-recorded","valueDateTime":"2023-11-01T00:00:00.000Z"}],"status":"completed","code":{"coding":[{"system":"http://www.cms.gov/Medicare/Coding/ICD10","code":"0SR9019","display":"Replacement of Right Hip Joint with Metal Synthetic Substitute, Cemented, Open Approach"}]},"subject":{"reference":"Patient/ba296236-cee8-4ec1-aa6b-341477c99af2"},"performedPeriod":{"start":"2023-11-01T00:00:00.000Z","end":"2023-11-01T01:00:00.000Z"}},"request":{"method":"PUT","url":"Procedure/8391e0d6-a34e-46b8-ba71-59c876b73733"}},{"fullUrl":"https://madie.cms.gov/Encounter/Encounter-35","resource":{"resourceType":"Encounter","id":"2f5fa7c3-1967-45b7-b37d-3fa711a7078a","meta":{"profile":["http://hl7.org/fhir/us/qicore/StructureDefinition/qicore-encounter"]},"status":"finished","class":{"system":"http://terminology.hl7.org/CodeSystem/v3-ActCode","code":"AMB","display":"ambulatory"},"type":[{"coding":[{"system":"http://snomed.info/sct","code":"281036007","display":"Follow-up consultation (procedure)"}]}],"subject":{"reference":"Patient/ba296236-cee8-4ec1-aa6b-341477c99af2"},"period":{"start":"2024-11-01T00:00:00.000Z","end":"2024-11-01T01:15:00.000Z"}},"request":{"method":"PUT","url":"Encounter/2f5fa7c3-1967-45b7-b37d-3fa711a7078a"}},{"fullUrl":"https://madie.cms.gov/Observation/Observation-35.1-1","resource":{"resourceType":"Observation","id":"75578bd1-600d-4d7f-be3b-2bc0b949dc2f","meta":{"profile":["http://hl7.org/fhir/us/qicore/StructureDefinition/qicore-observation"]},"status":"final","category":[{"coding":[{"system":"http://terminology.hl7.org/CodeSystem/observation-category","code":"survey"}]}],"code":{"coding":[{"system":"http://loinc.org","code":"72093-8","display":"Quality of life score [HOOS]"}]},"subject":{"reference":"Patient/ba296236-cee8-4ec1-aa6b-341477c99af2"},"effectivePeriod":{"start":"2023-11-01T00:00:00.000Z","end":"2023-11-01T01:00:00.000Z"},"valueInteger":60},"request":{"method":"PUT","url":"Observation/75578bd1-600d-4d7f-be3b-2bc0b949dc2f"}},{"fullUrl":"https://madie.cms.gov/Observation/Observation-35.1-2","resource":{"resourceType":"Observation","id":"5699a565-6c7d-409e-b694-d976a80528fc","meta":{"profile":["http://hl7.org/fhir/us/qicore/StructureDefinition/qicore-observation"]},"status":"final","category":[{"coding":[{"system":"http://terminology.hl7.org/CodeSystem/observation-category","code":"survey"}]}],"code":{"coding":[{"system":"http://loinc.org","code":"72094-6","display":"Sport-recreation score [HOOS]"}]},"subject":{"reference":"Patient/ba296236-cee8-4ec1-aa6b-341477c99af2"},"effectivePeriod":{"start":"2023-11-01T00:00:00.000Z","end":"2023-11-01T01:00:00.000Z"},"valueInteger":60},"request":{"method":"PUT","url":"Observation/5699a565-6c7d-409e-b694-d976a80528fc"}},{"fullUrl":"https://madie.cms.gov/Observation/Observation-35.1-3","resource":{"resourceType":"Observation","id":"9fd42c2f-39fe-47f8-97db-817a6b85ddcf","meta":{"profile":["http://hl7.org/fhir/us/qicore/StructureDefinition/qicore-observation"]},"status":"final","category":[{"coding":[{"system":"http://terminology.hl7.org/CodeSystem/observation-category","code":"survey"}]}],"code":{"coding":[{"system":"http://loinc.org","code":"72095-3","display":"Activities of daily living score [HOOS]"}]},"subject":{"reference":"Patient/ba296236-cee8-4ec1-aa6b-341477c99af2"},"effectivePeriod":{"start":"2023-11-01T00:00:00.000Z","end":"2023-11-01T01:00:00.000Z"},"valueInteger":60},"request":{"method":"PUT","url":"Observation/9fd42c2f-39fe-47f8-97db-817a6b85ddcf"}},{"fullUrl":"https://madie.cms.gov/Observation/Observation-35.1-4","resource":{"resourceType":"Observation","id":"633af0f5-3237-413e-bdc1-a57e065d5b37","meta":{"profile":["http://hl7.org/fhir/us/qicore/StructureDefinition/qicore-observation"]},"status":"final","category":[{"coding":[{"system":"http://terminology.hl7.org/CodeSystem/observation-category","code":"survey"}]}],"code":{"coding":[{"system":"http://loinc.org","code":"72096-1","display":"Symptoms score [HOOS]"}]},"subject":{"reference":"Patient/ba296236-cee8-4ec1-aa6b-341477c99af2"},"effectivePeriod":{"start":"2023-11-01T00:00:00.000Z","end":"2023-11-01T01:00:00.000Z"},"valueInteger":60},"request":{"method":"PUT","url":"Observation/633af0f5-3237-413e-bdc1-a57e065d5b37"}},{"fullUrl":"https://madie.cms.gov/Observation/Observation-35.1-5","resource":{"resourceType":"Observation","id":"8db64c06-67ae-48db-9850-dbbbe2a124ba","meta":{"profile":["http://hl7.org/fhir/us/qicore/StructureDefinition/qicore-observation"]},"status":"final","category":[{"coding":[{"system":"http://terminology.hl7.org/CodeSystem/observation-category","code":"survey"}]}],"code":{"coding":[{"system":"http://loinc.org","code":"72097-9","display":"Pain score [HOOS]"}]},"subject":{"reference":"Patient/ba296236-cee8-4ec1-aa6b-341477c99af2"},"effectivePeriod":{"start":"2023-11-01T00:00:00.000Z","end":"2023-11-01T01:00:00.000Z"},"valueInteger":60},"request":{"method":"PUT","url":"Observation/8db64c06-67ae-48db-9850-dbbbe2a124ba"}},{"fullUrl":"https://madie.cms.gov/Observation/Observation-35.2-1","resource":{"resourceType":"Observation","id":"57a2676b-797f-41c7-a220-9788f8d2e9b3","meta":{"profile":["http://hl7.org/fhir/us/qicore/StructureDefinition/qicore-observation"]},"status":"final","category":[{"coding":[{"system":"http://terminology.hl7.org/CodeSystem/observation-category","code":"survey"}]}],"code":{"coding":[{"system":"http://loinc.org","code":"72093-8","display":"Quality of life score [HOOS]"}]},"subject":{"reference":"Patient/ba296236-cee8-4ec1-aa6b-341477c99af2"},"effectivePeriod":{"start":"2024-08-26T00:00:00.000Z","end":"2024-08-26T01:00:00.000Z"},"valueInteger":60},"request":{"method":"PUT","url":"Observation/57a2676b-797f-41c7-a220-9788f8d2e9b3"}},{"fullUrl":"https://madie.cms.gov/Observation/Observation-35.2-2","resource":{"resourceType":"Observation","id":"1da40508-e252-4a07-9091-cb55f5f8d954","meta":{"profile":["http://hl7.org/fhir/us/qicore/StructureDefinition/qicore-observation"]},"status":"final","category":[{"coding":[{"system":"http://terminology.hl7.org/CodeSystem/observation-category","code":"survey"}]}],"code":{"coding":[{"system":"http://loinc.org","code":"72094-6","display":"Sport-recreation score [HOOS]"}]},"subject":{"reference":"Patient/ba296236-cee8-4ec1-aa6b-341477c99af2"},"effectivePeriod":{"start":"2024-08-26T00:00:00.000Z","end":"2024-08-26T01:00:00.000Z"},"valueInteger":60},"request":{"method":"PUT","url":"Observation/1da40508-e252-4a07-9091-cb55f5f8d954"}},{"fullUrl":"https://madie.cms.gov/Observation/Observation-35.2-3","resource":{"resourceType":"Observation","id":"3b39292e-961c-42b8-ac44-15e855d4d800","meta":{"profile":["http://hl7.org/fhir/us/qicore/StructureDefinition/qicore-observation"]},"status":"final","category":[{"coding":[{"system":"http://terminology.hl7.org/CodeSystem/observation-category","code":"survey"}]}],"code":{"coding":[{"system":"http://loinc.org","code":"72095-3","display":"Activities of daily living score [HOOS]"}]},"subject":{"reference":"Patient/ba296236-cee8-4ec1-aa6b-341477c99af2"},"effectivePeriod":{"start":"2024-08-26T00:00:00.000Z","end":"2024-08-26T01:00:00.000Z"},"valueInteger":60},"request":{"method":"PUT","url":"Observation/3b39292e-961c-42b8-ac44-15e855d4d800"}},{"fullUrl":"https://madie.cms.gov/Observation/Observation-35.2-4","resource":{"resourceType":"Observation","id":"6d1aa91c-475c-4080-9063-eeb411d5b03c","meta":{"profile":["http://hl7.org/fhir/us/qicore/StructureDefinition/qicore-observation"]},"status":"final","category":[{"coding":[{"system":"http://terminology.hl7.org/CodeSystem/observation-category","code":"survey"}]}],"code":{"coding":[{"system":"http://loinc.org","code":"72096-1","display":"Symptoms score [HOOS]"}]},"subject":{"reference":"Patient/ba296236-cee8-4ec1-aa6b-341477c99af2"},"effectivePeriod":{"start":"2024-08-26T00:00:00.000Z","end":"2024-08-26T01:00:00.000Z"},"valueInteger":60},"request":{"method":"PUT","url":"Observation/6d1aa91c-475c-4080-9063-eeb411d5b03c"}},{"fullUrl":"https://madie.cms.gov/Observation/Observation-35.2-5","resource":{"resourceType":"Observation","id":"b0c96081-33d0-4a70-b9f9-651aa55894cc","meta":{"profile":["http://hl7.org/fhir/us/qicore/StructureDefinition/qicore-observation"]},"status":"final","category":[{"coding":[{"system":"http://terminology.hl7.org/CodeSystem/observation-category","code":"survey"}]}],"code":{"coding":[{"system":"http://loinc.org","code":"72097-9","display":"Pain score [HOOS]"}]},"subject":{"reference":"Patient/ba296236-cee8-4ec1-aa6b-341477c99af2"},"effectivePeriod":{"start":"2024-08-26T00:00:00.000Z","end":"2024-08-26T01:00:00.000Z"},"valueInteger":60},"request":{"method":"PUT","url":"Observation/b0c96081-33d0-4a70-b9f9-651aa55894cc"}},{"fullUrl":"https://madie.cms.gov/MeasureReport/2357baea-8370-4dd0-a9d2-222ecabe49ee","resource":{"resourceType":"MeasureReport","id":"2357baea-8370-4dd0-a9d2-222ecabe49ee","meta":{"profile":["http://hl7.org/fhir/us/cqfmeasures/StructureDefinition/test-case-cqfm"]},"contained":[{"resourceType":"Parameters","id":"62ea43ee-5970-4b2e-a706-acc87e38d382-parameters","parameter":[{"name":"subject","valueString":"ba296236-cee8-4ec1-aa6b-341477c99af2"}]}],"extension":[{"url":"http://hl7.org/fhir/us/cqfmeasures/StructureDefinition/cqfm-inputParameters","valueReference":{"reference":"#62ea43ee-5970-4b2e-a706-acc87e38d382-parameters"}},{"url":"http://hl7.org/fhir/us/cqfmeasures/StructureDefinition/cqfm-testCaseDescription","valueMarkdown":"Patient w/ a THA Procedure 11/1, Initial Hip Assessment HOOS Same day as THA Procedure(11/1), and FollowUp Hip Assessment HOOS 299 days after THA Procedure (8/26)"}],"modifierExtension":[{"url":"http://hl7.org/fhir/us/cqfmeasures/StructureDefinition/cqfm-isTestCase","valueBoolean":true}],"status":"complete","type":"individual","measure":"https://madie.cms.gov/Measure/FunctionalStatusAssessmentforTotalHipReplacementFHIR","period":{"start":"2025-01-01","end":"2025-12-31"},"group":[{"population":[{"code":{"coding":[{"system":"http://terminology.hl7.org/CodeSystem/measure-population","code":"initial-population","display":"Initial Population"}]},"count":1},{"code":{"coding":[{"system":"http://terminology.hl7.org/CodeSystem/measure-population","code":"denominator","display":"Denominator"}]},"count":1},{"code":{"coding":[{"system":"http://terminology.hl7.org/CodeSystem/measure-population","code":"denominator-exclusion","display":"Denominator Exclusion"}]},"count":0},{"code":{"coding":[{"system":"http://terminology.hl7.org/CodeSystem/measure-population","code":"numerator","display":"Numerator"}]},"count":0}]}]},"request":{"method":"PUT","url":"MeasureReport/2357baea-8370-4dd0-a9d2-222ecabe49ee"}}]}