{"resourceType":"Bundle","id":"tests-d22bb876-5ef3-4373-b19d-be9c256ec6ff-bundle","type":"transaction","entry":[{"fullUrl":"https://madie.cms.gov/Patient/d22bb876-5ef3-4373-b19d-be9c256ec6ff","resource":{"resourceType":"Patient","id":"d22bb876-5ef3-4373-b19d-be9c256ec6ff","meta":{"profile":["http://hl7.org/fhir/us/qicore/StructureDefinition/qicore-patient"]},"text":{"status":"generated","div":"<div xmlns=\"http://www.w3.org/1999/xhtml\"><div class=\"hapiHeaderText\">LT24after <b>GLUCPASS </b></div><table class=\"hapiPropertyTable\"><tbody><tr><td>Identifier</td><td>d41d39d967f0e01059a7fb71f0c56412779552491c949eb744578b16580c9adb</td></tr><tr><td>Date of birth</td><td><span>21 June 1947</span></td></tr></tbody></table></div>"},"extension":[{"url":"http://hl7.org/fhir/us/core/StructureDefinition/us-core-race","extension":[{"url":"ombCategory","valueCoding":{"system":"urn:oid:2.16.840.1.113883.6.238","code":"2054-5","display":"Black or African American","userSelected":true}},{"url":"text","valueString":"Black or African American"}]},{"url":"http://hl7.org/fhir/us/core/StructureDefinition/us-core-ethnicity","extension":[{"url":"ombCategory","valueCoding":{"system":"urn:oid:2.16.840.1.113883.6.238","code":"2186-5","display":"Not Hispanic or Latino","userSelected":true}},{"url":"text","valueString":"Not Hispanic or Latino"}]}],"identifier":[{"type":{"coding":[{"system":"http://terminology.hl7.org/CodeSystem/v2-0203","code":"MR"}]},"system":"https://bonnie-fhir.healthit.gov/","value":"63ec09a2ccb3770120fea7ad"}],"active":true,"name":[{"use":"usual","family":"GlucosePass","given":["Glucose23HoursAfterAdmission"]}],"gender":"male","birthDate":"1947-06-21"},"request":{"method":"PUT","url":"Patient/d22bb876-5ef3-4373-b19d-be9c256ec6ff"}},{"fullUrl":"https://madie.cms.gov/Encounter/5dc2da6a831f330000d7408e","resource":{"resourceType":"Encounter","id":"151b5b60-53d5-4bba-91a2-bf427d983673","meta":{"profile":["http://hl7.org/fhir/us/qicore/StructureDefinition/qicore-encounter"]},"status":"finished","class":{"system":"http://terminology.hl7.org/CodeSystem/v3-ActCode","code":"OBSENC","display":"observation encounter","userSelected":true},"type":[{"coding":[{"system":"http://snomed.info/sct","code":"183452005"}]}],"subject":{"reference":"Patient/d22bb876-5ef3-4373-b19d-be9c256ec6ff"},"period":{"start":"2025-08-21T08:00:00.000+00:00","end":"2025-08-22T08:15:00.000+00:00"}},"request":{"method":"PUT","url":"Encounter/151b5b60-53d5-4bba-91a2-bf427d983673"}},{"fullUrl":"https://madie.cms.gov/Coverage/5f98f44ea916680000fb6bb0","resource":{"resourceType":"Coverage","id":"7bcdfa84-c0f0-4ce3-98e6-420dfbd9c152","meta":{"profile":["http://hl7.org/fhir/us/qicore/StructureDefinition/qicore-coverage"]},"status":"active","type":{"coding":[{"system":"https://nahdo.org/sopt","version":"1.0.1","code":"1","display":"Medicare payer","userSelected":true}]},"beneficiary":{"reference":"Patient/d22bb876-5ef3-4373-b19d-be9c256ec6ff"},"payor":[{"reference":"Organization/5224cb12-ed64-4d6d-ab28-40a64f0800f1"}]},"request":{"method":"PUT","url":"Coverage/7bcdfa84-c0f0-4ce3-98e6-420dfbd9c152"}},{"fullUrl":"https://madie.cms.gov/Observation/5b7c5628b84846299c81a5a8","resource":{"resourceType":"Observation","id":"794ca284-7057-46c5-b40b-144d3f005203","meta":{"profile":["http://hl7.org/fhir/us/core/StructureDefinition/us-core-observation-lab"]},"status":"final","category":[{"coding":[{"system":"http://terminology.hl7.org/CodeSystem/observation-category","code":"laboratory","display":"laboratory","userSelected":true}]}],"code":{"coding":[{"system":"http://loinc.org","code":"15074-8","display":"Glucose [Moles/volume] in Blood"}]},"subject":{"reference":"Patient/d22bb876-5ef3-4373-b19d-be9c256ec6ff"},"effectiveDateTime":"2025-08-22T07:59:00.000+00:00","issued":"2025-08-22T07:59:00.000+00:00","valueQuantity":{"value":95.0,"unit":"mg/dL","system":"http://unitsofmeasure.org","code":"mg/dL"}},"request":{"method":"PUT","url":"Observation/794ca284-7057-46c5-b40b-144d3f005203"}},{"fullUrl":"https://madie.cms.gov/Organization/123456","resource":{"resourceType":"Organization","id":"5224cb12-ed64-4d6d-ab28-40a64f0800f1","meta":{"profile":["http://hl7.org/fhir/us/qicore/StructureDefinition/qicore-organization"]},"identifier":[{"use":"temp","system":"urn:oid:2.16.840.1.113883.4.4","value":"21-3259825"}],"active":true,"type":[{"coding":[{"system":"http://terminology.hl7.org/CodeSystem/organization-type","code":"pay","display":"Payer"}]}],"name":"Blue Cross Blue Shield of Texas","telecom":[{"system":"phone","value":"(+1) 972-766-6900"}],"address":[{"use":"billing","type":"postal","line":["P.O. Box 660044"],"city":"Dallas","state":"TX","postalCode":"75266-0044","country":"USA"}]},"request":{"method":"PUT","url":"Organization/5224cb12-ed64-4d6d-ab28-40a64f0800f1"}},{"fullUrl":"https://madie.cms.gov/Practitioner/practitioner-123456","resource":{"resourceType":"Practitioner","id":"01becdf0-6379-430f-b473-3ae9a81e3cf8","meta":{"profile":["http://hl7.org/fhir/us/qicore/StructureDefinition/qicore-practitioner"]},"identifier":[{"system":"http://hl7.org/fhir/sid/us-npi","value":"123456"}],"name":[{"family":"Evil","prefix":["Dr"]}]},"request":{"method":"PUT","url":"Practitioner/01becdf0-6379-430f-b473-3ae9a81e3cf8"}},{"fullUrl":"https://madie.cms.gov/MeasureReport/20b09cfa-75bc-40f6-93aa-83a97be4aca0","resource":{"resourceType":"MeasureReport","id":"20b09cfa-75bc-40f6-93aa-83a97be4aca0","meta":{"profile":["http://hl7.org/fhir/us/cqfmeasures/StructureDefinition/test-case-cqfm"]},"contained":[{"resourceType":"Parameters","id":"14372e49-4be5-4644-a9f3-1fa9e23f0ffd-parameters","parameter":[{"name":"subject","valueString":"d22bb876-5ef3-4373-b19d-be9c256ec6ff"}]}],"extension":[{"url":"http://hl7.org/fhir/us/cqfmeasures/StructureDefinition/cqfm-inputParameters","valueReference":{"reference":"#14372e49-4be5-4644-a9f3-1fa9e23f0ffd-parameters"}},{"url":"http://hl7.org/fhir/us/cqfmeasures/StructureDefinition/cqfm-testCaseDescription","valueMarkdown":"Glucose lab test results occurred 23hrs 59min after start of encounter period. \nLab test results included in measure results. "}],"modifierExtension":[{"url":"http://hl7.org/fhir/us/cqfmeasures/StructureDefinition/cqfm-isTestCase","valueBoolean":true}],"status":"complete","type":"individual","measure":"https://madie.cms.gov/Measure/HybridHospitalWideReadmissionFHIR","period":{"start":"2025-07-01","end":"2026-06-30"},"group":[{"population":[{"code":{"coding":[{"system":"http://terminology.hl7.org/CodeSystem/measure-population","code":"initial-population","display":"Initial Population"}]},"count":1}]}]},"request":{"method":"PUT","url":"MeasureReport/20b09cfa-75bc-40f6-93aa-83a97be4aca0"}}]}