{"resourceType":"Bundle","id":"tests-9892a740-f233-42b2-9dea-e211b29ba8f0-bundle","type":"transaction","entry":[{"fullUrl":"https://madie.cms.gov/Patient/9892a740-f233-42b2-9dea-e211b29ba8f0","resource":{"resourceType":"Patient","id":"9892a740-f233-42b2-9dea-e211b29ba8f0","meta":{"profile":["http://hl7.org/fhir/us/qicore/StructureDefinition/qicore-patient"]},"text":{"status":"generated","div":"<div xmlns=\"http://www.w3.org/1999/xhtml\"><div class=\"hapiHeaderText\">HRSBP_relevantDT <b>COMBO1 </b></div><table class=\"hapiPropertyTable\"><tbody><tr><td>Identifier</td><td>647b828a576e8c34eaa21fd1cdb85d1e5f291be13e6a5c34a9fc817d4466c0f5</td></tr><tr><td>Date of birth</td><td><span>15 June 1956</span></td></tr></tbody></table></div>"},"extension":[{"url":"http://hl7.org/fhir/us/core/StructureDefinition/us-core-race","extension":[{"url":"ombCategory","valueCoding":{"system":"urn:oid:2.16.840.1.113883.6.238","code":"2028-9","display":"Asian","userSelected":true}},{"url":"text","valueString":"Asian"}]},{"url":"http://hl7.org/fhir/us/core/StructureDefinition/us-core-ethnicity","extension":[{"url":"ombCategory","valueCoding":{"system":"urn:oid:2.16.840.1.113883.6.238","code":"2135-2","display":"Hispanic or Latino","userSelected":true}},{"url":"text","valueString":"Hispanic or Latino"}]}],"identifier":[{"type":{"coding":[{"system":"http://terminology.hl7.org/CodeSystem/v2-0203","code":"MR"}]},"system":"https://bonnie-fhir.healthit.gov/","value":"63ec096cccb3770120fea1f4"}],"active":true,"name":[{"use":"usual","family":"HeartRatePassSystolicBPFail","given":["HR24HrsBP24Hrs1MinAfterAdmit"]}],"gender":"male","birthDate":"1959-06-30"},"request":{"method":"PUT","url":"Patient/9892a740-f233-42b2-9dea-e211b29ba8f0"}},{"fullUrl":"https://madie.cms.gov/Encounter/5e0640a6fa854b0000583f69","resource":{"resourceType":"Encounter","id":"ea8ffad4-0720-47b9-a9ef-7435c19d0eb6","meta":{"profile":["http://hl7.org/fhir/us/qicore/StructureDefinition/qicore-encounter"]},"status":"finished","class":{"system":"http://terminology.hl7.org/CodeSystem/v3-ActCode","code":"IMP","display":"inpatient encounter","userSelected":true},"type":[{"coding":[{"system":"http://snomed.info/sct","code":"183452005","display":"Emergency hospital admission (procedure)"}]}],"subject":{"reference":"Patient/9892a740-f233-42b2-9dea-e211b29ba8f0"},"period":{"start":"2025-07-01T10:01:00.000+00:00","end":"2025-07-03T08:15:00.000+00:00"},"length":{"value":3,"unit":"d","system":"http://unitsofmeasure.org","code":"d"}},"request":{"method":"PUT","url":"Encounter/ea8ffad4-0720-47b9-a9ef-7435c19d0eb6"}},{"fullUrl":"https://madie.cms.gov/Coverage/5f996aaed3abb500009ff84b","resource":{"resourceType":"Coverage","id":"e4da6858-33c3-49f4-b00f-084aeaffe1cb","meta":{"profile":["http://hl7.org/fhir/us/qicore/StructureDefinition/qicore-coverage"]},"status":"active","type":{"coding":[{"system":"https://nahdo.org/sopt","version":"1.0.1","code":"1","display":"Medicare payer","userSelected":true}]},"beneficiary":{"reference":"Patient/9892a740-f233-42b2-9dea-e211b29ba8f0"},"payor":[{"reference":"Organization/80573fa1-cf83-4e9a-8f21-86a018689678"}]},"request":{"method":"PUT","url":"Coverage/e4da6858-33c3-49f4-b00f-084aeaffe1cb"}},{"fullUrl":"https://madie.cms.gov/Observation/5b5f894cb848461e71030a01","resource":{"resourceType":"Observation","id":"4bf7453b-8f49-40df-b1aa-609b6e129ac5","meta":{"profile":["http://hl7.org/fhir/StructureDefinition/heartrate"]},"status":"final","category":[{"coding":[{"system":"http://terminology.hl7.org/CodeSystem/observation-category","code":"vital-signs","display":"Vital Signs","userSelected":true}]}],"code":{"coding":[{"system":"http://loinc.org","code":"8867-4","display":"Heart rate"}]},"subject":{"reference":"Patient/9892a740-f233-42b2-9dea-e211b29ba8f0"},"effectiveDateTime":"2025-07-01T10:01:00.000+00:00","valueQuantity":{"value":130,"unit":"/min","system":"http://unitsofmeasure.org","code":"/min"}},"request":{"method":"PUT","url":"Observation/4bf7453b-8f49-40df-b1aa-609b6e129ac5"}},{"fullUrl":"https://madie.cms.gov/Observation/5b5f894cb848461e71030a05","resource":{"resourceType":"Observation","id":"f4293d81-dfcd-48a8-8328-90e8345b4c35","meta":{"profile":["http://hl7.org/fhir/StructureDefinition/heartrate"]},"status":"final","category":[{"coding":[{"system":"http://terminology.hl7.org/CodeSystem/observation-category","code":"vital-signs","display":"Vital Signs"}],"text":"Vital Signs"}],"code":{"coding":[{"system":"http://loinc.org","code":"8867-4","display":"Heart rate"}]},"subject":{"reference":"Patient/9892a740-f233-42b2-9dea-e211b29ba8f0"},"effectiveDateTime":"2025-07-02T10:01:00.000+00:00","valueQuantity":{"value":140,"unit":"/min","system":"http://unitsofmeasure.org","code":"/min"}},"request":{"method":"PUT","url":"Observation/f4293d81-dfcd-48a8-8328-90e8345b4c35"}},{"fullUrl":"https://madie.cms.gov/Observation/5b5f894cb848461e71030a07","resource":{"resourceType":"Observation","id":"062764fe-f737-49a7-ac16-197bf4b62c4f","meta":{"profile":["http://hl7.org/fhir/StructureDefinition/bp"]},"status":"final","category":[{"coding":[{"system":"http://terminology.hl7.org/CodeSystem/observation-category","code":"vital-signs","display":"Vital Signs"}],"text":"Vital Signs"}],"code":{"coding":[{"system":"http://loinc.org","code":"85354-9","display":"Blood pressure panel"}]},"subject":{"reference":"Patient/9892a740-f233-42b2-9dea-e211b29ba8f0"},"effectiveDateTime":"2025-07-01T12:02:00.000Z","component":[{"code":{"coding":[{"system":"http://loinc.org","code":"8480-6","display":"Systolic blood pressure"}]},"valueQuantity":{"value":131,"unit":"mmHg","system":"http://unitsofmeasure.org","code":"mm[Hg]"}},{"code":{"coding":[{"system":"http://loinc.org","code":"8462-4","display":"Diastolic blood pressure"}]},"valueQuantity":{"value":80,"unit":"mmHg","system":"http://unitsofmeasure.org","code":"mm[Hg]"}}]},"request":{"method":"PUT","url":"Observation/062764fe-f737-49a7-ac16-197bf4b62c4f"}},{"fullUrl":"https://madie.cms.gov/Observation/5b5f894cb848461e71030a055","resource":{"resourceType":"Observation","id":"366fdd4f-af57-4da8-8abd-8f74491ab084","meta":{"profile":["http://hl7.org/fhir/StructureDefinition/heartrate"]},"status":"final","category":[{"coding":[{"system":"http://terminology.hl7.org/CodeSystem/observation-category","code":"vital-signs","display":"Vital Signs"}],"text":"Vital Signs"}],"code":{"coding":[{"system":"http://loinc.org","code":"8867-4","display":"Heart rate"}]},"subject":{"reference":"Patient/9892a740-f233-42b2-9dea-e211b29ba8f0"},"effectiveDateTime":"2025-07-03T10:00:00.000+00:00","valueQuantity":{"value":136,"unit":"/min","system":"http://unitsofmeasure.org","code":"/min"}},"request":{"method":"PUT","url":"Observation/366fdd4f-af57-4da8-8abd-8f74491ab084"}},{"fullUrl":"https://madie.cms.gov/Observation/5b5f894cb848461e71030a0X","resource":{"resourceType":"Observation","id":"560dca64-1805-4e8c-813d-7b892fc9e74e","meta":{"profile":["http://hl7.org/fhir/StructureDefinition/bp"]},"status":"final","category":[{"coding":[{"system":"http://terminology.hl7.org/CodeSystem/observation-category","code":"vital-signs","display":"Vital Signs"}],"text":"Vital Signs"}],"code":{"coding":[{"system":"http://loinc.org","code":"85354-9","display":"Blood pressure panel"}]},"subject":{"reference":"Patient/9892a740-f233-42b2-9dea-e211b29ba8f0"},"effectiveDateTime":"2025-07-02T10:05:00.000Z","component":[{"code":{"coding":[{"system":"http://loinc.org","code":"8480-6","display":"Systolic blood pressure"}]},"valueQuantity":{"value":131,"unit":"mmHg","system":"http://unitsofmeasure.org","code":"mm[Hg]"}},{"code":{"coding":[{"system":"http://loinc.org","code":"8462-4","display":"Diastolic blood pressure"}]},"valueQuantity":{"value":80,"unit":"mmHg","system":"http://unitsofmeasure.org","code":"mm[Hg]"}}]},"request":{"method":"PUT","url":"Observation/560dca64-1805-4e8c-813d-7b892fc9e74e"}},{"fullUrl":"https://madie.cms.gov/Organization/123456","resource":{"resourceType":"Organization","id":"80573fa1-cf83-4e9a-8f21-86a018689678","meta":{"profile":["http://hl7.org/fhir/us/qicore/StructureDefinition/qicore-organization"]},"identifier":[{"use":"temp","system":"urn:oid:2.16.840.1.113883.4.4","value":"21-3259825"}],"active":true,"type":[{"coding":[{"system":"http://terminology.hl7.org/CodeSystem/organization-type","code":"pay","display":"Payer"}]}],"name":"Blue Cross Blue Shield of Texas","telecom":[{"system":"phone","value":"(+1) 972-766-6900"}],"address":[{"use":"billing","type":"postal","line":["P.O. Box 660044"],"city":"Dallas","state":"TX","postalCode":"75266-0044","country":"USA"}]},"request":{"method":"PUT","url":"Organization/80573fa1-cf83-4e9a-8f21-86a018689678"}},{"fullUrl":"https://madie.cms.gov/Practitioner/practitioner-123456","resource":{"resourceType":"Practitioner","id":"3b266031-8cd7-4a6c-b653-1ad6f3875129","meta":{"profile":["http://hl7.org/fhir/us/qicore/StructureDefinition/qicore-practitioner"]},"identifier":[{"system":"http://hl7.org/fhir/sid/us-npi","value":"123456"}],"name":[{"family":"Evil","prefix":["Dr"]}]},"request":{"method":"PUT","url":"Practitioner/3b266031-8cd7-4a6c-b653-1ad6f3875129"}},{"fullUrl":"https://madie.cms.gov/MeasureReport/f4e98766-36a5-4f80-9ad6-88d667eb174d","resource":{"resourceType":"MeasureReport","id":"f4e98766-36a5-4f80-9ad6-88d667eb174d","meta":{"profile":["http://hl7.org/fhir/us/cqfmeasures/StructureDefinition/test-case-cqfm"]},"contained":[{"resourceType":"Parameters","id":"9e5ee327-7c20-4fcd-8451-4613f68e36a9-parameters","parameter":[{"name":"subject","valueString":"9892a740-f233-42b2-9dea-e211b29ba8f0"}]}],"extension":[{"url":"http://hl7.org/fhir/us/cqfmeasures/StructureDefinition/cqfm-inputParameters","valueReference":{"reference":"#9e5ee327-7c20-4fcd-8451-4613f68e36a9-parameters"}},{"url":"http://hl7.org/fhir/us/cqfmeasures/StructureDefinition/cqfm-testCaseDescription","valueMarkdown":"Enc first day of MP (7/1), has Medicare, heart rate evaluated time of admit and at 24 hrs  & 36 hrs after admission; Systolic BP evaluated 2 hrs 1 min and 24 hour after admit. Only the HR is included"}],"modifierExtension":[{"url":"http://hl7.org/fhir/us/cqfmeasures/StructureDefinition/cqfm-isTestCase","valueBoolean":true}],"status":"complete","type":"individual","measure":"https://madie.cms.gov/Measure/HybridHospitalWideReadmissionFHIR","period":{"start":"2025-07-01","end":"2026-06-30"},"group":[{"population":[{"code":{"coding":[{"system":"http://terminology.hl7.org/CodeSystem/measure-population","code":"initial-population","display":"Initial Population"}]},"count":1}]}]},"request":{"method":"PUT","url":"MeasureReport/f4e98766-36a5-4f80-9ad6-88d667eb174d"}}]}