{"resourceType":"Bundle","id":"tests-66e9eb42-457d-4797-b8bb-17d2e7a02658-bundle","type":"transaction","entry":[{"fullUrl":"https://madie.cms.gov/Patient/66e9eb42-457d-4797-b8bb-17d2e7a02658","resource":{"resourceType":"Patient","id":"66e9eb42-457d-4797-b8bb-17d2e7a02658","meta":{"profile":["http://hl7.org/fhir/us/qicore/StructureDefinition/qicore-patient"]},"text":{"status":"generated","div":"<div xmlns=\"http://www.w3.org/1999/xhtml\"><div class=\"hapiHeaderText\">NoResult <b>SODIUMFAIL </b></div><table class=\"hapiPropertyTable\"><tbody><tr><td>Identifier</td><td>eb360e3679224871964d5b3575a59ceb3c2f6260372fb1be3ea61ac84d2937cf</td></tr><tr><td>Date of birth</td><td><span>15 June 1956</span></td></tr></tbody></table></div>"},"extension":[{"url":"http://hl7.org/fhir/us/core/StructureDefinition/us-core-race","extension":[{"url":"ombCategory","valueCoding":{"system":"urn:oid:2.16.840.1.113883.6.238","code":"1002-5","display":"American Indian or Alaska Native","userSelected":true}},{"url":"text","valueString":"American Indian or Alaska Native"}]},{"url":"http://hl7.org/fhir/us/core/StructureDefinition/us-core-ethnicity","extension":[{"url":"ombCategory","valueCoding":{"system":"urn:oid:2.16.840.1.113883.6.238","code":"2186-5","display":"Not Hispanic or Latino","userSelected":true}},{"url":"text","valueString":"Not Hispanic or Latino"}]}],"identifier":[{"type":{"coding":[{"system":"http://terminology.hl7.org/CodeSystem/v2-0203","code":"MR"}]},"system":"https://bonnie-fhir.healthit.gov/","value":"63ec096bccb3770120fea0ad"}],"active":true,"name":[{"use":"usual","family":"EachPerformedInSeparateEncounters","given":["AllExamsPass"]}],"gender":"male","birthDate":"1959-07-01"},"request":{"method":"PUT","url":"Patient/66e9eb42-457d-4797-b8bb-17d2e7a02658"}},{"fullUrl":"https://madie.cms.gov/Encounter/5f996a69b977ef0000c0305a","resource":{"resourceType":"Encounter","id":"77491dc6-1fd2-4c9a-b331-b028bb1c7dc8","meta":{"profile":["http://hl7.org/fhir/us/qicore/StructureDefinition/qicore-encounter"]},"status":"finished","class":{"system":"http://terminology.hl7.org/CodeSystem/v3-ActCode","code":"IMP","display":"inpatient encounter","userSelected":true},"type":[{"coding":[{"system":"http://snomed.info/sct","code":"183452005"}]}],"subject":{"reference":"Patient/66e9eb42-457d-4797-b8bb-17d2e7a02658"},"period":{"start":"2025-07-01T12:01:00.000+00:00","end":"2025-07-04T08:15:00.000+00:00"}},"request":{"method":"PUT","url":"Encounter/77491dc6-1fd2-4c9a-b331-b028bb1c7dc8"}},{"fullUrl":"https://madie.cms.gov/Encounter/5f996a69b977ef0000c0305a1","resource":{"resourceType":"Encounter","id":"8515209f-07d2-4541-911e-aa0dd906bf85","meta":{"profile":["http://hl7.org/fhir/us/qicore/StructureDefinition/qicore-encounter"]},"status":"finished","class":{"system":"http://terminology.hl7.org/CodeSystem/v3-ActCode","code":"IMP","display":"inpatient encounter","userSelected":true},"type":[{"coding":[{"system":"http://snomed.info/sct","code":"183452005","display":"Emergency hospital admission (procedure)"}]}],"subject":{"reference":"Patient/66e9eb42-457d-4797-b8bb-17d2e7a02658"},"period":{"start":"2026-02-14T12:08:00.000+00:00","end":"2026-02-16T10:00:00.000+00:00"}},"request":{"method":"PUT","url":"Encounter/8515209f-07d2-4541-911e-aa0dd906bf85"}},{"fullUrl":"https://madie.cms.gov/Encounter/5f996a69b977ef0000c0305a2","resource":{"resourceType":"Encounter","id":"f7c2fca1-1ad8-4877-824e-8aaeec642b55","meta":{"profile":["http://hl7.org/fhir/us/qicore/StructureDefinition/qicore-encounter"]},"status":"finished","class":{"system":"http://terminology.hl7.org/CodeSystem/v3-ActCode","code":"IMP","display":"inpatient encounter","userSelected":true},"type":[{"coding":[{"system":"http://snomed.info/sct","code":"32485007","display":"Hospital admission (procedure)"}]}],"subject":{"reference":"Patient/66e9eb42-457d-4797-b8bb-17d2e7a02658"},"period":{"start":"2026-01-04T08:00:00.000+00:00","end":"2026-01-08T08:15:00.000+00:00"}},"request":{"method":"PUT","url":"Encounter/f7c2fca1-1ad8-4877-824e-8aaeec642b55"}},{"fullUrl":"https://madie.cms.gov/Encounter/5f996a69b977ef0000c0305a3","resource":{"resourceType":"Encounter","id":"0c3506c4-234f-4178-8aa6-9434cecd1531","meta":{"profile":["http://hl7.org/fhir/us/qicore/StructureDefinition/qicore-encounter"]},"status":"finished","class":{"system":"http://terminology.hl7.org/CodeSystem/v3-ActCode","code":"EMER","display":"emergency","userSelected":true},"type":[{"coding":[{"system":"http://snomed.info/sct","code":"4525004","display":"Emergency department patient visit (procedure)"}]}],"subject":{"reference":"Patient/66e9eb42-457d-4797-b8bb-17d2e7a02658"},"period":{"start":"2026-06-27T04:00:00.000+00:00","end":"2026-06-27T15:30:00.000+00:00"}},"request":{"method":"PUT","url":"Encounter/0c3506c4-234f-4178-8aa6-9434cecd1531"}},{"fullUrl":"https://madie.cms.gov/Encounter/5f996a69b977ef0000c0305a4","resource":{"resourceType":"Encounter","id":"f6677904-1632-4262-9385-78ee79dc1b9c","meta":{"profile":["http://hl7.org/fhir/us/qicore/StructureDefinition/qicore-encounter"]},"status":"finished","class":{"system":"http://terminology.hl7.org/CodeSystem/v3-ActCode","code":"IMP","display":"inpatient encounter","userSelected":true},"type":[{"coding":[{"system":"http://snomed.info/sct","code":"183452005","display":"Emergency hospital admission (procedure)"}]}],"subject":{"reference":"Patient/66e9eb42-457d-4797-b8bb-17d2e7a02658"},"period":{"start":"2026-06-27T15:30:00.000+00:00","end":"2026-06-30T08:23:59.000+00:00"}},"request":{"method":"PUT","url":"Encounter/f6677904-1632-4262-9385-78ee79dc1b9c"}},{"fullUrl":"https://madie.cms.gov/Observation/5b7c5511b84846299c81a50f","resource":{"resourceType":"Observation","id":"3fd8da3a-8b5a-43b3-b1a9-57e146c3dde9","meta":{"profile":["http://hl7.org/fhir/StructureDefinition/resprate"]},"status":"final","category":[{"coding":[{"system":"http://terminology.hl7.org/CodeSystem/observation-category","code":"vital-signs","display":"Vital Signs","userSelected":true}]}],"code":{"coding":[{"system":"http://loinc.org","code":"9279-1","display":"Respiratory rate"}]},"subject":{"reference":"Patient/66e9eb42-457d-4797-b8bb-17d2e7a02658"},"effectiveDateTime":"2026-02-14T09:59:00.000+00:00","issued":"2026-02-14T09:59:00.000Z","valueQuantity":{"value":16.0,"unit":"/min","system":"http://unitsofmeasure.org","code":"/min"}},"request":{"method":"PUT","url":"Observation/3fd8da3a-8b5a-43b3-b1a9-57e146c3dde9"}},{"fullUrl":"https://madie.cms.gov/Observation/5b5f894cb848461e71030a0X","resource":{"resourceType":"Observation","id":"5c25da0e-9d39-4061-97ec-e351faeb13bc","meta":{"profile":["http://hl7.org/fhir/StructureDefinition/heartrate"]},"status":"final","category":[{"coding":[{"system":"http://terminology.hl7.org/CodeSystem/observation-category","code":"vital-signs","display":"Vital Signs","userSelected":true}]}],"code":{"coding":[{"system":"http://loinc.org","code":"8867-4","display":"Heart rate"}]},"subject":{"reference":"Patient/66e9eb42-457d-4797-b8bb-17d2e7a02658"},"effectiveDateTime":"2026-01-04T08:00:00.000+00:00","valueQuantity":{"value":130,"unit":"/min","system":"http://unitsofmeasure.org","code":"/min"}},"request":{"method":"PUT","url":"Observation/5c25da0e-9d39-4061-97ec-e351faeb13bc"}},{"fullUrl":"https://madie.cms.gov/Observation/5b5f894cb848461e71030a0Y","resource":{"resourceType":"Observation","id":"1f32ba6e-36a4-41da-bccc-d1159c8c2229","meta":{"profile":["http://hl7.org/fhir/StructureDefinition/bp"]},"status":"final","category":[{"coding":[{"system":"http://terminology.hl7.org/CodeSystem/observation-category","code":"vital-signs","display":"Vital Signs"}],"text":"Vital Signs"}],"code":{"coding":[{"system":"http://loinc.org","code":"85354-9","display":"Blood pressure panel"}]},"subject":{"reference":"Patient/66e9eb42-457d-4797-b8bb-17d2e7a02658"},"effectiveDateTime":"2025-06-30T13:00:00.000+00:00","component":[{"code":{"coding":[{"system":"http://loinc.org","code":"8480-6","display":"Systolic blood pressure"}]},"valueQuantity":{"value":131,"unit":"mmHg","system":"http://unitsofmeasure.org","code":"mm[Hg]"}},{"code":{"coding":[{"system":"http://loinc.org","code":"8462-4","display":"Diastolic blood pressure"}]},"valueQuantity":{"value":80,"unit":"mmHg","system":"http://unitsofmeasure.org","code":"mm[Hg]"}}]},"request":{"method":"PUT","url":"Observation/1f32ba6e-36a4-41da-bccc-d1159c8c2229"}},{"fullUrl":"https://madie.cms.gov/Observation/5b7c5683b84846299c81a5e1","resource":{"resourceType":"Observation","id":"b000e54b-4076-437b-b8ec-9bbced2f46a3","meta":{"profile":["http://hl7.org/fhir/StructureDefinition/bodytemp"]},"status":"amended","category":[{"coding":[{"system":"http://terminology.hl7.org/CodeSystem/observation-category","code":"vital-signs","display":"Vital Signs","userSelected":true}]}],"code":{"coding":[{"system":"http://loinc.org","code":"8310-5","display":"Body temperature"}]},"subject":{"reference":"Patient/66e9eb42-457d-4797-b8bb-17d2e7a02658"},"effectiveDateTime":"2026-06-27T15:30:00.000+00:00","valueQuantity":{"value":98.6,"unit":"[degF]","system":"http://unitsofmeasure.org","code":"[degF]"}},"request":{"method":"PUT","url":"Observation/b000e54b-4076-437b-b8ec-9bbced2f46a3"}},{"fullUrl":"https://madie.cms.gov/Coverage/5f996a4ab977ef0000c0304f","resource":{"resourceType":"Coverage","id":"0f95acf1-839e-437d-b175-03beb4825d37","meta":{"profile":["http://hl7.org/fhir/us/qicore/StructureDefinition/qicore-coverage"]},"status":"active","type":{"coding":[{"system":"https://nahdo.org/sopt","version":"1.0.1","code":"1","display":"Medicare payer","userSelected":true}]},"beneficiary":{"reference":"Patient/66e9eb42-457d-4797-b8bb-17d2e7a02658"},"payor":[{"reference":"Organization/77e4d06f-5e3c-436a-a598-80cefcca5028"}]},"request":{"method":"PUT","url":"Coverage/0f95acf1-839e-437d-b175-03beb4825d37"}},{"fullUrl":"https://madie.cms.gov/Organization/123456","resource":{"resourceType":"Organization","id":"77e4d06f-5e3c-436a-a598-80cefcca5028","meta":{"profile":["http://hl7.org/fhir/us/qicore/StructureDefinition/qicore-organization"]},"identifier":[{"use":"temp","system":"urn:oid:2.16.840.1.113883.4.4","value":"21-3259825"}],"active":true,"type":[{"coding":[{"system":"http://terminology.hl7.org/CodeSystem/organization-type","code":"pay","display":"Payer"}]}],"name":"Blue Cross Blue Shield of Texas","telecom":[{"system":"phone","value":"(+1) 972-766-6900"}],"address":[{"use":"billing","type":"postal","line":["P.O. Box 660044"],"city":"Dallas","state":"TX","postalCode":"75266-0044","country":"USA"}]},"request":{"method":"PUT","url":"Organization/77e4d06f-5e3c-436a-a598-80cefcca5028"}},{"fullUrl":"https://madie.cms.gov/Practitioner/practitioner-123456","resource":{"resourceType":"Practitioner","id":"ebb64f19-69f3-4ba3-b2c3-8c7f55c13def","meta":{"profile":["http://hl7.org/fhir/us/qicore/StructureDefinition/qicore-practitioner"]},"identifier":[{"system":"http://hl7.org/fhir/sid/us-npi","value":"123456"}],"name":[{"family":"Evil","prefix":["Dr"]}]},"request":{"method":"PUT","url":"Practitioner/ebb64f19-69f3-4ba3-b2c3-8c7f55c13def"}},{"fullUrl":"https://madie.cms.gov/MeasureReport/ed6acb31-834c-4d90-abf3-6ffd8008b28b","resource":{"resourceType":"MeasureReport","id":"ed6acb31-834c-4d90-abf3-6ffd8008b28b","meta":{"profile":["http://hl7.org/fhir/us/cqfmeasures/StructureDefinition/test-case-cqfm"]},"contained":[{"resourceType":"Parameters","id":"18085113-6cc9-4ad2-a21b-02f212b546f5-parameters","parameter":[{"name":"subject","valueString":"66e9eb42-457d-4797-b8bb-17d2e7a02658"}]}],"extension":[{"url":"http://hl7.org/fhir/us/cqfmeasures/StructureDefinition/cqfm-inputParameters","valueReference":{"reference":"#18085113-6cc9-4ad2-a21b-02f212b546f5-parameters"}},{"url":"http://hl7.org/fhir/us/cqfmeasures/StructureDefinition/cqfm-testCaseDescription","valueMarkdown":"Enc. 1: starts 1st day of MP (7/1), has Medicare and is 65 today, systolic BP\nEnc. 2: starts last day of CY, resp rate\nEnc. 3: starts 4th day of following year, heart rate\nEnc. 4: Surgery then inpatient, ends last day of MP (6/30),  temperature \n "}],"modifierExtension":[{"url":"http://hl7.org/fhir/us/cqfmeasures/StructureDefinition/cqfm-isTestCase","valueBoolean":true}],"status":"complete","type":"individual","measure":"https://madie.cms.gov/Measure/HybridHospitalWideReadmissionFHIR","period":{"start":"2025-07-01","end":"2026-06-30"},"group":[{"population":[{"code":{"coding":[{"system":"http://terminology.hl7.org/CodeSystem/measure-population","code":"initial-population","display":"Initial Population"}]},"count":4}]}]},"request":{"method":"PUT","url":"MeasureReport/ed6acb31-834c-4d90-abf3-6ffd8008b28b"}}]}