{
  "resourceType": "Bundle",
  "id": "63594c7a6aee9629c82981df",
  "type": "transaction",
  "entry": [ {
    "fullUrl": "https://madie.cms.gov/Patient/06df52a2-2e71-45fd-9a0c-9d2b8dc95fc2",
    "resource": {
      "resourceType": "Patient",
      "id": "06df52a2-2e71-45fd-9a0c-9d2b8dc95fc2",
      "meta": {
        "profile": [ "http://hl7.org/fhir/us/qicore/StructureDefinition/qicore-patient" ]
      },
      "text": {
        "status": "generated",
        "div": "<div xmlns=\"http://www.w3.org/1999/xhtml\"><div class=\"hapiHeaderText\">Risk_NeuromuscularDisease<b>RISKPass </b></div><table class=\"hapiPropertyTable\"><tbody><tr><td>Date of birth</td><td><span>01 February 2004</span></td></tr></tbody></table></div>"
      },
      "extension": [ {
        "url": "http://hl7.org/fhir/us/core/StructureDefinition/us-core-race",
        "extension": [ {
          "url": "ombCategory",
          "valueCoding": {
            "system": "urn:oid:2.16.840.1.113883.6.238",
            "code": "1002-5",
            "display": "American Indian or Alaska Native",
            "userSelected": true
          }
        }, {
          "url": "text",
          "valueString": "American Indian or Alaska Native"
        } ]
      }, {
        "url": "http://hl7.org/fhir/us/core/StructureDefinition/us-core-ethnicity",
        "extension": [ {
          "url": "ombCategory",
          "valueCoding": {
            "system": "urn:oid:2.16.840.1.113883.6.238",
            "code": "2135-2",
            "display": "Hispanic or Latino",
            "userSelected": true
          }
        }, {
          "url": "text",
          "valueString": "Hispanic or Latino"
        } ]
      } ],
      "identifier": [ {
        "type": {
          "coding": [ {
            "system": "http://terminology.hl7.org/CodeSystem/v2-0203",
            "code": "MR"
          } ]
        },
        "system": "https://bonnie-fhir.healthit.gov/",
        "value": "63594c7a6aee9629c82981df"
      } ],
      "active": true,
      "name": [ {
        "use": "usual",
        "family": "RiskPass",
        "given": [ "Risk_NeuromuscularDisease" ]
      } ],
      "gender": "female",
      "birthDate": "2004-02-01"
    },
    "request": {
      "method": "PUT",
      "url": "Patient/06df52a2-2e71-45fd-9a0c-9d2b8dc95fc2"
    }
  }, {
    "fullUrl": "https://madie.cms.gov/Observation/34a3dc9a-a62c-4133-9636-a865077aad0a",
    "resource": {
      "resourceType": "Observation",
      "id": "34a3dc9a-a62c-4133-9636-a865077aad0a",
      "meta": {
        "profile": [ "http://hl7.org/fhir/us/qicore/StructureDefinition/qicore-observation" ]
      },
      "status": "final",
      "category": [ {
        "coding": [ {
          "system": "http://terminology.hl7.org/CodeSystem/observation-category",
          "code": "exam",
          "display": "exam",
          "userSelected": true
        } ]
      } ],
      "code": {
        "coding": [ {
          "system": "http://loinc.org",
          "code": "93857-1"
        } ]
      },
      "subject": {
        "reference": "Patient/06df52a2-2e71-45fd-9a0c-9d2b8dc95fc2"
      },
      "effectiveDateTime": "2025-02-01T08:00:00.000+00:00",
      "valueDateTime": "2025-02-01T08:00:00+00:00"
    },
    "request": {
      "method": "PUT",
      "url": "Observation/34a3dc9a-a62c-4133-9636-a865077aad0a"
    }
  }, {
    "fullUrl": "https://madie.cms.gov/Observation/785d1ed0-5de4-49a8-bb51-daf74607fce5",
    "resource": {
      "resourceType": "Observation",
      "id": "785d1ed0-5de4-49a8-bb51-daf74607fce5",
      "meta": {
        "profile": [ "http://hl7.org/fhir/us/qicore/StructureDefinition/qicore-observation" ]
      },
      "status": "final",
      "category": [ {
        "coding": [ {
          "system": "http://terminology.hl7.org/CodeSystem/observation-category",
          "code": "exam",
          "display": "exam",
          "userSelected": true
        } ]
      } ],
      "code": {
        "coding": [ {
          "system": "http://loinc.org",
          "code": "11778-8"
        } ]
      },
      "subject": {
        "reference": "Patient/06df52a2-2e71-45fd-9a0c-9d2b8dc95fc2"
      },
      "effectiveDateTime": "2025-02-01T08:00:00.000+00:00",
      "valueDateTime": "2025-02-01T00:00:00.000+00:00"
    },
    "request": {
      "method": "PUT",
      "url": "Observation/785d1ed0-5de4-49a8-bb51-daf74607fce5"
    }
  }, {
    "fullUrl": "https://madie.cms.gov/Encounter/7b42ebb6-5063-44fa-ba23-1526e0d1034e",
    "resource": {
      "resourceType": "Encounter",
      "id": "7b42ebb6-5063-44fa-ba23-1526e0d1034e",
      "meta": {
        "profile": [ "http://hl7.org/fhir/us/qicore/StructureDefinition/qicore-encounter" ]
      },
      "status": "finished",
      "class": {
        "system": "http://terminology.hl7.org/CodeSystem/v3-ActCode",
        "code": "IMP",
        "display": "inpatient encounter"
      },
      "type": [ {
        "coding": [ {
          "system": "http://snomed.info/sct",
          "code": "183452005"
        } ]
      } ],
      "subject": {
        "reference": "Patient/06df52a2-2e71-45fd-9a0c-9d2b8dc95fc2"
      },
      "period": {
        "start": "2025-02-01T08:00:00.000Z",
        "end": "2025-02-05T08:15:00.000Z"
      },
      "diagnosis": [ {
        "extension": [ {
          "url": "http://hl7.org/fhir/us/qicore/StructureDefinition/qicore-encounter-diagnosisPresentOnAdmission",
          "valueCodeableConcept": {
            "coding": [ {
              "system": "https://www.cms.gov/Medicare/Medicare-Fee-for-Service-Payment/HospitalAcqCond/Coding",
              "code": "Y"
            } ]
          }
        } ],
        "condition": {
          "reference": "Condition/4416e923-b3f0-4ade-b739-5df1024627b5"
        }
      }, {
        "extension": [ {
          "url": "http://hl7.org/fhir/us/qicore/StructureDefinition/qicore-encounter-diagnosisPresentOnAdmission",
          "valueCodeableConcept": {
            "coding": [ {
              "system": "https://www.cms.gov/Medicare/Medicare-Fee-for-Service-Payment/HospitalAcqCond/Coding",
              "code": "N"
            } ]
          }
        } ],
        "condition": {
          "reference": "Condition/338f2d99-930a-4d0a-acfb-bedeaab9a69d"
        }
      } ]
    },
    "request": {
      "method": "PUT",
      "url": "Encounter/7b42ebb6-5063-44fa-ba23-1526e0d1034e"
    }
  }, {
    "fullUrl": "https://madie.cms.gov/Procedure/94a1d082-fec8-40e1-b531-89bee014177b",
    "resource": {
      "resourceType": "Procedure",
      "id": "94a1d082-fec8-40e1-b531-89bee014177b",
      "meta": {
        "profile": [ "http://hl7.org/fhir/us/qicore/StructureDefinition/qicore-procedure" ]
      },
      "extension": [ {
        "url": "http://hl7.org/fhir/us/qicore/StructureDefinition/qicore-recorded",
        "valueDateTime": "2013-04-05T09:35:00-04:00"
      } ],
      "status": "completed",
      "code": {
        "coding": [ {
          "system": "http://snomed.info/sct",
          "code": "10745001"
        } ]
      },
      "subject": {
        "reference": "Patient/06df52a2-2e71-45fd-9a0c-9d2b8dc95fc2"
      },
      "performedDateTime": "2025-02-01T08:00:00.000+00:00"
    },
    "request": {
      "method": "PUT",
      "url": "Procedure/94a1d082-fec8-40e1-b531-89bee014177b"
    }
  }, {
    "fullUrl": "https://madie.cms.gov/Condition/338f2d99-930a-4d0a-acfb-bedeaab9a69d",
    "resource": {
      "resourceType": "Condition",
      "id": "338f2d99-930a-4d0a-acfb-bedeaab9a69d",
      "meta": {
        "profile": [ "http://hl7.org/fhir/us/qicore/StructureDefinition/qicore-condition" ]
      },
      "category": [ {
        "coding": [ {
          "system": "http://terminology.hl7.org/CodeSystem/condition-category",
          "code": "encounter-diagnosis",
          "display": "Encounter Diagnosis"
        } ]
      } ],
      "code": {
        "coding": [ {
          "system": "http://hl7.org/fhir/sid/icd-10-cm",
          "version": "2023",
          "code": "A32.7",
          "display": "Listerial sepsis",
          "userSelected": true
        } ]
      },
      "subject": {
        "reference": "Patient/06df52a2-2e71-45fd-9a0c-9d2b8dc95fc2"
      },
      "recordedDate": "2025-10-26T08:00:00.000+00:00"
    },
    "request": {
      "method": "PUT",
      "url": "Condition/338f2d99-930a-4d0a-acfb-bedeaab9a69d"
    }
  }, {
    "fullUrl": "https://madie.cms.gov/Condition/4416e923-b3f0-4ade-b739-5df1024627b5",
    "resource": {
      "resourceType": "Condition",
      "id": "4416e923-b3f0-4ade-b739-5df1024627b5",
      "meta": {
        "profile": [ "http://hl7.org/fhir/us/qicore/StructureDefinition/qicore-condition" ]
      },
      "category": [ {
        "coding": [ {
          "system": "http://terminology.hl7.org/CodeSystem/condition-category",
          "code": "encounter-diagnosis",
          "display": "Encounter Diagnosis"
        } ]
      } ],
      "code": {
        "coding": [ {
          "system": "http://hl7.org/fhir/sid/icd-10-cm",
          "version": "2023",
          "code": "G40.001",
          "display": "Neuromuscular Disease",
          "userSelected": true
        } ]
      },
      "subject": {
        "reference": "Patient/06df52a2-2e71-45fd-9a0c-9d2b8dc95fc2"
      },
      "recordedDate": "2025-10-26T08:00:00.000+00:00"
    },
    "request": {
      "method": "PUT",
      "url": "Condition/4416e923-b3f0-4ade-b739-5df1024627b5"
    }
  }, {
    "fullUrl": "https://madie.cms.gov/MeasureReport/3062830e-b996-407d-8c30-5fe5469a3f32",
    "resource": {
      "resourceType": "MeasureReport",
      "id": "3062830e-b996-407d-8c30-5fe5469a3f32",
      "meta": {
        "profile": [ "http://hl7.org/fhir/us/cqfmeasures/StructureDefinition/test-case-cqfm" ]
      },
      "contained": [ {
        "resourceType": "Parameters",
        "id": "c1a3ba66-2b4a-4b88-958d-63f40dc734f8-parameters",
        "parameter": [ {
          "name": "subject",
          "valueString": "06df52a2-2e71-45fd-9a0c-9d2b8dc95fc2"
        } ]
      } ],
      "extension": [ {
        "url": "http://hl7.org/fhir/us/cqfmeasures/StructureDefinition/cqfm-inputParameters",
        "valueReference": {
          "reference": "#c1a3ba66-2b4a-4b88-958d-63f40dc734f8-parameters"
        }
      }, {
        "url": "http://hl7.org/fhir/us/cqfmeasures/StructureDefinition/cqfm-testCaseDescription",
        "valueMarkdown": "Risk variable of neuromuscular.\n\n"
      } ],
      "modifierExtension": [ {
        "url": "http://hl7.org/fhir/us/cqfmeasures/StructureDefinition/cqfm-isTestCase",
        "valueBoolean": true
      } ],
      "status": "complete",
      "type": "individual",
      "measure": "https://madie.cms.gov/Measure/CMS1028FHIRPCSevereOBComps",
      "period": {
        "start": "2025-01-01",
        "end": "2025-12-31"
      },
      "group": [ {
        "population": [ {
          "code": {
            "coding": [ {
              "system": "http://terminology.hl7.org/CodeSystem/measure-population",
              "code": "initial-population",
              "display": "Initial Population"
            } ]
          },
          "count": 1
        }, {
          "code": {
            "coding": [ {
              "system": "http://terminology.hl7.org/CodeSystem/measure-population",
              "code": "denominator",
              "display": "Denominator"
            } ]
          },
          "count": 1
        }, {
          "code": {
            "coding": [ {
              "system": "http://terminology.hl7.org/CodeSystem/measure-population",
              "code": "numerator",
              "display": "Numerator"
            } ]
          },
          "count": 1
        }, {
          "code": {
            "coding": [ {
              "system": "http://terminology.hl7.org/CodeSystem/measure-population",
              "code": "numerator-exclusion",
              "display": "Numerator Exclusion"
            } ]
          },
          "count": 0
        } ]
      }, {
        "population": [ {
          "code": {
            "coding": [ {
              "system": "http://terminology.hl7.org/CodeSystem/measure-population",
              "code": "initial-population",
              "display": "Initial Population"
            } ]
          },
          "count": 1
        }, {
          "code": {
            "coding": [ {
              "system": "http://terminology.hl7.org/CodeSystem/measure-population",
              "code": "denominator",
              "display": "Denominator"
            } ]
          },
          "count": 1
        }, {
          "code": {
            "coding": [ {
              "system": "http://terminology.hl7.org/CodeSystem/measure-population",
              "code": "numerator",
              "display": "Numerator"
            } ]
          },
          "count": 1
        }, {
          "code": {
            "coding": [ {
              "system": "http://terminology.hl7.org/CodeSystem/measure-population",
              "code": "numerator-exclusion",
              "display": "Numerator Exclusion"
            } ]
          },
          "count": 0
        } ]
      } ],
      "evaluatedResource": [ {
        "reference": "Patient/06df52a2-2e71-45fd-9a0c-9d2b8dc95fc2"
      }, {
        "reference": "Observation/34a3dc9a-a62c-4133-9636-a865077aad0a"
      }, {
        "reference": "Observation/785d1ed0-5de4-49a8-bb51-daf74607fce5"
      }, {
        "reference": "Encounter/7b42ebb6-5063-44fa-ba23-1526e0d1034e"
      }, {
        "reference": "Procedure/94a1d082-fec8-40e1-b531-89bee014177b"
      }, {
        "reference": "Condition/338f2d99-930a-4d0a-acfb-bedeaab9a69d"
      }, {
        "reference": "Condition/4416e923-b3f0-4ade-b739-5df1024627b5"
      } ]
    },
    "request": {
      "method": "PUT",
      "url": "MeasureReport/3062830e-b996-407d-8c30-5fe5469a3f32"
    }
  } ]
}