{"resourceType":"Bundle","id":"tests-8f3e1bc6-45ca-40ae-9e33-e9d97c6df55f-bundle","type":"transaction","entry":[{"fullUrl":"https://madie.cms.gov/Patient/8f3e1bc6-45ca-40ae-9e33-e9d97c6df55f","resource":{"resourceType":"Patient","id":"8f3e1bc6-45ca-40ae-9e33-e9d97c6df55f","meta":{"profile":["http://hl7.org/fhir/us/qicore/StructureDefinition/qicore-patient"]},"text":{"status":"generated","div":"<div xmlns=\"http://www.w3.org/1999/xhtml\"><div class=\"hapiHeaderText\">TermMissingResultAssessPre <b>DENFAIL </b></div><table class=\"hapiPropertyTable\"><tbody><tr><td>Identifier</td><td>f1b9e4b3392b77f1a2fea2b625f7cf28fad883bb54105146a2733314d50d6a83</td></tr><tr><td>Date of birth</td><td><span>14 February 1985</span></td></tr></tbody></table></div>"},"extension":[{"url":"http://hl7.org/fhir/us/core/StructureDefinition/us-core-race","extension":[{"url":"ombCategory","valueCoding":{"system":"urn:oid:2.16.840.1.113883.6.238","code":"1002-5","display":"American Indian or Alaska Native","userSelected":true}},{"url":"text","valueString":"American Indian or Alaska Native"}]},{"url":"http://hl7.org/fhir/us/core/StructureDefinition/us-core-ethnicity","extension":[{"url":"ombCategory","valueCoding":{"system":"urn:oid:2.16.840.1.113883.6.238","code":"2135-2","display":"Hispanic or Latino","userSelected":true}},{"url":"text","valueString":"Hispanic or Latino"}]}],"identifier":[{"type":{"coding":[{"system":"http://terminology.hl7.org/CodeSystem/v2-0203","code":"MR"}]},"system":"https://bonnie-fhir.healthit.gov/","value":"63487c2d0968f8012254015a"}],"active":true,"name":[{"use":"usual","family":"DENFail","given":["TermMissingResultAssessPre"]}],"gender":"female","birthDate":"1997-02-14"},"request":{"method":"PUT","url":"Patient/8f3e1bc6-45ca-40ae-9e33-e9d97c6df55f"}},{"fullUrl":"https://madie.cms.gov/Observation/5d014eb2b848460872380664","resource":{"resourceType":"Observation","id":"4775ea58-ea32-4df8-9d6e-f150dfd6493e","meta":{"profile":["http://hl7.org/fhir/us/qicore/StructureDefinition/qicore-observation"]},"status":"final","category":[{"coding":[{"system":"http://terminology.hl7.org/CodeSystem/observation-category","code":"exam","display":"exam","userSelected":true}]}],"code":{"coding":[{"system":"http://loinc.org","code":"11637-6"}]},"subject":{"reference":"Patient/8f3e1bc6-45ca-40ae-9e33-e9d97c6df55f"},"effectiveDateTime":"2024-09-19T09:00:00.000+00:00"},"request":{"method":"PUT","url":"Observation/4775ea58-ea32-4df8-9d6e-f150dfd6493e"}},{"fullUrl":"https://madie.cms.gov/Observation/5d014eb2b848460872380665","resource":{"resourceType":"Observation","id":"10879ea2-a19f-4f3c-90e4-27e008b131ce","meta":{"profile":["http://hl7.org/fhir/us/qicore/StructureDefinition/qicore-observation"]},"status":"final","category":[{"coding":[{"system":"http://terminology.hl7.org/CodeSystem/observation-category","code":"exam","display":"exam","userSelected":true}]}],"code":{"coding":[{"system":"http://loinc.org","code":"11639-2"}]},"subject":{"reference":"Patient/8f3e1bc6-45ca-40ae-9e33-e9d97c6df55f"},"effectiveDateTime":"2024-09-19T09:00:00.000+00:00","valueInteger":0},"request":{"method":"PUT","url":"Observation/10879ea2-a19f-4f3c-90e4-27e008b131ce"}},{"fullUrl":"https://madie.cms.gov/Observation/5d014eb2b848460872380668","resource":{"resourceType":"Observation","id":"a9695390-b1c1-48c1-b07e-83b5aeb5600d","meta":{"profile":["http://hl7.org/fhir/us/qicore/StructureDefinition/qicore-observation"]},"status":"final","category":[{"coding":[{"system":"http://terminology.hl7.org/CodeSystem/observation-category","code":"exam","display":"exam","userSelected":true}]}],"code":{"coding":[{"system":"http://loinc.org","code":"11884-4"}]},"subject":{"reference":"Patient/8f3e1bc6-45ca-40ae-9e33-e9d97c6df55f"},"effectiveDateTime":"2025-06-08T20:00:00.000+00:00","valueQuantity":{"value":37.0,"system":"http://unitsofmeasure.org","code":"weeks"}},"request":{"method":"PUT","url":"Observation/a9695390-b1c1-48c1-b07e-83b5aeb5600d"}},{"fullUrl":"https://madie.cms.gov/Observation/5e696dc27ffec7000032238b","resource":{"resourceType":"Observation","id":"f405768f-5a43-44d5-ab5e-9c40d434dab9","meta":{"profile":["http://hl7.org/fhir/us/qicore/StructureDefinition/qicore-observation"]},"status":"final","category":[{"coding":[{"system":"http://terminology.hl7.org/CodeSystem/observation-category","code":"exam","display":"exam","userSelected":true}]}],"code":{"coding":[{"system":"http://loinc.org","code":"93857-1"}]},"subject":{"reference":"Patient/8f3e1bc6-45ca-40ae-9e33-e9d97c6df55f"},"effectiveDateTime":"2025-06-08T20:00:00.000+00:00","valueDateTime":"2025-06-08T20:00:00+00:00"},"request":{"method":"PUT","url":"Observation/f405768f-5a43-44d5-ab5e-9c40d434dab9"}},{"fullUrl":"https://madie.cms.gov/Encounter/5d014eb2b848460872380662","resource":{"resourceType":"Encounter","id":"f570d543-86c9-47b3-b4ec-6a899b41b8ba","meta":{"profile":["http://hl7.org/fhir/us/qicore/StructureDefinition/qicore-encounter"]},"status":"finished","class":{"system":"http://terminology.hl7.org/CodeSystem/v3-ActCode","code":"IMP","display":"inpatient encounter"},"type":[{"coding":[{"system":"http://snomed.info/sct","code":"8715000"}]}],"subject":{"reference":"Patient/8f3e1bc6-45ca-40ae-9e33-e9d97c6df55f"},"period":{"start":"2025-06-08T08:00:00.000Z","end":"2025-06-10T08:15:00.000Z"},"length":{"value":2.0,"unit":"days"},"diagnosis":[{"condition":{"reference":"Condition/delivery-of-singleton-f83c"},"use":{"coding":[{"system":"http://snomed.info/sct","code":"169826009","display":"Delivery of Singleton"}]}},{"condition":{"reference":"Condition/delivery-of-singleton-4b31"}}]},"request":{"method":"PUT","url":"Encounter/f570d543-86c9-47b3-b4ec-6a899b41b8ba"}},{"fullUrl":"https://madie.cms.gov/Procedure/5d014eb2b848460872380663","resource":{"resourceType":"Procedure","id":"7fd099bb-f65e-44d2-a6e5-3083be94db3a","meta":{"profile":["http://hl7.org/fhir/us/qicore/StructureDefinition/qicore-procedure"]},"extension":[{"url":"http://hl7.org/fhir/us/qicore/StructureDefinition/qicore-recorded","valueDateTime":"2013-04-05T09:35:00-04:00"}],"status":"completed","code":{"coding":[{"system":"http://www.cms.gov/Medicare/Coding/ICD10","code":"10D00Z0"},{"system":"http://snomed.info/sct","code":"4504004"},{"system":"http://www.icd10data.com/icd10pcs","code":"10D00Z0","userSelected":true}]},"subject":{"reference":"Patient/8f3e1bc6-45ca-40ae-9e33-e9d97c6df55f"},"performedPeriod":{"start":"2025-06-08T20:00:00.000Z","end":"2025-06-08T20:15:00.000Z"}},"request":{"method":"PUT","url":"Procedure/7fd099bb-f65e-44d2-a6e5-3083be94db3a"}},{"fullUrl":"https://madie.cms.gov/Condition/delivery-of-singleton-4b31","resource":{"resourceType":"Condition","id":"28a9822a-753b-4c84-8cd6-b8e4ed0d150b","meta":{"profile":["http://hl7.org/fhir/us/qicore/StructureDefinition/qicore-condition"]},"category":[{"coding":[{"system":"http://terminology.hl7.org/CodeSystem/condition-category","code":"encounter-diagnosis","display":"Encounter Diagnosis"}]}],"code":{"coding":[{"system":"http://snomed.info/sct","version":"2022-09","code":"169826009","display":"Single live birth (finding)","userSelected":true}]},"subject":{"reference":"Patient/8f3e1bc6-45ca-40ae-9e33-e9d97c6df55f"},"recordedDate":"2025-10-21T08:00:00.000+00:00"},"request":{"method":"PUT","url":"Condition/28a9822a-753b-4c84-8cd6-b8e4ed0d150b"}},{"fullUrl":"https://madie.cms.gov/Coverage/1","resource":{"resourceType":"Coverage","id":"6c6cd042-2a0b-4054-8217-cf9ead10076b","meta":{"profile":["http://hl7.org/fhir/us/qicore/StructureDefinition/qicore-coverage"]},"status":"active","beneficiary":{"reference":"Patient/8f3e1bc6-45ca-40ae-9e33-e9d97c6df55f"},"payor":[{"reference":"Organization/77e4d06f-5e3c-436a-a598-80cefcca5028"}]},"request":{"method":"PUT","url":"Coverage/6c6cd042-2a0b-4054-8217-cf9ead10076b"}},{"fullUrl":"https://madie.cms.gov/Organization/123456","resource":{"resourceType":"Organization","id":"77e4d06f-5e3c-436a-a598-80cefcca5028","meta":{"profile":["http://hl7.org/fhir/us/qicore/StructureDefinition/qicore-organization"]},"identifier":[{"use":"temp","system":"urn:oid:2.16.840.1.113883.4.4","value":"21-3259825"}],"active":true,"type":[{"coding":[{"system":"http://terminology.hl7.org/CodeSystem/organization-type","code":"pay","display":"Payer"}]}],"name":"Blue Cross Blue Shield of Texas","telecom":[{"system":"phone","value":"(+1) 972-766-6900"}],"address":[{"use":"billing","type":"postal","line":["P.O. Box 660044"],"city":"Dallas","state":"TX","postalCode":"75266-0044","country":"USA"}]},"request":{"method":"PUT","url":"Organization/77e4d06f-5e3c-436a-a598-80cefcca5028"}},{"fullUrl":"https://madie.cms.gov/Practitioner/practitioner-123456","resource":{"resourceType":"Practitioner","id":"7ae25752-6da0-4256-becd-dd21b3566ccf","identifier":[{"system":"http://hl7.org/fhir/sid/us-npi","value":"123456"}],"name":[{"family":"Evil","prefix":["Dr"]}]},"request":{"method":"PUT","url":"Practitioner/7ae25752-6da0-4256-becd-dd21b3566ccf"}},{"fullUrl":"https://madie.cms.gov/MeasureReport/cc0da9eb-20f0-448f-b2c1-3a5f7f171ff4","resource":{"resourceType":"MeasureReport","id":"cc0da9eb-20f0-448f-b2c1-3a5f7f171ff4","meta":{"profile":["http://hl7.org/fhir/us/cqfmeasures/StructureDefinition/test-case-cqfm"]},"contained":[{"resourceType":"Parameters","id":"32a450dc-363e-4835-96d9-06c01c7dc091-parameters","parameter":[{"name":"subject","valueString":"8f3e1bc6-45ca-40ae-9e33-e9d97c6df55f"}]}],"extension":[{"url":"http://hl7.org/fhir/us/cqfmeasures/StructureDefinition/cqfm-inputParameters","valueReference":{"reference":"#32a450dc-363e-4835-96d9-06c01c7dc091-parameters"}},{"url":"http://hl7.org/fhir/us/cqfmeasures/StructureDefinition/cqfm-testCaseDescription","valueMarkdown":"\"Preterm Births missing result,   rel date/time < 42weeks prior to asse delivery\nTerm Newborn=0, rel date/time < 42weeks prior to Asse delivery\"\n"}],"modifierExtension":[{"url":"http://hl7.org/fhir/us/cqfmeasures/StructureDefinition/cqfm-isTestCase","valueBoolean":true}],"status":"complete","type":"individual","measure":"https://madie.cms.gov/Measure/CesareanBirthFHIR","period":{"start":"2025-01-01","end":"2025-12-31"},"group":[{"population":[{"code":{"coding":[{"system":"http://terminology.hl7.org/CodeSystem/measure-population","code":"initial-population","display":"Initial Population"}]},"count":1},{"code":{"coding":[{"system":"http://terminology.hl7.org/CodeSystem/measure-population","code":"denominator","display":"Denominator"}]},"count":0},{"code":{"coding":[{"system":"http://terminology.hl7.org/CodeSystem/measure-population","code":"denominator-exclusion","display":"Denominator Exclusion"}]},"count":0},{"code":{"coding":[{"system":"http://terminology.hl7.org/CodeSystem/measure-population","code":"numerator","display":"Numerator"}]},"count":0}]}]},"request":{"method":"PUT","url":"MeasureReport/cc0da9eb-20f0-448f-b2c1-3a5f7f171ff4"}}]}