{"resourceType":"Bundle","id":"tests-bfd3b64a-ab85-4842-9fee-503c6f7c3e90-bundle","type":"transaction","entry":[{"fullUrl":"https://madie.cms.gov/Patient/bfd3b64a-ab85-4842-9fee-503c6f7c3e90","resource":{"resourceType":"Patient","id":"bfd3b64a-ab85-4842-9fee-503c6f7c3e90","meta":{"profile":["http://hl7.org/fhir/us/qicore/StructureDefinition/qicore-patient"]},"text":{"status":"generated","div":"<div xmlns=\"http://www.w3.org/1999/xhtml\"><div class=\"hapiHeaderText\">EncDxPlacentaPrevia <b>DENEXPASS </b></div><table class=\"hapiPropertyTable\"><tbody><tr><td>Identifier</td><td>26ae2095ae359d33c45002ef417f38a5e4f6a61da3ea75d0332f68a4cb93137e</td></tr><tr><td>Date of birth</td><td><span>14 February 1985</span></td></tr></tbody></table></div>"},"extension":[{"url":"http://hl7.org/fhir/us/core/StructureDefinition/us-core-race","extension":[{"url":"ombCategory","valueCoding":{"system":"urn:oid:2.16.840.1.113883.6.238","code":"1002-5","display":"American Indian or Alaska Native","userSelected":true}},{"url":"text","valueString":"American Indian or Alaska Native"}]},{"url":"http://hl7.org/fhir/us/core/StructureDefinition/us-core-ethnicity","extension":[{"url":"ombCategory","valueCoding":{"system":"urn:oid:2.16.840.1.113883.6.238","code":"2135-2","display":"Hispanic or Latino","userSelected":true}},{"url":"text","valueString":"Hispanic or Latino"}]}],"identifier":[{"type":{"coding":[{"system":"http://terminology.hl7.org/CodeSystem/v2-0203","code":"MR"}]},"system":"https://bonnie-fhir.healthit.gov/","value":"63487c2e0968f8012254018b"}],"active":true,"name":[{"use":"usual","family":"DENEXPass","given":["EncDxPlacentaPrevia"]}],"gender":"female","birthDate":"1997-02-14"},"request":{"method":"PUT","url":"Patient/bfd3b64a-ab85-4842-9fee-503c6f7c3e90"}},{"fullUrl":"https://madie.cms.gov/Observation/5d014eb2b8484608723805ea","resource":{"resourceType":"Observation","id":"c222a5e4-9726-47ae-aced-e71f65a6d6ce","meta":{"profile":["http://hl7.org/fhir/us/qicore/StructureDefinition/qicore-observation"]},"status":"final","category":[{"coding":[{"system":"http://terminology.hl7.org/CodeSystem/observation-category","code":"exam","display":"exam","userSelected":true}]}],"code":{"coding":[{"system":"http://loinc.org","code":"11996-6"}]},"subject":{"reference":"Patient/bfd3b64a-ab85-4842-9fee-503c6f7c3e90"},"effectiveDateTime":"2025-06-08T08:00:00.000+00:00","valueInteger":1},"request":{"method":"PUT","url":"Observation/c222a5e4-9726-47ae-aced-e71f65a6d6ce"}},{"fullUrl":"https://madie.cms.gov/Observation/5d014eb2b8484608723805ec","resource":{"resourceType":"Observation","id":"74e40a19-ea2a-4960-a136-1cbf0838ed54","meta":{"profile":["http://hl7.org/fhir/us/qicore/StructureDefinition/qicore-observation"]},"status":"final","category":[{"coding":[{"system":"http://terminology.hl7.org/CodeSystem/observation-category","code":"exam","display":"exam","userSelected":true}]}],"code":{"coding":[{"system":"http://loinc.org","code":"11884-4"}]},"subject":{"reference":"Patient/bfd3b64a-ab85-4842-9fee-503c6f7c3e90"},"effectiveDateTime":"2025-06-08T08:00:00.000+00:00","valueQuantity":{"value":43,"system":"http://unitsofmeasure.org","code":"wk"}},"request":{"method":"PUT","url":"Observation/74e40a19-ea2a-4960-a136-1cbf0838ed54"}},{"fullUrl":"https://madie.cms.gov/Observation/5e61190beadaae0000c2b763","resource":{"resourceType":"Observation","id":"c9710343-424b-495d-9a5b-5cad0ecdabb6","meta":{"profile":["http://hl7.org/fhir/us/qicore/StructureDefinition/qicore-observation"]},"status":"final","category":[{"coding":[{"system":"http://terminology.hl7.org/CodeSystem/observation-category","code":"exam","display":"exam","userSelected":true}]}],"code":{"coding":[{"system":"http://loinc.org","code":"93857-1"}]},"subject":{"reference":"Patient/bfd3b64a-ab85-4842-9fee-503c6f7c3e90"},"effectiveDateTime":"2025-06-08T20:00:00.000+00:00","valueDateTime":"2025-06-08T20:00:00+00:00"},"request":{"method":"PUT","url":"Observation/c9710343-424b-495d-9a5b-5cad0ecdabb6"}},{"fullUrl":"https://madie.cms.gov/Encounter/5d014eb2b8484608723805e8","resource":{"resourceType":"Encounter","id":"1abc5e31-72db-466f-a8b1-48b19314a217","meta":{"profile":["http://hl7.org/fhir/us/qicore/StructureDefinition/qicore-encounter"]},"status":"finished","class":{"system":"http://terminology.hl7.org/CodeSystem/v3-ActCode","code":"IMP","display":"inpatient encounter"},"type":[{"coding":[{"system":"http://snomed.info/sct","code":"8715000"}]}],"subject":{"reference":"Patient/bfd3b64a-ab85-4842-9fee-503c6f7c3e90"},"period":{"start":"2025-06-08T08:00:00.000Z","end":"2025-06-10T08:15:00.000Z"},"diagnosis":[{"condition":{"reference":"Condition/delivery-of-singleton-09a0"}},{"condition":{"reference":"Condition/herpes"}}]},"request":{"method":"PUT","url":"Encounter/1abc5e31-72db-466f-a8b1-48b19314a217"}},{"fullUrl":"https://madie.cms.gov/Procedure/5d014eb2b8484608723805e9","resource":{"resourceType":"Procedure","id":"39e0369a-6427-4990-9372-4db6db851c94","meta":{"profile":["http://hl7.org/fhir/us/qicore/StructureDefinition/qicore-procedure"]},"extension":[{"url":"http://hl7.org/fhir/us/qicore/StructureDefinition/qicore-recorded","valueDateTime":"2013-04-05T09:35:00-04:00"}],"status":"completed","code":{"coding":[{"system":"http://snomed.info/sct","code":"4504004"}]},"subject":{"reference":"Patient/bfd3b64a-ab85-4842-9fee-503c6f7c3e90"},"performedPeriod":{"start":"2025-06-08T20:00:00.000Z","end":"2025-06-18T20:00:00.000Z"}},"request":{"method":"PUT","url":"Procedure/39e0369a-6427-4990-9372-4db6db851c94"}},{"fullUrl":"https://madie.cms.gov/Condition/delivery-of-singleton-09a0","resource":{"resourceType":"Condition","id":"513d6086-4c1f-4546-9d3a-e1965cb0cb57","meta":{"profile":["http://hl7.org/fhir/us/qicore/StructureDefinition/qicore-condition"]},"category":[{"coding":[{"system":"http://terminology.hl7.org/CodeSystem/condition-category","code":"encounter-diagnosis","display":"Encounter Diagnosis"}]}],"code":{"coding":[{"system":"http://snomed.info/sct","version":"2022-09","code":"169826009","display":"Single live birth (finding)","userSelected":true}]},"subject":{"reference":"Patient/bfd3b64a-ab85-4842-9fee-503c6f7c3e90"},"recordedDate":"2025-10-17T08:00:00.000+00:00"},"request":{"method":"PUT","url":"Condition/513d6086-4c1f-4546-9d3a-e1965cb0cb57"}},{"fullUrl":"https://madie.cms.gov/Condition/herpes","resource":{"resourceType":"Condition","id":"20947f7d-1a16-47f0-9150-4a024927ac22","meta":{"profile":["http://hl7.org/fhir/us/qicore/StructureDefinition/qicore-condition"]},"category":[{"coding":[{"system":"http://terminology.hl7.org/CodeSystem/condition-category","code":"encounter-diagnosis","display":"Encounter Diagnosis"}]}],"code":{"coding":[{"system":"http://snomed.info/sct","version":"2022-09","code":"129670002","display":"Herpetic cervicitis","userSelected":true}]},"subject":{"reference":"Patient/bfd3b64a-ab85-4842-9fee-503c6f7c3e90"},"recordedDate":"2025-10-17T08:00:00.000+00:00"},"request":{"method":"PUT","url":"Condition/20947f7d-1a16-47f0-9150-4a024927ac22"}},{"fullUrl":"https://madie.cms.gov/Coverage/1","resource":{"resourceType":"Coverage","id":"173819e2-b147-4bd6-a726-650fc614b839","meta":{"profile":["http://hl7.org/fhir/us/qicore/StructureDefinition/qicore-coverage"]},"status":"active","beneficiary":{"reference":"Patient/bfd3b64a-ab85-4842-9fee-503c6f7c3e90"},"payor":[{"reference":"Organization/f6075515-d38f-4624-bde8-a1ce20473a69"}]},"request":{"method":"PUT","url":"Coverage/173819e2-b147-4bd6-a726-650fc614b839"}},{"fullUrl":"https://madie.cms.gov/Organization/123456","resource":{"resourceType":"Organization","id":"f6075515-d38f-4624-bde8-a1ce20473a69","meta":{"profile":["http://hl7.org/fhir/us/qicore/StructureDefinition/qicore-organization"]},"identifier":[{"use":"temp","system":"urn:oid:2.16.840.1.113883.4.4","value":"21-3259825"}],"active":true,"type":[{"coding":[{"system":"http://terminology.hl7.org/CodeSystem/organization-type","code":"pay","display":"Payer"}]}],"name":"Blue Cross Blue Shield of Texas","telecom":[{"system":"phone","value":"(+1) 972-766-6900"}],"address":[{"use":"billing","type":"postal","line":["P.O. Box 660044"],"city":"Dallas","state":"TX","postalCode":"75266-0044","country":"USA"}]},"request":{"method":"PUT","url":"Organization/f6075515-d38f-4624-bde8-a1ce20473a69"}},{"fullUrl":"https://madie.cms.gov/Practitioner/practitioner-123456","resource":{"resourceType":"Practitioner","id":"13efbfa6-7245-44c0-ab32-e473e55161b2","identifier":[{"system":"http://hl7.org/fhir/sid/us-npi","value":"123456"}],"name":[{"family":"Evil","prefix":["Dr"]}]},"request":{"method":"PUT","url":"Practitioner/13efbfa6-7245-44c0-ab32-e473e55161b2"}},{"fullUrl":"https://madie.cms.gov/MeasureReport/a8cc1d47-1b7c-4096-9aad-440744ae163b","resource":{"resourceType":"MeasureReport","id":"a8cc1d47-1b7c-4096-9aad-440744ae163b","meta":{"profile":["http://hl7.org/fhir/us/cqfmeasures/StructureDefinition/test-case-cqfm"]},"contained":[{"resourceType":"Parameters","id":"ba7e4410-97dd-4b67-a66e-83eb32afc5c7-parameters","parameter":[{"name":"subject","valueString":"bfd3b64a-ab85-4842-9fee-503c6f7c3e90"}]}],"extension":[{"url":"http://hl7.org/fhir/us/cqfmeasures/StructureDefinition/cqfm-inputParameters","valueReference":{"reference":"#ba7e4410-97dd-4b67-a66e-83eb32afc5c7-parameters"}},{"url":"http://hl7.org/fhir/us/cqfmeasures/StructureDefinition/cqfm-testCaseDescription","valueMarkdown":"Patient has dx of herpes"}],"modifierExtension":[{"url":"http://hl7.org/fhir/us/cqfmeasures/StructureDefinition/cqfm-isTestCase","valueBoolean":true}],"status":"complete","type":"individual","measure":"https://madie.cms.gov/Measure/CesareanBirthFHIR","period":{"start":"2025-01-01","end":"2025-12-31"},"group":[{"population":[{"code":{"coding":[{"system":"http://terminology.hl7.org/CodeSystem/measure-population","code":"initial-population","display":"Initial Population"}]},"count":1},{"code":{"coding":[{"system":"http://terminology.hl7.org/CodeSystem/measure-population","code":"denominator","display":"Denominator"}]},"count":1},{"code":{"coding":[{"system":"http://terminology.hl7.org/CodeSystem/measure-population","code":"denominator-exclusion","display":"Denominator Exclusion"}]},"count":1},{"code":{"coding":[{"system":"http://terminology.hl7.org/CodeSystem/measure-population","code":"numerator","display":"Numerator"}]},"count":0}]}]},"request":{"method":"PUT","url":"MeasureReport/a8cc1d47-1b7c-4096-9aad-440744ae163b"}}]}