{"resourceType":"Bundle","id":"tests-3c63b420-89fb-4062-9319-ea509a3192c8-bundle","type":"transaction","entry":[{"fullUrl":"https://madie.cms.gov/Patient/3c63b420-89fb-4062-9319-ea509a3192c8","resource":{"resourceType":"Patient","id":"3c63b420-89fb-4062-9319-ea509a3192c8","meta":{"profile":["http://hl7.org/fhir/us/qicore/StructureDefinition/qicore-patient"]},"text":{"status":"generated","div":"<div xmlns=\"http://www.w3.org/1999/xhtml\"><div class=\"hapiHeaderText\">ProcCsectEndEQDelivEncEnd <b>NUMPASS </b></div><table class=\"hapiPropertyTable\"><tbody><tr><td>Identifier</td><td>a67ba324e458907a26a4b913484bc8c56e2f861e5f9a2d3286226ca477cf0053</td></tr><tr><td>Date of birth</td><td><span>14 February 1985</span></td></tr></tbody></table></div>"},"extension":[{"url":"http://hl7.org/fhir/us/core/StructureDefinition/us-core-race","extension":[{"url":"ombCategory","valueCoding":{"system":"urn:oid:2.16.840.1.113883.6.238","code":"1002-5","display":"American Indian or Alaska Native","userSelected":true}},{"url":"text","valueString":"American Indian or Alaska Native"}]},{"url":"http://hl7.org/fhir/us/core/StructureDefinition/us-core-ethnicity","extension":[{"url":"ombCategory","valueCoding":{"system":"urn:oid:2.16.840.1.113883.6.238","code":"2135-2","display":"Hispanic or Latino","userSelected":true}},{"url":"text","valueString":"Hispanic or Latino"}]}],"identifier":[{"type":{"coding":[{"system":"http://terminology.hl7.org/CodeSystem/v2-0203","code":"MR"}]},"system":"https://bonnie-fhir.healthit.gov/","value":"63487c2d0968f80122540152"}],"active":true,"name":[{"use":"usual","family":"NUMPass","given":["ProcCsectEndEQDelivEncEnd"]}],"gender":"female","birthDate":"1997-02-14"},"request":{"method":"PUT","url":"Patient/3c63b420-89fb-4062-9319-ea509a3192c8"}},{"fullUrl":"https://madie.cms.gov/Observation/5d014eb1b84846087238051f","resource":{"resourceType":"Observation","id":"cf3f6045-9a5b-4543-846a-5794020db9ad","meta":{"profile":["http://hl7.org/fhir/us/qicore/StructureDefinition/qicore-observation"]},"status":"final","category":[{"coding":[{"system":"http://terminology.hl7.org/CodeSystem/observation-category","code":"exam","display":"exam","userSelected":true}]}],"code":{"coding":[{"system":"http://loinc.org","code":"11996-6"}]},"subject":{"reference":"Patient/3c63b420-89fb-4062-9319-ea509a3192c8"},"effectiveDateTime":"2025-02-09T08:00:00.000+00:00","valueInteger":1},"request":{"method":"PUT","url":"Observation/cf3f6045-9a5b-4543-846a-5794020db9ad"}},{"fullUrl":"https://madie.cms.gov/Observation/5d014eb1b848460872380521","resource":{"resourceType":"Observation","id":"a0165bee-a8c3-4614-aa1c-a67d9918dd7a","meta":{"profile":["http://hl7.org/fhir/us/qicore/StructureDefinition/qicore-observation"]},"status":"final","category":[{"coding":[{"system":"http://terminology.hl7.org/CodeSystem/observation-category","code":"exam","display":"exam","userSelected":true}]}],"code":{"coding":[{"system":"http://loinc.org","code":"11884-4"}]},"subject":{"reference":"Patient/3c63b420-89fb-4062-9319-ea509a3192c8"},"effectiveDateTime":"2025-11-28T21:15:00.000+00:00","valueQuantity":{"value":40.0,"system":"http://unitsofmeasure.org","code":"weeks"}},"request":{"method":"PUT","url":"Observation/a0165bee-a8c3-4614-aa1c-a67d9918dd7a"}},{"fullUrl":"https://madie.cms.gov/Observation/5e6941727ffec7000031f7ea","resource":{"resourceType":"Observation","id":"794c4f35-edbf-4cf6-8b44-36d69859409c","meta":{"profile":["http://hl7.org/fhir/us/qicore/StructureDefinition/qicore-observation"]},"status":"final","category":[{"coding":[{"system":"http://terminology.hl7.org/CodeSystem/observation-category","code":"exam","display":"exam","userSelected":true}]}],"code":{"coding":[{"system":"http://loinc.org","code":"93857-1"}]},"subject":{"reference":"Patient/3c63b420-89fb-4062-9319-ea509a3192c8"},"effectiveDateTime":"2025-11-28T21:15:00.000+00:00","valueDateTime":"2025-11-28T21:15:00+00:00"},"request":{"method":"PUT","url":"Observation/794c4f35-edbf-4cf6-8b44-36d69859409c"}},{"fullUrl":"https://madie.cms.gov/Encounter/5d014eb1b84846087238051d","resource":{"resourceType":"Encounter","id":"309bedbe-8e2f-4c3c-8b88-886d7ad96de2","meta":{"profile":["http://hl7.org/fhir/us/qicore/StructureDefinition/qicore-encounter"]},"status":"finished","class":{"system":"http://terminology.hl7.org/CodeSystem/v3-ActCode","code":"IMP","display":"inpatient encounter"},"type":[{"coding":[{"system":"http://snomed.info/sct","code":"8715000"}]}],"subject":{"reference":"Patient/3c63b420-89fb-4062-9319-ea509a3192c8"},"period":{"start":"2025-11-28T08:00:00.000Z","end":"2025-11-30T08:15:00.000Z"},"diagnosis":[{"condition":{"reference":"Condition/delivery-of-singleton-df6e"}}]},"request":{"method":"PUT","url":"Encounter/309bedbe-8e2f-4c3c-8b88-886d7ad96de2"}},{"fullUrl":"https://madie.cms.gov/Procedure/5d014eb1b84846087238051e","resource":{"resourceType":"Procedure","id":"1c9082b5-f71a-4536-94c8-7c7f6b77f5fd","meta":{"profile":["http://hl7.org/fhir/us/qicore/StructureDefinition/qicore-procedure"]},"extension":[{"url":"http://hl7.org/fhir/us/qicore/StructureDefinition/qicore-recorded","valueDateTime":"2013-04-05T09:35:00-04:00"}],"status":"completed","code":{"coding":[{"system":"http://www.cms.gov/Medicare/Coding/ICD10","code":"10D00Z1"},{"system":"http://www.icd10data.com/icd10pcs","code":"10D00Z1","userSelected":true}]},"subject":{"reference":"Patient/3c63b420-89fb-4062-9319-ea509a3192c8"},"performedPeriod":{"start":"2025-11-30T07:00:00.000Z","end":"2025-11-30T08:15:00.000Z"}},"request":{"method":"PUT","url":"Procedure/1c9082b5-f71a-4536-94c8-7c7f6b77f5fd"}},{"fullUrl":"https://madie.cms.gov/Condition/delivery-of-singleton-df6e","resource":{"resourceType":"Condition","id":"53afb582-afe3-4e2a-bc22-72539ad2f268","meta":{"profile":["http://hl7.org/fhir/us/qicore/StructureDefinition/qicore-condition"]},"category":[{"coding":[{"system":"http://terminology.hl7.org/CodeSystem/condition-category","code":"encounter-diagnosis","display":"Encounter Diagnosis"}]}],"code":{"coding":[{"system":"http://snomed.info/sct","version":"2022-09","code":"169826009","display":"Single live birth (finding)","userSelected":true}]},"subject":{"reference":"Patient/3c63b420-89fb-4062-9319-ea509a3192c8"},"recordedDate":"2025-10-17T08:00:00.000+00:00"},"request":{"method":"PUT","url":"Condition/53afb582-afe3-4e2a-bc22-72539ad2f268"}},{"fullUrl":"https://madie.cms.gov/Coverage/1","resource":{"resourceType":"Coverage","id":"e394bf04-5b7a-4efb-b9e8-3b4acbdd1f20","meta":{"profile":["http://hl7.org/fhir/us/qicore/StructureDefinition/qicore-coverage"]},"status":"active","beneficiary":{"reference":"Patient/3c63b420-89fb-4062-9319-ea509a3192c8"},"payor":[{"reference":"Organization/84b56847-ad40-4bf6-b612-9e42ad2a84e5"}]},"request":{"method":"PUT","url":"Coverage/e394bf04-5b7a-4efb-b9e8-3b4acbdd1f20"}},{"fullUrl":"https://madie.cms.gov/Organization/123456","resource":{"resourceType":"Organization","id":"84b56847-ad40-4bf6-b612-9e42ad2a84e5","meta":{"profile":["http://hl7.org/fhir/us/qicore/StructureDefinition/qicore-organization"]},"identifier":[{"use":"temp","system":"urn:oid:2.16.840.1.113883.4.4","value":"21-3259825"}],"active":true,"type":[{"coding":[{"system":"http://terminology.hl7.org/CodeSystem/organization-type","code":"pay","display":"Payer"}]}],"name":"Blue Cross Blue Shield of Texas","telecom":[{"system":"phone","value":"(+1) 972-766-6900"}],"address":[{"use":"billing","type":"postal","line":["P.O. Box 660044"],"city":"Dallas","state":"TX","postalCode":"75266-0044","country":"USA"}]},"request":{"method":"PUT","url":"Organization/84b56847-ad40-4bf6-b612-9e42ad2a84e5"}},{"fullUrl":"https://madie.cms.gov/Practitioner/practitioner-123456","resource":{"resourceType":"Practitioner","id":"576a5293-4312-4c6d-ba49-a3f779d98e3c","identifier":[{"system":"http://hl7.org/fhir/sid/us-npi","value":"123456"}],"name":[{"family":"Evil","prefix":["Dr"]}]},"request":{"method":"PUT","url":"Practitioner/576a5293-4312-4c6d-ba49-a3f779d98e3c"}},{"fullUrl":"https://madie.cms.gov/MeasureReport/b7b6a438-2274-4230-a9b5-3328a3589f9f","resource":{"resourceType":"MeasureReport","id":"b7b6a438-2274-4230-a9b5-3328a3589f9f","meta":{"profile":["http://hl7.org/fhir/us/cqfmeasures/StructureDefinition/test-case-cqfm"]},"contained":[{"resourceType":"Parameters","id":"ee46e820-6073-4d34-889f-a20e0cf1c1a8-parameters","parameter":[{"name":"subject","valueString":"3c63b420-89fb-4062-9319-ea509a3192c8"}]}],"extension":[{"url":"http://hl7.org/fhir/us/cqfmeasures/StructureDefinition/cqfm-inputParameters","valueReference":{"reference":"#ee46e820-6073-4d34-889f-a20e0cf1c1a8-parameters"}},{"url":"http://hl7.org/fhir/us/cqfmeasures/StructureDefinition/cqfm-testCaseDescription","valueMarkdown":"Passes IP, DEN, NUM; Gravida 1(effective date 42 weeks)  and EGA 40 weeks;  End of Proc Csect equals end of Delivery Encounter."}],"modifierExtension":[{"url":"http://hl7.org/fhir/us/cqfmeasures/StructureDefinition/cqfm-isTestCase","valueBoolean":true}],"status":"complete","type":"individual","measure":"https://madie.cms.gov/Measure/CesareanBirthFHIR","period":{"start":"2025-01-01","end":"2025-12-31"},"group":[{"population":[{"code":{"coding":[{"system":"http://terminology.hl7.org/CodeSystem/measure-population","code":"initial-population","display":"Initial Population"}]},"count":1},{"code":{"coding":[{"system":"http://terminology.hl7.org/CodeSystem/measure-population","code":"denominator","display":"Denominator"}]},"count":1},{"code":{"coding":[{"system":"http://terminology.hl7.org/CodeSystem/measure-population","code":"denominator-exclusion","display":"Denominator Exclusion"}]},"count":0},{"code":{"coding":[{"system":"http://terminology.hl7.org/CodeSystem/measure-population","code":"numerator","display":"Numerator"}]},"count":1}]}]},"request":{"method":"PUT","url":"MeasureReport/b7b6a438-2274-4230-a9b5-3328a3589f9f"}}]}