{"resourceType":"Bundle","id":"tests-20bb7712-ab47-4505-bfbf-5bebe074afa2-bundle","type":"transaction","entry":[{"fullUrl":"https://madie.cms.gov/Patient/20bb7712-ab47-4505-bfbf-5bebe074afa2","resource":{"resourceType":"Patient","id":"20bb7712-ab47-4505-bfbf-5bebe074afa2","meta":{"profile":["http://hl7.org/fhir/us/qicore/StructureDefinition/qicore-patient"]},"text":{"status":"generated","div":"<div xmlns=\"http://www.w3.org/1999/xhtml\"><div class=\"hapiHeaderText\">AssessParity1Gravida2 <b>DENFAIL </b></div><table class=\"hapiPropertyTable\"><tbody><tr><td>Identifier</td><td>e960a66b595990cb41cd1209fad2cf00</td></tr><tr><td>Date of birth</td><td><span>14 February 1985</span></td></tr></tbody></table></div>"},"extension":[{"url":"http://hl7.org/fhir/us/core/StructureDefinition/us-core-race","extension":[{"url":"ombCategory","valueCoding":{"system":"urn:oid:2.16.840.1.113883.6.238","code":"1002-5","display":"American Indian or Alaska Native","userSelected":true}},{"url":"text","valueString":"American Indian or Alaska Native"}]},{"url":"http://hl7.org/fhir/us/core/StructureDefinition/us-core-ethnicity","extension":[{"url":"ombCategory","valueCoding":{"system":"urn:oid:2.16.840.1.113883.6.238","code":"2135-2","display":"Hispanic or Latino","userSelected":true}},{"url":"text","valueString":"Hispanic or Latino"}]}],"identifier":[{"type":{"coding":[{"system":"http://terminology.hl7.org/CodeSystem/v2-0203","code":"MR"}]},"system":"https://bonnie-fhir.healthit.gov/","value":"63487c2d0968f80122540144"}],"active":true,"name":[{"use":"usual","family":"DENFail","given":["AssessParity1Gravida2"]}],"gender":"female","birthDate":"1997-02-14"},"request":{"method":"PUT","url":"Patient/20bb7712-ab47-4505-bfbf-5bebe074afa2"}},{"fullUrl":"https://madie.cms.gov/Observation/5d014eb0b848460872380454","resource":{"resourceType":"Observation","id":"5e484200-f78e-4e2b-a65d-7bf27f6c263f","meta":{"profile":["http://hl7.org/fhir/us/qicore/StructureDefinition/qicore-observation"]},"status":"final","category":[{"coding":[{"system":"http://terminology.hl7.org/CodeSystem/observation-category","code":"exam","display":"exam","userSelected":true}]}],"code":{"coding":[{"system":"http://loinc.org","code":"11977-6"}]},"subject":{"reference":"Patient/20bb7712-ab47-4505-bfbf-5bebe074afa2"},"effectiveDateTime":"2025-03-08T09:00:00.000+00:00","valueInteger":1},"request":{"method":"PUT","url":"Observation/5e484200-f78e-4e2b-a65d-7bf27f6c263f"}},{"fullUrl":"https://madie.cms.gov/Observation/5d014eb0b848460872380456","resource":{"resourceType":"Observation","id":"9aac9b8e-ecf6-4166-9f73-ed813f14130a","meta":{"profile":["http://hl7.org/fhir/us/qicore/StructureDefinition/qicore-observation"]},"status":"final","category":[{"coding":[{"system":"http://terminology.hl7.org/CodeSystem/observation-category","code":"exam","display":"exam","userSelected":true}]}],"code":{"coding":[{"system":"http://loinc.org","code":"11996-6"}]},"subject":{"reference":"Patient/20bb7712-ab47-4505-bfbf-5bebe074afa2"},"effectiveDateTime":"2025-03-09T08:00:00.000+00:00","valueInteger":0},"request":{"method":"PUT","url":"Observation/9aac9b8e-ecf6-4166-9f73-ed813f14130a"}},{"fullUrl":"https://madie.cms.gov/Observation/5d014eb0b848460872380459","resource":{"resourceType":"Observation","id":"f2383aea-6ebb-49a7-8a42-620cf9556726","meta":{"profile":["http://hl7.org/fhir/us/qicore/StructureDefinition/qicore-observation"]},"status":"final","category":[{"coding":[{"system":"http://terminology.hl7.org/CodeSystem/observation-category","code":"exam","display":"exam","userSelected":true}]}],"code":{"coding":[{"system":"http://loinc.org","code":"11884-4"}]},"subject":{"reference":"Patient/20bb7712-ab47-4505-bfbf-5bebe074afa2"},"effectiveDateTime":"2025-06-08T21:00:00.000+00:00","valueQuantity":{"value":38.0,"system":"http://unitsofmeasure.org","code":"weeks"}},"request":{"method":"PUT","url":"Observation/f2383aea-6ebb-49a7-8a42-620cf9556726"}},{"fullUrl":"https://madie.cms.gov/Observation/5e6962c27ffec700003212b2","resource":{"resourceType":"Observation","id":"1b329221-3987-4e0c-9a2a-156e09d6641a","meta":{"profile":["http://hl7.org/fhir/us/qicore/StructureDefinition/qicore-observation"]},"status":"final","category":[{"coding":[{"system":"http://terminology.hl7.org/CodeSystem/observation-category","code":"exam","display":"exam","userSelected":true}]}],"code":{"coding":[{"system":"http://loinc.org","code":"93857-1"}]},"subject":{"reference":"Patient/20bb7712-ab47-4505-bfbf-5bebe074afa2"},"effectiveDateTime":"2025-06-08T21:00:00.000+00:00","valueDateTime":"2025-06-08T21:00:00+00:00"},"request":{"method":"PUT","url":"Observation/1b329221-3987-4e0c-9a2a-156e09d6641a"}},{"fullUrl":"https://madie.cms.gov/Encounter/5d014eb0b848460872380452","resource":{"resourceType":"Encounter","id":"bea649be-a93e-48de-af3f-dc0426b289fa","meta":{"profile":["http://hl7.org/fhir/us/qicore/StructureDefinition/qicore-encounter"]},"status":"finished","class":{"system":"http://terminology.hl7.org/CodeSystem/v3-ActCode","code":"IMP","display":"inpatient encounter"},"type":[{"coding":[{"system":"http://snomed.info/sct","code":"8715000"}]}],"subject":{"reference":"Patient/20bb7712-ab47-4505-bfbf-5bebe074afa2"},"period":{"start":"2025-06-08T08:00:00.000Z","end":"2025-06-10T08:15:00.000Z"},"length":{"value":2.0,"unit":"days"},"diagnosis":[{"condition":{"reference":"Condition/delivery-of-singleton-f83c"},"use":{"coding":[{"system":"http://snomed.info/sct","code":"169826009","display":"Single live birth (finding)"}]}},{"condition":{"reference":"Condition/delivery-of-singleton-4b0d"}}]},"request":{"method":"PUT","url":"Encounter/bea649be-a93e-48de-af3f-dc0426b289fa"}},{"fullUrl":"https://madie.cms.gov/Procedure/5d014eb0b848460872380453","resource":{"resourceType":"Procedure","id":"487d7786-390e-4c20-a6ac-c95e6ec369fe","meta":{"profile":["http://hl7.org/fhir/us/qicore/StructureDefinition/qicore-procedure"]},"extension":[{"url":"http://hl7.org/fhir/us/qicore/StructureDefinition/qicore-recorded","valueDateTime":"2013-04-05T09:35:00-04:00"}],"status":"completed","code":{"coding":[{"system":"http://snomed.info/sct","code":"4504004"}]},"subject":{"reference":"Patient/20bb7712-ab47-4505-bfbf-5bebe074afa2"},"performedPeriod":{"start":"2025-06-08T20:00:00.000Z","end":"2025-06-08T21:15:00.000Z"}},"request":{"method":"PUT","url":"Procedure/487d7786-390e-4c20-a6ac-c95e6ec369fe"}},{"fullUrl":"https://madie.cms.gov/Condition/delivery-of-singleton-4b0d","resource":{"resourceType":"Condition","id":"ac60c2cc-936b-46bf-9929-91450b50e5e4","meta":{"profile":["http://hl7.org/fhir/us/qicore/StructureDefinition/qicore-condition"]},"category":[{"coding":[{"system":"http://terminology.hl7.org/CodeSystem/condition-category","code":"encounter-diagnosis","display":"Encounter Diagnosis"}]}],"code":{"coding":[{"system":"http://snomed.info/sct","version":"2022-09","code":"169826009","display":"Single live birth (finding)","userSelected":true}]},"subject":{"reference":"Patient/20bb7712-ab47-4505-bfbf-5bebe074afa2"},"recordedDate":"2025-10-21T08:00:00.000+00:00"},"request":{"method":"PUT","url":"Condition/ac60c2cc-936b-46bf-9929-91450b50e5e4"}},{"fullUrl":"https://madie.cms.gov/Coverage/1","resource":{"resourceType":"Coverage","id":"73502506-6141-4aaf-a5d0-c043f3000f9d","meta":{"profile":["http://hl7.org/fhir/us/qicore/StructureDefinition/qicore-coverage"]},"status":"active","beneficiary":{"reference":"Patient/20bb7712-ab47-4505-bfbf-5bebe074afa2"},"payor":[{"reference":"Organization/84b56847-ad40-4bf6-b612-9e42ad2a84e5"}]},"request":{"method":"PUT","url":"Coverage/73502506-6141-4aaf-a5d0-c043f3000f9d"}},{"fullUrl":"https://madie.cms.gov/Organization/123456","resource":{"resourceType":"Organization","id":"84b56847-ad40-4bf6-b612-9e42ad2a84e5","meta":{"profile":["http://hl7.org/fhir/us/qicore/StructureDefinition/qicore-organization"]},"identifier":[{"use":"temp","system":"urn:oid:2.16.840.1.113883.4.4","value":"21-3259825"}],"active":true,"type":[{"coding":[{"system":"http://terminology.hl7.org/CodeSystem/organization-type","code":"pay","display":"Payer"}]}],"name":"Blue Cross Blue Shield of Texas","telecom":[{"system":"phone","value":"(+1) 972-766-6900"}],"address":[{"use":"billing","type":"postal","line":["P.O. Box 660044"],"city":"Dallas","state":"TX","postalCode":"75266-0044","country":"USA"}]},"request":{"method":"PUT","url":"Organization/84b56847-ad40-4bf6-b612-9e42ad2a84e5"}},{"fullUrl":"https://madie.cms.gov/Practitioner/practitioner-123456","resource":{"resourceType":"Practitioner","id":"86fdbde7-f0c5-428d-8e85-72c16db6a119","identifier":[{"system":"http://hl7.org/fhir/sid/us-npi","value":"123456"}],"name":[{"family":"Evil","prefix":["Dr"]}]},"request":{"method":"PUT","url":"Practitioner/86fdbde7-f0c5-428d-8e85-72c16db6a119"}},{"fullUrl":"https://madie.cms.gov/MeasureReport/c7e4bf5e-d17b-4bba-9e24-2c0286e940b6","resource":{"resourceType":"MeasureReport","id":"c7e4bf5e-d17b-4bba-9e24-2c0286e940b6","meta":{"profile":["http://hl7.org/fhir/us/cqfmeasures/StructureDefinition/test-case-cqfm"]},"contained":[{"resourceType":"Parameters","id":"85df5c47-635c-4b3d-aede-b6e6531df905-parameters","parameter":[{"name":"subject","valueString":"20bb7712-ab47-4505-bfbf-5bebe074afa2"}]}],"extension":[{"url":"http://hl7.org/fhir/us/cqfmeasures/StructureDefinition/cqfm-inputParameters","valueReference":{"reference":"#85df5c47-635c-4b3d-aede-b6e6531df905-parameters"}},{"url":"http://hl7.org/fhir/us/cqfmeasures/StructureDefinition/cqfm-testCaseDescription","valueMarkdown":"Pass IP,  Parity 1 (not nulliparous), gravida 2.  This test case shows a potential problem with the concepts present in the Delivery Procedures value set. I believe this value set would be used when the delivery procedure was not a cesarean section.\n"}],"modifierExtension":[{"url":"http://hl7.org/fhir/us/cqfmeasures/StructureDefinition/cqfm-isTestCase","valueBoolean":true}],"status":"complete","type":"individual","measure":"https://madie.cms.gov/Measure/CesareanBirthFHIR","period":{"start":"2025-01-01","end":"2025-12-31"},"group":[{"population":[{"code":{"coding":[{"system":"http://terminology.hl7.org/CodeSystem/measure-population","code":"initial-population","display":"Initial Population"}]},"count":1},{"code":{"coding":[{"system":"http://terminology.hl7.org/CodeSystem/measure-population","code":"denominator","display":"Denominator"}]},"count":0},{"code":{"coding":[{"system":"http://terminology.hl7.org/CodeSystem/measure-population","code":"denominator-exclusion","display":"Denominator Exclusion"}]},"count":0},{"code":{"coding":[{"system":"http://terminology.hl7.org/CodeSystem/measure-population","code":"numerator","display":"Numerator"}]},"count":0}]}]},"request":{"method":"PUT","url":"MeasureReport/c7e4bf5e-d17b-4bba-9e24-2c0286e940b6"}}]}