{"resourceType":"Bundle","id":"tests-6bbb349d-5c6b-486d-96f3-6a80b923e17e-bundle","type":"transaction","entry":[{"fullUrl":"https://madie.cms.gov/Patient/6bbb349d-5c6b-486d-96f3-6a80b923e17e","resource":{"resourceType":"Patient","id":"6bbb349d-5c6b-486d-96f3-6a80b923e17e","meta":{"profile":["http://hl7.org/fhir/us/qicore/StructureDefinition/qicore-patient"]},"text":{"status":"generated","div":"<div xmlns=\"http://www.w3.org/1999/xhtml\"><div class=\"hapiHeaderText\">AssessG1RelDtTimeEQTimeOfDelivTime <b>DENFAIL </b></div><table class=\"hapiPropertyTable\"><tbody><tr><td>Identifier</td><td>1708e167118eb3c6ba503e3f4dd6b33e8139c84285201cfc9988c13f48ee7f27</td></tr><tr><td>Date of birth</td><td><span>14 February 1985</span></td></tr></tbody></table></div>"},"extension":[{"url":"http://hl7.org/fhir/us/core/StructureDefinition/us-core-race","extension":[{"url":"ombCategory","valueCoding":{"system":"urn:oid:2.16.840.1.113883.6.238","code":"1002-5","display":"American Indian or Alaska Native","userSelected":true}},{"url":"text","valueString":"American Indian or Alaska Native"}]},{"url":"http://hl7.org/fhir/us/core/StructureDefinition/us-core-ethnicity","extension":[{"url":"ombCategory","valueCoding":{"system":"urn:oid:2.16.840.1.113883.6.238","code":"2135-2","display":"Hispanic or Latino","userSelected":true}},{"url":"text","valueString":"Hispanic or Latino"}]}],"identifier":[{"type":{"coding":[{"system":"http://terminology.hl7.org/CodeSystem/v2-0203","code":"MR"}]},"system":"https://bonnie-fhir.healthit.gov/","value":"63487c2e0968f8012254016e"}],"active":true,"name":[{"use":"usual","family":"DENFail","given":["AssessG1RelDtTimeEQTimeOfDelivTime"]}],"gender":"female","birthDate":"1997-02-14"},"request":{"method":"PUT","url":"Patient/6bbb349d-5c6b-486d-96f3-6a80b923e17e"}},{"fullUrl":"https://madie.cms.gov/Observation/5d014eb2b848460872380587","resource":{"resourceType":"Observation","id":"907d01cb-2c24-44d3-bc4c-e91994b64585","meta":{"profile":["http://hl7.org/fhir/us/qicore/StructureDefinition/qicore-observation"]},"status":"final","category":[{"coding":[{"system":"http://terminology.hl7.org/CodeSystem/observation-category","code":"exam","display":"exam","userSelected":true}]}],"code":{"coding":[{"system":"http://loinc.org","code":"11884-4"}]},"subject":{"reference":"Patient/6bbb349d-5c6b-486d-96f3-6a80b923e17e"},"effectiveDateTime":"2025-06-08T09:15:00.000+00:00","valueQuantity":{"value":38.0,"system":"http://unitsofmeasure.org","code":"weeks"}},"request":{"method":"PUT","url":"Observation/907d01cb-2c24-44d3-bc4c-e91994b64585"}},{"fullUrl":"https://madie.cms.gov/Observation/5d014eb2b848460872380589","resource":{"resourceType":"Observation","id":"aeacdb8a-58b0-4548-b81a-9ec2ee89cf56","meta":{"profile":["http://hl7.org/fhir/us/qicore/StructureDefinition/qicore-observation"]},"status":"final","category":[{"coding":[{"system":"http://terminology.hl7.org/CodeSystem/observation-category","code":"exam","display":"exam","userSelected":true}]}],"code":{"coding":[{"system":"http://loinc.org","code":"11996-6"}]},"subject":{"reference":"Patient/6bbb349d-5c6b-486d-96f3-6a80b923e17e"},"effectiveDateTime":"2025-06-08T20:00:00.000+00:00","valueInteger":1},"request":{"method":"PUT","url":"Observation/aeacdb8a-58b0-4548-b81a-9ec2ee89cf56"}},{"fullUrl":"https://madie.cms.gov/Observation/5e694e307ffec70000320468","resource":{"resourceType":"Observation","id":"36247bbb-b1b6-4821-b6d4-be2290ce50ab","meta":{"profile":["http://hl7.org/fhir/us/qicore/StructureDefinition/qicore-observation"]},"status":"final","category":[{"coding":[{"system":"http://terminology.hl7.org/CodeSystem/observation-category","code":"exam","display":"exam","userSelected":true}]}],"code":{"coding":[{"system":"http://loinc.org","code":"93857-1"}]},"subject":{"reference":"Patient/6bbb349d-5c6b-486d-96f3-6a80b923e17e"},"effectiveDateTime":"2025-06-08T20:00:00.000+00:00","valueDateTime":"2025-06-08T20:00:00+00:00"},"request":{"method":"PUT","url":"Observation/36247bbb-b1b6-4821-b6d4-be2290ce50ab"}},{"fullUrl":"https://madie.cms.gov/Encounter/5d014eb2b848460872380585","resource":{"resourceType":"Encounter","id":"096dacc5-6e06-4284-9f91-e3b81309b71d","meta":{"profile":["http://hl7.org/fhir/us/qicore/StructureDefinition/qicore-encounter"]},"status":"finished","class":{"system":"http://terminology.hl7.org/CodeSystem/v3-ActCode","code":"IMP","display":"inpatient encounter"},"type":[{"coding":[{"system":"http://snomed.info/sct","code":"183452005"}]}],"subject":{"reference":"Patient/6bbb349d-5c6b-486d-96f3-6a80b923e17e"},"period":{"start":"2025-06-08T08:00:00.000Z","end":"2025-06-10T08:15:00.000Z"},"length":{"value":2.0,"unit":"days"},"diagnosis":[{"condition":{"reference":"Condition/delivery-of-singleton-f83c"},"use":{"coding":[{"system":"http://snomed.info/sct","code":"169826009","display":"Delivery of Singleton"}]}}]},"request":{"method":"PUT","url":"Encounter/096dacc5-6e06-4284-9f91-e3b81309b71d"}},{"fullUrl":"https://madie.cms.gov/Procedure/5d014eb2b848460872380586","resource":{"resourceType":"Procedure","id":"f9b6130e-0674-4b8a-aa67-0ce325c1bdb9","meta":{"profile":["http://hl7.org/fhir/us/qicore/StructureDefinition/qicore-procedure"]},"extension":[{"url":"http://hl7.org/fhir/us/qicore/StructureDefinition/qicore-recorded","valueDateTime":"2013-04-05T09:35:00-04:00"}],"status":"completed","code":{"coding":[{"system":"http://www.cms.gov/Medicare/Coding/ICD10","code":"10D07Z3"},{"system":"http://www.icd10data.com/icd10pcs","code":"10D07Z3","userSelected":true}]},"subject":{"reference":"Patient/6bbb349d-5c6b-486d-96f3-6a80b923e17e"},"performedPeriod":{"start":"2025-06-08T08:10:00.000Z","end":"2025-06-08T09:14:00.000Z"}},"request":{"method":"PUT","url":"Procedure/f9b6130e-0674-4b8a-aa67-0ce325c1bdb9"}},{"fullUrl":"https://madie.cms.gov/Coverage/1","resource":{"resourceType":"Coverage","id":"a76beebd-6446-4b85-a4d2-fcecdd86e1ba","meta":{"profile":["http://hl7.org/fhir/us/qicore/StructureDefinition/qicore-coverage"]},"status":"active","beneficiary":{"reference":"Patient/6bbb349d-5c6b-486d-96f3-6a80b923e17e"},"payor":[{"reference":"Organization/84b56847-ad40-4bf6-b612-9e42ad2a84e5"}]},"request":{"method":"PUT","url":"Coverage/a76beebd-6446-4b85-a4d2-fcecdd86e1ba"}},{"fullUrl":"https://madie.cms.gov/Organization/123456","resource":{"resourceType":"Organization","id":"84b56847-ad40-4bf6-b612-9e42ad2a84e5","meta":{"profile":["http://hl7.org/fhir/us/qicore/StructureDefinition/qicore-organization"]},"identifier":[{"use":"temp","system":"urn:oid:2.16.840.1.113883.4.4","value":"21-3259825"}],"active":true,"type":[{"coding":[{"system":"http://terminology.hl7.org/CodeSystem/organization-type","code":"pay","display":"Payer"}]}],"name":"Blue Cross Blue Shield of Texas","telecom":[{"system":"phone","value":"(+1) 972-766-6900"}],"address":[{"use":"billing","type":"postal","line":["P.O. Box 660044"],"city":"Dallas","state":"TX","postalCode":"75266-0044","country":"USA"}]},"request":{"method":"PUT","url":"Organization/84b56847-ad40-4bf6-b612-9e42ad2a84e5"}},{"fullUrl":"https://madie.cms.gov/Condition/delivery-of-singleton-f83c","resource":{"resourceType":"Condition","id":"664abd5d-e1ea-488e-8c6e-9118ee8767fc","meta":{"profile":["http://hl7.org/fhir/us/qicore/StructureDefinition/qicore-condition"]},"category":[{"coding":[{"system":"http://terminology.hl7.org/CodeSystem/condition-category","code":"encounter-diagnosis","display":"Encounter Diagnosis"}]}],"code":{"coding":[{"system":"http://snomed.info/sct","code":"169826009","display":"Single live birth (finding)"}]},"subject":{"reference":"Patient/6bbb349d-5c6b-486d-96f3-6a80b923e17e"}},"request":{"method":"PUT","url":"Condition/664abd5d-e1ea-488e-8c6e-9118ee8767fc"}},{"fullUrl":"https://madie.cms.gov/Practitioner/practitioner-123456","resource":{"resourceType":"Practitioner","id":"66dbf74e-e4b6-4e7e-9d46-015965dbd7b7","identifier":[{"system":"http://hl7.org/fhir/sid/us-npi","value":"123456"}],"name":[{"family":"Evil","prefix":["Dr"]}]},"request":{"method":"PUT","url":"Practitioner/66dbf74e-e4b6-4e7e-9d46-015965dbd7b7"}},{"fullUrl":"https://madie.cms.gov/MeasureReport/7dd915bd-1526-4e0a-96dc-9e597a5ff4dd","resource":{"resourceType":"MeasureReport","id":"7dd915bd-1526-4e0a-96dc-9e597a5ff4dd","meta":{"profile":["http://hl7.org/fhir/us/cqfmeasures/StructureDefinition/test-case-cqfm"]},"contained":[{"resourceType":"Parameters","id":"0aa8291b-185f-4e3f-9472-cc0ce5039c2f-parameters","parameter":[{"name":"subject","valueString":"6bbb349d-5c6b-486d-96f3-6a80b923e17e"}]}],"extension":[{"url":"http://hl7.org/fhir/us/cqfmeasures/StructureDefinition/cqfm-inputParameters","valueReference":{"reference":"#0aa8291b-185f-4e3f-9472-cc0ce5039c2f-parameters"}},{"url":"http://hl7.org/fhir/us/cqfmeasures/StructureDefinition/cqfm-testCaseDescription","valueMarkdown":" Pt is 27 years of age,  encounter dx delivery of singleton, gravida rel date/time exactly equal to time of delivery.  This fails as logic states gravida rel date/time is 42 weeks OR LESS before time of delivery\n"}],"modifierExtension":[{"url":"http://hl7.org/fhir/us/cqfmeasures/StructureDefinition/cqfm-isTestCase","valueBoolean":true}],"status":"complete","type":"individual","measure":"https://madie.cms.gov/Measure/CesareanBirthFHIR","period":{"start":"2025-01-01","end":"2025-12-31"},"group":[{"population":[{"code":{"coding":[{"system":"http://terminology.hl7.org/CodeSystem/measure-population","code":"initial-population","display":"Initial Population"}]},"count":1},{"code":{"coding":[{"system":"http://terminology.hl7.org/CodeSystem/measure-population","code":"denominator","display":"Denominator"}]},"count":0},{"code":{"coding":[{"system":"http://terminology.hl7.org/CodeSystem/measure-population","code":"denominator-exclusion","display":"Denominator Exclusion"}]},"count":0},{"code":{"coding":[{"system":"http://terminology.hl7.org/CodeSystem/measure-population","code":"numerator","display":"Numerator"}]},"count":0}]}]},"request":{"method":"PUT","url":"MeasureReport/7dd915bd-1526-4e0a-96dc-9e597a5ff4dd"}}]}