{"resourceType":"Bundle","id":"tests-d0a65261-add9-4696-80c1-4c210eab58bc-bundle","type":"transaction","entry":[{"fullUrl":"https://madie.cms.gov/Patient/d0a65261-add9-4696-80c1-4c210eab58bc","resource":{"resourceType":"Patient","id":"d0a65261-add9-4696-80c1-4c210eab58bc","meta":{"profile":["http://hl7.org/fhir/us/qicore/StructureDefinition/qicore-patient"]},"text":{"status":"generated","div":"<div xmlns=\"http://www.w3.org/1999/xhtml\"><div class=\"hapiHeaderText\">AssessTerm0RelDateEQ42wk1MinB4TimeOfDeliv <b>DENFAIL </b></div><table class=\"hapiPropertyTable\"><tbody><tr><td>Identifier</td><td>471dbe485040e70d089fc9c9b33b02d66b94c84eb0f888d16ec71b1a1a2ae0b0</td></tr><tr><td>Date of birth</td><td><span>14 February 1985</span></td></tr></tbody></table></div>"},"extension":[{"url":"http://hl7.org/fhir/us/core/StructureDefinition/us-core-race","extension":[{"url":"ombCategory","valueCoding":{"system":"urn:oid:2.16.840.1.113883.6.238","code":"1002-5","display":"American Indian or Alaska Native","userSelected":true}},{"url":"text","valueString":"American Indian or Alaska Native"}]},{"url":"http://hl7.org/fhir/us/core/StructureDefinition/us-core-ethnicity","extension":[{"url":"ombCategory","valueCoding":{"system":"urn:oid:2.16.840.1.113883.6.238","code":"2135-2","display":"Hispanic or Latino","userSelected":true}},{"url":"text","valueString":"Hispanic or Latino"}]}],"identifier":[{"type":{"coding":[{"system":"http://terminology.hl7.org/CodeSystem/v2-0203","code":"MR"}]},"system":"https://bonnie-fhir.healthit.gov/","value":"63487c2d0968f8012254015e"}],"active":true,"name":[{"use":"usual","family":"DENFail","given":["AssessTerm0RelDateEQ42wk1MinB4TimeOfDeliv"]}],"gender":"female","birthDate":"1997-02-14"},"request":{"method":"PUT","url":"Patient/d0a65261-add9-4696-80c1-4c210eab58bc"}},{"fullUrl":"https://madie.cms.gov/Observation/5d014eb1b8484608723804bd","resource":{"resourceType":"Observation","id":"200479f1-29ab-41c6-be4d-6b7d6cb8a148","meta":{"profile":["http://hl7.org/fhir/us/qicore/StructureDefinition/qicore-observation"]},"status":"final","category":[{"coding":[{"system":"http://terminology.hl7.org/CodeSystem/observation-category","code":"exam","display":"exam","userSelected":true}]}],"code":{"coding":[{"system":"http://loinc.org","code":"11639-2"}]},"subject":{"reference":"Patient/d0a65261-add9-4696-80c1-4c210eab58bc"},"effectiveDateTime":"2024-08-14T18:59:00.000+00:00","valueInteger":0},"request":{"method":"PUT","url":"Observation/200479f1-29ab-41c6-be4d-6b7d6cb8a148"}},{"fullUrl":"https://madie.cms.gov/Observation/5d014eb1b8484608723804bf","resource":{"resourceType":"Observation","id":"b43fe509-ddaf-4eda-b1dc-ce2e219c81a5","meta":{"profile":["http://hl7.org/fhir/us/qicore/StructureDefinition/qicore-observation"]},"status":"final","category":[{"coding":[{"system":"http://terminology.hl7.org/CodeSystem/observation-category","code":"exam","display":"exam","userSelected":true}]}],"code":{"coding":[{"system":"http://loinc.org","code":"11637-6"}]},"subject":{"reference":"Patient/d0a65261-add9-4696-80c1-4c210eab58bc"},"effectiveDateTime":"2024-08-19T19:01:00.000+00:00","valueInteger":0},"request":{"method":"PUT","url":"Observation/b43fe509-ddaf-4eda-b1dc-ce2e219c81a5"}},{"fullUrl":"https://madie.cms.gov/Observation/5d014eb1b8484608723804c2","resource":{"resourceType":"Observation","id":"a76a057f-b78a-4a6e-9311-a4394442b9b1","meta":{"profile":["http://hl7.org/fhir/us/qicore/StructureDefinition/qicore-observation"]},"status":"final","category":[{"coding":[{"system":"http://terminology.hl7.org/CodeSystem/observation-category","code":"exam","display":"exam","userSelected":true}]}],"code":{"coding":[{"system":"http://loinc.org","code":"11884-4"}]},"subject":{"reference":"Patient/d0a65261-add9-4696-80c1-4c210eab58bc"},"effectiveDateTime":"2025-06-08T19:00:00.000+00:00","valueQuantity":{"value":37.0,"system":"http://unitsofmeasure.org","code":"weeks"}},"request":{"method":"PUT","url":"Observation/a76a057f-b78a-4a6e-9311-a4394442b9b1"}},{"fullUrl":"https://madie.cms.gov/Observation/5e696ed27ffec70000322567","resource":{"resourceType":"Observation","id":"5bcb08b4-eb14-4382-a712-23789c3cf0bf","meta":{"profile":["http://hl7.org/fhir/us/qicore/StructureDefinition/qicore-observation"]},"status":"final","category":[{"coding":[{"system":"http://terminology.hl7.org/CodeSystem/observation-category","code":"exam","display":"exam","userSelected":true}]}],"code":{"coding":[{"system":"http://loinc.org","code":"93857-1"}]},"subject":{"reference":"Patient/d0a65261-add9-4696-80c1-4c210eab58bc"},"effectiveDateTime":"2025-06-08T19:00:00.000+00:00","valueDateTime":"2025-06-08T19:00:00+00:00"},"request":{"method":"PUT","url":"Observation/5bcb08b4-eb14-4382-a712-23789c3cf0bf"}},{"fullUrl":"https://madie.cms.gov/Encounter/5d014eb1b8484608723804bb","resource":{"resourceType":"Encounter","id":"da3994a2-d97c-41d2-8600-b8dcc6360479","meta":{"profile":["http://hl7.org/fhir/us/qicore/StructureDefinition/qicore-encounter"]},"status":"finished","class":{"system":"http://terminology.hl7.org/CodeSystem/v3-ActCode","code":"IMP","display":"inpatient encounter"},"type":[{"coding":[{"system":"http://snomed.info/sct","code":"8715000"}]}],"subject":{"reference":"Patient/d0a65261-add9-4696-80c1-4c210eab58bc"},"period":{"start":"2025-06-08T08:00:00.000Z","end":"2025-06-10T08:15:00.000Z"},"length":{"value":2.0,"unit":"days"},"diagnosis":[{"condition":{"reference":"Condition/delivery-of-singleton-f83c"},"use":{"coding":[{"system":"http://snomed.info/sct","code":"169826009","display":"Delivery of Singleton"}]}},{"condition":{"reference":"Condition/delivery-of-singleton-4b18"}}]},"request":{"method":"PUT","url":"Encounter/da3994a2-d97c-41d2-8600-b8dcc6360479"}},{"fullUrl":"https://madie.cms.gov/Procedure/5d014eb1b8484608723804bc","resource":{"resourceType":"Procedure","id":"e6e0051c-17a7-48b3-a4b9-b50334335e77","meta":{"profile":["http://hl7.org/fhir/us/qicore/StructureDefinition/qicore-procedure"]},"extension":[{"url":"http://hl7.org/fhir/us/qicore/StructureDefinition/qicore-recorded","valueDateTime":"2013-04-05T09:35:00-04:00"}],"status":"completed","code":{"coding":[{"system":"http://www.cms.gov/Medicare/Coding/ICD10","code":"10D00Z0"},{"system":"http://snomed.info/sct","code":"4504004"},{"system":"http://www.icd10data.com/icd10pcs","code":"10D00Z0","userSelected":true}]},"subject":{"reference":"Patient/d0a65261-add9-4696-80c1-4c210eab58bc"},"performedPeriod":{"start":"2025-06-08T20:00:00.000Z","end":"2025-06-08T20:15:00.000Z"}},"request":{"method":"PUT","url":"Procedure/e6e0051c-17a7-48b3-a4b9-b50334335e77"}},{"fullUrl":"https://madie.cms.gov/Condition/delivery-of-singleton-4b18","resource":{"resourceType":"Condition","id":"c031776f-65b8-4b59-8f07-38ecdda28d13","meta":{"profile":["http://hl7.org/fhir/us/qicore/StructureDefinition/qicore-condition"]},"category":[{"coding":[{"system":"http://terminology.hl7.org/CodeSystem/condition-category","code":"encounter-diagnosis","display":"Encounter Diagnosis"}]}],"code":{"coding":[{"system":"http://snomed.info/sct","version":"2022-09","code":"169826009","display":"Single live birth (finding)","userSelected":true}]},"subject":{"reference":"Patient/d0a65261-add9-4696-80c1-4c210eab58bc"},"recordedDate":"2025-10-21T08:00:00.000+00:00"},"request":{"method":"PUT","url":"Condition/c031776f-65b8-4b59-8f07-38ecdda28d13"}},{"fullUrl":"https://madie.cms.gov/Coverage/1","resource":{"resourceType":"Coverage","id":"f3bede24-fdfd-4516-9b74-f373b9d98c94","meta":{"profile":["http://hl7.org/fhir/us/qicore/StructureDefinition/qicore-coverage"]},"status":"active","beneficiary":{"reference":"Patient/d0a65261-add9-4696-80c1-4c210eab58bc"},"payor":[{"reference":"Organization/42846cc3-1db0-4bf7-b9ff-8b81fa6e835d"}]},"request":{"method":"PUT","url":"Coverage/f3bede24-fdfd-4516-9b74-f373b9d98c94"}},{"fullUrl":"https://madie.cms.gov/Organization/123456","resource":{"resourceType":"Organization","id":"42846cc3-1db0-4bf7-b9ff-8b81fa6e835d","meta":{"profile":["http://hl7.org/fhir/us/qicore/StructureDefinition/qicore-organization"]},"identifier":[{"use":"temp","system":"urn:oid:2.16.840.1.113883.4.4","value":"21-3259825"}],"active":true,"type":[{"coding":[{"system":"http://terminology.hl7.org/CodeSystem/organization-type","code":"pay","display":"Payer"}]}],"name":"Blue Cross Blue Shield of Texas","telecom":[{"system":"phone","value":"(+1) 972-766-6900"}],"address":[{"use":"billing","type":"postal","line":["P.O. Box 660044"],"city":"Dallas","state":"TX","postalCode":"75266-0044","country":"USA"}]},"request":{"method":"PUT","url":"Organization/42846cc3-1db0-4bf7-b9ff-8b81fa6e835d"}},{"fullUrl":"https://madie.cms.gov/Practitioner/practitioner-123456","resource":{"resourceType":"Practitioner","id":"176cab00-dcef-4add-805f-b2b2d7e94bb8","identifier":[{"system":"http://hl7.org/fhir/sid/us-npi","value":"123456"}],"name":[{"family":"Evil","prefix":["Dr"]}]},"request":{"method":"PUT","url":"Practitioner/176cab00-dcef-4add-805f-b2b2d7e94bb8"}},{"fullUrl":"https://madie.cms.gov/MeasureReport/4511d2b4-17f2-4d60-bc6c-8f663822734b","resource":{"resourceType":"MeasureReport","id":"4511d2b4-17f2-4d60-bc6c-8f663822734b","meta":{"profile":["http://hl7.org/fhir/us/cqfmeasures/StructureDefinition/test-case-cqfm"]},"contained":[{"resourceType":"Parameters","id":"c2bcb797-7096-4ca0-a449-08e5e7b3fc02-parameters","parameter":[{"name":"subject","valueString":"d0a65261-add9-4696-80c1-4c210eab58bc"}]}],"extension":[{"url":"http://hl7.org/fhir/us/cqfmeasures/StructureDefinition/cqfm-inputParameters","valueReference":{"reference":"#c2bcb797-7096-4ca0-a449-08e5e7b3fc02-parameters"}},{"url":"http://hl7.org/fhir/us/cqfmeasures/StructureDefinition/cqfm-testCaseDescription","valueMarkdown":"\"Preterm Births=0, authored < 42weeks prior to Asse delivery \nTerm Newborn=0, authored, 42weeks, 1 min prior to Asse delivery\"\n"}],"modifierExtension":[{"url":"http://hl7.org/fhir/us/cqfmeasures/StructureDefinition/cqfm-isTestCase","valueBoolean":true}],"status":"complete","type":"individual","measure":"https://madie.cms.gov/Measure/CesareanBirthFHIR","period":{"start":"2025-01-01","end":"2025-12-31"},"group":[{"population":[{"code":{"coding":[{"system":"http://terminology.hl7.org/CodeSystem/measure-population","code":"initial-population","display":"Initial Population"}]},"count":1},{"code":{"coding":[{"system":"http://terminology.hl7.org/CodeSystem/measure-population","code":"denominator","display":"Denominator"}]},"count":0},{"code":{"coding":[{"system":"http://terminology.hl7.org/CodeSystem/measure-population","code":"denominator-exclusion","display":"Denominator Exclusion"}]},"count":0},{"code":{"coding":[{"system":"http://terminology.hl7.org/CodeSystem/measure-population","code":"numerator","display":"Numerator"}]},"count":0}]}]},"request":{"method":"PUT","url":"MeasureReport/4511d2b4-17f2-4d60-bc6c-8f663822734b"}}]}