{"resourceType":"Bundle","id":"tests-13fc77fb-6db3-4c4d-ae11-2ee08ff9acde-bundle","type":"transaction","entry":[{"fullUrl":"https://madie.cms.gov/Patient/13fc77fb-6db3-4c4d-ae11-2ee08ff9acde","resource":{"resourceType":"Patient","id":"13fc77fb-6db3-4c4d-ae11-2ee08ff9acde","meta":{"profile":["http://hl7.org/fhir/us/qicore/StructureDefinition/qicore-patient"]},"text":{"status":"generated","div":"<div xmlns=\"http://www.w3.org/1999/xhtml\"><div class=\"hapiHeaderText\">AssessPreTerm0RelDate46wk3DaysB4TimeOfDeliv <b>DENFAIL </b></div><table class=\"hapiPropertyTable\"><tbody><tr><td>Identifier</td><td>170a38ed2b827548e0441398231df0f76d8e6e9b3607e465a5af99e766749607</td></tr><tr><td>Date of birth</td><td><span>14 February 1985</span></td></tr></tbody></table></div>"},"extension":[{"url":"http://hl7.org/fhir/us/core/StructureDefinition/us-core-race","extension":[{"url":"ombCategory","valueCoding":{"system":"urn:oid:2.16.840.1.113883.6.238","code":"1002-5","display":"American Indian or Alaska Native","userSelected":true}},{"url":"text","valueString":"American Indian or Alaska Native"}]},{"url":"http://hl7.org/fhir/us/core/StructureDefinition/us-core-ethnicity","extension":[{"url":"ombCategory","valueCoding":{"system":"urn:oid:2.16.840.1.113883.6.238","code":"2135-2","display":"Hispanic or Latino","userSelected":true}},{"url":"text","valueString":"Hispanic or Latino"}]}],"identifier":[{"type":{"coding":[{"system":"http://terminology.hl7.org/CodeSystem/v2-0203","code":"MR"}]},"system":"https://bonnie-fhir.healthit.gov/","value":"63487c2d0968f80122540154"}],"active":true,"name":[{"use":"usual","family":"DENFail","given":["AssessPreTerm0RelDate46wk3DaysB4TimeOfDeliv"]}],"gender":"female","birthDate":"1997-02-14"},"request":{"method":"PUT","url":"Patient/13fc77fb-6db3-4c4d-ae11-2ee08ff9acde"}},{"fullUrl":"https://madie.cms.gov/Observation/5d014eb3b8484608723806e0","resource":{"resourceType":"Observation","id":"33c3202f-3499-45dd-90fe-482840d85cf8","meta":{"profile":["http://hl7.org/fhir/us/qicore/StructureDefinition/qicore-observation"]},"status":"final","category":[{"coding":[{"system":"http://terminology.hl7.org/CodeSystem/observation-category","code":"exam","display":"exam","userSelected":true}]}],"code":{"coding":[{"system":"http://loinc.org","code":"11637-6"}]},"subject":{"reference":"Patient/13fc77fb-6db3-4c4d-ae11-2ee08ff9acde"},"effectiveDateTime":"2024-08-18T20:00:00.000+00:00","valueInteger":0},"request":{"method":"PUT","url":"Observation/33c3202f-3499-45dd-90fe-482840d85cf8"}},{"fullUrl":"https://madie.cms.gov/Observation/5d014eb3b8484608723806e2","resource":{"resourceType":"Observation","id":"74b6ab7c-d926-426b-af27-4f6b2c546c86","meta":{"profile":["http://hl7.org/fhir/us/qicore/StructureDefinition/qicore-observation"]},"status":"final","category":[{"coding":[{"system":"http://terminology.hl7.org/CodeSystem/observation-category","code":"exam","display":"exam","userSelected":true}]}],"code":{"coding":[{"system":"http://loinc.org","code":"11639-2"}]},"subject":{"reference":"Patient/13fc77fb-6db3-4c4d-ae11-2ee08ff9acde"},"effectiveDateTime":"2011-09-19T09:00:00.000+00:00","valueInteger":0},"request":{"method":"PUT","url":"Observation/74b6ab7c-d926-426b-af27-4f6b2c546c86"}},{"fullUrl":"https://madie.cms.gov/Observation/5d014eb3b8484608723806e6","resource":{"resourceType":"Observation","id":"58db0356-3c58-4c51-9214-87ac1b1c95ee","meta":{"profile":["http://hl7.org/fhir/us/qicore/StructureDefinition/qicore-observation"]},"status":"final","category":[{"coding":[{"system":"http://terminology.hl7.org/CodeSystem/observation-category","code":"exam","display":"exam","userSelected":true}]}],"code":{"coding":[{"system":"http://loinc.org","code":"11884-4"}]},"subject":{"reference":"Patient/13fc77fb-6db3-4c4d-ae11-2ee08ff9acde"},"effectiveDateTime":"2025-06-08T20:00:00.000+00:00","valueQuantity":{"value":37.0,"system":"http://unitsofmeasure.org","code":"weeks"}},"request":{"method":"PUT","url":"Observation/58db0356-3c58-4c51-9214-87ac1b1c95ee"}},{"fullUrl":"https://madie.cms.gov/Observation/5e6967fa7ffec70000321857","resource":{"resourceType":"Observation","id":"2090bd9e-480d-4077-8d0f-1c0ee588e873","meta":{"profile":["http://hl7.org/fhir/us/qicore/StructureDefinition/qicore-observation"]},"status":"final","category":[{"coding":[{"system":"http://terminology.hl7.org/CodeSystem/observation-category","code":"exam","display":"exam","userSelected":true}]}],"code":{"coding":[{"system":"http://loinc.org","code":"93857-1"}]},"subject":{"reference":"Patient/13fc77fb-6db3-4c4d-ae11-2ee08ff9acde"},"effectiveDateTime":"2025-06-08T20:00:00.000+00:00","valueDateTime":"2025-06-08T20:00:00+00:00"},"request":{"method":"PUT","url":"Observation/2090bd9e-480d-4077-8d0f-1c0ee588e873"}},{"fullUrl":"https://madie.cms.gov/Encounter/5d014eb3b8484608723806de","resource":{"resourceType":"Encounter","id":"ea4bd907-02e0-4621-9a33-5accae7b418d","meta":{"profile":["http://hl7.org/fhir/us/qicore/StructureDefinition/qicore-encounter"]},"status":"finished","class":{"system":"http://terminology.hl7.org/CodeSystem/v3-ActCode","code":"IMP","display":"inpatient encounter"},"type":[{"coding":[{"system":"http://snomed.info/sct","code":"8715000"}]}],"subject":{"reference":"Patient/13fc77fb-6db3-4c4d-ae11-2ee08ff9acde"},"period":{"start":"2025-06-08T08:00:00.000Z","end":"2025-06-10T08:15:00.000Z"},"length":{"value":2.0,"unit":"days"},"diagnosis":[{"condition":{"reference":"Condition/delivery-of-singleton-f83c"},"use":{"coding":[{"system":"http://snomed.info/sct","code":"169826009","display":"Delivery of Singleton"}]}},{"condition":{"reference":"Condition/delivery-of-singleton-4b0f"}}]},"request":{"method":"PUT","url":"Encounter/ea4bd907-02e0-4621-9a33-5accae7b418d"}},{"fullUrl":"https://madie.cms.gov/Procedure/5d014eb3b8484608723806df","resource":{"resourceType":"Procedure","id":"8e99cab9-4805-4bd5-aca6-8e08f9a70cd2","meta":{"profile":["http://hl7.org/fhir/us/qicore/StructureDefinition/qicore-procedure"]},"extension":[{"url":"http://hl7.org/fhir/us/qicore/StructureDefinition/qicore-recorded","valueDateTime":"2013-04-05T09:35:00-04:00"}],"status":"completed","code":{"coding":[{"system":"http://www.cms.gov/Medicare/Coding/ICD10","code":"10D00Z0"},{"system":"http://snomed.info/sct","code":"4504004"},{"system":"http://www.icd10data.com/icd10pcs","code":"10D00Z0","userSelected":true}]},"subject":{"reference":"Patient/13fc77fb-6db3-4c4d-ae11-2ee08ff9acde"},"performedPeriod":{"start":"2025-06-08T20:00:00.000Z","end":"2025-06-08T20:15:00.000Z"}},"request":{"method":"PUT","url":"Procedure/8e99cab9-4805-4bd5-aca6-8e08f9a70cd2"}},{"fullUrl":"https://madie.cms.gov/Condition/delivery-of-singleton-4b0f","resource":{"resourceType":"Condition","id":"79690acc-5b0e-4c47-8462-1a8954a22d8e","meta":{"profile":["http://hl7.org/fhir/us/qicore/StructureDefinition/qicore-condition"]},"category":[{"coding":[{"system":"http://terminology.hl7.org/CodeSystem/condition-category","code":"encounter-diagnosis","display":"Encounter Diagnosis"}]}],"code":{"coding":[{"system":"http://snomed.info/sct","version":"2022-09","code":"169826009","display":"Single live birth (finding)","userSelected":true}]},"subject":{"reference":"Patient/13fc77fb-6db3-4c4d-ae11-2ee08ff9acde"},"recordedDate":"2025-10-21T08:00:00.000+00:00"},"request":{"method":"PUT","url":"Condition/79690acc-5b0e-4c47-8462-1a8954a22d8e"}},{"fullUrl":"https://madie.cms.gov/Coverage/1","resource":{"resourceType":"Coverage","id":"99ca2bde-346c-42a0-860e-41b9b68cc09a","meta":{"profile":["http://hl7.org/fhir/us/qicore/StructureDefinition/qicore-coverage"]},"status":"active","beneficiary":{"reference":"Patient/13fc77fb-6db3-4c4d-ae11-2ee08ff9acde"},"payor":[{"reference":"Organization/024e2731-b045-43bf-80d2-684774c5b51c"}]},"request":{"method":"PUT","url":"Coverage/99ca2bde-346c-42a0-860e-41b9b68cc09a"}},{"fullUrl":"https://madie.cms.gov/Organization/123456","resource":{"resourceType":"Organization","id":"024e2731-b045-43bf-80d2-684774c5b51c","meta":{"profile":["http://hl7.org/fhir/us/qicore/StructureDefinition/qicore-organization"]},"identifier":[{"use":"temp","system":"urn:oid:2.16.840.1.113883.4.4","value":"21-3259825"}],"active":true,"type":[{"coding":[{"system":"http://terminology.hl7.org/CodeSystem/organization-type","code":"pay","display":"Payer"}]}],"name":"Blue Cross Blue Shield of Texas","telecom":[{"system":"phone","value":"(+1) 972-766-6900"}],"address":[{"use":"billing","type":"postal","line":["P.O. Box 660044"],"city":"Dallas","state":"TX","postalCode":"75266-0044","country":"USA"}]},"request":{"method":"PUT","url":"Organization/024e2731-b045-43bf-80d2-684774c5b51c"}},{"fullUrl":"https://madie.cms.gov/Practitioner/practitioner-123456","resource":{"resourceType":"Practitioner","id":"709d17d6-6fd5-48ea-82f7-5975af339425","identifier":[{"system":"http://hl7.org/fhir/sid/us-npi","value":"123456"}],"name":[{"family":"Evil","prefix":["Dr"]}]},"request":{"method":"PUT","url":"Practitioner/709d17d6-6fd5-48ea-82f7-5975af339425"}},{"fullUrl":"https://madie.cms.gov/MeasureReport/6487f967-80e7-493d-be45-f13ef90ab278","resource":{"resourceType":"MeasureReport","id":"6487f967-80e7-493d-be45-f13ef90ab278","meta":{"profile":["http://hl7.org/fhir/us/cqfmeasures/StructureDefinition/test-case-cqfm"]},"contained":[{"resourceType":"Parameters","id":"5de734ef-2154-4d2d-b1dc-ffd45cb2f59d-parameters","parameter":[{"name":"subject","valueString":"13fc77fb-6db3-4c4d-ae11-2ee08ff9acde"}]}],"extension":[{"url":"http://hl7.org/fhir/us/cqfmeasures/StructureDefinition/cqfm-inputParameters","valueReference":{"reference":"#5de734ef-2154-4d2d-b1dc-ffd45cb2f59d-parameters"}},{"url":"http://hl7.org/fhir/us/cqfmeasures/StructureDefinition/cqfm-testCaseDescription","valueMarkdown":"\"Preterm Births=0, RelDtTime > 42weeks prior to Asse delivery\nTerm Newborn=0, RelDtTime < 42weeks prior to Asse delivery and both conditions are needed to be true for DENOM to pass\"\n"}],"modifierExtension":[{"url":"http://hl7.org/fhir/us/cqfmeasures/StructureDefinition/cqfm-isTestCase","valueBoolean":true}],"status":"complete","type":"individual","measure":"https://madie.cms.gov/Measure/CesareanBirthFHIR","period":{"start":"2025-01-01","end":"2025-12-31"},"group":[{"population":[{"code":{"coding":[{"system":"http://terminology.hl7.org/CodeSystem/measure-population","code":"initial-population","display":"Initial Population"}]},"count":1},{"code":{"coding":[{"system":"http://terminology.hl7.org/CodeSystem/measure-population","code":"denominator","display":"Denominator"}]},"count":0},{"code":{"coding":[{"system":"http://terminology.hl7.org/CodeSystem/measure-population","code":"denominator-exclusion","display":"Denominator Exclusion"}]},"count":0},{"code":{"coding":[{"system":"http://terminology.hl7.org/CodeSystem/measure-population","code":"numerator","display":"Numerator"}]},"count":0}]}]},"request":{"method":"PUT","url":"MeasureReport/6487f967-80e7-493d-be45-f13ef90ab278"}}]}