{"resourceType":"Bundle","id":"tests-84cf7374-22c5-4f60-a594-f70020252dae-bundle","type":"transaction","entry":[{"fullUrl":"https://madie.cms.gov/Patient/84cf7374-22c5-4f60-a594-f70020252dae","resource":{"resourceType":"Patient","id":"84cf7374-22c5-4f60-a594-f70020252dae","meta":{"profile":["http://hl7.org/fhir/us/qicore/StructureDefinition/qicore-patient"]},"text":{"status":"generated","div":"<div xmlns=\"http://www.w3.org/1999/xhtml\"><div class=\"hapiHeaderText\">AssessPreTerm0RelDate42wksB4DelivDate <b>DENPASS </b></div><table class=\"hapiPropertyTable\"><tbody><tr><td>Identifier</td><td>ae2c858214ff9b1ffdc193923955b0f25c757408279ae2f0e7ea89ca980dbad8</td></tr><tr><td>Date of birth</td><td><span>14 February 1985</span></td></tr></tbody></table></div>"},"extension":[{"url":"http://hl7.org/fhir/us/core/StructureDefinition/us-core-race","extension":[{"url":"ombCategory","valueCoding":{"system":"urn:oid:2.16.840.1.113883.6.238","code":"1002-5","display":"American Indian or Alaska Native","userSelected":true}},{"url":"text","valueString":"American Indian or Alaska Native"}]},{"url":"http://hl7.org/fhir/us/core/StructureDefinition/us-core-ethnicity","extension":[{"url":"ombCategory","valueCoding":{"system":"urn:oid:2.16.840.1.113883.6.238","code":"2135-2","display":"Hispanic or Latino","userSelected":true}},{"url":"text","valueString":"Hispanic or Latino"}]}],"identifier":[{"type":{"coding":[{"system":"http://terminology.hl7.org/CodeSystem/v2-0203","code":"MR"}]},"system":"https://bonnie-fhir.healthit.gov/","value":"63487c2f0968f8012254018f"}],"active":true,"name":[{"use":"usual","family":"DENPass","given":["AssessPreTerm0RelDate42wksB4DelivDate"]}],"gender":"female","birthDate":"1997-02-14"},"request":{"method":"PUT","url":"Patient/84cf7374-22c5-4f60-a594-f70020252dae"}},{"fullUrl":"https://madie.cms.gov/Observation/5d014eb2b84846087238068e","resource":{"resourceType":"Observation","id":"ffb876fe-74d8-4a97-9d4a-deb00566f1d3","meta":{"profile":["http://hl7.org/fhir/us/qicore/StructureDefinition/qicore-observation"]},"status":"final","category":[{"coding":[{"system":"http://terminology.hl7.org/CodeSystem/observation-category","code":"exam","display":"exam","userSelected":true}]}],"code":{"coding":[{"system":"http://loinc.org","code":"11637-6"}]},"subject":{"reference":"Patient/84cf7374-22c5-4f60-a594-f70020252dae"},"effectiveDateTime":"2024-08-19T20:00:00.000+00:00","valueInteger":0},"request":{"method":"PUT","url":"Observation/ffb876fe-74d8-4a97-9d4a-deb00566f1d3"}},{"fullUrl":"https://madie.cms.gov/Observation/5d014eb2b848460872380690","resource":{"resourceType":"Observation","id":"503186a6-3f49-4ba3-8257-5391a2bb4005","meta":{"profile":["http://hl7.org/fhir/us/qicore/StructureDefinition/qicore-observation"]},"status":"final","category":[{"coding":[{"system":"http://terminology.hl7.org/CodeSystem/observation-category","code":"exam","display":"exam","userSelected":true}]}],"code":{"coding":[{"system":"http://loinc.org","code":"11639-2"}]},"subject":{"reference":"Patient/84cf7374-22c5-4f60-a594-f70020252dae"},"effectiveDateTime":"2024-09-19T09:00:00.000+00:00","valueInteger":0},"request":{"method":"PUT","url":"Observation/503186a6-3f49-4ba3-8257-5391a2bb4005"}},{"fullUrl":"https://madie.cms.gov/Observation/5d014eb2b848460872380692","resource":{"resourceType":"Observation","id":"2d8484ae-9b35-4ad7-a983-0ca66cfa99f5","meta":{"profile":["http://hl7.org/fhir/us/qicore/StructureDefinition/qicore-observation"]},"status":"final","category":[{"coding":[{"system":"http://terminology.hl7.org/CodeSystem/observation-category","code":"exam","display":"exam","userSelected":true}]}],"code":{"coding":[{"system":"http://loinc.org","code":"11884-4"}]},"subject":{"reference":"Patient/84cf7374-22c5-4f60-a594-f70020252dae"},"effectiveDateTime":"2025-06-08T20:00:00.000+00:00","valueQuantity":{"value":37.0,"system":"http://unitsofmeasure.org","code":"weeks"}},"request":{"method":"PUT","url":"Observation/2d8484ae-9b35-4ad7-a983-0ca66cfa99f5"}},{"fullUrl":"https://madie.cms.gov/Observation/5e68edb759d82f0000c96480","resource":{"resourceType":"Observation","id":"b150b1d3-922a-42ca-82e8-f620dc44d60c","meta":{"profile":["http://hl7.org/fhir/us/qicore/StructureDefinition/qicore-observation"]},"status":"final","category":[{"coding":[{"system":"http://terminology.hl7.org/CodeSystem/observation-category","code":"exam","display":"exam","userSelected":true}]}],"code":{"coding":[{"system":"http://loinc.org","code":"93857-1"}]},"subject":{"reference":"Patient/84cf7374-22c5-4f60-a594-f70020252dae"},"effectiveDateTime":"2025-06-08T20:00:00.000+00:00","valueDateTime":"2025-06-08T20:00:00+00:00"},"request":{"method":"PUT","url":"Observation/b150b1d3-922a-42ca-82e8-f620dc44d60c"}},{"fullUrl":"https://madie.cms.gov/Encounter/5d014eb2b84846087238068c","resource":{"resourceType":"Encounter","id":"a398578c-89f6-4e81-91ca-baa55ec1d270","meta":{"profile":["http://hl7.org/fhir/us/qicore/StructureDefinition/qicore-encounter"]},"status":"finished","class":{"system":"http://terminology.hl7.org/CodeSystem/v3-ActCode","code":"IMP","display":"inpatient encounter"},"type":[{"coding":[{"system":"http://snomed.info/sct","code":"8715000"}]}],"subject":{"reference":"Patient/84cf7374-22c5-4f60-a594-f70020252dae"},"period":{"start":"2025-06-08T08:00:00.000Z","end":"2025-06-10T08:15:00.000Z"},"length":{"value":2.0,"unit":"days"},"diagnosis":[{"condition":{"reference":"Condition/delivery-of-singleton-f83c"},"use":{"coding":[{"system":"http://snomed.info/sct","code":"169826009","display":"Delivery of Singleton"}]}},{"condition":{"reference":"Condition/delivery-of-singleton-947a"}}]},"request":{"method":"PUT","url":"Encounter/a398578c-89f6-4e81-91ca-baa55ec1d270"}},{"fullUrl":"https://madie.cms.gov/Procedure/5d014eb2b84846087238068d","resource":{"resourceType":"Procedure","id":"2f998474-a4db-4761-9744-bf5365e23643","meta":{"profile":["http://hl7.org/fhir/us/qicore/StructureDefinition/qicore-procedure"]},"extension":[{"url":"http://hl7.org/fhir/us/qicore/StructureDefinition/qicore-recorded","valueDateTime":"2013-04-05T09:35:00-04:00"}],"status":"completed","code":{"coding":[{"system":"http://www.cms.gov/Medicare/Coding/ICD10","code":"10D00Z0"},{"system":"http://snomed.info/sct","code":"4504004"},{"system":"http://www.icd10data.com/icd10pcs","code":"10D00Z1","userSelected":true}]},"subject":{"reference":"Patient/84cf7374-22c5-4f60-a594-f70020252dae"},"performedPeriod":{"start":"2025-06-08T20:00:00.000Z","end":"2025-06-08T20:15:00.000Z"}},"request":{"method":"PUT","url":"Procedure/2f998474-a4db-4761-9744-bf5365e23643"}},{"fullUrl":"https://madie.cms.gov/Condition/delivery-of-singleton-947a","resource":{"resourceType":"Condition","id":"be3afd08-30df-4000-9d24-653cf6bed074","meta":{"profile":["http://hl7.org/fhir/us/qicore/StructureDefinition/qicore-condition"]},"category":[{"coding":[{"system":"http://terminology.hl7.org/CodeSystem/condition-category","code":"encounter-diagnosis","display":"Encounter Diagnosis"}]}],"code":{"coding":[{"system":"http://snomed.info/sct","version":"2022-09","code":"169826009","display":"Single live birth (finding)","userSelected":true}]},"subject":{"reference":"Patient/84cf7374-22c5-4f60-a594-f70020252dae"},"recordedDate":"2025-10-20T08:00:00.000+00:00"},"request":{"method":"PUT","url":"Condition/be3afd08-30df-4000-9d24-653cf6bed074"}},{"fullUrl":"https://madie.cms.gov/Coverage/1","resource":{"resourceType":"Coverage","id":"5b5afb71-e148-432a-adee-0e1a78c6b259","meta":{"profile":["http://hl7.org/fhir/us/qicore/StructureDefinition/qicore-coverage"]},"status":"active","beneficiary":{"reference":"Patient/84cf7374-22c5-4f60-a594-f70020252dae"},"payor":[{"reference":"Organization/ec8cac12-7dd8-4c6e-8c44-d6c645085c80"}]},"request":{"method":"PUT","url":"Coverage/5b5afb71-e148-432a-adee-0e1a78c6b259"}},{"fullUrl":"https://madie.cms.gov/Organization/123456","resource":{"resourceType":"Organization","id":"ec8cac12-7dd8-4c6e-8c44-d6c645085c80","meta":{"profile":["http://hl7.org/fhir/us/qicore/StructureDefinition/qicore-organization"]},"identifier":[{"use":"temp","system":"urn:oid:2.16.840.1.113883.4.4","value":"21-3259825"}],"active":true,"type":[{"coding":[{"system":"http://terminology.hl7.org/CodeSystem/organization-type","code":"pay","display":"Payer"}]}],"name":"Blue Cross Blue Shield of Texas","telecom":[{"system":"phone","value":"(+1) 972-766-6900"}],"address":[{"use":"billing","type":"postal","line":["P.O. Box 660044"],"city":"Dallas","state":"TX","postalCode":"75266-0044","country":"USA"}]},"request":{"method":"PUT","url":"Organization/ec8cac12-7dd8-4c6e-8c44-d6c645085c80"}},{"fullUrl":"https://madie.cms.gov/Practitioner/practitioner-123456","resource":{"resourceType":"Practitioner","id":"cfde2947-79e9-4d01-866d-6755ffe198bb","identifier":[{"system":"http://hl7.org/fhir/sid/us-npi","value":"123456"}],"name":[{"family":"Evil","prefix":["Dr"]}]},"request":{"method":"PUT","url":"Practitioner/cfde2947-79e9-4d01-866d-6755ffe198bb"}},{"fullUrl":"https://madie.cms.gov/MeasureReport/cad75dfc-d138-422d-867f-51aa79e740af","resource":{"resourceType":"MeasureReport","id":"cad75dfc-d138-422d-867f-51aa79e740af","meta":{"profile":["http://hl7.org/fhir/us/cqfmeasures/StructureDefinition/test-case-cqfm"]},"contained":[{"resourceType":"Parameters","id":"1510112e-9e51-4d6b-a619-6ed7c4d7279d-parameters","parameter":[{"name":"subject","valueString":"84cf7374-22c5-4f60-a594-f70020252dae"}]}],"extension":[{"url":"http://hl7.org/fhir/us/cqfmeasures/StructureDefinition/cqfm-inputParameters","valueReference":{"reference":"#1510112e-9e51-4d6b-a619-6ed7c4d7279d-parameters"}},{"url":"http://hl7.org/fhir/us/cqfmeasures/StructureDefinition/cqfm-testCaseDescription","valueMarkdown":"Preterm Births=0, relevant date  42weeks  and same time prior to delivery date/time\n"}],"modifierExtension":[{"url":"http://hl7.org/fhir/us/cqfmeasures/StructureDefinition/cqfm-isTestCase","valueBoolean":true}],"status":"complete","type":"individual","measure":"https://madie.cms.gov/Measure/CesareanBirthFHIR","period":{"start":"2025-01-01","end":"2025-12-31"},"group":[{"population":[{"code":{"coding":[{"system":"http://terminology.hl7.org/CodeSystem/measure-population","code":"initial-population","display":"Initial Population"}]},"count":1},{"code":{"coding":[{"system":"http://terminology.hl7.org/CodeSystem/measure-population","code":"denominator","display":"Denominator"}]},"count":1},{"code":{"coding":[{"system":"http://terminology.hl7.org/CodeSystem/measure-population","code":"denominator-exclusion","display":"Denominator Exclusion"}]},"count":0},{"code":{"coding":[{"system":"http://terminology.hl7.org/CodeSystem/measure-population","code":"numerator","display":"Numerator"}]},"count":1}]}]},"request":{"method":"PUT","url":"MeasureReport/cad75dfc-d138-422d-867f-51aa79e740af"}}]}