{"resourceType":"Bundle","id":"tests-deba38c2-7841-4133-a2e6-981e9095d19c-bundle","type":"transaction","entry":[{"fullUrl":"https://madie.cms.gov/Patient/deba38c2-7841-4133-a2e6-981e9095d19c","resource":{"resourceType":"Patient","id":"deba38c2-7841-4133-a2e6-981e9095d19c","meta":{"profile":["http://hl7.org/fhir/us/qicore/StructureDefinition/qicore-patient"]},"text":{"status":"generated","div":"<div xmlns=\"http://www.w3.org/1999/xhtml\"><div class=\"hapiHeaderText\">AssessPreTerm0RelDtTimeB4TimeOfDeliv <b>DENPASS </b></div><table class=\"hapiPropertyTable\"><tbody><tr><td>Identifier</td><td>68ae6e24f0fface97c058e998841dc5fd1e621f11f5d5bc2aeef1a3a248ebc14</td></tr><tr><td>Date of birth</td><td><span>14 February 1985</span></td></tr></tbody></table></div>"},"extension":[{"url":"http://hl7.org/fhir/us/core/StructureDefinition/us-core-race","extension":[{"url":"ombCategory","valueCoding":{"system":"urn:oid:2.16.840.1.113883.6.238","code":"1002-5","display":"American Indian or Alaska Native","userSelected":true}},{"url":"text","valueString":"American Indian or Alaska Native"}]},{"url":"http://hl7.org/fhir/us/core/StructureDefinition/us-core-ethnicity","extension":[{"url":"ombCategory","valueCoding":{"system":"urn:oid:2.16.840.1.113883.6.238","code":"2135-2","display":"Hispanic or Latino","userSelected":true}},{"url":"text","valueString":"Hispanic or Latino"}]}],"identifier":[{"type":{"coding":[{"system":"http://terminology.hl7.org/CodeSystem/v2-0203","code":"MR"}]},"system":"https://bonnie-fhir.healthit.gov/","value":"63487c2d0968f80122540157"}],"active":true,"name":[{"use":"usual","family":"DENPass","given":["AssessPreTerm0RelDtTimeB4TimeOfDeliv"]}],"gender":"female","birthDate":"1997-02-14"},"request":{"method":"PUT","url":"Patient/deba38c2-7841-4133-a2e6-981e9095d19c"}},{"fullUrl":"https://madie.cms.gov/Observation/5d014eb2b848460872380652","resource":{"resourceType":"Observation","id":"d5d74c10-83b0-40e9-a719-d09a8f397c3b","meta":{"profile":["http://hl7.org/fhir/us/qicore/StructureDefinition/qicore-observation"]},"status":"final","category":[{"coding":[{"system":"http://terminology.hl7.org/CodeSystem/observation-category","code":"exam","display":"exam","userSelected":true}]}],"code":{"coding":[{"system":"http://loinc.org","code":"11639-2"}]},"subject":{"reference":"Patient/deba38c2-7841-4133-a2e6-981e9095d19c"},"effectiveDateTime":"2024-09-19T09:00:00.000+00:00","valueInteger":0},"request":{"method":"PUT","url":"Observation/d5d74c10-83b0-40e9-a719-d09a8f397c3b"}},{"fullUrl":"https://madie.cms.gov/Observation/5d014eb2b848460872380654","resource":{"resourceType":"Observation","id":"ef3d6a54-aa26-4323-b55f-b9f95af56f7c","meta":{"profile":["http://hl7.org/fhir/us/qicore/StructureDefinition/qicore-observation"]},"status":"final","category":[{"coding":[{"system":"http://terminology.hl7.org/CodeSystem/observation-category","code":"exam","display":"exam","userSelected":true}]}],"code":{"coding":[{"system":"http://loinc.org","code":"11637-6"}]},"subject":{"reference":"Patient/deba38c2-7841-4133-a2e6-981e9095d19c"},"effectiveDateTime":"2025-06-08T09:00:00.000+00:00","valueInteger":0},"request":{"method":"PUT","url":"Observation/ef3d6a54-aa26-4323-b55f-b9f95af56f7c"}},{"fullUrl":"https://madie.cms.gov/Observation/5d014eb2b848460872380656","resource":{"resourceType":"Observation","id":"7f40b71d-e825-48e7-b31f-23ee395d05b7","meta":{"profile":["http://hl7.org/fhir/us/qicore/StructureDefinition/qicore-observation"]},"status":"final","category":[{"coding":[{"system":"http://terminology.hl7.org/CodeSystem/observation-category","code":"exam","display":"exam","userSelected":true}]}],"code":{"coding":[{"system":"http://loinc.org","code":"11884-4"}]},"subject":{"reference":"Patient/deba38c2-7841-4133-a2e6-981e9095d19c"},"effectiveDateTime":"2025-06-08T20:00:00.000+00:00","valueQuantity":{"value":37.0,"system":"http://unitsofmeasure.org","code":"weeks"}},"request":{"method":"PUT","url":"Observation/7f40b71d-e825-48e7-b31f-23ee395d05b7"}},{"fullUrl":"https://madie.cms.gov/Observation/5e692f8b7ffec7000031dd09","resource":{"resourceType":"Observation","id":"8c1d6548-6a6f-4582-bba6-c8a2a21e87f3","meta":{"profile":["http://hl7.org/fhir/us/qicore/StructureDefinition/qicore-observation"]},"status":"final","category":[{"coding":[{"system":"http://terminology.hl7.org/CodeSystem/observation-category","code":"exam","display":"exam","userSelected":true}]}],"code":{"coding":[{"system":"http://loinc.org","code":"93857-1"}]},"subject":{"reference":"Patient/deba38c2-7841-4133-a2e6-981e9095d19c"},"effectiveDateTime":"2025-06-08T20:00:00.000+00:00","valueDateTime":"2025-06-08T20:00:00+00:00"},"request":{"method":"PUT","url":"Observation/8c1d6548-6a6f-4582-bba6-c8a2a21e87f3"}},{"fullUrl":"https://madie.cms.gov/Encounter/5d014eb2b848460872380650","resource":{"resourceType":"Encounter","id":"8af0609a-4be9-4e81-8da7-524986d4a84d","meta":{"profile":["http://hl7.org/fhir/us/qicore/StructureDefinition/qicore-encounter"]},"status":"finished","class":{"system":"http://terminology.hl7.org/CodeSystem/v3-ActCode","code":"IMP","display":"inpatient encounter"},"type":[{"coding":[{"system":"http://snomed.info/sct","code":"8715000"}]}],"subject":{"reference":"Patient/deba38c2-7841-4133-a2e6-981e9095d19c"},"period":{"start":"2025-06-08T08:00:00.000Z","end":"2025-06-10T08:15:00.000Z"},"length":{"value":2.0,"unit":"days"},"diagnosis":[{"condition":{"reference":"Condition/delivery-of-singleton-f83c"},"use":{"coding":[{"system":"http://snomed.info/sct","code":"169826009","display":"Delivery of Singleton"}]}},{"condition":{"reference":"Condition/delivery-of-singleton-947b"}}]},"request":{"method":"PUT","url":"Encounter/8af0609a-4be9-4e81-8da7-524986d4a84d"}},{"fullUrl":"https://madie.cms.gov/Procedure/5d014eb2b848460872380651","resource":{"resourceType":"Procedure","id":"7aadf26b-9dd1-4c8d-8e80-f17df839322c","meta":{"profile":["http://hl7.org/fhir/us/qicore/StructureDefinition/qicore-procedure"]},"extension":[{"url":"http://hl7.org/fhir/us/qicore/StructureDefinition/qicore-recorded","valueDateTime":"2013-04-05T09:35:00-04:00"}],"status":"completed","code":{"coding":[{"system":"http://www.cms.gov/Medicare/Coding/ICD10","code":"10D00Z0"},{"system":"http://snomed.info/sct","code":"4504004"},{"system":"http://www.icd10data.com/icd10pcs","code":"10D00Z1","userSelected":true}]},"subject":{"reference":"Patient/deba38c2-7841-4133-a2e6-981e9095d19c"},"performedPeriod":{"start":"2025-06-08T20:00:00.000Z","end":"2025-06-08T20:15:00.000Z"}},"request":{"method":"PUT","url":"Procedure/7aadf26b-9dd1-4c8d-8e80-f17df839322c"}},{"fullUrl":"https://madie.cms.gov/Condition/delivery-of-singleton-947b","resource":{"resourceType":"Condition","id":"273f1166-75a6-4428-8ffa-1197aed4985e","meta":{"profile":["http://hl7.org/fhir/us/qicore/StructureDefinition/qicore-condition"]},"category":[{"coding":[{"system":"http://terminology.hl7.org/CodeSystem/condition-category","code":"encounter-diagnosis","display":"Encounter Diagnosis"}]}],"code":{"coding":[{"system":"http://snomed.info/sct","version":"2022-09","code":"169826009","display":"Single live birth (finding)","userSelected":true}]},"subject":{"reference":"Patient/deba38c2-7841-4133-a2e6-981e9095d19c"},"recordedDate":"2025-10-20T08:00:00.000+00:00"},"request":{"method":"PUT","url":"Condition/273f1166-75a6-4428-8ffa-1197aed4985e"}},{"fullUrl":"https://madie.cms.gov/Coverage/1","resource":{"resourceType":"Coverage","id":"415d0e1b-e1a6-4248-9910-f0e3a1ddbdcc","meta":{"profile":["http://hl7.org/fhir/us/qicore/StructureDefinition/qicore-coverage"]},"status":"active","beneficiary":{"reference":"Patient/deba38c2-7841-4133-a2e6-981e9095d19c"},"payor":[{"reference":"Organization/f6075515-d38f-4624-bde8-a1ce20473a69"}]},"request":{"method":"PUT","url":"Coverage/415d0e1b-e1a6-4248-9910-f0e3a1ddbdcc"}},{"fullUrl":"https://madie.cms.gov/Organization/123456","resource":{"resourceType":"Organization","id":"f6075515-d38f-4624-bde8-a1ce20473a69","meta":{"profile":["http://hl7.org/fhir/us/qicore/StructureDefinition/qicore-organization"]},"identifier":[{"use":"temp","system":"urn:oid:2.16.840.1.113883.4.4","value":"21-3259825"}],"active":true,"type":[{"coding":[{"system":"http://terminology.hl7.org/CodeSystem/organization-type","code":"pay","display":"Payer"}]}],"name":"Blue Cross Blue Shield of Texas","telecom":[{"system":"phone","value":"(+1) 972-766-6900"}],"address":[{"use":"billing","type":"postal","line":["P.O. Box 660044"],"city":"Dallas","state":"TX","postalCode":"75266-0044","country":"USA"}]},"request":{"method":"PUT","url":"Organization/f6075515-d38f-4624-bde8-a1ce20473a69"}},{"fullUrl":"https://madie.cms.gov/Practitioner/practitioner-123456","resource":{"resourceType":"Practitioner","id":"573fd6d5-5a2d-4ee1-aac2-290b736068b8","identifier":[{"system":"http://hl7.org/fhir/sid/us-npi","value":"123456"}],"name":[{"family":"Evil","prefix":["Dr"]}]},"request":{"method":"PUT","url":"Practitioner/573fd6d5-5a2d-4ee1-aac2-290b736068b8"}},{"fullUrl":"https://madie.cms.gov/MeasureReport/5c848af2-dfff-4d6b-8788-ae6fef3c811a","resource":{"resourceType":"MeasureReport","id":"5c848af2-dfff-4d6b-8788-ae6fef3c811a","meta":{"profile":["http://hl7.org/fhir/us/cqfmeasures/StructureDefinition/test-case-cqfm"]},"contained":[{"resourceType":"Parameters","id":"470918dc-9859-4d8e-b17b-59629744d0c9-parameters","parameter":[{"name":"subject","valueString":"deba38c2-7841-4133-a2e6-981e9095d19c"}]}],"extension":[{"url":"http://hl7.org/fhir/us/cqfmeasures/StructureDefinition/cqfm-inputParameters","valueReference":{"reference":"#470918dc-9859-4d8e-b17b-59629744d0c9-parameters"}},{"url":"http://hl7.org/fhir/us/cqfmeasures/StructureDefinition/cqfm-testCaseDescription","valueMarkdown":"\"Preterm Births=0, relevant date/time before Asse delivery datetime\nTerm Newborn=0, authored < 42weeks prior to Asse delivery\"\n"}],"modifierExtension":[{"url":"http://hl7.org/fhir/us/cqfmeasures/StructureDefinition/cqfm-isTestCase","valueBoolean":true}],"status":"complete","type":"individual","measure":"https://madie.cms.gov/Measure/CesareanBirthFHIR","period":{"start":"2025-01-01","end":"2025-12-31"},"group":[{"population":[{"code":{"coding":[{"system":"http://terminology.hl7.org/CodeSystem/measure-population","code":"initial-population","display":"Initial Population"}]},"count":1},{"code":{"coding":[{"system":"http://terminology.hl7.org/CodeSystem/measure-population","code":"denominator","display":"Denominator"}]},"count":1},{"code":{"coding":[{"system":"http://terminology.hl7.org/CodeSystem/measure-population","code":"denominator-exclusion","display":"Denominator Exclusion"}]},"count":0},{"code":{"coding":[{"system":"http://terminology.hl7.org/CodeSystem/measure-population","code":"numerator","display":"Numerator"}]},"count":1}]}]},"request":{"method":"PUT","url":"MeasureReport/5c848af2-dfff-4d6b-8788-ae6fef3c811a"}}]}