{"resourceType":"Bundle","id":"tests-e45bf79e-2de3-47c1-b3f7-d5c06e9bc8ec-bundle","type":"transaction","entry":[{"fullUrl":"https://madie.cms.gov/Patient/e45bf79e-2de3-47c1-b3f7-d5c06e9bc8ec","resource":{"resourceType":"Patient","id":"e45bf79e-2de3-47c1-b3f7-d5c06e9bc8ec","meta":{"profile":["http://hl7.org/fhir/us/qicore/StructureDefinition/qicore-patient"]},"text":{"status":"generated","div":"<div xmlns=\"http://www.w3.org/1999/xhtml\"><div class=\"hapiHeaderText\">AssessGARelDtTime24Hours1minB4TimeOfDeliv <b>DENFAIL </b></div><table class=\"hapiPropertyTable\"><tbody><tr><td>Identifier</td><td>a645956ac82be668a9abacd6af25539c9cb78de06f5eccbbf48e18ab21ca3396</td></tr><tr><td>Date of birth</td><td><span>14 February 1985</span></td></tr></tbody></table></div>"},"extension":[{"url":"http://hl7.org/fhir/us/core/StructureDefinition/us-core-race","extension":[{"url":"ombCategory","valueCoding":{"system":"urn:oid:2.16.840.1.113883.6.238","code":"1002-5","display":"American Indian or Alaska Native","userSelected":true}},{"url":"text","valueString":"American Indian or Alaska Native"}]},{"url":"http://hl7.org/fhir/us/core/StructureDefinition/us-core-ethnicity","extension":[{"url":"ombCategory","valueCoding":{"system":"urn:oid:2.16.840.1.113883.6.238","code":"2135-2","display":"Hispanic or Latino","userSelected":true}},{"url":"text","valueString":"Hispanic or Latino"}]}],"identifier":[{"type":{"coding":[{"system":"http://terminology.hl7.org/CodeSystem/v2-0203","code":"MR"}]},"system":"https://bonnie-fhir.healthit.gov/","value":"63487c2e0968f80122540183"}],"active":true,"name":[{"use":"usual","family":"DENFail","given":["AssessGARelDtTime24Hours1minB4TimeOfDeliv"]}],"gender":"female","birthDate":"1997-02-14"},"request":{"method":"PUT","url":"Patient/e45bf79e-2de3-47c1-b3f7-d5c06e9bc8ec"}},{"fullUrl":"https://madie.cms.gov/Observation/5d014eb1b84846087238049d","resource":{"resourceType":"Observation","id":"16c7c22b-6836-4d20-99fd-3d416dc84098","meta":{"profile":["http://hl7.org/fhir/us/qicore/StructureDefinition/qicore-observation"]},"status":"final","category":[{"coding":[{"system":"http://terminology.hl7.org/CodeSystem/observation-category","code":"exam","display":"exam","userSelected":true}]}],"code":{"coding":[{"system":"http://loinc.org","code":"11884-4"}]},"subject":{"reference":"Patient/e45bf79e-2de3-47c1-b3f7-d5c06e9bc8ec"},"effectiveDateTime":"2025-06-07T12:59:00.000+00:00","valueQuantity":{"value":37.0,"system":"http://unitsofmeasure.org","code":"weeks"}},"request":{"method":"PUT","url":"Observation/16c7c22b-6836-4d20-99fd-3d416dc84098"}},{"fullUrl":"https://madie.cms.gov/Observation/5d014eb1b84846087238049f","resource":{"resourceType":"Observation","id":"46e4a546-b8fb-4cee-bb5a-bbf2cf85296a","meta":{"profile":["http://hl7.org/fhir/us/qicore/StructureDefinition/qicore-observation"]},"status":"final","category":[{"coding":[{"system":"http://terminology.hl7.org/CodeSystem/observation-category","code":"exam","display":"exam","userSelected":true}]}],"code":{"coding":[{"system":"http://loinc.org","code":"11996-6"}]},"subject":{"reference":"Patient/e45bf79e-2de3-47c1-b3f7-d5c06e9bc8ec"},"effectiveDateTime":"2025-06-08T08:00:00.000+00:00","valueInteger":1},"request":{"method":"PUT","url":"Observation/46e4a546-b8fb-4cee-bb5a-bbf2cf85296a"}},{"fullUrl":"https://madie.cms.gov/Observation/5e694fec7ffec700003206fe","resource":{"resourceType":"Observation","id":"68c3c52a-91c9-4818-856d-bee77bc4472a","meta":{"profile":["http://hl7.org/fhir/us/qicore/StructureDefinition/qicore-observation"]},"status":"final","category":[{"coding":[{"system":"http://terminology.hl7.org/CodeSystem/observation-category","code":"exam","display":"exam","userSelected":true}]}],"code":{"coding":[{"system":"http://loinc.org","code":"93857-1"}]},"subject":{"reference":"Patient/e45bf79e-2de3-47c1-b3f7-d5c06e9bc8ec"},"effectiveDateTime":"2025-06-08T13:00:00.000+00:00","valueDateTime":"2025-06-08T13:00:00+00:00"},"request":{"method":"PUT","url":"Observation/68c3c52a-91c9-4818-856d-bee77bc4472a"}},{"fullUrl":"https://madie.cms.gov/Encounter/5d014eb1b84846087238049b","resource":{"resourceType":"Encounter","id":"99f67ee8-eab1-4e9a-80b8-a5b6598f3e0f","meta":{"profile":["http://hl7.org/fhir/us/qicore/StructureDefinition/qicore-encounter"]},"status":"finished","class":{"system":"http://terminology.hl7.org/CodeSystem/v3-ActCode","code":"IMP","display":"inpatient encounter"},"type":[{"coding":[{"system":"http://snomed.info/sct","code":"183452005"}]}],"subject":{"reference":"Patient/e45bf79e-2de3-47c1-b3f7-d5c06e9bc8ec"},"period":{"start":"2025-06-08T08:00:00.000Z","end":"2025-06-10T08:15:00.000Z"},"length":{"value":2.0,"unit":"days"},"diagnosis":[{"condition":{"reference":"Condition/delivery-of-singleton-f83c"},"use":{"coding":[{"system":"http://snomed.info/sct","code":"169826009","display":"Delivery of Singleton"}]}},{"condition":{"reference":"Condition/delivery-of-singleton-9a86"}}]},"request":{"method":"PUT","url":"Encounter/99f67ee8-eab1-4e9a-80b8-a5b6598f3e0f"}},{"fullUrl":"https://madie.cms.gov/Procedure/5d014eb1b84846087238049c","resource":{"resourceType":"Procedure","id":"b1ce4569-95bd-49b6-ab8d-7d34c986a301","meta":{"profile":["http://hl7.org/fhir/us/qicore/StructureDefinition/qicore-procedure"]},"extension":[{"url":"http://hl7.org/fhir/us/qicore/StructureDefinition/qicore-recorded","valueDateTime":"2013-04-05T09:35:00-04:00"}],"status":"completed","code":{"coding":[{"system":"http://www.cms.gov/Medicare/Coding/ICD10","code":"10D00Z0"},{"system":"http://www.icd10data.com/icd10pcs","code":"10D00Z0","userSelected":true}]},"subject":{"reference":"Patient/e45bf79e-2de3-47c1-b3f7-d5c06e9bc8ec"},"performedPeriod":{"start":"2025-06-08T08:00:00.000Z","end":"2025-06-08T09:15:00.000Z"}},"request":{"method":"PUT","url":"Procedure/b1ce4569-95bd-49b6-ab8d-7d34c986a301"}},{"fullUrl":"https://madie.cms.gov/Condition/delivery-of-singleton-9a86","resource":{"resourceType":"Condition","id":"d7178e0f-43b6-4d9b-a8d4-118f14bf4b22","meta":{"profile":["http://hl7.org/fhir/us/qicore/StructureDefinition/qicore-condition"]},"category":[{"coding":[{"system":"http://terminology.hl7.org/CodeSystem/condition-category","code":"encounter-diagnosis","display":"Encounter Diagnosis"}]}],"code":{"coding":[{"system":"http://snomed.info/sct","version":"2022-09","code":"169826009","display":"Single live birth (finding)","userSelected":true}]},"subject":{"reference":"Patient/e45bf79e-2de3-47c1-b3f7-d5c06e9bc8ec"},"recordedDate":"2025-10-21T08:00:00.000+00:00"},"request":{"method":"PUT","url":"Condition/d7178e0f-43b6-4d9b-a8d4-118f14bf4b22"}},{"fullUrl":"https://madie.cms.gov/Coverage/1","resource":{"resourceType":"Coverage","id":"06d26b69-c425-4fd8-bcc8-7aed35d04970","meta":{"profile":["http://hl7.org/fhir/us/qicore/StructureDefinition/qicore-coverage"]},"status":"active","beneficiary":{"reference":"Patient/e45bf79e-2de3-47c1-b3f7-d5c06e9bc8ec"},"payor":[{"reference":"Organization/f6075515-d38f-4624-bde8-a1ce20473a69"}]},"request":{"method":"PUT","url":"Coverage/06d26b69-c425-4fd8-bcc8-7aed35d04970"}},{"fullUrl":"https://madie.cms.gov/Organization/123456","resource":{"resourceType":"Organization","id":"f6075515-d38f-4624-bde8-a1ce20473a69","meta":{"profile":["http://hl7.org/fhir/us/qicore/StructureDefinition/qicore-organization"]},"identifier":[{"use":"temp","system":"urn:oid:2.16.840.1.113883.4.4","value":"21-3259825"}],"active":true,"type":[{"coding":[{"system":"http://terminology.hl7.org/CodeSystem/organization-type","code":"pay","display":"Payer"}]}],"name":"Blue Cross Blue Shield of Texas","telecom":[{"system":"phone","value":"(+1) 972-766-6900"}],"address":[{"use":"billing","type":"postal","line":["P.O. Box 660044"],"city":"Dallas","state":"TX","postalCode":"75266-0044","country":"USA"}]},"request":{"method":"PUT","url":"Organization/f6075515-d38f-4624-bde8-a1ce20473a69"}},{"fullUrl":"https://madie.cms.gov/Practitioner/practitioner-123456","resource":{"resourceType":"Practitioner","id":"597cd77b-7f6c-4516-a7be-8f28de599b06","identifier":[{"system":"http://hl7.org/fhir/sid/us-npi","value":"123456"}],"name":[{"family":"Evil","prefix":["Dr"]}]},"request":{"method":"PUT","url":"Practitioner/597cd77b-7f6c-4516-a7be-8f28de599b06"}},{"fullUrl":"https://madie.cms.gov/MeasureReport/6869f3fa-6b79-4cbf-b434-260a3d5e3726","resource":{"resourceType":"MeasureReport","id":"6869f3fa-6b79-4cbf-b434-260a3d5e3726","meta":{"profile":["http://hl7.org/fhir/us/cqfmeasures/StructureDefinition/test-case-cqfm"]},"contained":[{"resourceType":"Parameters","id":"14ac4c1e-2290-4ab9-b297-71eab7e2e32e-parameters","parameter":[{"name":"subject","valueString":"e45bf79e-2de3-47c1-b3f7-d5c06e9bc8ec"}]}],"extension":[{"url":"http://hl7.org/fhir/us/cqfmeasures/StructureDefinition/cqfm-inputParameters","valueReference":{"reference":"#14ac4c1e-2290-4ab9-b297-71eab7e2e32e-parameters"}},{"url":"http://hl7.org/fhir/us/cqfmeasures/StructureDefinition/cqfm-testCaseDescription","valueMarkdown":"Passes: IP, Pt is 27 years of age,  encounter dx of delivery of singleton, gravida, AsseEGA37 (24 hours and 1 minute before  TmDelivery rel datetime.  Tests \"Gestation37PlusWeeks.RelevantDatetime 1 day or less on or before TimeOfDel\".\n"}],"modifierExtension":[{"url":"http://hl7.org/fhir/us/cqfmeasures/StructureDefinition/cqfm-isTestCase","valueBoolean":true}],"status":"complete","type":"individual","measure":"https://madie.cms.gov/Measure/CesareanBirthFHIR","period":{"start":"2025-01-01","end":"2025-12-31"},"group":[{"population":[{"code":{"coding":[{"system":"http://terminology.hl7.org/CodeSystem/measure-population","code":"initial-population","display":"Initial Population"}]},"count":1},{"code":{"coding":[{"system":"http://terminology.hl7.org/CodeSystem/measure-population","code":"denominator","display":"Denominator"}]},"count":0},{"code":{"coding":[{"system":"http://terminology.hl7.org/CodeSystem/measure-population","code":"denominator-exclusion","display":"Denominator Exclusion"}]},"count":0},{"code":{"coding":[{"system":"http://terminology.hl7.org/CodeSystem/measure-population","code":"numerator","display":"Numerator"}]},"count":0}]}]},"request":{"method":"PUT","url":"MeasureReport/6869f3fa-6b79-4cbf-b434-260a3d5e3726"}}]}