{"resourceType":"Bundle","id":"tests-c58acff5-248b-49c9-b18d-69e4a84a08d9-bundle","type":"transaction","entry":[{"fullUrl":"https://madie.cms.gov/Patient/c58acff5-248b-49c9-b18d-69e4a84a08d9","resource":{"resourceType":"Patient","id":"c58acff5-248b-49c9-b18d-69e4a84a08d9","meta":{"profile":["http://hl7.org/fhir/us/qicore/StructureDefinition/qicore-patient"]},"text":{"status":"generated","div":"<div xmlns=\"http://www.w3.org/1999/xhtml\"><div class=\"hapiHeaderText\">AssessPerfAbnPres <b>DENEXPASS </b></div><table class=\"hapiPropertyTable\"><tbody><tr><td>Identifier</td><td>db09244543fe550232b604cb7d87decbeb851047882e641e3fe736fdce398a0a</td></tr><tr><td>Date of birth</td><td><span>14 February 1985</span></td></tr></tbody></table></div>"},"extension":[{"url":"http://hl7.org/fhir/us/core/StructureDefinition/us-core-race","extension":[{"url":"ombCategory","valueCoding":{"system":"urn:oid:2.16.840.1.113883.6.238","code":"1002-5","display":"American Indian or Alaska Native","userSelected":true}},{"url":"text","valueString":"American Indian or Alaska Native"}]},{"url":"http://hl7.org/fhir/us/core/StructureDefinition/us-core-ethnicity","extension":[{"url":"ombCategory","valueCoding":{"system":"urn:oid:2.16.840.1.113883.6.238","code":"2135-2","display":"Hispanic or Latino","userSelected":true}},{"url":"text","valueString":"Hispanic or Latino"}]}],"identifier":[{"type":{"coding":[{"system":"http://terminology.hl7.org/CodeSystem/v2-0203","code":"MR"}]},"system":"https://bonnie-fhir.healthit.gov/","value":"63487c2e0968f80122540188"}],"active":true,"name":[{"use":"usual","family":"DENEXPass","given":["AssessPerfAbnPres"]}],"gender":"female","birthDate":"1997-02-14"},"request":{"method":"PUT","url":"Patient/c58acff5-248b-49c9-b18d-69e4a84a08d9"}},{"fullUrl":"https://madie.cms.gov/Observation/5d014eb2b8484608723805f9","resource":{"resourceType":"Observation","id":"86de2e40-1725-4fc8-994f-5f834b4d52a5","meta":{"profile":["http://hl7.org/fhir/us/qicore/StructureDefinition/qicore-observation"]},"status":"final","category":[{"coding":[{"system":"http://terminology.hl7.org/CodeSystem/observation-category","code":"exam","display":"exam","userSelected":true}]}],"code":{"coding":[{"system":"http://loinc.org","code":"11996-6"}]},"subject":{"reference":"Patient/c58acff5-248b-49c9-b18d-69e4a84a08d9"},"effectiveDateTime":"2025-06-08T08:00:00.000+00:00","valueInteger":1},"request":{"method":"PUT","url":"Observation/86de2e40-1725-4fc8-994f-5f834b4d52a5"}},{"fullUrl":"https://madie.cms.gov/Observation/5d014eb2b8484608723805fb","resource":{"resourceType":"Observation","id":"87c98845-55de-4566-a66f-a0c563951982","meta":{"profile":["http://hl7.org/fhir/us/qicore/StructureDefinition/qicore-observation"]},"status":"final","category":[{"coding":[{"system":"http://terminology.hl7.org/CodeSystem/observation-category","code":"exam","display":"exam","userSelected":true}]}],"code":{"coding":[{"system":"http://loinc.org","code":"11884-4"}]},"subject":{"reference":"Patient/c58acff5-248b-49c9-b18d-69e4a84a08d9"},"effectiveDateTime":"2025-06-08T08:00:00.000+00:00","valueQuantity":{"value":43.0,"system":"http://unitsofmeasure.org","code":"weeks"}},"request":{"method":"PUT","url":"Observation/87c98845-55de-4566-a66f-a0c563951982"}},{"fullUrl":"https://madie.cms.gov/Observation/5e61164ceadaae0000c2b22f","resource":{"resourceType":"Observation","id":"c99563a8-a0f7-49f2-a128-416383ad2a6b","meta":{"profile":["http://hl7.org/fhir/us/qicore/StructureDefinition/qicore-observation"]},"status":"final","category":[{"coding":[{"system":"http://terminology.hl7.org/CodeSystem/observation-category","code":"exam","display":"exam","userSelected":true}]}],"code":{"coding":[{"system":"http://loinc.org","code":"93857-1"}]},"subject":{"reference":"Patient/c58acff5-248b-49c9-b18d-69e4a84a08d9"},"effectiveDateTime":"2025-06-08T20:00:00.000+00:00","valueDateTime":"2025-06-08T20:00:00+00:00"},"request":{"method":"PUT","url":"Observation/c99563a8-a0f7-49f2-a128-416383ad2a6b"}},{"fullUrl":"https://madie.cms.gov/Observation/606dbe2184679a0000f3ba33","resource":{"resourceType":"Observation","id":"86a1b16a-c3bb-4870-9a70-47465f18a8f0","meta":{"profile":["http://hl7.org/fhir/us/qicore/StructureDefinition/qicore-observation"]},"status":"final","category":[{"coding":[{"system":"http://terminology.hl7.org/CodeSystem/observation-category","code":"exam","display":"exam","userSelected":true}]}],"code":{"coding":[{"system":"http://snomed.info/sct","code":"18559007"}]},"subject":{"reference":"Patient/c58acff5-248b-49c9-b18d-69e4a84a08d9"},"effectiveDateTime":"2025-06-08T08:00:00.000+00:00"},"request":{"method":"PUT","url":"Observation/86a1b16a-c3bb-4870-9a70-47465f18a8f0"}},{"fullUrl":"https://madie.cms.gov/Encounter/5d014eb2b8484608723805f6","resource":{"resourceType":"Encounter","id":"d9816c81-a99b-4eb5-bf1a-511be7786f66","meta":{"profile":["http://hl7.org/fhir/us/qicore/StructureDefinition/qicore-encounter"]},"status":"finished","class":{"system":"http://terminology.hl7.org/CodeSystem/v3-ActCode","code":"IMP","display":"inpatient encounter"},"type":[{"coding":[{"system":"http://snomed.info/sct","code":"8715000"}]}],"subject":{"reference":"Patient/c58acff5-248b-49c9-b18d-69e4a84a08d9"},"period":{"start":"2025-06-08T08:00:00.000Z","end":"2025-06-10T08:15:00.000Z"},"diagnosis":[{"condition":{"reference":"Condition/delivery-of-singleton-0997"},"use":{"coding":[{"system":"http://snomed.info/sct","code":"169826009","display":"Delivery of Singleton"}]}}]},"request":{"method":"PUT","url":"Encounter/d9816c81-a99b-4eb5-bf1a-511be7786f66"}},{"fullUrl":"https://madie.cms.gov/Procedure/5d014eb2b8484608723805f7","resource":{"resourceType":"Procedure","id":"a2236479-639b-4239-beac-c2f9a371dda7","meta":{"profile":["http://hl7.org/fhir/us/qicore/StructureDefinition/qicore-procedure"]},"extension":[{"url":"http://hl7.org/fhir/us/qicore/StructureDefinition/qicore-recorded","valueDateTime":"2013-04-05T09:35:00-04:00"}],"status":"completed","code":{"coding":[{"system":"http://www.cms.gov/Medicare/Coding/ICD10","code":"10D00Z0"},{"system":"http://www.icd10data.com/icd10pcs","code":"10D00Z0","userSelected":true}]},"subject":{"reference":"Patient/c58acff5-248b-49c9-b18d-69e4a84a08d9"},"performedDateTime":"2025-06-08T20:00:00.000+00:00"},"request":{"method":"PUT","url":"Procedure/a2236479-639b-4239-beac-c2f9a371dda7"}},{"fullUrl":"https://madie.cms.gov/Condition/delivery-of-singleton-0997","resource":{"resourceType":"Condition","id":"8b24fedb-e13b-490e-8f78-e8392c35e5e8","meta":{"profile":["http://hl7.org/fhir/us/qicore/StructureDefinition/qicore-condition"]},"category":[{"coding":[{"system":"http://terminology.hl7.org/CodeSystem/condition-category","code":"encounter-diagnosis","display":"Encounter Diagnosis"}]}],"code":{"coding":[{"system":"http://snomed.info/sct","version":"2022-09","code":"169826009","display":"Single live birth (finding)","userSelected":true}]},"subject":{"reference":"Patient/c58acff5-248b-49c9-b18d-69e4a84a08d9"}},"request":{"method":"PUT","url":"Condition/8b24fedb-e13b-490e-8f78-e8392c35e5e8"}},{"fullUrl":"https://madie.cms.gov/Coverage/1","resource":{"resourceType":"Coverage","id":"083d7441-6049-4df3-ac5a-76f261ea8466","meta":{"profile":["http://hl7.org/fhir/us/qicore/StructureDefinition/qicore-coverage"]},"status":"active","beneficiary":{"reference":"Patient/c58acff5-248b-49c9-b18d-69e4a84a08d9"},"payor":[{"reference":"Organization/024e2731-b045-43bf-80d2-684774c5b51c"}]},"request":{"method":"PUT","url":"Coverage/083d7441-6049-4df3-ac5a-76f261ea8466"}},{"fullUrl":"https://madie.cms.gov/Organization/123456","resource":{"resourceType":"Organization","id":"024e2731-b045-43bf-80d2-684774c5b51c","meta":{"profile":["http://hl7.org/fhir/us/qicore/StructureDefinition/qicore-organization"]},"identifier":[{"use":"temp","system":"urn:oid:2.16.840.1.113883.4.4","value":"21-3259825"}],"active":true,"type":[{"coding":[{"system":"http://terminology.hl7.org/CodeSystem/organization-type","code":"pay","display":"Payer"}]}],"name":"Blue Cross Blue Shield of Texas","telecom":[{"system":"phone","value":"(+1) 972-766-6900"}],"address":[{"use":"billing","type":"postal","line":["P.O. Box 660044"],"city":"Dallas","state":"TX","postalCode":"75266-0044","country":"USA"}]},"request":{"method":"PUT","url":"Organization/024e2731-b045-43bf-80d2-684774c5b51c"}},{"fullUrl":"https://madie.cms.gov/Practitioner/practitioner-123456","resource":{"resourceType":"Practitioner","id":"73dd53de-f43a-43eb-bf7e-1dfd691618dc","identifier":[{"system":"http://hl7.org/fhir/sid/us-npi","value":"123456"}],"name":[{"family":"Evil","prefix":["Dr"]}]},"request":{"method":"PUT","url":"Practitioner/73dd53de-f43a-43eb-bf7e-1dfd691618dc"}},{"fullUrl":"https://madie.cms.gov/Condition/Condition-1","resource":{"resourceType":"Condition","id":"cf78926d-3720-4185-a098-a9c0a25f4503","meta":{"profile":["http://hl7.org/fhir/us/qicore/StructureDefinition/qicore-condition"]},"category":[{"coding":[{"system":"http://terminology.hl7.org/CodeSystem/condition-category","code":"encounter-diagnosis","display":"Encounter Diagnosis"}]}],"code":{"coding":[{"system":"http://snomed.info/sct","code":"169826009","display":"Single live birth (finding)"}]},"subject":{"reference":"Patient/c58acff5-248b-49c9-b18d-69e4a84a08d9"}},"request":{"method":"PUT","url":"Condition/cf78926d-3720-4185-a098-a9c0a25f4503"}},{"fullUrl":"https://madie.cms.gov/MeasureReport/953652ac-256d-4737-8fec-5dd5ff53862a","resource":{"resourceType":"MeasureReport","id":"953652ac-256d-4737-8fec-5dd5ff53862a","meta":{"profile":["http://hl7.org/fhir/us/cqfmeasures/StructureDefinition/test-case-cqfm"]},"contained":[{"resourceType":"Parameters","id":"a798616f-0855-4370-8235-c701eedb9a11-parameters","parameter":[{"name":"subject","valueString":"c58acff5-248b-49c9-b18d-69e4a84a08d9"}]}],"extension":[{"url":"http://hl7.org/fhir/us/cqfmeasures/StructureDefinition/cqfm-inputParameters","valueReference":{"reference":"#a798616f-0855-4370-8235-c701eedb9a11-parameters"}},{"url":"http://hl7.org/fhir/us/cqfmeasures/StructureDefinition/cqfm-testCaseDescription","valueMarkdown":"EGA 43 weeks; Assessment performed Abnormal presentation , gravida 1, \n"}],"modifierExtension":[{"url":"http://hl7.org/fhir/us/cqfmeasures/StructureDefinition/cqfm-isTestCase","valueBoolean":true}],"status":"complete","type":"individual","measure":"https://madie.cms.gov/Measure/CesareanBirthFHIR","period":{"start":"2025-01-01","end":"2025-12-31"},"group":[{"population":[{"code":{"coding":[{"system":"http://terminology.hl7.org/CodeSystem/measure-population","code":"initial-population","display":"Initial Population"}]},"count":1},{"code":{"coding":[{"system":"http://terminology.hl7.org/CodeSystem/measure-population","code":"denominator","display":"Denominator"}]},"count":1},{"code":{"coding":[{"system":"http://terminology.hl7.org/CodeSystem/measure-population","code":"denominator-exclusion","display":"Denominator Exclusion"}]},"count":1},{"code":{"coding":[{"system":"http://terminology.hl7.org/CodeSystem/measure-population","code":"numerator","display":"Numerator"}]},"count":0}]}]},"request":{"method":"PUT","url":"MeasureReport/953652ac-256d-4737-8fec-5dd5ff53862a"}}]}