{"resourceType":"Bundle","id":"tests-75e27496-6999-4aa6-942e-285335503512-bundle","type":"transaction","entry":[{"fullUrl":"https://madie.cms.gov/Patient/75e27496-6999-4aa6-942e-285335503512","resource":{"resourceType":"Patient","id":"75e27496-6999-4aa6-942e-285335503512","meta":{"profile":["http://hl7.org/fhir/us/qicore/StructureDefinition/qicore-patient"]},"text":{"status":"generated","div":"<div xmlns=\"http://www.w3.org/1999/xhtml\"><div class=\"hapiHeaderText\">AssessTerm1 <b>DENFAIL </b></div><table class=\"hapiPropertyTable\"><tbody><tr><td>Identifier</td><td>3d741787aa738fa636b1082e91ae1904963d7b4c579cafa8ea4afffc8342b0a3</td></tr><tr><td>Date of birth</td><td><span>14 February 1985</span></td></tr></tbody></table></div>"},"extension":[{"url":"http://hl7.org/fhir/us/core/StructureDefinition/us-core-race","extension":[{"url":"ombCategory","valueCoding":{"system":"urn:oid:2.16.840.1.113883.6.238","code":"1002-5","display":"American Indian or Alaska Native","userSelected":true}},{"url":"text","valueString":"American Indian or Alaska Native"}]},{"url":"http://hl7.org/fhir/us/core/StructureDefinition/us-core-ethnicity","extension":[{"url":"ombCategory","valueCoding":{"system":"urn:oid:2.16.840.1.113883.6.238","code":"2135-2","display":"Hispanic or Latino","userSelected":true}},{"url":"text","valueString":"Hispanic or Latino"}]}],"identifier":[{"type":{"coding":[{"system":"http://terminology.hl7.org/CodeSystem/v2-0203","code":"MR"}]},"system":"https://bonnie-fhir.healthit.gov/","value":"63487c2d0968f8012254015b"}],"active":true,"name":[{"use":"usual","family":"DENFail","given":["AssessTerm1"]}],"gender":"female","birthDate":"1997-02-14"},"request":{"method":"PUT","url":"Patient/75e27496-6999-4aa6-942e-285335503512"}},{"fullUrl":"https://madie.cms.gov/Observation/5d014eb2b84846087238066c","resource":{"resourceType":"Observation","id":"82bff0ec-0cea-4f16-bc57-4ad6d68800a1","meta":{"profile":["http://hl7.org/fhir/us/qicore/StructureDefinition/qicore-observation"]},"status":"final","category":[{"coding":[{"system":"http://terminology.hl7.org/CodeSystem/observation-category","code":"exam","display":"exam","userSelected":true}]}],"code":{"coding":[{"system":"http://loinc.org","code":"11637-6"}]},"subject":{"reference":"Patient/75e27496-6999-4aa6-942e-285335503512"},"effectiveDateTime":"2024-09-19T09:00:00.000+00:00","valueInteger":0},"request":{"method":"PUT","url":"Observation/82bff0ec-0cea-4f16-bc57-4ad6d68800a1"}},{"fullUrl":"https://madie.cms.gov/Observation/5d014eb2b84846087238066e","resource":{"resourceType":"Observation","id":"c19fe232-9153-4789-8107-d27d87c2e8aa","meta":{"profile":["http://hl7.org/fhir/us/qicore/StructureDefinition/qicore-observation"]},"status":"final","category":[{"coding":[{"system":"http://terminology.hl7.org/CodeSystem/observation-category","code":"exam","display":"exam","userSelected":true}]}],"code":{"coding":[{"system":"http://loinc.org","code":"11639-2"}]},"subject":{"reference":"Patient/75e27496-6999-4aa6-942e-285335503512"},"effectiveDateTime":"2024-09-19T09:00:00.000+00:00","valueInteger":1},"request":{"method":"PUT","url":"Observation/c19fe232-9153-4789-8107-d27d87c2e8aa"}},{"fullUrl":"https://madie.cms.gov/Observation/5d014eb2b848460872380671","resource":{"resourceType":"Observation","id":"bfb5d806-1415-416c-97ec-6e4da0d82a96","meta":{"profile":["http://hl7.org/fhir/us/qicore/StructureDefinition/qicore-observation"]},"status":"final","category":[{"coding":[{"system":"http://terminology.hl7.org/CodeSystem/observation-category","code":"exam","display":"exam","userSelected":true}]}],"code":{"coding":[{"system":"http://loinc.org","code":"11884-4"}]},"subject":{"reference":"Patient/75e27496-6999-4aa6-942e-285335503512"},"effectiveDateTime":"2025-06-08T20:00:00.000+00:00","valueQuantity":{"value":37.0,"system":"http://unitsofmeasure.org","code":"weeks"}},"request":{"method":"PUT","url":"Observation/bfb5d806-1415-416c-97ec-6e4da0d82a96"}},{"fullUrl":"https://madie.cms.gov/Observation/5e6971e67ffec70000322cb9","resource":{"resourceType":"Observation","id":"07bbd402-533c-4c05-ae3f-469b5ff287cb","meta":{"profile":["http://hl7.org/fhir/us/qicore/StructureDefinition/qicore-observation"]},"status":"final","category":[{"coding":[{"system":"http://terminology.hl7.org/CodeSystem/observation-category","code":"exam","display":"exam","userSelected":true}]}],"code":{"coding":[{"system":"http://loinc.org","code":"93857-1"}]},"subject":{"reference":"Patient/75e27496-6999-4aa6-942e-285335503512"},"effectiveDateTime":"2025-06-08T20:00:00.000+00:00","valueDateTime":"2025-06-08T20:00:00+00:00"},"request":{"method":"PUT","url":"Observation/07bbd402-533c-4c05-ae3f-469b5ff287cb"}},{"fullUrl":"https://madie.cms.gov/Encounter/5d014eb2b84846087238066a","resource":{"resourceType":"Encounter","id":"6b04c3bd-7002-4b3c-a85f-86ba099c1c0e","meta":{"profile":["http://hl7.org/fhir/us/qicore/StructureDefinition/qicore-encounter"]},"status":"finished","class":{"system":"http://terminology.hl7.org/CodeSystem/v3-ActCode","code":"IMP","display":"inpatient encounter"},"type":[{"coding":[{"system":"http://snomed.info/sct","code":"8715000"}]}],"subject":{"reference":"Patient/75e27496-6999-4aa6-942e-285335503512"},"period":{"start":"2025-06-08T08:00:00.000Z","end":"2025-06-10T08:15:00.000Z"},"length":{"value":2.0,"unit":"days"},"diagnosis":[{"condition":{"reference":"Condition/delivery-of-singleton-f83c"},"use":{"coding":[{"system":"http://snomed.info/sct","code":"169826009","display":"Delivery of Singleton"}]}},{"condition":{"reference":"Condition/delivery-of-singleton-4b1c"}}]},"request":{"method":"PUT","url":"Encounter/6b04c3bd-7002-4b3c-a85f-86ba099c1c0e"}},{"fullUrl":"https://madie.cms.gov/Procedure/5d014eb2b84846087238066b","resource":{"resourceType":"Procedure","id":"1d51eccf-7f5a-4fe8-a595-4762fa8c4bb6","meta":{"profile":["http://hl7.org/fhir/us/qicore/StructureDefinition/qicore-procedure"]},"extension":[{"url":"http://hl7.org/fhir/us/qicore/StructureDefinition/qicore-recorded","valueDateTime":"2013-04-05T09:35:00-04:00"}],"status":"completed","code":{"coding":[{"system":"http://www.cms.gov/Medicare/Coding/ICD10","code":"10D00Z0"},{"system":"http://snomed.info/sct","code":"4504004"},{"system":"http://www.icd10data.com/icd10pcs","code":"10D00Z0","userSelected":true}]},"subject":{"reference":"Patient/75e27496-6999-4aa6-942e-285335503512"},"performedPeriod":{"start":"2025-06-08T20:00:00.000Z","end":"2025-06-08T20:15:00.000Z"}},"request":{"method":"PUT","url":"Procedure/1d51eccf-7f5a-4fe8-a595-4762fa8c4bb6"}},{"fullUrl":"https://madie.cms.gov/Condition/delivery-of-singleton-4b1c","resource":{"resourceType":"Condition","id":"b6b407cc-8fbe-42f5-a813-b50a38cd9e32","meta":{"profile":["http://hl7.org/fhir/us/qicore/StructureDefinition/qicore-condition"]},"category":[{"coding":[{"system":"http://terminology.hl7.org/CodeSystem/condition-category","code":"encounter-diagnosis","display":"Encounter Diagnosis"}]}],"code":{"coding":[{"system":"http://snomed.info/sct","version":"2022-09","code":"169826009","display":"Single live birth (finding)","userSelected":true}]},"subject":{"reference":"Patient/75e27496-6999-4aa6-942e-285335503512"},"recordedDate":"2025-10-21T08:00:00.000+00:00"},"request":{"method":"PUT","url":"Condition/b6b407cc-8fbe-42f5-a813-b50a38cd9e32"}},{"fullUrl":"https://madie.cms.gov/Coverage/1","resource":{"resourceType":"Coverage","id":"5dc4ba30-84c1-45fb-ad23-4014aa168cf9","meta":{"profile":["http://hl7.org/fhir/us/qicore/StructureDefinition/qicore-coverage"]},"status":"active","beneficiary":{"reference":"Patient/75e27496-6999-4aa6-942e-285335503512"},"payor":[{"reference":"Organization/84b56847-ad40-4bf6-b612-9e42ad2a84e5"}]},"request":{"method":"PUT","url":"Coverage/5dc4ba30-84c1-45fb-ad23-4014aa168cf9"}},{"fullUrl":"https://madie.cms.gov/Organization/123456","resource":{"resourceType":"Organization","id":"84b56847-ad40-4bf6-b612-9e42ad2a84e5","meta":{"profile":["http://hl7.org/fhir/us/qicore/StructureDefinition/qicore-organization"]},"identifier":[{"use":"temp","system":"urn:oid:2.16.840.1.113883.4.4","value":"21-3259825"}],"active":true,"type":[{"coding":[{"system":"http://terminology.hl7.org/CodeSystem/organization-type","code":"pay","display":"Payer"}]}],"name":"Blue Cross Blue Shield of Texas","telecom":[{"system":"phone","value":"(+1) 972-766-6900"}],"address":[{"use":"billing","type":"postal","line":["P.O. Box 660044"],"city":"Dallas","state":"TX","postalCode":"75266-0044","country":"USA"}]},"request":{"method":"PUT","url":"Organization/84b56847-ad40-4bf6-b612-9e42ad2a84e5"}},{"fullUrl":"https://madie.cms.gov/Practitioner/practitioner-123456","resource":{"resourceType":"Practitioner","id":"c7289c0f-8242-4a93-ae84-0612ce35917b","identifier":[{"system":"http://hl7.org/fhir/sid/us-npi","value":"123456"}],"name":[{"family":"Evil","prefix":["Dr"]}]},"request":{"method":"PUT","url":"Practitioner/c7289c0f-8242-4a93-ae84-0612ce35917b"}},{"fullUrl":"https://madie.cms.gov/MeasureReport/4cbf1db3-ee15-4d3b-bc66-0688f9357cf8","resource":{"resourceType":"MeasureReport","id":"4cbf1db3-ee15-4d3b-bc66-0688f9357cf8","meta":{"profile":["http://hl7.org/fhir/us/cqfmeasures/StructureDefinition/test-case-cqfm"]},"contained":[{"resourceType":"Parameters","id":"79c043a0-d0cf-4eee-ad20-a13cc8ed0c6e-parameters","parameter":[{"name":"subject","valueString":"75e27496-6999-4aa6-942e-285335503512"}]}],"extension":[{"url":"http://hl7.org/fhir/us/cqfmeasures/StructureDefinition/cqfm-inputParameters","valueReference":{"reference":"#79c043a0-d0cf-4eee-ad20-a13cc8ed0c6e-parameters"}},{"url":"http://hl7.org/fhir/us/cqfmeasures/StructureDefinition/cqfm-testCaseDescription","valueMarkdown":"\"Term Newborn=1, Relevant Date/time < 42weeks prior to delivery and DENOM fail\nPreterm Births=0, Relevant Date/time < 42weeks prior to delivery\n\"\n"}],"modifierExtension":[{"url":"http://hl7.org/fhir/us/cqfmeasures/StructureDefinition/cqfm-isTestCase","valueBoolean":true}],"status":"complete","type":"individual","measure":"https://madie.cms.gov/Measure/CesareanBirthFHIR","period":{"start":"2025-01-01","end":"2025-12-31"},"group":[{"population":[{"code":{"coding":[{"system":"http://terminology.hl7.org/CodeSystem/measure-population","code":"initial-population","display":"Initial Population"}]},"count":1},{"code":{"coding":[{"system":"http://terminology.hl7.org/CodeSystem/measure-population","code":"denominator","display":"Denominator"}]},"count":0},{"code":{"coding":[{"system":"http://terminology.hl7.org/CodeSystem/measure-population","code":"denominator-exclusion","display":"Denominator Exclusion"}]},"count":0},{"code":{"coding":[{"system":"http://terminology.hl7.org/CodeSystem/measure-population","code":"numerator","display":"Numerator"}]},"count":0}]}]},"request":{"method":"PUT","url":"MeasureReport/4cbf1db3-ee15-4d3b-bc66-0688f9357cf8"}}]}