{"resourceType":"Bundle","id":"tests-fb35958d-f564-47d5-a75f-925b67b22f28-bundle","type":"transaction","entry":[{"fullUrl":"https://madie.cms.gov/Patient/fb35958d-f564-47d5-a75f-925b67b22f28","resource":{"resourceType":"Patient","id":"fb35958d-f564-47d5-a75f-925b67b22f28","meta":{"profile":["http://hl7.org/fhir/us/qicore/StructureDefinition/qicore-patient"]},"text":{"status":"generated","div":"<div xmlns=\"http://www.w3.org/1999/xhtml\"><div class=\"hapiHeaderText\">AssessGATime24HrsB4TimeOfDeliv <b>DENPASS </b></div><table class=\"hapiPropertyTable\"><tbody><tr><td>Identifier</td><td>399eb1d15b18a70b0a1fc126870ee45fba3a6862e3faa339c35b816b8fe113c4</td></tr><tr><td>Date of birth</td><td><span>14 February 1985</span></td></tr></tbody></table></div>"},"extension":[{"url":"http://hl7.org/fhir/us/core/StructureDefinition/us-core-race","extension":[{"url":"ombCategory","valueCoding":{"system":"urn:oid:2.16.840.1.113883.6.238","code":"1002-5","display":"American Indian or Alaska Native","userSelected":true}},{"url":"text","valueString":"American Indian or Alaska Native"}]},{"url":"http://hl7.org/fhir/us/core/StructureDefinition/us-core-ethnicity","extension":[{"url":"ombCategory","valueCoding":{"system":"urn:oid:2.16.840.1.113883.6.238","code":"2135-2","display":"Hispanic or Latino","userSelected":true}},{"url":"text","valueString":"Hispanic or Latino"}]}],"identifier":[{"type":{"coding":[{"system":"http://terminology.hl7.org/CodeSystem/v2-0203","code":"MR"}]},"system":"https://bonnie-fhir.healthit.gov/","value":"63487c2f0968f80122540198"}],"active":true,"name":[{"use":"usual","family":"DENPass","given":["AssessGATime24HrsB4TimeOfDeliv"]}],"gender":"female","birthDate":"1997-02-14"},"request":{"method":"PUT","url":"Patient/fb35958d-f564-47d5-a75f-925b67b22f28"}},{"fullUrl":"https://madie.cms.gov/Observation/5d014eb1b848460872380496","resource":{"resourceType":"Observation","id":"ba2cebf1-2992-4d4e-ba3c-c4aff9720bc2","meta":{"profile":["http://hl7.org/fhir/us/qicore/StructureDefinition/qicore-observation"]},"status":"final","category":[{"coding":[{"system":"http://terminology.hl7.org/CodeSystem/observation-category","code":"exam","display":"exam","userSelected":true}]}],"code":{"coding":[{"system":"http://loinc.org","code":"11884-4"}]},"subject":{"reference":"Patient/fb35958d-f564-47d5-a75f-925b67b22f28"},"effectiveDateTime":"2025-06-07T09:15:00.000+00:00","valueQuantity":{"value":37.0,"system":"http://unitsofmeasure.org","code":"weeks"}},"request":{"method":"PUT","url":"Observation/ba2cebf1-2992-4d4e-ba3c-c4aff9720bc2"}},{"fullUrl":"https://madie.cms.gov/Observation/5d014eb1b848460872380498","resource":{"resourceType":"Observation","id":"980b8230-0711-442f-99bf-e6a8ceeb4a8f","meta":{"profile":["http://hl7.org/fhir/us/qicore/StructureDefinition/qicore-observation"]},"status":"final","category":[{"coding":[{"system":"http://terminology.hl7.org/CodeSystem/observation-category","code":"exam","display":"exam","userSelected":true}]}],"code":{"coding":[{"system":"http://loinc.org","code":"11996-6"}]},"subject":{"reference":"Patient/fb35958d-f564-47d5-a75f-925b67b22f28"},"effectiveDateTime":"2025-06-08T08:00:00.000+00:00","valueInteger":1},"request":{"method":"PUT","url":"Observation/980b8230-0711-442f-99bf-e6a8ceeb4a8f"}},{"fullUrl":"https://madie.cms.gov/Observation/5e6119bdeadaae0000c2b879","resource":{"resourceType":"Observation","id":"33d02e64-9c02-4f0f-a7eb-a32b349b5338","meta":{"profile":["http://hl7.org/fhir/us/qicore/StructureDefinition/qicore-observation"]},"status":"final","category":[{"coding":[{"system":"http://terminology.hl7.org/CodeSystem/observation-category","code":"exam","display":"exam","userSelected":true}]}],"code":{"coding":[{"system":"http://loinc.org","code":"93857-1"}]},"subject":{"reference":"Patient/fb35958d-f564-47d5-a75f-925b67b22f28"},"effectiveDateTime":"2025-06-08T09:15:00.000+00:00","valueDateTime":"2025-06-08T09:15:00+00:00"},"request":{"method":"PUT","url":"Observation/33d02e64-9c02-4f0f-a7eb-a32b349b5338"}},{"fullUrl":"https://madie.cms.gov/Encounter/5d014eb1b848460872380494","resource":{"resourceType":"Encounter","id":"afdbf030-9b71-426a-831e-f8594fa3a87d","meta":{"profile":["http://hl7.org/fhir/us/qicore/StructureDefinition/qicore-encounter"]},"status":"finished","class":{"system":"http://terminology.hl7.org/CodeSystem/v3-ActCode","code":"IMP","display":"inpatient encounter"},"type":[{"coding":[{"system":"http://snomed.info/sct","code":"183452005"}]}],"subject":{"reference":"Patient/fb35958d-f564-47d5-a75f-925b67b22f28"},"period":{"start":"2025-06-08T08:00:00.000Z","end":"2025-06-10T08:15:00.000Z"},"length":{"value":2.0,"unit":"days"},"diagnosis":[{"condition":{"reference":"Condition/delivery-of-singleton-f83c"},"use":{"coding":[{"system":"http://snomed.info/sct","code":"169826009","display":"Delivery of Singleton"}]}}]},"request":{"method":"PUT","url":"Encounter/afdbf030-9b71-426a-831e-f8594fa3a87d"}},{"fullUrl":"https://madie.cms.gov/Coverage/5f5f9e4f1c76ba674bb0336a","resource":{"resourceType":"Coverage","id":"ad182795-c560-466c-ba96-6606c24953f2","status":"active","beneficiary":{"reference":"Patient/fb35958d-f564-47d5-a75f-925b67b22f28"},"period":{"start":"1985-02-14T08:00:00.000Z"},"payor":[{"reference":"Organization/33ead57e-5e04-40e4-95ea-bc3cdbd58917"}]},"request":{"method":"PUT","url":"Coverage/ad182795-c560-466c-ba96-6606c24953f2"}},{"fullUrl":"https://madie.cms.gov/Procedure/5d014eb1b848460872380495","resource":{"resourceType":"Procedure","id":"e42af479-f2c5-42fb-a06c-d23b5b9eee3c","meta":{"profile":["http://hl7.org/fhir/us/qicore/StructureDefinition/qicore-procedure"]},"extension":[{"url":"http://hl7.org/fhir/us/qicore/StructureDefinition/qicore-recorded","valueDateTime":"2013-04-05T09:35:00-04:00"}],"status":"completed","code":{"coding":[{"system":"http://www.cms.gov/Medicare/Coding/ICD10","code":"10D07Z3"},{"system":"http://www.icd10data.com/icd10pcs","code":"10D07Z3","userSelected":true}]},"subject":{"reference":"Patient/fb35958d-f564-47d5-a75f-925b67b22f28"},"performedPeriod":{"start":"2025-06-08T08:00:00.000Z","end":"2025-06-08T09:15:00.000Z"}},"request":{"method":"PUT","url":"Procedure/e42af479-f2c5-42fb-a06c-d23b5b9eee3c"}},{"fullUrl":"https://madie.cms.gov/Condition/delivery-of-singleton-f83c","resource":{"resourceType":"Condition","id":"c4a91767-2d6f-4a4b-ad84-e6d43d207d51","meta":{"profile":["http://hl7.org/fhir/us/qicore/StructureDefinition/qicore-condition"]},"category":[{"coding":[{"system":"http://terminology.hl7.org/CodeSystem/condition-category","code":"encounter-diagnosis","display":"Encounter Diagnosis"}]}],"code":{"coding":[{"system":"http://snomed.info/sct","version":"2022-09","code":"169826009","display":"Single live birth (finding)","userSelected":true}]},"subject":{"reference":"Patient/fb35958d-f564-47d5-a75f-925b67b22f28"},"recordedDate":"2025-10-20T08:00:00.000+00:00"},"request":{"method":"PUT","url":"Condition/c4a91767-2d6f-4a4b-ad84-e6d43d207d51"}},{"fullUrl":"https://madie.cms.gov/Organization/123456","resource":{"resourceType":"Organization","id":"33ead57e-5e04-40e4-95ea-bc3cdbd58917","meta":{"profile":["http://hl7.org/fhir/us/qicore/StructureDefinition/qicore-organization"]},"identifier":[{"use":"temp","system":"urn:oid:2.16.840.1.113883.4.4","value":"21-3259825"}],"active":true,"type":[{"coding":[{"system":"http://terminology.hl7.org/CodeSystem/organization-type","code":"pay","display":"Payer"}]}],"name":"Blue Cross Blue Shield of Texas","telecom":[{"system":"phone","value":"(+1) 972-766-6900"}],"address":[{"use":"billing","type":"postal","line":["P.O. Box 660044"],"city":"Dallas","state":"TX","postalCode":"75266-0044","country":"USA"}]},"request":{"method":"PUT","url":"Organization/33ead57e-5e04-40e4-95ea-bc3cdbd58917"}},{"fullUrl":"https://madie.cms.gov/Practitioner/practitioner-123456","resource":{"resourceType":"Practitioner","id":"06c09cd6-3ef3-44e5-b633-372558bbe01f","identifier":[{"system":"http://hl7.org/fhir/sid/us-npi","value":"123456"}],"name":[{"family":"Evil","prefix":["Dr"]}]},"request":{"method":"PUT","url":"Practitioner/06c09cd6-3ef3-44e5-b633-372558bbe01f"}},{"fullUrl":"https://madie.cms.gov/MeasureReport/374b5862-a17c-4304-b7a5-940f602edb71","resource":{"resourceType":"MeasureReport","id":"374b5862-a17c-4304-b7a5-940f602edb71","meta":{"profile":["http://hl7.org/fhir/us/cqfmeasures/StructureDefinition/test-case-cqfm"]},"contained":[{"resourceType":"Parameters","id":"5ff234d0-5910-4be9-a5de-70037fb57e6b-parameters","parameter":[{"name":"subject","valueString":"fb35958d-f564-47d5-a75f-925b67b22f28"}]}],"extension":[{"url":"http://hl7.org/fhir/us/cqfmeasures/StructureDefinition/cqfm-inputParameters","valueReference":{"reference":"#5ff234d0-5910-4be9-a5de-70037fb57e6b-parameters"}},{"url":"http://hl7.org/fhir/us/cqfmeasures/StructureDefinition/cqfm-testCaseDescription","valueMarkdown":"Passes: IP, Pt is 27 years of age,  encounter dx of delivery of singleton,, EGA @ 37 weeks  24 hours before TmDelivery.  \n"}],"modifierExtension":[{"url":"http://hl7.org/fhir/us/cqfmeasures/StructureDefinition/cqfm-isTestCase","valueBoolean":true}],"status":"complete","type":"individual","measure":"https://madie.cms.gov/Measure/CesareanBirthFHIR","period":{"start":"2025-01-01","end":"2025-12-31"},"group":[{"population":[{"code":{"coding":[{"system":"http://terminology.hl7.org/CodeSystem/measure-population","code":"initial-population","display":"Initial Population"}]},"count":1},{"code":{"coding":[{"system":"http://terminology.hl7.org/CodeSystem/measure-population","code":"denominator","display":"Denominator"}]},"count":1},{"code":{"coding":[{"system":"http://terminology.hl7.org/CodeSystem/measure-population","code":"denominator-exclusion","display":"Denominator Exclusion"}]},"count":0},{"code":{"coding":[{"system":"http://terminology.hl7.org/CodeSystem/measure-population","code":"numerator","display":"Numerator"}]},"count":0}]}]},"request":{"method":"PUT","url":"MeasureReport/374b5862-a17c-4304-b7a5-940f602edb71"}}]}