{"resourceType":"Bundle","id":"tests-848869fc-b6bc-41cb-b441-cfba930e2cc4-bundle","type":"transaction","entry":[{"fullUrl":"https://madie.cms.gov/Patient/848869fc-b6bc-41cb-b441-cfba930e2cc4","resource":{"resourceType":"Patient","id":"848869fc-b6bc-41cb-b441-cfba930e2cc4","meta":{"profile":["http://hl7.org/fhir/us/qicore/StructureDefinition/qicore-patient"]},"text":{"status":"generated","div":"<div xmlns=\"http://www.w3.org/1999/xhtml\"><div class=\"hapiHeaderText\">AssessG1RelDtTimeLTTimeOfDelivRelDtTime <b>DENPASS </b></div><table class=\"hapiPropertyTable\"><tbody><tr><td>Identifier</td><td>919742ce7259ec7b9de1654b5e814cf859dc5253e7d4839ac3b7c6fbe1734140</td></tr><tr><td>Date of birth</td><td><span>14 February 1985</span></td></tr></tbody></table></div>"},"extension":[{"url":"http://hl7.org/fhir/us/core/StructureDefinition/us-core-race","extension":[{"url":"ombCategory","valueCoding":{"system":"urn:oid:2.16.840.1.113883.6.238","code":"1002-5","display":"American Indian or Alaska Native","userSelected":true}},{"url":"text","valueString":"American Indian or Alaska Native"}]},{"url":"http://hl7.org/fhir/us/core/StructureDefinition/us-core-ethnicity","extension":[{"url":"ombCategory","valueCoding":{"system":"urn:oid:2.16.840.1.113883.6.238","code":"2135-2","display":"Hispanic or Latino","userSelected":true}},{"url":"text","valueString":"Hispanic or Latino"}]}],"identifier":[{"type":{"coding":[{"system":"http://terminology.hl7.org/CodeSystem/v2-0203","code":"MR"}]},"system":"https://bonnie-fhir.healthit.gov/","value":"63487c2e0968f80122540179"}],"active":true,"name":[{"use":"usual","family":"DENPass","given":["AssessG1RelDtTimeLTTimeOfDelivRelDtTime"]}],"gender":"female","birthDate":"1997-02-14"},"request":{"method":"PUT","url":"Patient/848869fc-b6bc-41cb-b441-cfba930e2cc4"}},{"fullUrl":"https://madie.cms.gov/Observation/5d014eb2b8484608723805bd","resource":{"resourceType":"Observation","id":"16ce03fa-ced3-40e9-a16a-fd98732e607b","meta":{"profile":["http://hl7.org/fhir/us/qicore/StructureDefinition/qicore-observation"]},"status":"final","category":[{"coding":[{"system":"http://terminology.hl7.org/CodeSystem/observation-category","code":"exam","display":"exam","userSelected":true}]}],"code":{"coding":[{"system":"http://loinc.org","code":"11884-4"}]},"subject":{"reference":"Patient/848869fc-b6bc-41cb-b441-cfba930e2cc4"},"effectiveDateTime":"2025-06-08T09:15:00.000+00:00","valueQuantity":{"value":38.0,"system":"http://unitsofmeasure.org","code":"weeks"}},"request":{"method":"PUT","url":"Observation/16ce03fa-ced3-40e9-a16a-fd98732e607b"}},{"fullUrl":"https://madie.cms.gov/Observation/5d014eb2b8484608723805bf","resource":{"resourceType":"Observation","id":"aa883d45-e537-4e9e-a982-0de9d1106003","meta":{"profile":["http://hl7.org/fhir/us/qicore/StructureDefinition/qicore-observation"]},"status":"final","category":[{"coding":[{"system":"http://terminology.hl7.org/CodeSystem/observation-category","code":"exam","display":"exam","userSelected":true}]}],"code":{"coding":[{"system":"http://loinc.org","code":"11996-6"}]},"subject":{"reference":"Patient/848869fc-b6bc-41cb-b441-cfba930e2cc4"},"effectiveDateTime":"2025-06-08T19:59:00.000+00:00","valueInteger":1},"request":{"method":"PUT","url":"Observation/aa883d45-e537-4e9e-a982-0de9d1106003"}},{"fullUrl":"https://madie.cms.gov/Observation/5e6168813e992300009b7069","resource":{"resourceType":"Observation","id":"bf9bf0c4-dfd7-4785-b583-3da1af83cf5b","meta":{"profile":["http://hl7.org/fhir/us/qicore/StructureDefinition/qicore-observation"]},"status":"final","category":[{"coding":[{"system":"http://terminology.hl7.org/CodeSystem/observation-category","code":"exam","display":"exam","userSelected":true}]}],"code":{"coding":[{"system":"http://loinc.org","code":"93857-1"}]},"subject":{"reference":"Patient/848869fc-b6bc-41cb-b441-cfba930e2cc4"},"effectiveDateTime":"2025-06-08T20:00:00.000+00:00","valueDateTime":"2025-06-08T20:00:00+00:00"},"request":{"method":"PUT","url":"Observation/bf9bf0c4-dfd7-4785-b583-3da1af83cf5b"}},{"fullUrl":"https://madie.cms.gov/Encounter/5d014eb2b8484608723805bb","resource":{"resourceType":"Encounter","id":"ea72736f-0682-4801-9d42-c6a3cdcaa52f","meta":{"profile":["http://hl7.org/fhir/us/qicore/StructureDefinition/qicore-encounter"]},"status":"finished","class":{"system":"http://terminology.hl7.org/CodeSystem/v3-ActCode","code":"IMP","display":"inpatient encounter"},"type":[{"coding":[{"system":"http://snomed.info/sct","code":"183452005"}]}],"subject":{"reference":"Patient/848869fc-b6bc-41cb-b441-cfba930e2cc4"},"period":{"start":"2025-06-08T08:00:00.000Z","end":"2025-06-10T08:15:00.000Z"},"length":{"value":2.0,"unit":"days"},"diagnosis":[{"condition":{"reference":"Condition/delivery-of-singleton-f83c"},"use":{"coding":[{"system":"http://snomed.info/sct","code":"169826009","display":"Delivery of Singleton"}]}},{"condition":{"reference":"Condition/delivery-of-singleton-4d2a"}}]},"request":{"method":"PUT","url":"Encounter/ea72736f-0682-4801-9d42-c6a3cdcaa52f"}},{"fullUrl":"https://madie.cms.gov/Procedure/5d014eb2b8484608723805bc","resource":{"resourceType":"Procedure","id":"9f40b4bb-c489-47b5-aec4-c43ecb1e28be","meta":{"profile":["http://hl7.org/fhir/us/qicore/StructureDefinition/qicore-procedure"]},"extension":[{"url":"http://hl7.org/fhir/us/qicore/StructureDefinition/qicore-recorded","valueDateTime":"2013-04-05T09:35:00-04:00"}],"status":"completed","code":{"coding":[{"system":"http://www.cms.gov/Medicare/Coding/ICD10","code":"10D07Z3"},{"system":"http://www.icd10data.com/icd10pcs","code":"10D07Z3","userSelected":true}]},"subject":{"reference":"Patient/848869fc-b6bc-41cb-b441-cfba930e2cc4"},"performedPeriod":{"start":"2025-06-08T08:10:00.000Z","end":"2025-06-08T09:14:00.000Z"}},"request":{"method":"PUT","url":"Procedure/9f40b4bb-c489-47b5-aec4-c43ecb1e28be"}},{"fullUrl":"https://madie.cms.gov/Condition/delivery-of-singleton-4d2a","resource":{"resourceType":"Condition","id":"1104cfb4-43b0-4a99-8ba2-b7b596f2ea5b","meta":{"profile":["http://hl7.org/fhir/us/qicore/StructureDefinition/qicore-condition"]},"category":[{"coding":[{"system":"http://terminology.hl7.org/CodeSystem/condition-category","code":"encounter-diagnosis","display":"Encounter Diagnosis"}]}],"code":{"coding":[{"system":"http://snomed.info/sct","version":"2022-09","code":"169826009","display":"Single live birth (finding)","userSelected":true}]},"subject":{"reference":"Patient/848869fc-b6bc-41cb-b441-cfba930e2cc4"},"recordedDate":"2025-10-18T08:00:00.000+00:00"},"request":{"method":"PUT","url":"Condition/1104cfb4-43b0-4a99-8ba2-b7b596f2ea5b"}},{"fullUrl":"https://madie.cms.gov/Coverage/1","resource":{"resourceType":"Coverage","id":"20fcff53-3b23-4cd0-b0d6-84ddcb20c3ec","meta":{"profile":["http://hl7.org/fhir/us/qicore/StructureDefinition/qicore-coverage"]},"status":"active","beneficiary":{"reference":"Patient/848869fc-b6bc-41cb-b441-cfba930e2cc4"},"payor":[{"reference":"Organization/84b56847-ad40-4bf6-b612-9e42ad2a84e5"}]},"request":{"method":"PUT","url":"Coverage/20fcff53-3b23-4cd0-b0d6-84ddcb20c3ec"}},{"fullUrl":"https://madie.cms.gov/Organization/123456","resource":{"resourceType":"Organization","id":"84b56847-ad40-4bf6-b612-9e42ad2a84e5","meta":{"profile":["http://hl7.org/fhir/us/qicore/StructureDefinition/qicore-organization"]},"identifier":[{"use":"temp","system":"urn:oid:2.16.840.1.113883.4.4","value":"21-3259825"}],"active":true,"type":[{"coding":[{"system":"http://terminology.hl7.org/CodeSystem/organization-type","code":"pay","display":"Payer"}]}],"name":"Blue Cross Blue Shield of Texas","telecom":[{"system":"phone","value":"(+1) 972-766-6900"}],"address":[{"use":"billing","type":"postal","line":["P.O. Box 660044"],"city":"Dallas","state":"TX","postalCode":"75266-0044","country":"USA"}]},"request":{"method":"PUT","url":"Organization/84b56847-ad40-4bf6-b612-9e42ad2a84e5"}},{"fullUrl":"https://madie.cms.gov/Practitioner/practitioner-123456","resource":{"resourceType":"Practitioner","id":"016797c0-743d-4fad-bbd9-c1d86db88a85","identifier":[{"system":"http://hl7.org/fhir/sid/us-npi","value":"123456"}],"name":[{"family":"Evil","prefix":["Dr"]}]},"request":{"method":"PUT","url":"Practitioner/016797c0-743d-4fad-bbd9-c1d86db88a85"}},{"fullUrl":"https://madie.cms.gov/MeasureReport/cd714a01-85db-4de9-b895-c166d02c8dbf","resource":{"resourceType":"MeasureReport","id":"cd714a01-85db-4de9-b895-c166d02c8dbf","meta":{"profile":["http://hl7.org/fhir/us/cqfmeasures/StructureDefinition/test-case-cqfm"]},"contained":[{"resourceType":"Parameters","id":"76415454-27d5-49a8-886e-2693762c702b-parameters","parameter":[{"name":"subject","valueString":"848869fc-b6bc-41cb-b441-cfba930e2cc4"}]}],"extension":[{"url":"http://hl7.org/fhir/us/cqfmeasures/StructureDefinition/cqfm-inputParameters","valueReference":{"reference":"#76415454-27d5-49a8-886e-2693762c702b-parameters"}},{"url":"http://hl7.org/fhir/us/cqfmeasures/StructureDefinition/cqfm-testCaseDescription","valueMarkdown":"Passes: IP, Pt is 27 years of age,  encounter dx delivery of singleton, gravida=1 rel dt/time before time of delivery time, EGA @ 38 weeks\n"}],"modifierExtension":[{"url":"http://hl7.org/fhir/us/cqfmeasures/StructureDefinition/cqfm-isTestCase","valueBoolean":true}],"status":"complete","type":"individual","measure":"https://madie.cms.gov/Measure/CesareanBirthFHIR","period":{"start":"2025-01-01","end":"2025-12-31"},"group":[{"population":[{"code":{"coding":[{"system":"http://terminology.hl7.org/CodeSystem/measure-population","code":"initial-population","display":"Initial Population"}]},"count":1},{"code":{"coding":[{"system":"http://terminology.hl7.org/CodeSystem/measure-population","code":"denominator","display":"Denominator"}]},"count":1},{"code":{"coding":[{"system":"http://terminology.hl7.org/CodeSystem/measure-population","code":"denominator-exclusion","display":"Denominator Exclusion"}]},"count":0},{"code":{"coding":[{"system":"http://terminology.hl7.org/CodeSystem/measure-population","code":"numerator","display":"Numerator"}]},"count":0}]}]},"request":{"method":"PUT","url":"MeasureReport/cd714a01-85db-4de9-b895-c166d02c8dbf"}}]}