{"resourceType":"Bundle","id":"tests-301cbb39-bf89-40f4-9539-4e1b9eb5e5be-bundle","type":"transaction","entry":[{"fullUrl":"https://madie.cms.gov/Patient/301cbb39-bf89-40f4-9539-4e1b9eb5e5be","resource":{"resourceType":"Patient","id":"301cbb39-bf89-40f4-9539-4e1b9eb5e5be","meta":{"profile":["http://hl7.org/fhir/us/qicore/StructureDefinition/qicore-patient"]},"text":{"status":"generated","div":"<div xmlns=\"http://www.w3.org/1999/xhtml\"><div class=\"hapiHeaderText\">AssessTimeOfDelivRelvDateTimeB4DelivEnc <b>DENFAIL </b></div><table class=\"hapiPropertyTable\"><tbody><tr><td>Identifier</td><td>47c319cd31456047c4f1e1acf1a65c9a687762be9778e0d4061ef15c003314c8</td></tr><tr><td>Date of birth</td><td><span>14 February 1985</span></td></tr></tbody></table></div>"},"extension":[{"url":"http://hl7.org/fhir/us/core/StructureDefinition/us-core-race","extension":[{"url":"ombCategory","valueCoding":{"system":"urn:oid:2.16.840.1.113883.6.238","code":"1002-5","display":"American Indian or Alaska Native","userSelected":true}},{"url":"text","valueString":"American Indian or Alaska Native"}]},{"url":"http://hl7.org/fhir/us/core/StructureDefinition/us-core-ethnicity","extension":[{"url":"ombCategory","valueCoding":{"system":"urn:oid:2.16.840.1.113883.6.238","code":"2135-2","display":"Hispanic or Latino","userSelected":true}},{"url":"text","valueString":"Hispanic or Latino"}]}],"identifier":[{"type":{"coding":[{"system":"http://terminology.hl7.org/CodeSystem/v2-0203","code":"MR"}]},"system":"https://bonnie-fhir.healthit.gov/","value":"63487c2e0968f80122540170"}],"active":true,"name":[{"use":"usual","family":"DENFail","given":["AssessTimeOfDelivRelvDateTimeB4DelivEnc  "]}],"gender":"female","birthDate":"1997-02-14"},"request":{"method":"PUT","url":"Patient/301cbb39-bf89-40f4-9539-4e1b9eb5e5be"}},{"fullUrl":"https://madie.cms.gov/Observation/5d014eb1b848460872380482","resource":{"resourceType":"Observation","id":"fac36978-4449-490e-8d98-47261e6151ec","meta":{"profile":["http://hl7.org/fhir/us/qicore/StructureDefinition/qicore-observation"]},"status":"final","category":[{"coding":[{"system":"http://terminology.hl7.org/CodeSystem/observation-category","code":"exam","display":"exam","userSelected":true}]}],"code":{"coding":[{"system":"http://loinc.org","code":"11996-6"}]},"subject":{"reference":"Patient/301cbb39-bf89-40f4-9539-4e1b9eb5e5be"},"effectiveDateTime":"2025-06-08T08:00:00.000+00:00","valueInteger":1},"request":{"method":"PUT","url":"Observation/fac36978-4449-490e-8d98-47261e6151ec"}},{"fullUrl":"https://madie.cms.gov/Observation/5d014eb1b848460872380484","resource":{"resourceType":"Observation","id":"a509d457-116a-4928-a020-ce7f5f4fd842","meta":{"profile":["http://hl7.org/fhir/us/qicore/StructureDefinition/qicore-observation"]},"status":"final","category":[{"coding":[{"system":"http://terminology.hl7.org/CodeSystem/observation-category","code":"exam","display":"exam","userSelected":true}]}],"code":{"coding":[{"system":"http://loinc.org","code":"11884-4"}]},"subject":{"reference":"Patient/301cbb39-bf89-40f4-9539-4e1b9eb5e5be"},"effectiveDateTime":"2025-06-08T09:15:00.000+00:00","valueQuantity":{"value":38.0,"system":"http://unitsofmeasure.org","code":"weeks"}},"request":{"method":"PUT","url":"Observation/a509d457-116a-4928-a020-ce7f5f4fd842"}},{"fullUrl":"https://madie.cms.gov/Observation/5e69742d7ffec700003231ea","resource":{"resourceType":"Observation","id":"9747fd18-1eb1-40e7-922f-7b7e2a285ef3","meta":{"profile":["http://hl7.org/fhir/us/qicore/StructureDefinition/qicore-observation"]},"status":"final","category":[{"coding":[{"system":"http://terminology.hl7.org/CodeSystem/observation-category","code":"exam","display":"exam","userSelected":true}]}],"code":{"coding":[{"system":"http://loinc.org","code":"93857-1"}]},"subject":{"reference":"Patient/301cbb39-bf89-40f4-9539-4e1b9eb5e5be"},"effectiveDateTime":"2025-06-05T09:15:00.000+00:00","valueDateTime":"2025-06-05T09:15:00+00:00"},"request":{"method":"PUT","url":"Observation/9747fd18-1eb1-40e7-922f-7b7e2a285ef3"}},{"fullUrl":"https://madie.cms.gov/Encounter/5d014eb1b84846087238047f","resource":{"resourceType":"Encounter","id":"9580d019-e4d4-4eff-b9df-e812b06eaed5","meta":{"profile":["http://hl7.org/fhir/us/qicore/StructureDefinition/qicore-encounter"]},"status":"finished","class":{"system":"http://terminology.hl7.org/CodeSystem/v3-ActCode","code":"IMP","display":"inpatient encounter"},"type":[{"coding":[{"system":"http://snomed.info/sct","code":"183452005"}]}],"subject":{"reference":"Patient/301cbb39-bf89-40f4-9539-4e1b9eb5e5be"},"period":{"start":"2025-06-08T08:00:00.000Z","end":"2025-06-10T08:15:00.000Z"},"length":{"value":2.0,"unit":"days"},"diagnosis":[{"condition":{"reference":"Condition/delivery-of-singleton-f83c"},"use":{"coding":[{"system":"http://snomed.info/sct","code":"169826009","display":"Delivery of Singleton"}]}},{"condition":{"reference":"Condition/delivery-of-singleton-4b22"}}]},"request":{"method":"PUT","url":"Encounter/9580d019-e4d4-4eff-b9df-e812b06eaed5"}},{"fullUrl":"https://madie.cms.gov/Procedure/5d014eb1b848460872380480","resource":{"resourceType":"Procedure","id":"a1791d2d-eeac-4bc0-a3dd-f5623f449f39","meta":{"profile":["http://hl7.org/fhir/us/qicore/StructureDefinition/qicore-procedure"]},"extension":[{"url":"http://hl7.org/fhir/us/qicore/StructureDefinition/qicore-recorded","valueDateTime":"2013-04-05T09:35:00-04:00"}],"status":"completed","code":{"coding":[{"system":"http://www.cms.gov/Medicare/Coding/ICD10","code":"10D00Z0"},{"system":"http://www.icd10data.com/icd10pcs","code":"10D00Z0","userSelected":true}]},"subject":{"reference":"Patient/301cbb39-bf89-40f4-9539-4e1b9eb5e5be"},"performedPeriod":{"start":"2025-06-08T08:00:00.000Z","end":"2025-06-08T09:15:00.000Z"}},"request":{"method":"PUT","url":"Procedure/a1791d2d-eeac-4bc0-a3dd-f5623f449f39"}},{"fullUrl":"https://madie.cms.gov/Condition/delivery-of-singleton-4b22","resource":{"resourceType":"Condition","id":"50e01c8f-010d-4d6e-b230-340004508c36","meta":{"profile":["http://hl7.org/fhir/us/qicore/StructureDefinition/qicore-condition"]},"category":[{"coding":[{"system":"http://terminology.hl7.org/CodeSystem/condition-category","code":"encounter-diagnosis","display":"Encounter Diagnosis"}]}],"code":{"coding":[{"system":"http://snomed.info/sct","version":"2022-09","code":"169826009","display":"Single live birth (finding)","userSelected":true}]},"subject":{"reference":"Patient/301cbb39-bf89-40f4-9539-4e1b9eb5e5be"},"recordedDate":"2025-10-21T08:00:00.000+00:00"},"request":{"method":"PUT","url":"Condition/50e01c8f-010d-4d6e-b230-340004508c36"}},{"fullUrl":"https://madie.cms.gov/Coverage/1","resource":{"resourceType":"Coverage","id":"d1127da9-90cb-4966-91c6-ed16601a631a","meta":{"profile":["http://hl7.org/fhir/us/qicore/StructureDefinition/qicore-coverage"]},"status":"active","beneficiary":{"reference":"Patient/301cbb39-bf89-40f4-9539-4e1b9eb5e5be"},"payor":[{"reference":"Organization/42846cc3-1db0-4bf7-b9ff-8b81fa6e835d"}]},"request":{"method":"PUT","url":"Coverage/d1127da9-90cb-4966-91c6-ed16601a631a"}},{"fullUrl":"https://madie.cms.gov/Organization/123456","resource":{"resourceType":"Organization","id":"42846cc3-1db0-4bf7-b9ff-8b81fa6e835d","meta":{"profile":["http://hl7.org/fhir/us/qicore/StructureDefinition/qicore-organization"]},"identifier":[{"use":"temp","system":"urn:oid:2.16.840.1.113883.4.4","value":"21-3259825"}],"active":true,"type":[{"coding":[{"system":"http://terminology.hl7.org/CodeSystem/organization-type","code":"pay","display":"Payer"}]}],"name":"Blue Cross Blue Shield of Texas","telecom":[{"system":"phone","value":"(+1) 972-766-6900"}],"address":[{"use":"billing","type":"postal","line":["P.O. Box 660044"],"city":"Dallas","state":"TX","postalCode":"75266-0044","country":"USA"}]},"request":{"method":"PUT","url":"Organization/42846cc3-1db0-4bf7-b9ff-8b81fa6e835d"}},{"fullUrl":"https://madie.cms.gov/Practitioner/practitioner-123456","resource":{"resourceType":"Practitioner","id":"9ebc7a8d-7071-44c9-a439-3e41aea40476","identifier":[{"system":"http://hl7.org/fhir/sid/us-npi","value":"123456"}],"name":[{"family":"Evil","prefix":["Dr"]}]},"request":{"method":"PUT","url":"Practitioner/9ebc7a8d-7071-44c9-a439-3e41aea40476"}},{"fullUrl":"https://madie.cms.gov/MeasureReport/b143ba17-7373-4f2c-a0e9-69cd52b630b1","resource":{"resourceType":"MeasureReport","id":"b143ba17-7373-4f2c-a0e9-69cd52b630b1","meta":{"profile":["http://hl7.org/fhir/us/cqfmeasures/StructureDefinition/test-case-cqfm"]},"contained":[{"resourceType":"Parameters","id":"3e36e64d-0563-4b6a-bed8-2e44fd62c157-parameters","parameter":[{"name":"subject","valueString":"301cbb39-bf89-40f4-9539-4e1b9eb5e5be"}]}],"extension":[{"url":"http://hl7.org/fhir/us/cqfmeasures/StructureDefinition/cqfm-inputParameters","valueReference":{"reference":"#3e36e64d-0563-4b6a-bed8-2e44fd62c157-parameters"}},{"url":"http://hl7.org/fhir/us/cqfmeasures/StructureDefinition/cqfm-testCaseDescription","valueMarkdown":"Passes: IP, Pt is 27 years of age,  encounter dx of delivery of singleton, gravida, EGA @ 38 weeks, AssessTimeOfDeliv relevantDate B4 DelivEnc.  Tests \"TimeOfDelivery.relevantDatetime during DeliveryEncounters.relevantPeriod\".\n"}],"modifierExtension":[{"url":"http://hl7.org/fhir/us/cqfmeasures/StructureDefinition/cqfm-isTestCase","valueBoolean":true}],"status":"complete","type":"individual","measure":"https://madie.cms.gov/Measure/CesareanBirthFHIR","period":{"start":"2025-01-01","end":"2025-12-31"},"group":[{"population":[{"code":{"coding":[{"system":"http://terminology.hl7.org/CodeSystem/measure-population","code":"initial-population","display":"Initial Population"}]},"count":1},{"code":{"coding":[{"system":"http://terminology.hl7.org/CodeSystem/measure-population","code":"denominator","display":"Denominator"}]},"count":0},{"code":{"coding":[{"system":"http://terminology.hl7.org/CodeSystem/measure-population","code":"denominator-exclusion","display":"Denominator Exclusion"}]},"count":0},{"code":{"coding":[{"system":"http://terminology.hl7.org/CodeSystem/measure-population","code":"numerator","display":"Numerator"}]},"count":0}]}]},"request":{"method":"PUT","url":"MeasureReport/b143ba17-7373-4f2c-a0e9-69cd52b630b1"}}]}