{"resourceType":"Bundle","id":"tests-f2b2fe3f-ad3c-42ae-b262-73345ec66e07-bundle","type":"transaction","entry":[{"fullUrl":"https://madie.cms.gov/Patient/f2b2fe3f-ad3c-42ae-b262-73345ec66e07","resource":{"resourceType":"Patient","id":"f2b2fe3f-ad3c-42ae-b262-73345ec66e07","meta":{"profile":["http://hl7.org/fhir/us/qicore/StructureDefinition/qicore-patient"]},"text":{"status":"generated","div":"<div xmlns=\"http://www.w3.org/1999/xhtml\"><div class=\"hapiHeaderText\">ParityIsNull <b>DENFAIL </b></div><table class=\"hapiPropertyTable\"><tbody><tr><td>Identifier</td><td>6ececc78b054b42e74f2c884abc3eae32b6222330de6218ca3ca8a067bf56447</td></tr><tr><td>Date of birth</td><td><span>14 February 1985</span></td></tr></tbody></table></div>"},"extension":[{"url":"http://hl7.org/fhir/us/core/StructureDefinition/us-core-race","extension":[{"url":"ombCategory","valueCoding":{"system":"urn:oid:2.16.840.1.113883.6.238","code":"1002-5","display":"American Indian or Alaska Native","userSelected":true}},{"url":"text","valueString":"American Indian or Alaska Native"}]},{"url":"http://hl7.org/fhir/us/core/StructureDefinition/us-core-ethnicity","extension":[{"url":"ombCategory","valueCoding":{"system":"urn:oid:2.16.840.1.113883.6.238","code":"2135-2","display":"Hispanic or Latino","userSelected":true}},{"url":"text","valueString":"Hispanic or Latino"}]}],"identifier":[{"type":{"coding":[{"system":"http://terminology.hl7.org/CodeSystem/v2-0203","code":"MR"}]},"system":"https://bonnie-fhir.healthit.gov/","value":"63487c2e0968f80122540177"}],"active":true,"name":[{"use":"usual","family":"DENFail","given":["ParityIsNull"]}],"gender":"female","birthDate":"1997-02-14"},"request":{"method":"PUT","url":"Patient/f2b2fe3f-ad3c-42ae-b262-73345ec66e07"}},{"fullUrl":"https://madie.cms.gov/Observation/5d014eb2b8484608723805aa","resource":{"resourceType":"Observation","id":"4ed2a154-bbfa-412a-a499-55dc4f9392ff","meta":{"profile":["http://hl7.org/fhir/us/qicore/StructureDefinition/qicore-observation"]},"status":"final","category":[{"coding":[{"system":"http://terminology.hl7.org/CodeSystem/observation-category","code":"exam","display":"exam","userSelected":true}]}],"code":{"coding":[{"system":"http://loinc.org","code":"11977-6"}]},"subject":{"reference":"Patient/f2b2fe3f-ad3c-42ae-b262-73345ec66e07"},"effectiveDateTime":"2025-03-08T09:00:00.000+00:00"},"request":{"method":"PUT","url":"Observation/4ed2a154-bbfa-412a-a499-55dc4f9392ff"}},{"fullUrl":"https://madie.cms.gov/Observation/5d014eb2b8484608723805ab","resource":{"resourceType":"Observation","id":"bb5c3000-6590-4b0a-baf2-18220e4cf1db","meta":{"profile":["http://hl7.org/fhir/us/qicore/StructureDefinition/qicore-observation"]},"status":"final","category":[{"coding":[{"system":"http://terminology.hl7.org/CodeSystem/observation-category","code":"exam","display":"exam","userSelected":true}]}],"code":{"coding":[{"system":"http://loinc.org","code":"11884-4"}]},"subject":{"reference":"Patient/f2b2fe3f-ad3c-42ae-b262-73345ec66e07"},"effectiveDateTime":"2025-06-08T08:00:00.000+00:00","valueQuantity":{"value":37.0,"system":"http://unitsofmeasure.org","code":"weeks"}},"request":{"method":"PUT","url":"Observation/bb5c3000-6590-4b0a-baf2-18220e4cf1db"}},{"fullUrl":"https://madie.cms.gov/Observation/5e6957ea7ffec70000320b84","resource":{"resourceType":"Observation","id":"3b8effcf-6cad-41a8-8fed-de87c4818de8","meta":{"profile":["http://hl7.org/fhir/us/qicore/StructureDefinition/qicore-observation"]},"status":"final","category":[{"coding":[{"system":"http://terminology.hl7.org/CodeSystem/observation-category","code":"exam","display":"exam","userSelected":true}]}],"code":{"coding":[{"system":"http://loinc.org","code":"93857-1"}]},"subject":{"reference":"Patient/f2b2fe3f-ad3c-42ae-b262-73345ec66e07"},"effectiveDateTime":"2025-06-08T20:00:00.000+00:00","valueDateTime":"2025-06-08T20:00:00+00:00"},"request":{"method":"PUT","url":"Observation/3b8effcf-6cad-41a8-8fed-de87c4818de8"}},{"fullUrl":"https://madie.cms.gov/Encounter/5d014eb2b8484608723805a8","resource":{"resourceType":"Encounter","id":"abf922fd-d64b-4359-a837-293e0d774fad","meta":{"profile":["http://hl7.org/fhir/us/qicore/StructureDefinition/qicore-encounter"]},"status":"finished","class":{"system":"http://terminology.hl7.org/CodeSystem/v3-ActCode","code":"IMP","display":"inpatient encounter"},"type":[{"coding":[{"system":"http://snomed.info/sct","code":"8715000"}]}],"subject":{"reference":"Patient/f2b2fe3f-ad3c-42ae-b262-73345ec66e07"},"period":{"start":"2025-06-08T08:00:00.000Z","end":"2025-06-10T08:15:00.000Z"},"length":{"value":2.0,"unit":"days"},"diagnosis":[{"condition":{"reference":"Condition/delivery-of-singleton-f83c"},"use":{"coding":[{"system":"http://snomed.info/sct","code":"169826009","display":"Delivery of Singleton"}]}},{"condition":{"reference":"Condition/delivery-of-singleton-4b30"}}]},"request":{"method":"PUT","url":"Encounter/abf922fd-d64b-4359-a837-293e0d774fad"}},{"fullUrl":"https://madie.cms.gov/Procedure/5d014eb2b8484608723805a9","resource":{"resourceType":"Procedure","id":"f9ca5000-d640-4948-8fb9-56a4f41a0ca2","meta":{"profile":["http://hl7.org/fhir/us/qicore/StructureDefinition/qicore-procedure"]},"extension":[{"url":"http://hl7.org/fhir/us/qicore/StructureDefinition/qicore-recorded","valueDateTime":"2013-04-05T09:35:00-04:00"}],"status":"completed","code":{"coding":[{"system":"http://www.cms.gov/Medicare/Coding/ICD10","code":"10D00Z0"},{"system":"http://snomed.info/sct","code":"4504004"},{"system":"http://www.icd10data.com/icd10pcs","code":"10D00Z0","userSelected":true}]},"subject":{"reference":"Patient/f2b2fe3f-ad3c-42ae-b262-73345ec66e07"},"performedPeriod":{"start":"2025-06-08T20:00:00.000Z","end":"2025-06-08T20:15:00.000Z"}},"request":{"method":"PUT","url":"Procedure/f9ca5000-d640-4948-8fb9-56a4f41a0ca2"}},{"fullUrl":"https://madie.cms.gov/Condition/delivery-of-singleton-4b30","resource":{"resourceType":"Condition","id":"651a266f-8eb9-4db9-9215-11ac89f7fa93","meta":{"profile":["http://hl7.org/fhir/us/qicore/StructureDefinition/qicore-condition"]},"category":[{"coding":[{"system":"http://terminology.hl7.org/CodeSystem/condition-category","code":"encounter-diagnosis","display":"Encounter Diagnosis"}]}],"code":{"coding":[{"system":"http://snomed.info/sct","version":"2022-09","code":"169826009","display":"Single live birth (finding)","userSelected":true}]},"subject":{"reference":"Patient/f2b2fe3f-ad3c-42ae-b262-73345ec66e07"},"recordedDate":"2025-10-21T08:00:00.000+00:00"},"request":{"method":"PUT","url":"Condition/651a266f-8eb9-4db9-9215-11ac89f7fa93"}},{"fullUrl":"https://madie.cms.gov/Coverage/1","resource":{"resourceType":"Coverage","id":"45c73f47-055a-4a5d-afc2-d684f55fc8b4","meta":{"profile":["http://hl7.org/fhir/us/qicore/StructureDefinition/qicore-coverage"]},"status":"active","beneficiary":{"reference":"Patient/f2b2fe3f-ad3c-42ae-b262-73345ec66e07"},"payor":[{"reference":"Organization/84b56847-ad40-4bf6-b612-9e42ad2a84e5"}]},"request":{"method":"PUT","url":"Coverage/45c73f47-055a-4a5d-afc2-d684f55fc8b4"}},{"fullUrl":"https://madie.cms.gov/Organization/123456","resource":{"resourceType":"Organization","id":"84b56847-ad40-4bf6-b612-9e42ad2a84e5","meta":{"profile":["http://hl7.org/fhir/us/qicore/StructureDefinition/qicore-organization"]},"identifier":[{"use":"temp","system":"urn:oid:2.16.840.1.113883.4.4","value":"21-3259825"}],"active":true,"type":[{"coding":[{"system":"http://terminology.hl7.org/CodeSystem/organization-type","code":"pay","display":"Payer"}]}],"name":"Blue Cross Blue Shield of Texas","telecom":[{"system":"phone","value":"(+1) 972-766-6900"}],"address":[{"use":"billing","type":"postal","line":["P.O. Box 660044"],"city":"Dallas","state":"TX","postalCode":"75266-0044","country":"USA"}]},"request":{"method":"PUT","url":"Organization/84b56847-ad40-4bf6-b612-9e42ad2a84e5"}},{"fullUrl":"https://madie.cms.gov/Practitioner/practitioner-123456","resource":{"resourceType":"Practitioner","id":"2874c8e9-70a8-45e8-8166-cfeda308a94a","identifier":[{"system":"http://hl7.org/fhir/sid/us-npi","value":"123456"}],"name":[{"family":"Evil","prefix":["Dr"]}]},"request":{"method":"PUT","url":"Practitioner/2874c8e9-70a8-45e8-8166-cfeda308a94a"}},{"fullUrl":"https://madie.cms.gov/MeasureReport/767f3e25-c417-4bcb-95a5-aa3aab96b63f","resource":{"resourceType":"MeasureReport","id":"767f3e25-c417-4bcb-95a5-aa3aab96b63f","meta":{"profile":["http://hl7.org/fhir/us/cqfmeasures/StructureDefinition/test-case-cqfm"]},"contained":[{"resourceType":"Parameters","id":"2b065cbc-e187-4571-ad66-ad39d92a5d51-parameters","parameter":[{"name":"subject","valueString":"f2b2fe3f-ad3c-42ae-b262-73345ec66e07"}]}],"extension":[{"url":"http://hl7.org/fhir/us/cqfmeasures/StructureDefinition/cqfm-inputParameters","valueReference":{"reference":"#2b065cbc-e187-4571-ad66-ad39d92a5d51-parameters"}},{"url":"http://hl7.org/fhir/us/cqfmeasures/StructureDefinition/cqfm-testCaseDescription","valueMarkdown":"Passes IP,   Parity is Null, Gravida, Preterm/Term Births are not populated\n"}],"modifierExtension":[{"url":"http://hl7.org/fhir/us/cqfmeasures/StructureDefinition/cqfm-isTestCase","valueBoolean":true}],"status":"complete","type":"individual","measure":"https://madie.cms.gov/Measure/CesareanBirthFHIR","period":{"start":"2025-01-01","end":"2025-12-31"},"group":[{"population":[{"code":{"coding":[{"system":"http://terminology.hl7.org/CodeSystem/measure-population","code":"initial-population","display":"Initial Population"}]},"count":1},{"code":{"coding":[{"system":"http://terminology.hl7.org/CodeSystem/measure-population","code":"denominator","display":"Denominator"}]},"count":0},{"code":{"coding":[{"system":"http://terminology.hl7.org/CodeSystem/measure-population","code":"denominator-exclusion","display":"Denominator Exclusion"}]},"count":0},{"code":{"coding":[{"system":"http://terminology.hl7.org/CodeSystem/measure-population","code":"numerator","display":"Numerator"}]},"count":0}]}]},"request":{"method":"PUT","url":"MeasureReport/767f3e25-c417-4bcb-95a5-aa3aab96b63f"}}]}