{"resourceType":"Bundle","id":"tests-20bb7712-ab47-4505-bfbf-5bebe074afa2-bundle","type":"transaction","entry":[{"fullUrl":"https://madie.cms.gov/Patient/20bb7712-ab47-4505-bfbf-5bebe074afa2","resource":{"resourceType":"Patient","id":"20bb7712-ab47-4505-bfbf-5bebe074afa2","meta":{"profile":["http://hl7.org/fhir/us/qicore/StructureDefinition/qicore-patient"]},"text":{"status":"generated","div":"<div xmlns=\"http://www.w3.org/1999/xhtml\"><div class=\"hapiHeaderText\">AssessParity1Gravida2 <b>DENFAIL </b></div><table class=\"hapiPropertyTable\"><tbody><tr><td>Identifier</td><td>e960a66b595990cb41cd1209fad2cf00</td></tr><tr><td>Date of birth</td><td><span>14 February 1985</span></td></tr></tbody></table></div>"},"extension":[{"url":"http://hl7.org/fhir/us/core/StructureDefinition/us-core-race","extension":[{"url":"ombCategory","valueCoding":{"system":"urn:oid:2.16.840.1.113883.6.238","code":"1002-5","display":"American Indian or Alaska Native","userSelected":true}},{"url":"text","valueString":"American Indian or Alaska Native"}]},{"url":"http://hl7.org/fhir/us/core/StructureDefinition/us-core-ethnicity","extension":[{"url":"ombCategory","valueCoding":{"system":"urn:oid:2.16.840.1.113883.6.238","code":"2135-2","display":"Hispanic or Latino","userSelected":true}},{"url":"text","valueString":"Hispanic or Latino"}]}],"identifier":[{"type":{"coding":[{"system":"http://terminology.hl7.org/CodeSystem/v2-0203","code":"MR"}]},"system":"https://bonnie-fhir.healthit.gov/","value":"63487c2d0968f80122540144"}],"active":true,"name":[{"use":"usual","family":"DENFail","given":["AssessParity1Gravida2"]}],"gender":"female","birthDate":"1997-02-14"},"request":{"method":"PUT","url":"Patient/20bb7712-ab47-4505-bfbf-5bebe074afa2"}},{"fullUrl":"https://madie.cms.gov/Observation/5d014eb0b848460872380454","resource":{"resourceType":"Observation","id":"be38b942-24ba-449f-9d1c-f01f12dfe379","meta":{"profile":["http://hl7.org/fhir/us/qicore/StructureDefinition/qicore-observation"]},"status":"final","category":[{"coding":[{"system":"http://terminology.hl7.org/CodeSystem/observation-category","code":"exam","display":"exam","userSelected":true}]}],"code":{"coding":[{"system":"http://loinc.org","code":"11977-6"}]},"subject":{"reference":"Patient/20bb7712-ab47-4505-bfbf-5bebe074afa2"},"effectiveDateTime":"2025-03-08T09:00:00.000+00:00","valueInteger":1},"request":{"method":"PUT","url":"Observation/be38b942-24ba-449f-9d1c-f01f12dfe379"}},{"fullUrl":"https://madie.cms.gov/Observation/5d014eb0b848460872380456","resource":{"resourceType":"Observation","id":"d49a7fa5-b4ea-4e38-8859-334f2c98913d","meta":{"profile":["http://hl7.org/fhir/us/qicore/StructureDefinition/qicore-observation"]},"status":"final","category":[{"coding":[{"system":"http://terminology.hl7.org/CodeSystem/observation-category","code":"exam","display":"exam","userSelected":true}]}],"code":{"coding":[{"system":"http://loinc.org","code":"11996-6"}]},"subject":{"reference":"Patient/20bb7712-ab47-4505-bfbf-5bebe074afa2"},"effectiveDateTime":"2025-03-09T08:00:00.000+00:00","valueInteger":0},"request":{"method":"PUT","url":"Observation/d49a7fa5-b4ea-4e38-8859-334f2c98913d"}},{"fullUrl":"https://madie.cms.gov/Observation/5d014eb0b848460872380459","resource":{"resourceType":"Observation","id":"08f0d7cc-b788-4518-bfeb-7912a74c7c2b","meta":{"profile":["http://hl7.org/fhir/us/qicore/StructureDefinition/qicore-observation"]},"status":"final","category":[{"coding":[{"system":"http://terminology.hl7.org/CodeSystem/observation-category","code":"exam","display":"exam","userSelected":true}]}],"code":{"coding":[{"system":"http://loinc.org","code":"11884-4"}]},"subject":{"reference":"Patient/20bb7712-ab47-4505-bfbf-5bebe074afa2"},"effectiveDateTime":"2025-06-08T21:00:00.000+00:00","valueQuantity":{"value":38.0,"system":"http://unitsofmeasure.org","code":"weeks"}},"request":{"method":"PUT","url":"Observation/08f0d7cc-b788-4518-bfeb-7912a74c7c2b"}},{"fullUrl":"https://madie.cms.gov/Observation/5e6962c27ffec700003212b2","resource":{"resourceType":"Observation","id":"227202ad-d2cd-4044-a2b3-515782653eb5","meta":{"profile":["http://hl7.org/fhir/us/qicore/StructureDefinition/qicore-observation"]},"status":"final","category":[{"coding":[{"system":"http://terminology.hl7.org/CodeSystem/observation-category","code":"exam","display":"exam","userSelected":true}]}],"code":{"coding":[{"system":"http://loinc.org","code":"93857-1"}]},"subject":{"reference":"Patient/20bb7712-ab47-4505-bfbf-5bebe074afa2"},"effectiveDateTime":"2025-06-08T21:00:00.000+00:00","valueDateTime":"2025-06-08T21:00:00+00:00"},"request":{"method":"PUT","url":"Observation/227202ad-d2cd-4044-a2b3-515782653eb5"}},{"fullUrl":"https://madie.cms.gov/Encounter/5d014eb0b848460872380452","resource":{"resourceType":"Encounter","id":"cda71e4f-7f7e-447a-94b6-fb23330bcac4","meta":{"profile":["http://hl7.org/fhir/us/qicore/StructureDefinition/qicore-encounter"]},"status":"finished","class":{"system":"http://terminology.hl7.org/CodeSystem/v3-ActCode","code":"IMP","display":"inpatient encounter"},"type":[{"coding":[{"system":"http://snomed.info/sct","code":"8715000"}]}],"subject":{"reference":"Patient/20bb7712-ab47-4505-bfbf-5bebe074afa2"},"period":{"start":"2025-06-08T08:00:00.000Z","end":"2025-06-10T08:15:00.000Z"},"length":{"value":2.0,"unit":"days"},"diagnosis":[{"condition":{"reference":"Condition/delivery-of-singleton-f83c"},"use":{"coding":[{"system":"http://snomed.info/sct","code":"169826009","display":"Single live birth (finding)"}]}},{"condition":{"reference":"Condition/delivery-of-singleton-4b0d"}}]},"request":{"method":"PUT","url":"Encounter/cda71e4f-7f7e-447a-94b6-fb23330bcac4"}},{"fullUrl":"https://madie.cms.gov/Procedure/5d014eb0b848460872380453","resource":{"resourceType":"Procedure","id":"9fbad8ec-a123-4a27-828d-1dc32d55360f","meta":{"profile":["http://hl7.org/fhir/us/qicore/StructureDefinition/qicore-procedure"]},"extension":[{"url":"http://hl7.org/fhir/us/qicore/StructureDefinition/qicore-recorded","valueDateTime":"2013-04-05T09:35:00-04:00"}],"status":"completed","code":{"coding":[{"system":"http://snomed.info/sct","code":"4504004"}]},"subject":{"reference":"Patient/20bb7712-ab47-4505-bfbf-5bebe074afa2"},"performedPeriod":{"start":"2025-06-08T20:00:00.000Z","end":"2025-06-08T21:15:00.000Z"}},"request":{"method":"PUT","url":"Procedure/9fbad8ec-a123-4a27-828d-1dc32d55360f"}},{"fullUrl":"https://madie.cms.gov/Condition/delivery-of-singleton-4b0d","resource":{"resourceType":"Condition","id":"97b3921f-4142-47fc-b009-4553b61260fd","meta":{"profile":["http://hl7.org/fhir/us/qicore/StructureDefinition/qicore-condition"]},"category":[{"coding":[{"system":"http://terminology.hl7.org/CodeSystem/condition-category","code":"encounter-diagnosis","display":"Encounter Diagnosis"}]}],"code":{"coding":[{"system":"http://snomed.info/sct","version":"2022-09","code":"169826009","display":"Single live birth (finding)","userSelected":true}]},"subject":{"reference":"Patient/20bb7712-ab47-4505-bfbf-5bebe074afa2"},"recordedDate":"2025-10-21T08:00:00.000+00:00"},"request":{"method":"PUT","url":"Condition/97b3921f-4142-47fc-b009-4553b61260fd"}},{"fullUrl":"https://madie.cms.gov/Coverage/1","resource":{"resourceType":"Coverage","id":"70cf2188-d7a3-4d33-93aa-55b122a6342f","meta":{"profile":["http://hl7.org/fhir/us/qicore/StructureDefinition/qicore-coverage"]},"status":"active","beneficiary":{"reference":"Patient/20bb7712-ab47-4505-bfbf-5bebe074afa2"},"payor":[{"reference":"Organization/80573fa1-cf83-4e9a-8f21-86a018689678"}]},"request":{"method":"PUT","url":"Coverage/70cf2188-d7a3-4d33-93aa-55b122a6342f"}},{"fullUrl":"https://madie.cms.gov/Organization/123456","resource":{"resourceType":"Organization","id":"80573fa1-cf83-4e9a-8f21-86a018689678","meta":{"profile":["http://hl7.org/fhir/us/qicore/StructureDefinition/qicore-organization"]},"identifier":[{"use":"temp","system":"urn:oid:2.16.840.1.113883.4.4","value":"21-3259825"}],"active":true,"type":[{"coding":[{"system":"http://terminology.hl7.org/CodeSystem/organization-type","code":"pay","display":"Payer"}]}],"name":"Blue Cross Blue Shield of Texas","telecom":[{"system":"phone","value":"(+1) 972-766-6900"}],"address":[{"use":"billing","type":"postal","line":["P.O. Box 660044"],"city":"Dallas","state":"TX","postalCode":"75266-0044","country":"USA"}]},"request":{"method":"PUT","url":"Organization/80573fa1-cf83-4e9a-8f21-86a018689678"}},{"fullUrl":"https://madie.cms.gov/Practitioner/practitioner-123456","resource":{"resourceType":"Practitioner","id":"d2f5401e-2195-4ec0-813d-6e3a68db9a3f","identifier":[{"system":"http://hl7.org/fhir/sid/us-npi","value":"123456"}],"name":[{"family":"Evil","prefix":["Dr"]}]},"request":{"method":"PUT","url":"Practitioner/d2f5401e-2195-4ec0-813d-6e3a68db9a3f"}},{"fullUrl":"https://madie.cms.gov/MeasureReport/c7e4bf5e-d17b-4bba-9e24-2c0286e940b6","resource":{"resourceType":"MeasureReport","id":"c7e4bf5e-d17b-4bba-9e24-2c0286e940b6","meta":{"profile":["http://hl7.org/fhir/us/cqfmeasures/StructureDefinition/test-case-cqfm"]},"contained":[{"resourceType":"Parameters","id":"85df5c47-635c-4b3d-aede-b6e6531df905-parameters","parameter":[{"name":"subject","valueString":"20bb7712-ab47-4505-bfbf-5bebe074afa2"}]}],"extension":[{"url":"http://hl7.org/fhir/us/cqfmeasures/StructureDefinition/cqfm-inputParameters","valueReference":{"reference":"#85df5c47-635c-4b3d-aede-b6e6531df905-parameters"}},{"url":"http://hl7.org/fhir/us/cqfmeasures/StructureDefinition/cqfm-testCaseDescription","valueMarkdown":"Pass IP,  Parity 1 (not nulliparous), gravida 2.  This test case shows a potential problem with the concepts present in the Delivery Procedures value set. I believe this value set would be used when the delivery procedure was not a cesarean section.\n"}],"modifierExtension":[{"url":"http://hl7.org/fhir/us/cqfmeasures/StructureDefinition/cqfm-isTestCase","valueBoolean":true}],"status":"complete","type":"individual","measure":"https://madie.cms.gov/Measure/CesareanBirthFHIR","period":{"start":"2025-01-01","end":"2025-12-31"},"group":[{"population":[{"code":{"coding":[{"system":"http://terminology.hl7.org/CodeSystem/measure-population","code":"initial-population","display":"Initial Population"}]},"count":1},{"code":{"coding":[{"system":"http://terminology.hl7.org/CodeSystem/measure-population","code":"denominator","display":"Denominator"}]},"count":0},{"code":{"coding":[{"system":"http://terminology.hl7.org/CodeSystem/measure-population","code":"denominator-exclusion","display":"Denominator Exclusion"}]},"count":0},{"code":{"coding":[{"system":"http://terminology.hl7.org/CodeSystem/measure-population","code":"numerator","display":"Numerator"}]},"count":0}]}]},"request":{"method":"PUT","url":"MeasureReport/c7e4bf5e-d17b-4bba-9e24-2c0286e940b6"}}]}