{"resourceType":"Bundle","id":"tests-f247e141-7e9f-42ec-bef2-869e381ea00d-bundle","type":"transaction","entry":[{"fullUrl":"https://madie.cms.gov/Patient/f247e141-7e9f-42ec-bef2-869e381ea00d","resource":{"resourceType":"Patient","id":"f247e141-7e9f-42ec-bef2-869e381ea00d","meta":{"profile":["http://hl7.org/fhir/us/qicore/StructureDefinition/qicore-patient"]},"text":{"status":"generated","div":"<div xmlns=\"http://www.w3.org/1999/xhtml\"><div class=\"hapiHeaderText\">ProcCsectButVagDelCode <b>NUMPASS </b></div><table class=\"hapiPropertyTable\"><tbody><tr><td>Identifier</td><td>8b7a8f99f3e1839b490bb3076b6cc0feec17e2d3d2b6db6ff89c3711196a7db2</td></tr><tr><td>Date of birth</td><td><span>14 February 1985</span></td></tr></tbody></table></div>"},"extension":[{"url":"http://hl7.org/fhir/us/core/StructureDefinition/us-core-race","extension":[{"url":"ombCategory","valueCoding":{"system":"urn:oid:2.16.840.1.113883.6.238","code":"1002-5","display":"American Indian or Alaska Native","userSelected":true}},{"url":"text","valueString":"American Indian or Alaska Native"}]},{"url":"http://hl7.org/fhir/us/core/StructureDefinition/us-core-ethnicity","extension":[{"url":"ombCategory","valueCoding":{"system":"urn:oid:2.16.840.1.113883.6.238","code":"2135-2","display":"Hispanic or Latino","userSelected":true}},{"url":"text","valueString":"Hispanic or Latino"}]}],"identifier":[{"type":{"coding":[{"system":"http://terminology.hl7.org/CodeSystem/v2-0203","code":"MR"}]},"system":"https://bonnie-fhir.healthit.gov/","value":"63487c2d0968f80122540164"}],"active":true,"name":[{"use":"usual","family":"NUMPass","given":["ProcCsectButVagDelCode"]}],"gender":"female","birthDate":"1997-02-14"},"request":{"method":"PUT","url":"Patient/f247e141-7e9f-42ec-bef2-869e381ea00d"}},{"fullUrl":"https://madie.cms.gov/Observation/5d014eb1b848460872380546","resource":{"resourceType":"Observation","id":"6ed4968d-6a50-40e3-8ef7-fb260e140f33","meta":{"profile":["http://hl7.org/fhir/us/qicore/StructureDefinition/qicore-observation"]},"status":"final","category":[{"coding":[{"system":"http://terminology.hl7.org/CodeSystem/observation-category","code":"exam","display":"exam","userSelected":true}]}],"code":{"coding":[{"system":"http://loinc.org","code":"11977-6"}]},"subject":{"reference":"Patient/f247e141-7e9f-42ec-bef2-869e381ea00d"},"effectiveDateTime":"2025-03-08T09:00:00.000+00:00","valueInteger":0},"request":{"method":"PUT","url":"Observation/6ed4968d-6a50-40e3-8ef7-fb260e140f33"}},{"fullUrl":"https://madie.cms.gov/Observation/5d014eb1b848460872380548","resource":{"resourceType":"Observation","id":"00acb55c-7bde-4747-b071-82dec152a6a9","meta":{"profile":["http://hl7.org/fhir/us/qicore/StructureDefinition/qicore-observation"]},"status":"final","category":[{"coding":[{"system":"http://terminology.hl7.org/CodeSystem/observation-category","code":"exam","display":"exam","userSelected":true}]}],"code":{"coding":[{"system":"http://loinc.org","code":"11996-6"}]},"subject":{"reference":"Patient/f247e141-7e9f-42ec-bef2-869e381ea00d"},"effectiveDateTime":"2025-03-09T08:00:00.000+00:00","valueInteger":1},"request":{"method":"PUT","url":"Observation/00acb55c-7bde-4747-b071-82dec152a6a9"}},{"fullUrl":"https://madie.cms.gov/Observation/5d014eb1b84846087238054a","resource":{"resourceType":"Observation","id":"c8314506-d530-4244-8a74-68df63081b1b","meta":{"profile":["http://hl7.org/fhir/us/qicore/StructureDefinition/qicore-observation"]},"status":"final","category":[{"coding":[{"system":"http://terminology.hl7.org/CodeSystem/observation-category","code":"exam","display":"exam","userSelected":true}]}],"code":{"coding":[{"system":"http://loinc.org","code":"11884-4"}]},"subject":{"reference":"Patient/f247e141-7e9f-42ec-bef2-869e381ea00d"},"effectiveDateTime":"2025-06-08T17:00:00.000+00:00","valueQuantity":{"value":37.0,"system":"http://unitsofmeasure.org","code":"weeks"}},"request":{"method":"PUT","url":"Observation/c8314506-d530-4244-8a74-68df63081b1b"}},{"fullUrl":"https://madie.cms.gov/Observation/5e69404d7ffec7000031f6ad","resource":{"resourceType":"Observation","id":"a3d7d4a2-859f-419c-9b06-f6ec45c941c2","meta":{"profile":["http://hl7.org/fhir/us/qicore/StructureDefinition/qicore-observation"]},"status":"final","category":[{"coding":[{"system":"http://loinc.org","code":"93857-1","display":"Date and time of obstetric delivery","userSelected":true}]}],"code":{"coding":[{"system":"http://loinc.org","code":"93857-1"}]},"subject":{"reference":"Patient/f247e141-7e9f-42ec-bef2-869e381ea00d"},"effectiveDateTime":"2025-06-08T20:00:00.000+00:00","valueDateTime":"2025-06-08T20:00:00+00:00"},"request":{"method":"PUT","url":"Observation/a3d7d4a2-859f-419c-9b06-f6ec45c941c2"}},{"fullUrl":"https://madie.cms.gov/Encounter/5d014eb1b848460872380543","resource":{"resourceType":"Encounter","id":"a1396095-e8d5-4285-86d0-693b17661042","meta":{"profile":["http://hl7.org/fhir/us/qicore/StructureDefinition/qicore-encounter"]},"status":"finished","class":{"system":"http://terminology.hl7.org/CodeSystem/v3-ActCode","code":"IMP","display":"inpatient encounter"},"type":[{"coding":[{"system":"http://snomed.info/sct","code":"8715000"}]}],"subject":{"reference":"Patient/f247e141-7e9f-42ec-bef2-869e381ea00d"},"period":{"start":"2025-06-08T08:00:00.000Z","end":"2025-06-10T08:15:00.000Z"},"diagnosis":[{"condition":{"reference":"Condition/delivery-of-singleton-df6d"}}]},"request":{"method":"PUT","url":"Encounter/a1396095-e8d5-4285-86d0-693b17661042"}},{"fullUrl":"https://madie.cms.gov/Procedure/5d014eb1b848460872380544","resource":{"resourceType":"Procedure","id":"300820d1-8dbc-4aef-884d-a1ba1ee0cc5f","meta":{"profile":["http://hl7.org/fhir/us/qicore/StructureDefinition/qicore-procedure"]},"extension":[{"url":"http://hl7.org/fhir/us/qicore/StructureDefinition/qicore-recorded","valueDateTime":"2013-04-05T09:35:00-04:00"}],"status":"completed","code":{"coding":[{"system":"http://www.cms.gov/Medicare/Coding/ICD10","code":"10D07Z3"},{"system":"http://www.icd10data.com/icd10pcs","code":"10D07Z3","userSelected":true}]},"subject":{"reference":"Patient/f247e141-7e9f-42ec-bef2-869e381ea00d"},"performedPeriod":{"start":"2025-06-08T20:00:00.000Z","end":"2025-06-08T21:15:00.000Z"}},"request":{"method":"PUT","url":"Procedure/300820d1-8dbc-4aef-884d-a1ba1ee0cc5f"}},{"fullUrl":"https://madie.cms.gov/Procedure/5d014eb1b848460872380545","resource":{"resourceType":"Procedure","id":"cea51056-d12b-4537-93ab-161f36c2a384","meta":{"profile":["http://hl7.org/fhir/us/qicore/StructureDefinition/qicore-procedure"]},"extension":[{"url":"http://hl7.org/fhir/us/qicore/StructureDefinition/qicore-recorded","valueDateTime":"2013-04-05T09:35:00-04:00"}],"status":"completed","code":{"coding":[{"system":"http://snomed.info/sct","code":"11466000"}]},"subject":{"reference":"Patient/f247e141-7e9f-42ec-bef2-869e381ea00d"},"performedPeriod":{"start":"2025-06-08T20:00:00.000Z","end":"2025-06-08T21:15:00.000Z"}},"request":{"method":"PUT","url":"Procedure/cea51056-d12b-4537-93ab-161f36c2a384"}},{"fullUrl":"https://madie.cms.gov/Condition/delivery-of-singleton-df6d","resource":{"resourceType":"Condition","id":"1e13874b-55ed-4fc1-bb42-0609df7ed818","meta":{"profile":["http://hl7.org/fhir/us/qicore/StructureDefinition/qicore-condition"]},"category":[{"coding":[{"system":"http://terminology.hl7.org/CodeSystem/condition-category","code":"encounter-diagnosis","display":"Encounter Diagnosis"}]}],"code":{"coding":[{"system":"http://snomed.info/sct","version":"2022-09","code":"169826009","display":"Single live birth (finding)","userSelected":true}]},"subject":{"reference":"Patient/f247e141-7e9f-42ec-bef2-869e381ea00d"},"recordedDate":"2025-10-17T08:00:00.000+00:00"},"request":{"method":"PUT","url":"Condition/1e13874b-55ed-4fc1-bb42-0609df7ed818"}},{"fullUrl":"https://madie.cms.gov/Coverage/1","resource":{"resourceType":"Coverage","id":"b1126bb3-8cd7-49aa-b64f-c4eade6889ea","meta":{"profile":["http://hl7.org/fhir/us/qicore/StructureDefinition/qicore-coverage"]},"status":"active","beneficiary":{"reference":"Patient/f247e141-7e9f-42ec-bef2-869e381ea00d"},"payor":[{"reference":"Organization/80573fa1-cf83-4e9a-8f21-86a018689678"}]},"request":{"method":"PUT","url":"Coverage/b1126bb3-8cd7-49aa-b64f-c4eade6889ea"}},{"fullUrl":"https://madie.cms.gov/Organization/123456","resource":{"resourceType":"Organization","id":"80573fa1-cf83-4e9a-8f21-86a018689678","meta":{"profile":["http://hl7.org/fhir/us/qicore/StructureDefinition/qicore-organization"]},"identifier":[{"use":"temp","system":"urn:oid:2.16.840.1.113883.4.4","value":"21-3259825"}],"active":true,"type":[{"coding":[{"system":"http://terminology.hl7.org/CodeSystem/organization-type","code":"pay","display":"Payer"}]}],"name":"Blue Cross Blue Shield of Texas","telecom":[{"system":"phone","value":"(+1) 972-766-6900"}],"address":[{"use":"billing","type":"postal","line":["P.O. Box 660044"],"city":"Dallas","state":"TX","postalCode":"75266-0044","country":"USA"}]},"request":{"method":"PUT","url":"Organization/80573fa1-cf83-4e9a-8f21-86a018689678"}},{"fullUrl":"https://madie.cms.gov/Practitioner/practitioner-123456","resource":{"resourceType":"Practitioner","id":"d3b18a60-c8ac-4574-bacc-e77555d12a42","identifier":[{"system":"http://hl7.org/fhir/sid/us-npi","value":"123456"}],"name":[{"family":"Evil","prefix":["Dr"]}]},"request":{"method":"PUT","url":"Practitioner/d3b18a60-c8ac-4574-bacc-e77555d12a42"}},{"fullUrl":"https://madie.cms.gov/MeasureReport/7b49fd5c-2001-4c39-933e-ead8c4318f2a","resource":{"resourceType":"MeasureReport","id":"7b49fd5c-2001-4c39-933e-ead8c4318f2a","meta":{"profile":["http://hl7.org/fhir/us/cqfmeasures/StructureDefinition/test-case-cqfm"]},"contained":[{"resourceType":"Parameters","id":"44701719-8766-46ad-90c7-265d7eb4a189-parameters","parameter":[{"name":"subject","valueString":"f247e141-7e9f-42ec-bef2-869e381ea00d"}]}],"extension":[{"url":"http://hl7.org/fhir/us/cqfmeasures/StructureDefinition/cqfm-inputParameters","valueReference":{"reference":"#44701719-8766-46ad-90c7-265d7eb4a189-parameters"}},{"url":"http://hl7.org/fhir/us/cqfmeasures/StructureDefinition/cqfm-testCaseDescription","valueMarkdown":"Passes IP, DEN, NUM.  Passes NUM as Proc Perf = Csection  although \"Delivery Procedures\" indicates vaginal delivery."}],"modifierExtension":[{"url":"http://hl7.org/fhir/us/cqfmeasures/StructureDefinition/cqfm-isTestCase","valueBoolean":true}],"status":"complete","type":"individual","measure":"https://madie.cms.gov/Measure/CesareanBirthFHIR","period":{"start":"2025-01-01","end":"2025-12-31"},"group":[{"population":[{"code":{"coding":[{"system":"http://terminology.hl7.org/CodeSystem/measure-population","code":"initial-population","display":"Initial Population"}]},"count":1},{"code":{"coding":[{"system":"http://terminology.hl7.org/CodeSystem/measure-population","code":"denominator","display":"Denominator"}]},"count":1},{"code":{"coding":[{"system":"http://terminology.hl7.org/CodeSystem/measure-population","code":"denominator-exclusion","display":"Denominator Exclusion"}]},"count":0},{"code":{"coding":[{"system":"http://terminology.hl7.org/CodeSystem/measure-population","code":"numerator","display":"Numerator"}]},"count":1}]}]},"request":{"method":"PUT","url":"MeasureReport/7b49fd5c-2001-4c39-933e-ead8c4318f2a"}}]}