{"resourceType":"Bundle","id":"tests-e8157340-2867-44fc-8277-4e09507f4546-bundle","type":"transaction","entry":[{"fullUrl":"https://madie.cms.gov/Patient/e8157340-2867-44fc-8277-4e09507f4546","resource":{"resourceType":"Patient","id":"e8157340-2867-44fc-8277-4e09507f4546","meta":{"profile":["http://hl7.org/fhir/us/qicore/StructureDefinition/qicore-patient"]},"text":{"status":"generated","div":"<div xmlns=\"http://www.w3.org/1999/xhtml\"><div class=\"hapiHeaderText\">CalcEGA42Weeks_EDDRelDtTime2WksPriorToDelivery <b>DENPASS </b></div><table class=\"hapiPropertyTable\"><tbody><tr><td>Identifier</td><td>c6b51506d3a7092894a3f06af44f7ab397fd257a35f97f16644057feff48ec70</td></tr><tr><td>Date of birth</td><td><span>14 February 1985</span></td></tr></tbody></table></div>"},"extension":[{"url":"http://hl7.org/fhir/us/core/StructureDefinition/us-core-race","extension":[{"url":"ombCategory","valueCoding":{"system":"urn:oid:2.16.840.1.113883.6.238","code":"1002-5","display":"American Indian or Alaska Native","userSelected":true}},{"url":"text","valueString":"American Indian or Alaska Native"}]},{"url":"http://hl7.org/fhir/us/core/StructureDefinition/us-core-ethnicity","extension":[{"url":"ombCategory","valueCoding":{"system":"urn:oid:2.16.840.1.113883.6.238","code":"2135-2","display":"Hispanic or Latino","userSelected":true}},{"url":"text","valueString":"Hispanic or Latino"}]}],"identifier":[{"type":{"coding":[{"system":"http://terminology.hl7.org/CodeSystem/v2-0203","code":"MR"}]},"system":"https://bonnie-fhir.healthit.gov/","value":"63487c300968f801225401d2"}],"active":true,"name":[{"use":"usual","family":"DENPass","given":["CalcEGA42Weeks_EDDRelDtTime2WksPriorToDelivery"]}],"gender":"female","birthDate":"1997-02-14"},"request":{"method":"PUT","url":"Patient/e8157340-2867-44fc-8277-4e09507f4546"}},{"fullUrl":"https://madie.cms.gov/Observation/5d014eb3b8484608723806a8","resource":{"resourceType":"Observation","id":"00a4f7d1-0675-4e3b-b734-44d2881d16ac","meta":{"profile":["http://hl7.org/fhir/us/qicore/StructureDefinition/qicore-observation"]},"status":"final","category":[{"coding":[{"system":"http://terminology.hl7.org/CodeSystem/observation-category","code":"exam","display":"exam","userSelected":true}]}],"code":{"coding":[{"system":"http://loinc.org","code":"11996-6"}]},"subject":{"reference":"Patient/e8157340-2867-44fc-8277-4e09507f4546"},"effectiveDateTime":"2024-08-19T19:00:00.000+00:00","valueInteger":1},"request":{"method":"PUT","url":"Observation/00a4f7d1-0675-4e3b-b734-44d2881d16ac"}},{"fullUrl":"https://madie.cms.gov/Observation/5e61678a3e992300009b6f5e","resource":{"resourceType":"Observation","id":"5fada234-f85b-4b94-8ad2-3c79aab44318","meta":{"profile":["http://hl7.org/fhir/us/qicore/StructureDefinition/qicore-observation"]},"status":"final","category":[{"coding":[{"system":"http://terminology.hl7.org/CodeSystem/observation-category","code":"exam","display":"exam","userSelected":true}]}],"code":{"coding":[{"system":"http://loinc.org","code":"93857-1"}]},"subject":{"reference":"Patient/e8157340-2867-44fc-8277-4e09507f4546"},"effectiveDateTime":"2025-01-15T19:00:00.000+00:00","valueDateTime":"2025-01-15T19:00:00+00:00"},"request":{"method":"PUT","url":"Observation/5fada234-f85b-4b94-8ad2-3c79aab44318"}},{"fullUrl":"https://madie.cms.gov/Observation/5e8a5430ae2856000046a20d","resource":{"resourceType":"Observation","id":"0b4ab360-e31c-49c3-9977-181165f08e6c","meta":{"profile":["http://hl7.org/fhir/us/qicore/StructureDefinition/qicore-observation"]},"status":"final","category":[{"coding":[{"system":"http://terminology.hl7.org/CodeSystem/observation-category","code":"exam","display":"exam","userSelected":true}]}],"code":{"coding":[{"system":"http://loinc.org","code":"11778-8"}]},"subject":{"reference":"Patient/e8157340-2867-44fc-8277-4e09507f4546"},"effectiveDateTime":"2025-01-01T08:00:00.000+00:00","valueDateTime":"2025-01-01T08:00:00+00:00"},"request":{"method":"PUT","url":"Observation/0b4ab360-e31c-49c3-9977-181165f08e6c"}},{"fullUrl":"https://madie.cms.gov/Encounter/5d014eb3b8484608723806a6","resource":{"resourceType":"Encounter","id":"77ae8368-0568-4beb-b17b-2a8de63bcb6e","meta":{"profile":["http://hl7.org/fhir/us/qicore/StructureDefinition/qicore-encounter"]},"status":"finished","class":{"system":"http://terminology.hl7.org/CodeSystem/v3-ActCode","code":"IMP","display":"inpatient encounter"},"type":[{"coding":[{"system":"http://snomed.info/sct","code":"183452005"}]}],"subject":{"reference":"Patient/e8157340-2867-44fc-8277-4e09507f4546"},"period":{"start":"2025-01-15T08:00:00.000Z","end":"2025-01-20T08:15:00.000Z"},"length":{"value":2.0,"unit":"days"},"diagnosis":[{"condition":{"reference":"Condition/delivery-of-singleton-f83c"},"use":{"coding":[{"system":"http://snomed.info/sct","code":"169826009","display":"Delivery of Singleton"}]}},{"condition":{"reference":"Condition/delivery-of-singleton-776b"}}]},"request":{"method":"PUT","url":"Encounter/77ae8368-0568-4beb-b17b-2a8de63bcb6e"}},{"fullUrl":"https://madie.cms.gov/Coverage/5f5f9e501c76ba674bb03382","resource":{"resourceType":"Coverage","id":"0339e456-17bd-4094-a6e3-e3f474437c61","status":"active","beneficiary":{"reference":"Patient/e8157340-2867-44fc-8277-4e09507f4546"},"period":{"start":"1985-02-14T08:00:00.000Z"},"payor":[{"reference":"Organization/84b56847-ad40-4bf6-b612-9e42ad2a84e5"}]},"request":{"method":"PUT","url":"Coverage/0339e456-17bd-4094-a6e3-e3f474437c61"}},{"fullUrl":"https://madie.cms.gov/Procedure/5d014eb3b8484608723806a7","resource":{"resourceType":"Procedure","id":"2d895c71-0ca9-4a8a-a6dd-902f17d66705","meta":{"profile":["http://hl7.org/fhir/us/qicore/StructureDefinition/qicore-procedure"]},"extension":[{"url":"http://hl7.org/fhir/us/qicore/StructureDefinition/qicore-recorded","valueDateTime":"2013-04-05T09:35:00-04:00"}],"status":"completed","code":{"coding":[{"system":"http://www.cms.gov/Medicare/Coding/ICD10","code":"10D07Z3"},{"system":"http://www.icd10data.com/icd10pcs","code":"10D07Z3","userSelected":true}]},"subject":{"reference":"Patient/e8157340-2867-44fc-8277-4e09507f4546"},"performedPeriod":{"start":"2025-01-15T08:10:00.000Z","end":"2025-01-15T09:14:00.000Z"}},"request":{"method":"PUT","url":"Procedure/2d895c71-0ca9-4a8a-a6dd-902f17d66705"}},{"fullUrl":"https://madie.cms.gov/Condition/delivery-of-singleton-776b","resource":{"resourceType":"Condition","id":"7e232512-6230-489e-a4bf-3820a461716e","meta":{"profile":["http://hl7.org/fhir/us/qicore/StructureDefinition/qicore-condition"]},"category":[{"coding":[{"system":"http://terminology.hl7.org/CodeSystem/condition-category","code":"encounter-diagnosis","display":"Encounter Diagnosis"}]}],"code":{"coding":[{"system":"http://snomed.info/sct","version":"2022-09","code":"169826009","display":"Single live birth (finding)","userSelected":true}]},"subject":{"reference":"Patient/e8157340-2867-44fc-8277-4e09507f4546"},"recordedDate":"2025-10-20T08:00:00.000+00:00"},"request":{"method":"PUT","url":"Condition/7e232512-6230-489e-a4bf-3820a461716e"}},{"fullUrl":"https://madie.cms.gov/Organization/123456","resource":{"resourceType":"Organization","id":"84b56847-ad40-4bf6-b612-9e42ad2a84e5","meta":{"profile":["http://hl7.org/fhir/us/qicore/StructureDefinition/qicore-organization"]},"identifier":[{"use":"temp","system":"urn:oid:2.16.840.1.113883.4.4","value":"21-3259825"}],"active":true,"type":[{"coding":[{"system":"http://terminology.hl7.org/CodeSystem/organization-type","code":"pay","display":"Payer"}]}],"name":"Blue Cross Blue Shield of Texas","telecom":[{"system":"phone","value":"(+1) 972-766-6900"}],"address":[{"use":"billing","type":"postal","line":["P.O. Box 660044"],"city":"Dallas","state":"TX","postalCode":"75266-0044","country":"USA"}]},"request":{"method":"PUT","url":"Organization/84b56847-ad40-4bf6-b612-9e42ad2a84e5"}},{"fullUrl":"https://madie.cms.gov/Practitioner/practitioner-123456","resource":{"resourceType":"Practitioner","id":"bb4d9a90-b8af-43a3-b87c-dc7741a5ebf3","identifier":[{"system":"http://hl7.org/fhir/sid/us-npi","value":"123456"}],"name":[{"family":"Evil","prefix":["Dr"]}]},"request":{"method":"PUT","url":"Practitioner/bb4d9a90-b8af-43a3-b87c-dc7741a5ebf3"}},{"fullUrl":"https://madie.cms.gov/MeasureReport/974cebfb-8669-4210-8a44-389145163d9c","resource":{"resourceType":"MeasureReport","id":"974cebfb-8669-4210-8a44-389145163d9c","meta":{"profile":["http://hl7.org/fhir/us/cqfmeasures/StructureDefinition/test-case-cqfm"]},"contained":[{"resourceType":"Parameters","id":"03904668-6bfb-4c10-ad37-84a1f043cffa-parameters","parameter":[{"name":"subject","valueString":"e8157340-2867-44fc-8277-4e09507f4546"}]}],"extension":[{"url":"http://hl7.org/fhir/us/cqfmeasures/StructureDefinition/cqfm-inputParameters","valueReference":{"reference":"#03904668-6bfb-4c10-ad37-84a1f043cffa-parameters"}},{"url":"http://hl7.org/fhir/us/cqfmeasures/StructureDefinition/cqfm-testCaseDescription","valueMarkdown":"\"Calculated EGA is 42 weeks with EDD relevant date/time 2 weeks prior to admission.\n\n"}],"modifierExtension":[{"url":"http://hl7.org/fhir/us/cqfmeasures/StructureDefinition/cqfm-isTestCase","valueBoolean":true}],"status":"complete","type":"individual","measure":"https://madie.cms.gov/Measure/CesareanBirthFHIR","period":{"start":"2025-01-01","end":"2025-12-31"},"group":[{"population":[{"code":{"coding":[{"system":"http://terminology.hl7.org/CodeSystem/measure-population","code":"initial-population","display":"Initial Population"}]},"count":1},{"code":{"coding":[{"system":"http://terminology.hl7.org/CodeSystem/measure-population","code":"denominator","display":"Denominator"}]},"count":1},{"code":{"coding":[{"system":"http://terminology.hl7.org/CodeSystem/measure-population","code":"denominator-exclusion","display":"Denominator Exclusion"}]},"count":0},{"code":{"coding":[{"system":"http://terminology.hl7.org/CodeSystem/measure-population","code":"numerator","display":"Numerator"}]},"count":0}]}]},"request":{"method":"PUT","url":"MeasureReport/974cebfb-8669-4210-8a44-389145163d9c"}}]}