{"resourceType":"Bundle","id":"tests-45a481a1-13fe-4a18-8e8d-3d8ae497d28f-bundle","type":"transaction","entry":[{"fullUrl":"https://madie.cms.gov/Patient/45a481a1-13fe-4a18-8e8d-3d8ae497d28f","resource":{"resourceType":"Patient","id":"45a481a1-13fe-4a18-8e8d-3d8ae497d28f","meta":{"profile":["http://hl7.org/fhir/us/qicore/StructureDefinition/qicore-patient"]},"text":{"status":"generated","div":"<div xmlns=\"http://www.w3.org/1999/xhtml\"><div class=\"hapiHeaderText\">AssessEDDRelDtTime24Hours1minB4TimeOfDeliv <b>DENPASS </b></div><table class=\"hapiPropertyTable\"><tbody><tr><td>Identifier</td><td>b00b06f67015bda652373741cca10f65466d828e3a674df9528f73ec417ce0bb</td></tr><tr><td>Date of birth</td><td><span>14 February 1985</span></td></tr></tbody></table></div>"},"extension":[{"url":"http://hl7.org/fhir/us/core/StructureDefinition/us-core-race","extension":[{"url":"ombCategory","valueCoding":{"system":"urn:oid:2.16.840.1.113883.6.238","code":"1002-5","display":"American Indian or Alaska Native","userSelected":true}},{"url":"text","valueString":"American Indian or Alaska Native"}]},{"url":"http://hl7.org/fhir/us/core/StructureDefinition/us-core-ethnicity","extension":[{"url":"ombCategory","valueCoding":{"system":"urn:oid:2.16.840.1.113883.6.238","code":"2135-2","display":"Hispanic or Latino","userSelected":true}},{"url":"text","valueString":"Hispanic or Latino"}]}],"identifier":[{"type":{"coding":[{"system":"http://terminology.hl7.org/CodeSystem/v2-0203","code":"MR"}]},"system":"https://bonnie-fhir.healthit.gov/","value":"63487c2f0968f801225401ac"}],"active":true,"name":[{"use":"usual","family":"DENPass","given":["AssessEDDRelDtTime24Hours1minB4TimeOfDeliv"]}],"gender":"female","birthDate":"1997-02-14"},"request":{"method":"PUT","url":"Patient/45a481a1-13fe-4a18-8e8d-3d8ae497d28f"}},{"fullUrl":"https://madie.cms.gov/Observation/5e6165403e992300009b6c80","resource":{"resourceType":"Observation","id":"8fba19fa-048f-4af1-b509-b5a297ab4c63","meta":{"profile":["http://hl7.org/fhir/us/qicore/StructureDefinition/qicore-observation"]},"status":"final","category":[{"coding":[{"system":"http://terminology.hl7.org/CodeSystem/observation-category","code":"exam","display":"exam","userSelected":true}]}],"code":{"coding":[{"system":"http://loinc.org","code":"93857-1"}]},"subject":{"reference":"Patient/45a481a1-13fe-4a18-8e8d-3d8ae497d28f"},"effectiveDateTime":"2025-01-15T08:00:00.000+00:00","valueDateTime":"2025-01-15T08:00:00+00:00"},"request":{"method":"PUT","url":"Observation/8fba19fa-048f-4af1-b509-b5a297ab4c63"}},{"fullUrl":"https://madie.cms.gov/Observation/5e8a4fd5ae28560000469f52","resource":{"resourceType":"Observation","id":"d4996fce-0c40-454a-bfba-bc33dbcc3fe0","meta":{"profile":["http://hl7.org/fhir/us/qicore/StructureDefinition/qicore-observation"]},"status":"final","category":[{"coding":[{"system":"http://terminology.hl7.org/CodeSystem/observation-category","code":"exam","display":"exam","userSelected":true}]}],"code":{"coding":[{"system":"http://loinc.org","code":"11778-8"}]},"subject":{"reference":"Patient/45a481a1-13fe-4a18-8e8d-3d8ae497d28f"},"effectiveDateTime":"2025-01-14T07:59:00.000+00:00","valueDateTime":"2025-02-04T08:00:00+00:00"},"request":{"method":"PUT","url":"Observation/d4996fce-0c40-454a-bfba-bc33dbcc3fe0"}},{"fullUrl":"https://madie.cms.gov/Observation/5e8a568dae2856000046a3cf","resource":{"resourceType":"Observation","id":"babd927a-cf27-45fe-8b86-705802ef81c0","meta":{"profile":["http://hl7.org/fhir/us/qicore/StructureDefinition/qicore-observation"]},"status":"final","category":[{"coding":[{"system":"http://terminology.hl7.org/CodeSystem/observation-category","code":"exam","display":"exam","userSelected":true}]}],"code":{"coding":[{"system":"http://loinc.org","code":"11996-6"}]},"subject":{"reference":"Patient/45a481a1-13fe-4a18-8e8d-3d8ae497d28f"},"effectiveDateTime":"2025-01-15T07:59:00.000+00:00","valueInteger":1},"request":{"method":"PUT","url":"Observation/babd927a-cf27-45fe-8b86-705802ef81c0"}},{"fullUrl":"https://madie.cms.gov/Encounter/5d014eb2b84846087238056f","resource":{"resourceType":"Encounter","id":"22354e3a-0749-4bb5-900d-e138b345f692","meta":{"profile":["http://hl7.org/fhir/us/qicore/StructureDefinition/qicore-encounter"]},"status":"finished","class":{"system":"http://terminology.hl7.org/CodeSystem/v3-ActCode","code":"IMP","display":"inpatient encounter"},"type":[{"coding":[{"system":"http://snomed.info/sct","code":"183452005"}]}],"subject":{"reference":"Patient/45a481a1-13fe-4a18-8e8d-3d8ae497d28f"},"period":{"start":"2025-01-15T08:00:00.000Z","end":"2025-01-20T08:15:00.000Z"},"diagnosis":[{"condition":{"reference":"Condition/delivery-of-singleton-99c3"},"use":{"coding":[{"system":"http://snomed.info/sct","code":"169826009","display":"Delivery of Singleton"}]}}]},"request":{"method":"PUT","url":"Encounter/22354e3a-0749-4bb5-900d-e138b345f692"}},{"fullUrl":"https://madie.cms.gov/Procedure/5d014eb2b848460872380570","resource":{"resourceType":"Procedure","id":"ddfa5ec4-4d04-4d7f-b273-cceaeccfc3db","meta":{"profile":["http://hl7.org/fhir/us/qicore/StructureDefinition/qicore-procedure"]},"extension":[{"url":"http://hl7.org/fhir/us/qicore/StructureDefinition/qicore-recorded","valueDateTime":"2013-04-05T09:35:00-04:00"}],"status":"completed","code":{"coding":[{"system":"http://snomed.info/sct","version":"2022-09","code":"10745001","display":"Delivery of transverse presentation (procedure)","userSelected":true}]},"subject":{"reference":"Patient/45a481a1-13fe-4a18-8e8d-3d8ae497d28f"},"performedPeriod":{"start":"2025-01-15T08:10:00.000Z","end":"2025-01-15T09:14:00.000Z"}},"request":{"method":"PUT","url":"Procedure/ddfa5ec4-4d04-4d7f-b273-cceaeccfc3db"}},{"fullUrl":"https://madie.cms.gov/Condition/delivery-of-singleton-99c3","resource":{"resourceType":"Condition","id":"a4b0b126-200e-4dac-9bd8-6c49130a4e76","meta":{"profile":["http://hl7.org/fhir/us/qicore/StructureDefinition/qicore-condition"]},"category":[{"coding":[{"system":"http://terminology.hl7.org/CodeSystem/condition-category","code":"encounter-diagnosis","display":"Encounter Diagnosis"}]}],"code":{"coding":[{"system":"http://snomed.info/sct","version":"2022-09","code":"169826009","display":"Single live birth (finding)","userSelected":true}]},"subject":{"reference":"Patient/45a481a1-13fe-4a18-8e8d-3d8ae497d28f"},"recordedDate":"2025-10-14T08:00:00.000+00:00"},"request":{"method":"PUT","url":"Condition/a4b0b126-200e-4dac-9bd8-6c49130a4e76"}},{"fullUrl":"https://madie.cms.gov/Coverage/1","resource":{"resourceType":"Coverage","id":"651ddd36-1665-43c5-9c65-0fbd7c3dc73e","meta":{"profile":["http://hl7.org/fhir/us/qicore/StructureDefinition/qicore-coverage"]},"status":"active","beneficiary":{"reference":"Patient/45a481a1-13fe-4a18-8e8d-3d8ae497d28f"},"payor":[{"reference":"Organization/4d7da20f-8773-4347-8f6b-80adcdcee1f4"}]},"request":{"method":"PUT","url":"Coverage/651ddd36-1665-43c5-9c65-0fbd7c3dc73e"}},{"fullUrl":"https://madie.cms.gov/Organization/123456","resource":{"resourceType":"Organization","id":"4d7da20f-8773-4347-8f6b-80adcdcee1f4","meta":{"profile":["http://hl7.org/fhir/us/qicore/StructureDefinition/qicore-organization"]},"identifier":[{"use":"temp","system":"urn:oid:2.16.840.1.113883.4.4","value":"21-3259825"}],"active":true,"type":[{"coding":[{"system":"http://terminology.hl7.org/CodeSystem/organization-type","code":"pay","display":"Payer"}]}],"name":"Blue Cross Blue Shield of Texas","telecom":[{"system":"phone","value":"(+1) 972-766-6900"}],"address":[{"use":"billing","type":"postal","line":["P.O. Box 660044"],"city":"Dallas","state":"TX","postalCode":"75266-0044","country":"USA"}]},"request":{"method":"PUT","url":"Organization/4d7da20f-8773-4347-8f6b-80adcdcee1f4"}},{"fullUrl":"https://madie.cms.gov/Practitioner/practitioner-123456","resource":{"resourceType":"Practitioner","id":"b366af6e-e802-4f50-814d-670f46fafb0d","identifier":[{"system":"http://hl7.org/fhir/sid/us-npi","value":"123456"}],"name":[{"family":"Evil","prefix":["Dr"]}]},"request":{"method":"PUT","url":"Practitioner/b366af6e-e802-4f50-814d-670f46fafb0d"}},{"fullUrl":"https://madie.cms.gov/MeasureReport/91c7a50d-7774-4b9b-89c0-bb666bc7489f","resource":{"resourceType":"MeasureReport","id":"91c7a50d-7774-4b9b-89c0-bb666bc7489f","meta":{"profile":["http://hl7.org/fhir/us/cqfmeasures/StructureDefinition/test-case-cqfm"]},"contained":[{"resourceType":"Parameters","id":"5006c505-ddfd-4bab-aa49-da88239e8329-parameters","parameter":[{"name":"subject","valueString":"45a481a1-13fe-4a18-8e8d-3d8ae497d28f"}]}],"extension":[{"url":"http://hl7.org/fhir/us/cqfmeasures/StructureDefinition/cqfm-inputParameters","valueReference":{"reference":"#5006c505-ddfd-4bab-aa49-da88239e8329-parameters"}},{"url":"http://hl7.org/fhir/us/cqfmeasures/StructureDefinition/cqfm-testCaseDescription","valueMarkdown":"Passes: IP, Pass DENOM, Pt is 27 years of age,  encounter dx delivery of singleton, gravida=1authored less than 42 weeks prior to delivery, Delivery date Estimated Relevant DateTime 24 hours and 1 minute before the Time of Delivery\n"}],"modifierExtension":[{"url":"http://hl7.org/fhir/us/cqfmeasures/StructureDefinition/cqfm-isTestCase","valueBoolean":true}],"status":"complete","type":"individual","measure":"https://madie.cms.gov/Measure/CesareanBirthFHIR","period":{"start":"2025-01-01","end":"2025-12-31"},"group":[{"population":[{"code":{"coding":[{"system":"http://terminology.hl7.org/CodeSystem/measure-population","code":"initial-population","display":"Initial Population"}]},"count":1},{"code":{"coding":[{"system":"http://terminology.hl7.org/CodeSystem/measure-population","code":"denominator","display":"Denominator"}]},"count":1},{"code":{"coding":[{"system":"http://terminology.hl7.org/CodeSystem/measure-population","code":"denominator-exclusion","display":"Denominator Exclusion"}]},"count":0},{"code":{"coding":[{"system":"http://terminology.hl7.org/CodeSystem/measure-population","code":"numerator","display":"Numerator"}]},"count":0}]}]},"request":{"method":"PUT","url":"MeasureReport/91c7a50d-7774-4b9b-89c0-bb666bc7489f"}}]}