{"resourceType":"Bundle","id":"tests-3842ef3b-ebeb-42d6-9035-aa5280bcdcfd-bundle","type":"transaction","entry":[{"fullUrl":"https://madie.cms.gov/Patient/3842ef3b-ebeb-42d6-9035-aa5280bcdcfd","resource":{"resourceType":"Patient","id":"3842ef3b-ebeb-42d6-9035-aa5280bcdcfd","meta":{"profile":["http://hl7.org/fhir/us/qicore/StructureDefinition/qicore-patient"]},"text":{"status":"generated","div":"<div xmlns=\"http://www.w3.org/1999/xhtml\"><div class=\"hapiHeaderText\">AssessPerfAbnPresRelDtTime1MinB4EncStart <b>DENEXFAIL </b></div><table class=\"hapiPropertyTable\"><tbody><tr><td>Identifier</td><td>2c1eda4938b84801bc7bcf3f0fe1fce9fac094751543d9dbfa2319ccac3ef724</td></tr><tr><td>Date of birth</td><td><span>14 February 1985</span></td></tr></tbody></table></div>"},"extension":[{"url":"http://hl7.org/fhir/us/core/StructureDefinition/us-core-race","extension":[{"url":"ombCategory","valueCoding":{"system":"urn:oid:2.16.840.1.113883.6.238","code":"1002-5","display":"American Indian or Alaska Native","userSelected":true}},{"url":"text","valueString":"American Indian or Alaska Native"}]},{"url":"http://hl7.org/fhir/us/core/StructureDefinition/us-core-ethnicity","extension":[{"url":"ombCategory","valueCoding":{"system":"urn:oid:2.16.840.1.113883.6.238","code":"2135-2","display":"Hispanic or Latino","userSelected":true}},{"url":"text","valueString":"Hispanic or Latino"}]}],"identifier":[{"type":{"coding":[{"system":"http://terminology.hl7.org/CodeSystem/v2-0203","code":"MR"}]},"system":"https://bonnie-fhir.healthit.gov/","value":"63487c2e0968f80122540189"}],"active":true,"name":[{"use":"usual","family":"DENEXFail","given":["AssessPerfAbnPresRelDtTime1MinB4EncStart "]}],"gender":"female","birthDate":"1997-02-14"},"request":{"method":"PUT","url":"Patient/3842ef3b-ebeb-42d6-9035-aa5280bcdcfd"}},{"fullUrl":"https://madie.cms.gov/Observation/5d014eb1b8484608723804d0","resource":{"resourceType":"Observation","id":"9bf1c7ee-4b61-49cb-bdef-2b6825dc114a","meta":{"profile":["http://hl7.org/fhir/us/qicore/StructureDefinition/qicore-observation"]},"status":"final","category":[{"coding":[{"system":"http://terminology.hl7.org/CodeSystem/observation-category","code":"exam","display":"exam","userSelected":true}]}],"code":{"coding":[{"system":"http://loinc.org","code":"11996-6"}]},"subject":{"reference":"Patient/3842ef3b-ebeb-42d6-9035-aa5280bcdcfd"},"effectiveDateTime":"2025-06-08T08:00:00.000+00:00","valueInteger":1},"request":{"method":"PUT","url":"Observation/9bf1c7ee-4b61-49cb-bdef-2b6825dc114a"}},{"fullUrl":"https://madie.cms.gov/Observation/5d014eb1b8484608723804d2","resource":{"resourceType":"Observation","id":"9f691eef-3c79-4167-84d4-829c2892ef35","meta":{"profile":["http://hl7.org/fhir/us/qicore/StructureDefinition/qicore-observation"]},"status":"final","category":[{"coding":[{"system":"http://terminology.hl7.org/CodeSystem/observation-category","code":"exam","display":"exam","userSelected":true}]}],"code":{"coding":[{"system":"http://loinc.org","code":"11884-4"}]},"subject":{"reference":"Patient/3842ef3b-ebeb-42d6-9035-aa5280bcdcfd"},"effectiveDateTime":"2025-06-08T08:00:00.000+00:00","valueQuantity":{"value":43.0,"system":"http://unitsofmeasure.org","code":"weeks"}},"request":{"method":"PUT","url":"Observation/9f691eef-3c79-4167-84d4-829c2892ef35"}},{"fullUrl":"https://madie.cms.gov/Observation/5e610f2ceadaae0000c2af86","resource":{"resourceType":"Observation","id":"f5566f9b-a228-42ee-83b2-e4f8f8d9a77b","meta":{"profile":["http://hl7.org/fhir/us/qicore/StructureDefinition/qicore-observation"]},"status":"final","category":[{"coding":[{"system":"http://terminology.hl7.org/CodeSystem/observation-category","code":"exam","display":"exam","userSelected":true}]}],"code":{"coding":[{"system":"http://loinc.org","code":"93857-1"}]},"subject":{"reference":"Patient/3842ef3b-ebeb-42d6-9035-aa5280bcdcfd"},"effectiveDateTime":"2025-06-08T20:00:00.000+00:00","valueDateTime":"2025-06-08T20:00:00+00:00"},"request":{"method":"PUT","url":"Observation/f5566f9b-a228-42ee-83b2-e4f8f8d9a77b"}},{"fullUrl":"https://madie.cms.gov/Observation/5e6114dceadaae0000c2b01f","resource":{"resourceType":"Observation","id":"91a89f74-e5e9-4515-8215-483e5271e5d7","meta":{"profile":["http://hl7.org/fhir/us/qicore/StructureDefinition/qicore-observation"]},"status":"final","category":[{"coding":[{"system":"http://terminology.hl7.org/CodeSystem/observation-category","code":"exam","display":"exam","userSelected":true}]}],"code":{"coding":[{"system":"http://snomed.info/sct","code":"163514003"}]},"subject":{"reference":"Patient/3842ef3b-ebeb-42d6-9035-aa5280bcdcfd"},"effectiveDateTime":"2025-06-08T07:59:00.000+00:00"},"request":{"method":"PUT","url":"Observation/91a89f74-e5e9-4515-8215-483e5271e5d7"}},{"fullUrl":"https://madie.cms.gov/Encounter/5e610ea2eadaae0000c2af53","resource":{"resourceType":"Encounter","id":"ceb68dfd-b923-4e8b-b373-9914c02aa9c8","meta":{"profile":["http://hl7.org/fhir/us/qicore/StructureDefinition/qicore-encounter"]},"status":"finished","class":{"system":"http://terminology.hl7.org/CodeSystem/v3-ActCode","code":"IMP","display":"inpatient encounter"},"type":[{"coding":[{"system":"http://snomed.info/sct","code":"183452005"}]}],"subject":{"reference":"Patient/3842ef3b-ebeb-42d6-9035-aa5280bcdcfd"},"period":{"start":"2025-06-08T08:00:00.000Z","end":"2025-06-10T08:15:00.000Z"},"diagnosis":[{"condition":{"reference":"Condition/delivery-of-singleton-09a3"}}]},"request":{"method":"PUT","url":"Encounter/ceb68dfd-b923-4e8b-b373-9914c02aa9c8"}},{"fullUrl":"https://madie.cms.gov/Procedure/5d014eb1b8484608723804ce","resource":{"resourceType":"Procedure","id":"a1248aee-228e-4da8-af19-cc649da5c9c4","meta":{"profile":["http://hl7.org/fhir/us/qicore/StructureDefinition/qicore-procedure"]},"extension":[{"url":"http://hl7.org/fhir/us/qicore/StructureDefinition/qicore-recorded","valueDateTime":"2013-04-05T09:35:00-04:00"}],"status":"completed","code":{"coding":[{"system":"http://snomed.info/sct","code":"84195007"}]},"subject":{"reference":"Patient/3842ef3b-ebeb-42d6-9035-aa5280bcdcfd"},"performedPeriod":{"start":"2025-06-08T20:00:00.000Z","end":"2025-06-18T20:00:00.000Z"}},"request":{"method":"PUT","url":"Procedure/a1248aee-228e-4da8-af19-cc649da5c9c4"}},{"fullUrl":"https://madie.cms.gov/Condition/delivery-of-singleton-09a3","resource":{"resourceType":"Condition","id":"43c65433-c130-49a1-8495-6c09c2789c38","meta":{"profile":["http://hl7.org/fhir/us/qicore/StructureDefinition/qicore-condition"]},"category":[{"coding":[{"system":"http://terminology.hl7.org/CodeSystem/condition-category","code":"encounter-diagnosis","display":"Encounter Diagnosis"}]}],"code":{"coding":[{"system":"http://snomed.info/sct","version":"2022-09","code":"169826009","display":"Single live birth (finding)","userSelected":true}]},"subject":{"reference":"Patient/3842ef3b-ebeb-42d6-9035-aa5280bcdcfd"},"recordedDate":"2025-10-17T08:00:00.000+00:00"},"request":{"method":"PUT","url":"Condition/43c65433-c130-49a1-8495-6c09c2789c38"}},{"fullUrl":"https://madie.cms.gov/Coverage/1","resource":{"resourceType":"Coverage","id":"67adfd3b-5e69-489f-8784-060d75d36b0c","meta":{"profile":["http://hl7.org/fhir/us/qicore/StructureDefinition/qicore-coverage"]},"status":"active","beneficiary":{"reference":"Patient/3842ef3b-ebeb-42d6-9035-aa5280bcdcfd"},"payor":[{"reference":"Organization/42846cc3-1db0-4bf7-b9ff-8b81fa6e835d"}]},"request":{"method":"PUT","url":"Coverage/67adfd3b-5e69-489f-8784-060d75d36b0c"}},{"fullUrl":"https://madie.cms.gov/Organization/123456","resource":{"resourceType":"Organization","id":"42846cc3-1db0-4bf7-b9ff-8b81fa6e835d","meta":{"profile":["http://hl7.org/fhir/us/qicore/StructureDefinition/qicore-organization"]},"identifier":[{"use":"temp","system":"urn:oid:2.16.840.1.113883.4.4","value":"21-3259825"}],"active":true,"type":[{"coding":[{"system":"http://terminology.hl7.org/CodeSystem/organization-type","code":"pay","display":"Payer"}]}],"name":"Blue Cross Blue Shield of Texas","telecom":[{"system":"phone","value":"(+1) 972-766-6900"}],"address":[{"use":"billing","type":"postal","line":["P.O. Box 660044"],"city":"Dallas","state":"TX","postalCode":"75266-0044","country":"USA"}]},"request":{"method":"PUT","url":"Organization/42846cc3-1db0-4bf7-b9ff-8b81fa6e835d"}},{"fullUrl":"https://madie.cms.gov/Practitioner/practitioner-123456","resource":{"resourceType":"Practitioner","id":"ccf1b023-fa43-4b1e-a15e-ec5418b18a33","identifier":[{"system":"http://hl7.org/fhir/sid/us-npi","value":"123456"}],"name":[{"family":"Evil","prefix":["Dr"]}]},"request":{"method":"PUT","url":"Practitioner/ccf1b023-fa43-4b1e-a15e-ec5418b18a33"}},{"fullUrl":"https://madie.cms.gov/MeasureReport/0451758b-7723-421f-b08c-779750e21e80","resource":{"resourceType":"MeasureReport","id":"0451758b-7723-421f-b08c-779750e21e80","meta":{"profile":["http://hl7.org/fhir/us/cqfmeasures/StructureDefinition/test-case-cqfm"]},"contained":[{"resourceType":"Parameters","id":"dafb5c91-a71d-4d6f-9f5c-2d6029777a24-parameters","parameter":[{"name":"subject","valueString":"3842ef3b-ebeb-42d6-9035-aa5280bcdcfd"}]}],"extension":[{"url":"http://hl7.org/fhir/us/cqfmeasures/StructureDefinition/cqfm-inputParameters","valueReference":{"reference":"#dafb5c91-a71d-4d6f-9f5c-2d6029777a24-parameters"}},{"url":"http://hl7.org/fhir/us/cqfmeasures/StructureDefinition/cqfm-testCaseDescription","valueMarkdown":"EGA 43 weeks; Assessment performed Abnormal presentation Relevant Dt/time 1 min before encounter start , gravida 1, \n"}],"modifierExtension":[{"url":"http://hl7.org/fhir/us/cqfmeasures/StructureDefinition/cqfm-isTestCase","valueBoolean":true}],"status":"complete","type":"individual","measure":"https://madie.cms.gov/Measure/CesareanBirthFHIR","period":{"start":"2025-01-01","end":"2025-12-31"},"group":[{"population":[{"code":{"coding":[{"system":"http://terminology.hl7.org/CodeSystem/measure-population","code":"initial-population","display":"Initial Population"}]},"count":1},{"code":{"coding":[{"system":"http://terminology.hl7.org/CodeSystem/measure-population","code":"denominator","display":"Denominator"}]},"count":1},{"code":{"coding":[{"system":"http://terminology.hl7.org/CodeSystem/measure-population","code":"denominator-exclusion","display":"Denominator Exclusion"}]},"count":0},{"code":{"coding":[{"system":"http://terminology.hl7.org/CodeSystem/measure-population","code":"numerator","display":"Numerator"}]},"count":0}]}]},"request":{"method":"PUT","url":"MeasureReport/0451758b-7723-421f-b08c-779750e21e80"}}]}