{"resourceType":"Bundle","id":"tests-c24efa29-0d0b-42d0-b07e-3c0ed4fcc873-bundle","type":"transaction","entry":[{"fullUrl":"https://madie.cms.gov/Patient/c24efa29-0d0b-42d0-b07e-3c0ed4fcc873","resource":{"resourceType":"Patient","id":"c24efa29-0d0b-42d0-b07e-3c0ed4fcc873","meta":{"profile":["http://hl7.org/fhir/us/qicore/StructureDefinition/qicore-patient"]},"text":{"status":"generated","div":"<div xmlns=\"http://www.w3.org/1999/xhtml\"><div class=\"hapiHeaderText\">AssessPerfAbnPresRelvtPeriodB4TimeOfDeliv_DuringEnc <b>DENEXPASS </b></div><table class=\"hapiPropertyTable\"><tbody><tr><td>Identifier</td><td>db09244543fe550232b604cb7d87decbeb851047882e641e3fe736fdce398a0a</td></tr><tr><td>Date of birth</td><td><span>14 February 1985</span></td></tr></tbody></table></div>"},"extension":[{"url":"http://hl7.org/fhir/us/core/StructureDefinition/us-core-race","extension":[{"url":"ombCategory","valueCoding":{"system":"urn:oid:2.16.840.1.113883.6.238","code":"1002-5","display":"American Indian or Alaska Native","userSelected":true}},{"url":"text","valueString":"American Indian or Alaska Native"}]},{"url":"http://hl7.org/fhir/us/core/StructureDefinition/us-core-ethnicity","extension":[{"url":"ombCategory","valueCoding":{"system":"urn:oid:2.16.840.1.113883.6.238","code":"2135-2","display":"Hispanic or Latino","userSelected":true}},{"url":"text","valueString":"Hispanic or Latino"}]}],"identifier":[{"type":{"coding":[{"system":"http://terminology.hl7.org/CodeSystem/v2-0203","code":"MR"}]},"system":"https://bonnie-fhir.healthit.gov/","value":"63487c300968f801225401ce"}],"active":true,"name":[{"use":"usual","family":"DENEXPass","given":["AssessPerfAbnPresRelvtPeriodB4TimeOfDeliv_DuringEnc"]}],"gender":"female","birthDate":"1997-02-14"},"request":{"method":"PUT","url":"Patient/c24efa29-0d0b-42d0-b07e-3c0ed4fcc873"}},{"fullUrl":"https://madie.cms.gov/Observation/5d014eb2b8484608723805f9","resource":{"resourceType":"Observation","id":"818f5c0b-5d3c-4d3f-a4da-161c1f847014","meta":{"profile":["http://hl7.org/fhir/us/qicore/StructureDefinition/qicore-observation"]},"status":"final","category":[{"coding":[{"system":"http://terminology.hl7.org/CodeSystem/observation-category","code":"exam","display":"exam","userSelected":true}]}],"code":{"coding":[{"system":"http://loinc.org","code":"11996-6"}]},"subject":{"reference":"Patient/c24efa29-0d0b-42d0-b07e-3c0ed4fcc873"},"effectiveDateTime":"2025-06-08T08:00:00.000+00:00","valueInteger":1},"request":{"method":"PUT","url":"Observation/818f5c0b-5d3c-4d3f-a4da-161c1f847014"}},{"fullUrl":"https://madie.cms.gov/Observation/5d014eb2b8484608723805fb","resource":{"resourceType":"Observation","id":"379416a5-d8f8-4075-8bd1-d4b2af4cda5a","meta":{"profile":["http://hl7.org/fhir/us/qicore/StructureDefinition/qicore-observation"]},"status":"final","category":[{"coding":[{"system":"http://terminology.hl7.org/CodeSystem/observation-category","code":"exam","display":"exam","userSelected":true}]}],"code":{"coding":[{"system":"http://loinc.org","code":"11884-4"}]},"subject":{"reference":"Patient/c24efa29-0d0b-42d0-b07e-3c0ed4fcc873"},"effectiveDateTime":"2025-06-08T08:00:00.000+00:00","valueQuantity":{"value":43.0,"system":"http://unitsofmeasure.org","code":"weeks"}},"request":{"method":"PUT","url":"Observation/379416a5-d8f8-4075-8bd1-d4b2af4cda5a"}},{"fullUrl":"https://madie.cms.gov/Observation/5e61164ceadaae0000c2b22f","resource":{"resourceType":"Observation","id":"0c12d041-8468-4f4d-bd1d-0241d794eadb","meta":{"profile":["http://hl7.org/fhir/us/qicore/StructureDefinition/qicore-observation"]},"status":"final","category":[{"coding":[{"system":"http://terminology.hl7.org/CodeSystem/observation-category","code":"exam","display":"exam","userSelected":true}]}],"code":{"coding":[{"system":"http://loinc.org","code":"93857-1"}]},"subject":{"reference":"Patient/c24efa29-0d0b-42d0-b07e-3c0ed4fcc873"},"effectiveDateTime":"2025-06-08T20:30:00.000+00:00","valueDateTime":"2025-06-08T08:30:00+00:00"},"request":{"method":"PUT","url":"Observation/0c12d041-8468-4f4d-bd1d-0241d794eadb"}},{"fullUrl":"https://madie.cms.gov/Observation/606dbe2184679a0000f3ba33","resource":{"resourceType":"Observation","id":"6d4a3aee-db93-4120-ad04-942b6f7997eb","meta":{"profile":["http://hl7.org/fhir/us/qicore/StructureDefinition/qicore-observation"]},"status":"final","category":[{"coding":[{"system":"http://terminology.hl7.org/CodeSystem/observation-category","code":"exam","display":"exam","userSelected":true}]}],"code":{"coding":[{"system":"http://snomed.info/sct","code":"18559007"}]},"subject":{"reference":"Patient/c24efa29-0d0b-42d0-b07e-3c0ed4fcc873"},"effectiveDateTime":"2025-06-08T08:29:00.000+00:00"},"request":{"method":"PUT","url":"Observation/6d4a3aee-db93-4120-ad04-942b6f7997eb"}},{"fullUrl":"https://madie.cms.gov/Encounter/5d014eb2b8484608723805f6","resource":{"resourceType":"Encounter","id":"7a507285-70d0-4c5f-afbc-568026355acd","meta":{"profile":["http://hl7.org/fhir/us/qicore/StructureDefinition/qicore-encounter"]},"status":"finished","class":{"system":"http://terminology.hl7.org/CodeSystem/v3-ActCode","code":"IMP","display":"inpatient encounter"},"type":[{"coding":[{"system":"http://snomed.info/sct","code":"8715000"}]}],"subject":{"reference":"Patient/c24efa29-0d0b-42d0-b07e-3c0ed4fcc873"},"period":{"start":"2025-06-08T08:00:00.000Z","end":"2025-06-10T08:15:00.000Z"},"diagnosis":[{"condition":{"reference":"Condition/delivery-of-singleton-099d"}}]},"request":{"method":"PUT","url":"Encounter/7a507285-70d0-4c5f-afbc-568026355acd"}},{"fullUrl":"https://madie.cms.gov/Procedure/5d014eb2b8484608723805f7","resource":{"resourceType":"Procedure","id":"816f143e-816e-4c77-ab0d-c204b0b92b67","meta":{"profile":["http://hl7.org/fhir/us/qicore/StructureDefinition/qicore-procedure"]},"extension":[{"url":"http://hl7.org/fhir/us/qicore/StructureDefinition/qicore-recorded","valueDateTime":"2013-04-05T09:35:00-04:00"}],"status":"completed","code":{"coding":[{"system":"http://snomed.info/sct","code":"4504004"}]},"subject":{"reference":"Patient/c24efa29-0d0b-42d0-b07e-3c0ed4fcc873"},"performedPeriod":{"start":"2025-06-08T20:00:00.000Z","end":"2025-06-18T20:00:00.000Z"}},"request":{"method":"PUT","url":"Procedure/816f143e-816e-4c77-ab0d-c204b0b92b67"}},{"fullUrl":"https://madie.cms.gov/Condition/delivery-of-singleton-099d","resource":{"resourceType":"Condition","id":"664c7694-6615-434f-b742-c40c9518dd51","meta":{"profile":["http://hl7.org/fhir/us/qicore/StructureDefinition/qicore-condition"]},"category":[{"coding":[{"system":"http://terminology.hl7.org/CodeSystem/condition-category","code":"encounter-diagnosis","display":"Encounter Diagnosis"}]}],"code":{"coding":[{"system":"http://snomed.info/sct","version":"2022-09","code":"169826009","display":"Single live birth (finding)","userSelected":true}]},"subject":{"reference":"Patient/c24efa29-0d0b-42d0-b07e-3c0ed4fcc873"},"recordedDate":"2025-10-17T08:00:00.000+00:00"},"request":{"method":"PUT","url":"Condition/664c7694-6615-434f-b742-c40c9518dd51"}},{"fullUrl":"https://madie.cms.gov/Coverage/1","resource":{"resourceType":"Coverage","id":"aa88123f-7b39-4bed-b91e-c3b19db1abd4","meta":{"profile":["http://hl7.org/fhir/us/qicore/StructureDefinition/qicore-coverage"]},"status":"active","beneficiary":{"reference":"Patient/c24efa29-0d0b-42d0-b07e-3c0ed4fcc873"},"payor":[{"reference":"Organization/f6075515-d38f-4624-bde8-a1ce20473a69"}]},"request":{"method":"PUT","url":"Coverage/aa88123f-7b39-4bed-b91e-c3b19db1abd4"}},{"fullUrl":"https://madie.cms.gov/Organization/123456","resource":{"resourceType":"Organization","id":"f6075515-d38f-4624-bde8-a1ce20473a69","meta":{"profile":["http://hl7.org/fhir/us/qicore/StructureDefinition/qicore-organization"]},"identifier":[{"use":"temp","system":"urn:oid:2.16.840.1.113883.4.4","value":"21-3259825"}],"active":true,"type":[{"coding":[{"system":"http://terminology.hl7.org/CodeSystem/organization-type","code":"pay","display":"Payer"}]}],"name":"Blue Cross Blue Shield of Texas","telecom":[{"system":"phone","value":"(+1) 972-766-6900"}],"address":[{"use":"billing","type":"postal","line":["P.O. Box 660044"],"city":"Dallas","state":"TX","postalCode":"75266-0044","country":"USA"}]},"request":{"method":"PUT","url":"Organization/f6075515-d38f-4624-bde8-a1ce20473a69"}},{"fullUrl":"https://madie.cms.gov/Practitioner/practitioner-123456","resource":{"resourceType":"Practitioner","id":"cd965913-b160-4037-9ce1-351d2818fd03","identifier":[{"system":"http://hl7.org/fhir/sid/us-npi","value":"123456"}],"name":[{"family":"Evil","prefix":["Dr"]}]},"request":{"method":"PUT","url":"Practitioner/cd965913-b160-4037-9ce1-351d2818fd03"}},{"fullUrl":"https://madie.cms.gov/MeasureReport/e08d8228-17b1-4b60-9059-7f1760e841bc","resource":{"resourceType":"MeasureReport","id":"e08d8228-17b1-4b60-9059-7f1760e841bc","meta":{"profile":["http://hl7.org/fhir/us/cqfmeasures/StructureDefinition/test-case-cqfm"]},"contained":[{"resourceType":"Parameters","id":"0aaa4d94-ad93-4b72-9dd1-009284cdcff1-parameters","parameter":[{"name":"subject","valueString":"c24efa29-0d0b-42d0-b07e-3c0ed4fcc873"}]}],"extension":[{"url":"http://hl7.org/fhir/us/cqfmeasures/StructureDefinition/cqfm-inputParameters","valueReference":{"reference":"#0aaa4d94-ad93-4b72-9dd1-009284cdcff1-parameters"}},{"url":"http://hl7.org/fhir/us/cqfmeasures/StructureDefinition/cqfm-testCaseDescription","valueMarkdown":"EGA 43 weeks; Assessment performed Abnormal presentation relevant Period  before time of delivery and during Enc \n"}],"modifierExtension":[{"url":"http://hl7.org/fhir/us/cqfmeasures/StructureDefinition/cqfm-isTestCase","valueBoolean":true}],"status":"complete","type":"individual","measure":"https://madie.cms.gov/Measure/CesareanBirthFHIR","period":{"start":"2025-01-01","end":"2025-12-31"},"group":[{"population":[{"code":{"coding":[{"system":"http://terminology.hl7.org/CodeSystem/measure-population","code":"initial-population","display":"Initial Population"}]},"count":1},{"code":{"coding":[{"system":"http://terminology.hl7.org/CodeSystem/measure-population","code":"denominator","display":"Denominator"}]},"count":1},{"code":{"coding":[{"system":"http://terminology.hl7.org/CodeSystem/measure-population","code":"denominator-exclusion","display":"Denominator Exclusion"}]},"count":1},{"code":{"coding":[{"system":"http://terminology.hl7.org/CodeSystem/measure-population","code":"numerator","display":"Numerator"}]},"count":0}]}]},"request":{"method":"PUT","url":"MeasureReport/e08d8228-17b1-4b60-9059-7f1760e841bc"}}]}