{"resourceType":"Bundle","id":"tests-ebbb9064-6bf2-4ad1-ad56-5ee93afde52d-bundle","type":"transaction","entry":[{"fullUrl":"https://madie.cms.gov/Patient/ebbb9064-6bf2-4ad1-ad56-5ee93afde52d","resource":{"resourceType":"Patient","id":"ebbb9064-6bf2-4ad1-ad56-5ee93afde52d","meta":{"profile":["http://hl7.org/fhir/us/qicore/StructureDefinition/qicore-patient"]},"text":{"status":"generated","div":"<div xmlns=\"http://www.w3.org/1999/xhtml\"><div class=\"hapiHeaderText\">AssessP0RelDtTimeLTTimeOfDeliv <b>DENPASS </b></div><table class=\"hapiPropertyTable\"><tbody><tr><td>Identifier</td><td>cb4a87fae0aeb4667064306e289209af09ca2376f26fb181f5d5ea03cba5dc53</td></tr><tr><td>Date of birth</td><td><span>14 February 1985</span></td></tr></tbody></table></div>"},"extension":[{"url":"http://hl7.org/fhir/us/core/StructureDefinition/us-core-race","extension":[{"url":"ombCategory","valueCoding":{"system":"urn:oid:2.16.840.1.113883.6.238","code":"1002-5","display":"American Indian or Alaska Native","userSelected":true}},{"url":"text","valueString":"American Indian or Alaska Native"}]},{"url":"http://hl7.org/fhir/us/core/StructureDefinition/us-core-ethnicity","extension":[{"url":"ombCategory","valueCoding":{"system":"urn:oid:2.16.840.1.113883.6.238","code":"2135-2","display":"Hispanic or Latino","userSelected":true}},{"url":"text","valueString":"Hispanic or Latino"}]}],"identifier":[{"type":{"coding":[{"system":"http://terminology.hl7.org/CodeSystem/v2-0203","code":"MR"}]},"system":"https://bonnie-fhir.healthit.gov/","value":"63487c2e0968f8012254017a"}],"active":true,"name":[{"use":"usual","family":"DENPass","given":["AssessP0RelDtTimeLTTimeOfDeliv"]}],"gender":"female","birthDate":"1997-02-14"},"request":{"method":"PUT","url":"Patient/ebbb9064-6bf2-4ad1-ad56-5ee93afde52d"}},{"fullUrl":"https://madie.cms.gov/Observation/5d014eb2b848460872380600","resource":{"resourceType":"Observation","id":"dd1cc913-bec3-46ef-a187-3ad16a0b77e7","meta":{"profile":["http://hl7.org/fhir/us/qicore/StructureDefinition/qicore-observation"]},"status":"final","category":[{"coding":[{"system":"http://terminology.hl7.org/CodeSystem/observation-category","code":"exam","display":"exam","userSelected":true}]}],"code":{"coding":[{"system":"http://loinc.org","code":"11977-6"}]},"subject":{"reference":"Patient/ebbb9064-6bf2-4ad1-ad56-5ee93afde52d"},"effectiveDateTime":"2025-06-08T19:59:00.000+00:00","valueInteger":0},"request":{"method":"PUT","url":"Observation/dd1cc913-bec3-46ef-a187-3ad16a0b77e7"}},{"fullUrl":"https://madie.cms.gov/Observation/5d014eb2b848460872380602","resource":{"resourceType":"Observation","id":"ab84d567-102f-495d-a350-f8d0be95deda","meta":{"profile":["http://hl7.org/fhir/us/qicore/StructureDefinition/qicore-observation"]},"status":"final","category":[{"coding":[{"system":"http://terminology.hl7.org/CodeSystem/observation-category","code":"exam","display":"exam","userSelected":true}]}],"code":{"coding":[{"system":"http://loinc.org","code":"11884-4"}]},"subject":{"reference":"Patient/ebbb9064-6bf2-4ad1-ad56-5ee93afde52d"},"effectiveDateTime":"2025-06-08T20:00:00.000+00:00","valueQuantity":{"value":37.0,"system":"http://unitsofmeasure.org","code":"weeks"}},"request":{"method":"PUT","url":"Observation/ab84d567-102f-495d-a350-f8d0be95deda"}},{"fullUrl":"https://madie.cms.gov/Observation/5e68ec8c59d82f0000c960fe","resource":{"resourceType":"Observation","id":"9205dec9-bd28-4034-923e-a165ef5259a0","meta":{"profile":["http://hl7.org/fhir/us/qicore/StructureDefinition/qicore-observation"]},"status":"final","category":[{"coding":[{"system":"http://terminology.hl7.org/CodeSystem/observation-category","code":"exam","display":"exam","userSelected":true}]}],"code":{"coding":[{"system":"http://loinc.org","code":"93857-1"}]},"subject":{"reference":"Patient/ebbb9064-6bf2-4ad1-ad56-5ee93afde52d"},"effectiveDateTime":"2025-06-08T20:00:00.000+00:00","valueDateTime":"2025-06-08T20:00:00+00:00"},"request":{"method":"PUT","url":"Observation/9205dec9-bd28-4034-923e-a165ef5259a0"}},{"fullUrl":"https://madie.cms.gov/Encounter/5d014eb2b8484608723805fe","resource":{"resourceType":"Encounter","id":"fc172b26-489d-43e7-8dc5-fe38056e10de","meta":{"profile":["http://hl7.org/fhir/us/qicore/StructureDefinition/qicore-encounter"]},"status":"finished","class":{"system":"http://terminology.hl7.org/CodeSystem/v3-ActCode","code":"IMP","display":"inpatient encounter"},"type":[{"coding":[{"system":"http://snomed.info/sct","code":"8715000"}]}],"subject":{"reference":"Patient/ebbb9064-6bf2-4ad1-ad56-5ee93afde52d"},"period":{"start":"2025-06-08T08:00:00.000Z","end":"2025-06-10T08:15:00.000Z"},"length":{"value":2.0,"unit":"days"},"diagnosis":[{"condition":{"reference":"Condition/delivery-of-singleton-f83c"},"use":{"coding":[{"system":"http://snomed.info/sct","code":"169826009","display":"Delivery of Singleton"}]}},{"condition":{"reference":"Condition/delivery-of-singleton-3abc"}}]},"request":{"method":"PUT","url":"Encounter/fc172b26-489d-43e7-8dc5-fe38056e10de"}},{"fullUrl":"https://madie.cms.gov/Procedure/5d014eb2b8484608723805ff","resource":{"resourceType":"Procedure","id":"d779e578-7745-4148-894c-9022d787126b","meta":{"profile":["http://hl7.org/fhir/us/qicore/StructureDefinition/qicore-procedure"]},"extension":[{"url":"http://hl7.org/fhir/us/qicore/StructureDefinition/qicore-recorded","valueDateTime":"2013-04-05T09:35:00-04:00"}],"status":"completed","code":{"coding":[{"system":"http://www.cms.gov/Medicare/Coding/ICD10","code":"10D00Z0"},{"system":"http://www.icd10data.com/icd10pcs","code":"10D00Z1","userSelected":true}]},"subject":{"reference":"Patient/ebbb9064-6bf2-4ad1-ad56-5ee93afde52d"},"performedPeriod":{"start":"2025-06-08T20:00:00.000Z","end":"2025-06-08T20:15:00.000Z"}},"request":{"method":"PUT","url":"Procedure/d779e578-7745-4148-894c-9022d787126b"}},{"fullUrl":"https://madie.cms.gov/Condition/delivery-of-singleton-3abc","resource":{"resourceType":"Condition","id":"f46077c9-cde8-4bd1-b39b-fc5baf2793cb","meta":{"profile":["http://hl7.org/fhir/us/qicore/StructureDefinition/qicore-condition"]},"category":[{"coding":[{"system":"http://terminology.hl7.org/CodeSystem/condition-category","code":"encounter-diagnosis","display":"Encounter Diagnosis"}]}],"code":{"coding":[{"system":"http://snomed.info/sct","version":"2022-09","code":"169826009","display":"Single live birth (finding)","userSelected":true}]},"subject":{"reference":"Patient/ebbb9064-6bf2-4ad1-ad56-5ee93afde52d"},"recordedDate":"2025-10-18T08:00:00.000+00:00"},"request":{"method":"PUT","url":"Condition/f46077c9-cde8-4bd1-b39b-fc5baf2793cb"}},{"fullUrl":"https://madie.cms.gov/Coverage/1","resource":{"resourceType":"Coverage","id":"678d0787-7e8f-42e9-a730-d3f01baeeca3","meta":{"profile":["http://hl7.org/fhir/us/qicore/StructureDefinition/qicore-coverage"]},"status":"active","beneficiary":{"reference":"Patient/ebbb9064-6bf2-4ad1-ad56-5ee93afde52d"},"payor":[{"reference":"Organization/84b56847-ad40-4bf6-b612-9e42ad2a84e5"}]},"request":{"method":"PUT","url":"Coverage/678d0787-7e8f-42e9-a730-d3f01baeeca3"}},{"fullUrl":"https://madie.cms.gov/Organization/123456","resource":{"resourceType":"Organization","id":"84b56847-ad40-4bf6-b612-9e42ad2a84e5","meta":{"profile":["http://hl7.org/fhir/us/qicore/StructureDefinition/qicore-organization"]},"identifier":[{"use":"temp","system":"urn:oid:2.16.840.1.113883.4.4","value":"21-3259825"}],"active":true,"type":[{"coding":[{"system":"http://terminology.hl7.org/CodeSystem/organization-type","code":"pay","display":"Payer"}]}],"name":"Blue Cross Blue Shield of Texas","telecom":[{"system":"phone","value":"(+1) 972-766-6900"}],"address":[{"use":"billing","type":"postal","line":["P.O. Box 660044"],"city":"Dallas","state":"TX","postalCode":"75266-0044","country":"USA"}]},"request":{"method":"PUT","url":"Organization/84b56847-ad40-4bf6-b612-9e42ad2a84e5"}},{"fullUrl":"https://madie.cms.gov/Practitioner/practitioner-123456","resource":{"resourceType":"Practitioner","id":"f5caa2f5-c06a-496e-816a-8b71a48dc2ea","identifier":[{"system":"http://hl7.org/fhir/sid/us-npi","value":"123456"}],"name":[{"family":"Evil","prefix":["Dr"]}]},"request":{"method":"PUT","url":"Practitioner/f5caa2f5-c06a-496e-816a-8b71a48dc2ea"}},{"fullUrl":"https://madie.cms.gov/MeasureReport/742741ae-cb8a-4460-9199-d0bb8034679e","resource":{"resourceType":"MeasureReport","id":"742741ae-cb8a-4460-9199-d0bb8034679e","meta":{"profile":["http://hl7.org/fhir/us/cqfmeasures/StructureDefinition/test-case-cqfm"]},"contained":[{"resourceType":"Parameters","id":"bc61e716-83e0-401b-8a3c-b74da46f9a02-parameters","parameter":[{"name":"subject","valueString":"ebbb9064-6bf2-4ad1-ad56-5ee93afde52d"}]}],"extension":[{"url":"http://hl7.org/fhir/us/cqfmeasures/StructureDefinition/cqfm-inputParameters","valueReference":{"reference":"#bc61e716-83e0-401b-8a3c-b74da46f9a02-parameters"}},{"url":"http://hl7.org/fhir/us/cqfmeasures/StructureDefinition/cqfm-testCaseDescription","valueMarkdown":"Parity=0, relevant date/time same date but time less than delivery date/time\n"}],"modifierExtension":[{"url":"http://hl7.org/fhir/us/cqfmeasures/StructureDefinition/cqfm-isTestCase","valueBoolean":true}],"status":"complete","type":"individual","measure":"https://madie.cms.gov/Measure/CesareanBirthFHIR","period":{"start":"2025-01-01","end":"2025-12-31"},"group":[{"population":[{"code":{"coding":[{"system":"http://terminology.hl7.org/CodeSystem/measure-population","code":"initial-population","display":"Initial Population"}]},"count":1},{"code":{"coding":[{"system":"http://terminology.hl7.org/CodeSystem/measure-population","code":"denominator","display":"Denominator"}]},"count":1},{"code":{"coding":[{"system":"http://terminology.hl7.org/CodeSystem/measure-population","code":"denominator-exclusion","display":"Denominator Exclusion"}]},"count":0},{"code":{"coding":[{"system":"http://terminology.hl7.org/CodeSystem/measure-population","code":"numerator","display":"Numerator"}]},"count":1}]}]},"request":{"method":"PUT","url":"MeasureReport/742741ae-cb8a-4460-9199-d0bb8034679e"}}]}