{"resourceType":"Bundle","id":"tests-1ec8fccf-d982-4dcd-a0df-94b9c1150fd6-bundle","type":"transaction","entry":[{"fullUrl":"https://madie.cms.gov/Patient/1ec8fccf-d982-4dcd-a0df-94b9c1150fd6","resource":{"resourceType":"Patient","id":"1ec8fccf-d982-4dcd-a0df-94b9c1150fd6","meta":{"profile":["http://hl7.org/fhir/us/qicore/StructureDefinition/qicore-patient"]},"text":{"status":"generated","div":"<div xmlns=\"http://www.w3.org/1999/xhtml\"><div class=\"hapiHeaderText\">AssessPerfAbnPresRelDtTimeEQTimeOfDeliv <b>DENEXPASS </b></div><table class=\"hapiPropertyTable\"><tbody><tr><td>Identifier</td><td>026ef11ad83a8a7cf2dd9a5df623df3fb5fe5e8210cfb6bc83e410fca26c8633</td></tr><tr><td>Date of birth</td><td><span>14 February 1985</span></td></tr></tbody></table></div>"},"extension":[{"url":"http://hl7.org/fhir/us/core/StructureDefinition/us-core-race","extension":[{"url":"ombCategory","valueCoding":{"system":"urn:oid:2.16.840.1.113883.6.238","code":"1002-5","display":"American Indian or Alaska Native","userSelected":true}},{"url":"text","valueString":"American Indian or Alaska Native"}]},{"url":"http://hl7.org/fhir/us/core/StructureDefinition/us-core-ethnicity","extension":[{"url":"ombCategory","valueCoding":{"system":"urn:oid:2.16.840.1.113883.6.238","code":"2135-2","display":"Hispanic or Latino","userSelected":true}},{"url":"text","valueString":"Hispanic or Latino"}]}],"identifier":[{"type":{"coding":[{"system":"http://terminology.hl7.org/CodeSystem/v2-0203","code":"MR"}]},"system":"https://bonnie-fhir.healthit.gov/","value":"63487c2f0968f80122540195"}],"active":true,"name":[{"use":"usual","family":"DENEXPass","given":["AssessPerfAbnPresRelDtTimeEQTimeOfDeliv"]}],"gender":"female","birthDate":"1997-02-14"},"request":{"method":"PUT","url":"Patient/1ec8fccf-d982-4dcd-a0df-94b9c1150fd6"}},{"fullUrl":"https://madie.cms.gov/Observation/5d014eb3b8484608723806d1","resource":{"resourceType":"Observation","id":"084797d0-4a89-4aa0-aa4f-79009b55a26b","meta":{"profile":["http://hl7.org/fhir/us/qicore/StructureDefinition/qicore-observation"]},"status":"final","category":[{"coding":[{"system":"http://terminology.hl7.org/CodeSystem/observation-category","code":"exam","display":"exam","userSelected":true}]}],"code":{"coding":[{"system":"http://loinc.org","code":"11996-6"}]},"subject":{"reference":"Patient/1ec8fccf-d982-4dcd-a0df-94b9c1150fd6"},"effectiveDateTime":"2025-06-08T08:00:00.000+00:00","valueInteger":1},"request":{"method":"PUT","url":"Observation/084797d0-4a89-4aa0-aa4f-79009b55a26b"}},{"fullUrl":"https://madie.cms.gov/Observation/5d014eb3b8484608723806d3","resource":{"resourceType":"Observation","id":"e64cbcb7-e2d8-42e1-b126-84147c673eb9","meta":{"profile":["http://hl7.org/fhir/us/qicore/StructureDefinition/qicore-observation"]},"status":"final","category":[{"coding":[{"system":"http://terminology.hl7.org/CodeSystem/observation-category","code":"exam","display":"exam","userSelected":true}]}],"code":{"coding":[{"system":"http://loinc.org","code":"11884-4"}]},"subject":{"reference":"Patient/1ec8fccf-d982-4dcd-a0df-94b9c1150fd6"},"effectiveDateTime":"2025-06-08T08:00:00.000+00:00","valueQuantity":{"value":43.0,"system":"http://unitsofmeasure.org","code":"weeks"}},"request":{"method":"PUT","url":"Observation/e64cbcb7-e2d8-42e1-b126-84147c673eb9"}},{"fullUrl":"https://madie.cms.gov/Observation/5e611823eadaae0000c2b50f","resource":{"resourceType":"Observation","id":"8fc596b9-52bb-47cb-8faa-268142f36c52","meta":{"profile":["http://hl7.org/fhir/us/qicore/StructureDefinition/qicore-observation"]},"status":"final","category":[{"coding":[{"system":"http://terminology.hl7.org/CodeSystem/observation-category","code":"exam","display":"exam","userSelected":true}]}],"code":{"coding":[{"system":"http://loinc.org","code":"93857-1"}]},"subject":{"reference":"Patient/1ec8fccf-d982-4dcd-a0df-94b9c1150fd6"},"effectiveDateTime":"2025-06-08T20:00:00.000+00:00","valueDateTime":"2025-06-08T20:00:00.000+00:00"},"request":{"method":"PUT","url":"Observation/8fc596b9-52bb-47cb-8faa-268142f36c52"}},{"fullUrl":"https://madie.cms.gov/Observation/606dbf4484679a0000f3bb10","resource":{"resourceType":"Observation","id":"05ea22c8-1b96-4943-8fa6-f3a7ad288756","meta":{"profile":["http://hl7.org/fhir/us/qicore/StructureDefinition/qicore-observation"]},"status":"final","category":[{"coding":[{"system":"http://terminology.hl7.org/CodeSystem/observation-category","code":"exam","display":"exam","userSelected":true}]}],"code":{"coding":[{"system":"http://snomed.info/sct","code":"18559007"}]},"subject":{"reference":"Patient/1ec8fccf-d982-4dcd-a0df-94b9c1150fd6"},"effectiveDateTime":"2025-06-08T20:00:00.000+00:00"},"request":{"method":"PUT","url":"Observation/05ea22c8-1b96-4943-8fa6-f3a7ad288756"}},{"fullUrl":"https://madie.cms.gov/Encounter/5d014eb3b8484608723806ce","resource":{"resourceType":"Encounter","id":"00cb09cb-2dde-4912-9a24-fd3dd01bd53c","meta":{"profile":["http://hl7.org/fhir/us/qicore/StructureDefinition/qicore-encounter"]},"status":"finished","class":{"system":"http://terminology.hl7.org/CodeSystem/v3-ActCode","code":"IMP","display":"inpatient encounter"},"type":[{"coding":[{"system":"http://snomed.info/sct","code":"8715000"}]}],"subject":{"reference":"Patient/1ec8fccf-d982-4dcd-a0df-94b9c1150fd6"},"period":{"start":"2025-06-08T08:00:00.000Z","end":"2025-06-10T08:15:00.000Z"},"diagnosis":[{"condition":{"reference":"Condition/delivery-of-singleton-099b"}}]},"request":{"method":"PUT","url":"Encounter/00cb09cb-2dde-4912-9a24-fd3dd01bd53c"}},{"fullUrl":"https://madie.cms.gov/Procedure/5d014eb3b8484608723806cf","resource":{"resourceType":"Procedure","id":"05458748-5c38-49f6-938f-9e8292ac24a7","meta":{"profile":["http://hl7.org/fhir/us/qicore/StructureDefinition/qicore-procedure"]},"extension":[{"url":"http://hl7.org/fhir/us/qicore/StructureDefinition/qicore-recorded","valueDateTime":"2013-04-05T09:35:00-04:00"}],"status":"completed","code":{"coding":[{"system":"http://www.cms.gov/Medicare/Coding/ICD10","code":"10D00Z0"},{"system":"http://www.icd10data.com/icd10pcs","code":"10D00Z0","userSelected":true}]},"subject":{"reference":"Patient/1ec8fccf-d982-4dcd-a0df-94b9c1150fd6"},"performedDateTime":"2025-06-08T08:00:00.000+00:00"},"request":{"method":"PUT","url":"Procedure/05458748-5c38-49f6-938f-9e8292ac24a7"}},{"fullUrl":"https://madie.cms.gov/Condition/delivery-of-singleton-099b","resource":{"resourceType":"Condition","id":"b610d99a-3e83-4eb1-a2e1-d78d05c7dd43","meta":{"profile":["http://hl7.org/fhir/us/qicore/StructureDefinition/qicore-condition"]},"category":[{"coding":[{"system":"http://terminology.hl7.org/CodeSystem/condition-category","code":"encounter-diagnosis","display":"Encounter Diagnosis"}]}],"code":{"coding":[{"system":"http://snomed.info/sct","version":"2022-09","code":"169826009","display":"Single live birth (finding)","userSelected":true}]},"subject":{"reference":"Patient/1ec8fccf-d982-4dcd-a0df-94b9c1150fd6"},"recordedDate":"2025-10-17T08:00:00.000+00:00"},"request":{"method":"PUT","url":"Condition/b610d99a-3e83-4eb1-a2e1-d78d05c7dd43"}},{"fullUrl":"https://madie.cms.gov/Coverage/1","resource":{"resourceType":"Coverage","id":"fc710a2c-b99d-47b9-939c-b3731d169bc2","meta":{"profile":["http://hl7.org/fhir/us/qicore/StructureDefinition/qicore-coverage"]},"status":"active","beneficiary":{"reference":"Patient/1ec8fccf-d982-4dcd-a0df-94b9c1150fd6"},"payor":[{"reference":"Organization/ec8cac12-7dd8-4c6e-8c44-d6c645085c80"}]},"request":{"method":"PUT","url":"Coverage/fc710a2c-b99d-47b9-939c-b3731d169bc2"}},{"fullUrl":"https://madie.cms.gov/Organization/123456","resource":{"resourceType":"Organization","id":"ec8cac12-7dd8-4c6e-8c44-d6c645085c80","meta":{"profile":["http://hl7.org/fhir/us/qicore/StructureDefinition/qicore-organization"]},"identifier":[{"use":"temp","system":"urn:oid:2.16.840.1.113883.4.4","value":"21-3259825"}],"active":true,"type":[{"coding":[{"system":"http://terminology.hl7.org/CodeSystem/organization-type","code":"pay","display":"Payer"}]}],"name":"Blue Cross Blue Shield of Texas","telecom":[{"system":"phone","value":"(+1) 972-766-6900"}],"address":[{"use":"billing","type":"postal","line":["P.O. Box 660044"],"city":"Dallas","state":"TX","postalCode":"75266-0044","country":"USA"}]},"request":{"method":"PUT","url":"Organization/ec8cac12-7dd8-4c6e-8c44-d6c645085c80"}},{"fullUrl":"https://madie.cms.gov/Practitioner/practitioner-123456","resource":{"resourceType":"Practitioner","id":"9c8035fd-15ae-4785-8dde-172920065a46","identifier":[{"system":"http://hl7.org/fhir/sid/us-npi","value":"123456"}],"name":[{"family":"Evil","prefix":["Dr"]}]},"request":{"method":"PUT","url":"Practitioner/9c8035fd-15ae-4785-8dde-172920065a46"}},{"fullUrl":"https://madie.cms.gov/MeasureReport/58c23d87-4fd8-436d-94c2-e9817b9e5388","resource":{"resourceType":"MeasureReport","id":"58c23d87-4fd8-436d-94c2-e9817b9e5388","meta":{"profile":["http://hl7.org/fhir/us/cqfmeasures/StructureDefinition/test-case-cqfm"]},"contained":[{"resourceType":"Parameters","id":"22307db2-6420-4b47-9497-720975e2061e-parameters","parameter":[{"name":"subject","valueString":"1ec8fccf-d982-4dcd-a0df-94b9c1150fd6"}]}],"extension":[{"url":"http://hl7.org/fhir/us/cqfmeasures/StructureDefinition/cqfm-inputParameters","valueReference":{"reference":"#22307db2-6420-4b47-9497-720975e2061e-parameters"}},{"url":"http://hl7.org/fhir/us/cqfmeasures/StructureDefinition/cqfm-testCaseDescription","valueMarkdown":"EGA 43 weeks; Assessment performed Abnormal presentation Relevant Dt/time equal the Date time of obstetric delivery , gravida 1, \n"}],"modifierExtension":[{"url":"http://hl7.org/fhir/us/cqfmeasures/StructureDefinition/cqfm-isTestCase","valueBoolean":true}],"status":"complete","type":"individual","measure":"https://madie.cms.gov/Measure/CesareanBirthFHIR","period":{"start":"2025-01-01","end":"2025-12-31"},"group":[{"population":[{"code":{"coding":[{"system":"http://terminology.hl7.org/CodeSystem/measure-population","code":"initial-population","display":"Initial Population"}]},"count":1},{"code":{"coding":[{"system":"http://terminology.hl7.org/CodeSystem/measure-population","code":"denominator","display":"Denominator"}]},"count":1},{"code":{"coding":[{"system":"http://terminology.hl7.org/CodeSystem/measure-population","code":"denominator-exclusion","display":"Denominator Exclusion"}]},"count":1},{"code":{"coding":[{"system":"http://terminology.hl7.org/CodeSystem/measure-population","code":"numerator","display":"Numerator"}]},"count":0}]}]},"request":{"method":"PUT","url":"MeasureReport/58c23d87-4fd8-436d-94c2-e9817b9e5388"}}]}