{"resourceType":"Bundle","id":"tests-1ec8fccf-d982-4dcd-a0df-94b9c1150fd6-bundle","type":"transaction","entry":[{"fullUrl":"https://madie.cms.gov/Patient/1ec8fccf-d982-4dcd-a0df-94b9c1150fd6","resource":{"resourceType":"Patient","id":"1ec8fccf-d982-4dcd-a0df-94b9c1150fd6","meta":{"profile":["http://hl7.org/fhir/us/qicore/StructureDefinition/qicore-patient"]},"text":{"status":"generated","div":"<div xmlns=\"http://www.w3.org/1999/xhtml\"><div class=\"hapiHeaderText\">AssessPerfAbnPresRelDtTimeEQTimeOfDeliv <b>DENEXPASS </b></div><table class=\"hapiPropertyTable\"><tbody><tr><td>Identifier</td><td>026ef11ad83a8a7cf2dd9a5df623df3fb5fe5e8210cfb6bc83e410fca26c8633</td></tr><tr><td>Date of birth</td><td><span>14 February 1985</span></td></tr></tbody></table></div>"},"extension":[{"url":"http://hl7.org/fhir/us/core/StructureDefinition/us-core-race","extension":[{"url":"ombCategory","valueCoding":{"system":"urn:oid:2.16.840.1.113883.6.238","code":"1002-5","display":"American Indian or Alaska Native","userSelected":true}},{"url":"text","valueString":"American Indian or Alaska Native"}]},{"url":"http://hl7.org/fhir/us/core/StructureDefinition/us-core-ethnicity","extension":[{"url":"ombCategory","valueCoding":{"system":"urn:oid:2.16.840.1.113883.6.238","code":"2135-2","display":"Hispanic or Latino","userSelected":true}},{"url":"text","valueString":"Hispanic or Latino"}]}],"identifier":[{"type":{"coding":[{"system":"http://terminology.hl7.org/CodeSystem/v2-0203","code":"MR"}]},"system":"https://bonnie-fhir.healthit.gov/","value":"63487c2f0968f80122540195"}],"active":true,"name":[{"use":"usual","family":"DENEXPass","given":["AssessPerfAbnPresRelDtTimeEQTimeOfDeliv"]}],"gender":"female","birthDate":"1997-02-14"},"request":{"method":"PUT","url":"Patient/1ec8fccf-d982-4dcd-a0df-94b9c1150fd6"}},{"fullUrl":"https://madie.cms.gov/Observation/5d014eb3b8484608723806d1","resource":{"resourceType":"Observation","id":"73a71605-2105-4ada-90be-22400bcd8f09","meta":{"profile":["http://hl7.org/fhir/us/qicore/StructureDefinition/qicore-observation"]},"status":"final","category":[{"coding":[{"system":"http://terminology.hl7.org/CodeSystem/observation-category","code":"exam","display":"exam","userSelected":true}]}],"code":{"coding":[{"system":"http://loinc.org","code":"11996-6"}]},"subject":{"reference":"Patient/1ec8fccf-d982-4dcd-a0df-94b9c1150fd6"},"effectiveDateTime":"2025-06-08T08:00:00.000+00:00","valueInteger":1},"request":{"method":"PUT","url":"Observation/73a71605-2105-4ada-90be-22400bcd8f09"}},{"fullUrl":"https://madie.cms.gov/Observation/5d014eb3b8484608723806d3","resource":{"resourceType":"Observation","id":"21f3a4f4-069a-4852-96e4-5432380ef799","meta":{"profile":["http://hl7.org/fhir/us/qicore/StructureDefinition/qicore-observation"]},"status":"final","category":[{"coding":[{"system":"http://terminology.hl7.org/CodeSystem/observation-category","code":"exam","display":"exam","userSelected":true}]}],"code":{"coding":[{"system":"http://loinc.org","code":"11884-4"}]},"subject":{"reference":"Patient/1ec8fccf-d982-4dcd-a0df-94b9c1150fd6"},"effectiveDateTime":"2025-06-08T08:00:00.000+00:00","valueQuantity":{"value":43.0,"system":"http://unitsofmeasure.org","code":"weeks"}},"request":{"method":"PUT","url":"Observation/21f3a4f4-069a-4852-96e4-5432380ef799"}},{"fullUrl":"https://madie.cms.gov/Observation/5e611823eadaae0000c2b50f","resource":{"resourceType":"Observation","id":"208069c8-1e52-4e5d-b54f-227279c268dd","meta":{"profile":["http://hl7.org/fhir/us/qicore/StructureDefinition/qicore-observation"]},"status":"final","category":[{"coding":[{"system":"http://terminology.hl7.org/CodeSystem/observation-category","code":"exam","display":"exam","userSelected":true}]}],"code":{"coding":[{"system":"http://loinc.org","code":"93857-1"}]},"subject":{"reference":"Patient/1ec8fccf-d982-4dcd-a0df-94b9c1150fd6"},"effectiveDateTime":"2025-06-08T20:00:00.000+00:00","valueDateTime":"2025-06-08T20:00:00.000+00:00"},"request":{"method":"PUT","url":"Observation/208069c8-1e52-4e5d-b54f-227279c268dd"}},{"fullUrl":"https://madie.cms.gov/Observation/606dbf4484679a0000f3bb10","resource":{"resourceType":"Observation","id":"9cad5942-e511-4f6a-8e54-4fabe102cede","meta":{"profile":["http://hl7.org/fhir/us/qicore/StructureDefinition/qicore-observation"]},"status":"final","category":[{"coding":[{"system":"http://terminology.hl7.org/CodeSystem/observation-category","code":"exam","display":"exam","userSelected":true}]}],"code":{"coding":[{"system":"http://snomed.info/sct","code":"18559007"}]},"subject":{"reference":"Patient/1ec8fccf-d982-4dcd-a0df-94b9c1150fd6"},"effectiveDateTime":"2025-06-08T20:00:00.000+00:00"},"request":{"method":"PUT","url":"Observation/9cad5942-e511-4f6a-8e54-4fabe102cede"}},{"fullUrl":"https://madie.cms.gov/Encounter/5d014eb3b8484608723806ce","resource":{"resourceType":"Encounter","id":"122b77df-1499-4c47-a7e0-1951468201e4","meta":{"profile":["http://hl7.org/fhir/us/qicore/StructureDefinition/qicore-encounter"]},"status":"finished","class":{"system":"http://terminology.hl7.org/CodeSystem/v3-ActCode","code":"IMP","display":"inpatient encounter"},"type":[{"coding":[{"system":"http://snomed.info/sct","code":"8715000"}]}],"subject":{"reference":"Patient/1ec8fccf-d982-4dcd-a0df-94b9c1150fd6"},"period":{"start":"2025-06-08T08:00:00.000Z","end":"2025-06-10T08:15:00.000Z"},"diagnosis":[{"condition":{"reference":"Condition/delivery-of-singleton-099b"}}]},"request":{"method":"PUT","url":"Encounter/122b77df-1499-4c47-a7e0-1951468201e4"}},{"fullUrl":"https://madie.cms.gov/Procedure/5d014eb3b8484608723806cf","resource":{"resourceType":"Procedure","id":"1d3f576b-0493-4754-b915-2e842951f39e","meta":{"profile":["http://hl7.org/fhir/us/qicore/StructureDefinition/qicore-procedure"]},"extension":[{"url":"http://hl7.org/fhir/us/qicore/StructureDefinition/qicore-recorded","valueDateTime":"2013-04-05T09:35:00-04:00"}],"status":"completed","code":{"coding":[{"system":"http://www.cms.gov/Medicare/Coding/ICD10","code":"10D00Z0"},{"system":"http://www.icd10data.com/icd10pcs","code":"10D00Z0","userSelected":true}]},"subject":{"reference":"Patient/1ec8fccf-d982-4dcd-a0df-94b9c1150fd6"},"performedDateTime":"2025-06-08T08:00:00.000+00:00"},"request":{"method":"PUT","url":"Procedure/1d3f576b-0493-4754-b915-2e842951f39e"}},{"fullUrl":"https://madie.cms.gov/Condition/delivery-of-singleton-099b","resource":{"resourceType":"Condition","id":"01287b43-31d0-4f6e-93ff-172a3ef9bef0","meta":{"profile":["http://hl7.org/fhir/us/qicore/StructureDefinition/qicore-condition"]},"category":[{"coding":[{"system":"http://terminology.hl7.org/CodeSystem/condition-category","code":"encounter-diagnosis","display":"Encounter Diagnosis"}]}],"code":{"coding":[{"system":"http://snomed.info/sct","version":"2022-09","code":"169826009","display":"Single live birth (finding)","userSelected":true}]},"subject":{"reference":"Patient/1ec8fccf-d982-4dcd-a0df-94b9c1150fd6"},"recordedDate":"2025-10-17T08:00:00.000+00:00"},"request":{"method":"PUT","url":"Condition/01287b43-31d0-4f6e-93ff-172a3ef9bef0"}},{"fullUrl":"https://madie.cms.gov/Coverage/1","resource":{"resourceType":"Coverage","id":"04a311ab-41f1-4343-9c89-17a36b90c1eb","meta":{"profile":["http://hl7.org/fhir/us/qicore/StructureDefinition/qicore-coverage"]},"status":"active","beneficiary":{"reference":"Patient/1ec8fccf-d982-4dcd-a0df-94b9c1150fd6"},"payor":[{"reference":"Organization/880a275e-1cf2-4fb9-869b-f1d2173fdc2b"}]},"request":{"method":"PUT","url":"Coverage/04a311ab-41f1-4343-9c89-17a36b90c1eb"}},{"fullUrl":"https://madie.cms.gov/Organization/123456","resource":{"resourceType":"Organization","id":"880a275e-1cf2-4fb9-869b-f1d2173fdc2b","meta":{"profile":["http://hl7.org/fhir/us/qicore/StructureDefinition/qicore-organization"]},"identifier":[{"use":"temp","system":"urn:oid:2.16.840.1.113883.4.4","value":"21-3259825"}],"active":true,"type":[{"coding":[{"system":"http://terminology.hl7.org/CodeSystem/organization-type","code":"pay","display":"Payer"}]}],"name":"Blue Cross Blue Shield of Texas","telecom":[{"system":"phone","value":"(+1) 972-766-6900"}],"address":[{"use":"billing","type":"postal","line":["P.O. Box 660044"],"city":"Dallas","state":"TX","postalCode":"75266-0044","country":"USA"}]},"request":{"method":"PUT","url":"Organization/880a275e-1cf2-4fb9-869b-f1d2173fdc2b"}},{"fullUrl":"https://madie.cms.gov/Practitioner/practitioner-123456","resource":{"resourceType":"Practitioner","id":"ea6bb4bc-eb96-49c1-8473-a2cff5ba30d4","identifier":[{"system":"http://hl7.org/fhir/sid/us-npi","value":"123456"}],"name":[{"family":"Evil","prefix":["Dr"]}]},"request":{"method":"PUT","url":"Practitioner/ea6bb4bc-eb96-49c1-8473-a2cff5ba30d4"}},{"fullUrl":"https://madie.cms.gov/MeasureReport/58c23d87-4fd8-436d-94c2-e9817b9e5388","resource":{"resourceType":"MeasureReport","id":"58c23d87-4fd8-436d-94c2-e9817b9e5388","meta":{"profile":["http://hl7.org/fhir/us/cqfmeasures/StructureDefinition/test-case-cqfm"]},"contained":[{"resourceType":"Parameters","id":"22307db2-6420-4b47-9497-720975e2061e-parameters","parameter":[{"name":"subject","valueString":"1ec8fccf-d982-4dcd-a0df-94b9c1150fd6"}]}],"extension":[{"url":"http://hl7.org/fhir/us/cqfmeasures/StructureDefinition/cqfm-inputParameters","valueReference":{"reference":"#22307db2-6420-4b47-9497-720975e2061e-parameters"}},{"url":"http://hl7.org/fhir/us/cqfmeasures/StructureDefinition/cqfm-testCaseDescription","valueMarkdown":"EGA 43 weeks; Assessment performed Abnormal presentation Relevant Dt/time equal the Date time of obstetric delivery , gravida 1, \n"}],"modifierExtension":[{"url":"http://hl7.org/fhir/us/cqfmeasures/StructureDefinition/cqfm-isTestCase","valueBoolean":true}],"status":"complete","type":"individual","measure":"https://madie.cms.gov/Measure/CesareanBirthFHIR","period":{"start":"2025-01-01","end":"2025-12-31"},"group":[{"population":[{"code":{"coding":[{"system":"http://terminology.hl7.org/CodeSystem/measure-population","code":"initial-population","display":"Initial Population"}]},"count":1},{"code":{"coding":[{"system":"http://terminology.hl7.org/CodeSystem/measure-population","code":"denominator","display":"Denominator"}]},"count":1},{"code":{"coding":[{"system":"http://terminology.hl7.org/CodeSystem/measure-population","code":"denominator-exclusion","display":"Denominator Exclusion"}]},"count":1},{"code":{"coding":[{"system":"http://terminology.hl7.org/CodeSystem/measure-population","code":"numerator","display":"Numerator"}]},"count":0}]}]},"request":{"method":"PUT","url":"MeasureReport/58c23d87-4fd8-436d-94c2-e9817b9e5388"}}]}