{"resourceType":"Bundle","id":"tests-e8157340-2867-44fc-8277-4e09507f4546-bundle","type":"transaction","entry":[{"fullUrl":"https://madie.cms.gov/Patient/e8157340-2867-44fc-8277-4e09507f4546","resource":{"resourceType":"Patient","id":"e8157340-2867-44fc-8277-4e09507f4546","meta":{"profile":["http://hl7.org/fhir/us/qicore/StructureDefinition/qicore-patient"]},"text":{"status":"generated","div":"<div xmlns=\"http://www.w3.org/1999/xhtml\"><div class=\"hapiHeaderText\">CalcEGA42Weeks_EDDRelDtTime2WksPriorToDelivery <b>DENPASS </b></div><table class=\"hapiPropertyTable\"><tbody><tr><td>Identifier</td><td>c6b51506d3a7092894a3f06af44f7ab397fd257a35f97f16644057feff48ec70</td></tr><tr><td>Date of birth</td><td><span>14 February 1985</span></td></tr></tbody></table></div>"},"extension":[{"url":"http://hl7.org/fhir/us/core/StructureDefinition/us-core-race","extension":[{"url":"ombCategory","valueCoding":{"system":"urn:oid:2.16.840.1.113883.6.238","code":"1002-5","display":"American Indian or Alaska Native","userSelected":true}},{"url":"text","valueString":"American Indian or Alaska Native"}]},{"url":"http://hl7.org/fhir/us/core/StructureDefinition/us-core-ethnicity","extension":[{"url":"ombCategory","valueCoding":{"system":"urn:oid:2.16.840.1.113883.6.238","code":"2135-2","display":"Hispanic or Latino","userSelected":true}},{"url":"text","valueString":"Hispanic or Latino"}]}],"identifier":[{"type":{"coding":[{"system":"http://terminology.hl7.org/CodeSystem/v2-0203","code":"MR"}]},"system":"https://bonnie-fhir.healthit.gov/","value":"63487c300968f801225401d2"}],"active":true,"name":[{"use":"usual","family":"DENPass","given":["CalcEGA42Weeks_EDDRelDtTime2WksPriorToDelivery"]}],"gender":"female","birthDate":"1997-02-14"},"request":{"method":"PUT","url":"Patient/e8157340-2867-44fc-8277-4e09507f4546"}},{"fullUrl":"https://madie.cms.gov/Observation/5d014eb3b8484608723806a8","resource":{"resourceType":"Observation","id":"c6ec2cdb-296a-4d2e-b9b4-6b98ed1093e1","meta":{"profile":["http://hl7.org/fhir/us/qicore/StructureDefinition/qicore-observation"]},"status":"final","category":[{"coding":[{"system":"http://terminology.hl7.org/CodeSystem/observation-category","code":"exam","display":"exam","userSelected":true}]}],"code":{"coding":[{"system":"http://loinc.org","code":"11996-6"}]},"subject":{"reference":"Patient/e8157340-2867-44fc-8277-4e09507f4546"},"effectiveDateTime":"2024-08-19T19:00:00.000+00:00","valueInteger":1},"request":{"method":"PUT","url":"Observation/c6ec2cdb-296a-4d2e-b9b4-6b98ed1093e1"}},{"fullUrl":"https://madie.cms.gov/Observation/5e61678a3e992300009b6f5e","resource":{"resourceType":"Observation","id":"be2f4f6a-502d-40c4-803a-a62c08272256","meta":{"profile":["http://hl7.org/fhir/us/qicore/StructureDefinition/qicore-observation"]},"status":"final","category":[{"coding":[{"system":"http://terminology.hl7.org/CodeSystem/observation-category","code":"exam","display":"exam","userSelected":true}]}],"code":{"coding":[{"system":"http://loinc.org","code":"93857-1"}]},"subject":{"reference":"Patient/e8157340-2867-44fc-8277-4e09507f4546"},"effectiveDateTime":"2025-01-15T19:00:00.000+00:00","valueDateTime":"2025-01-15T19:00:00+00:00"},"request":{"method":"PUT","url":"Observation/be2f4f6a-502d-40c4-803a-a62c08272256"}},{"fullUrl":"https://madie.cms.gov/Observation/5e8a5430ae2856000046a20d","resource":{"resourceType":"Observation","id":"2482cbda-7b41-49f9-b7ac-d0ae8e815ba1","meta":{"profile":["http://hl7.org/fhir/us/qicore/StructureDefinition/qicore-observation"]},"status":"final","category":[{"coding":[{"system":"http://terminology.hl7.org/CodeSystem/observation-category","code":"exam","display":"exam","userSelected":true}]}],"code":{"coding":[{"system":"http://loinc.org","code":"11778-8"}]},"subject":{"reference":"Patient/e8157340-2867-44fc-8277-4e09507f4546"},"effectiveDateTime":"2025-01-01T08:00:00.000+00:00","valueDateTime":"2025-01-01T08:00:00+00:00"},"request":{"method":"PUT","url":"Observation/2482cbda-7b41-49f9-b7ac-d0ae8e815ba1"}},{"fullUrl":"https://madie.cms.gov/Encounter/5d014eb3b8484608723806a6","resource":{"resourceType":"Encounter","id":"690f8a9b-b251-4272-90de-cb7ee8650948","meta":{"profile":["http://hl7.org/fhir/us/qicore/StructureDefinition/qicore-encounter"]},"status":"finished","class":{"system":"http://terminology.hl7.org/CodeSystem/v3-ActCode","code":"IMP","display":"inpatient encounter"},"type":[{"coding":[{"system":"http://snomed.info/sct","code":"183452005"}]}],"subject":{"reference":"Patient/e8157340-2867-44fc-8277-4e09507f4546"},"period":{"start":"2025-01-15T08:00:00.000Z","end":"2025-01-20T08:15:00.000Z"},"length":{"value":2.0,"unit":"days"},"diagnosis":[{"condition":{"reference":"Condition/delivery-of-singleton-f83c"},"use":{"coding":[{"system":"http://snomed.info/sct","code":"169826009","display":"Delivery of Singleton"}]}},{"condition":{"reference":"Condition/delivery-of-singleton-776b"}}]},"request":{"method":"PUT","url":"Encounter/690f8a9b-b251-4272-90de-cb7ee8650948"}},{"fullUrl":"https://madie.cms.gov/Coverage/5f5f9e501c76ba674bb03382","resource":{"resourceType":"Coverage","id":"6f34a358-c144-4073-b27f-2a5e887f15c5","status":"active","beneficiary":{"reference":"Patient/e8157340-2867-44fc-8277-4e09507f4546"},"period":{"start":"1985-02-14T08:00:00.000Z"},"payor":[{"reference":"Organization/5224cb12-ed64-4d6d-ab28-40a64f0800f1"}]},"request":{"method":"PUT","url":"Coverage/6f34a358-c144-4073-b27f-2a5e887f15c5"}},{"fullUrl":"https://madie.cms.gov/Procedure/5d014eb3b8484608723806a7","resource":{"resourceType":"Procedure","id":"5dfb5c92-e972-4962-8e97-28e724d7b8b3","meta":{"profile":["http://hl7.org/fhir/us/qicore/StructureDefinition/qicore-procedure"]},"extension":[{"url":"http://hl7.org/fhir/us/qicore/StructureDefinition/qicore-recorded","valueDateTime":"2013-04-05T09:35:00-04:00"}],"status":"completed","code":{"coding":[{"system":"http://www.cms.gov/Medicare/Coding/ICD10","code":"10D07Z3"},{"system":"http://www.icd10data.com/icd10pcs","code":"10D07Z3","userSelected":true}]},"subject":{"reference":"Patient/e8157340-2867-44fc-8277-4e09507f4546"},"performedPeriod":{"start":"2025-01-15T08:10:00.000Z","end":"2025-01-15T09:14:00.000Z"}},"request":{"method":"PUT","url":"Procedure/5dfb5c92-e972-4962-8e97-28e724d7b8b3"}},{"fullUrl":"https://madie.cms.gov/Condition/delivery-of-singleton-776b","resource":{"resourceType":"Condition","id":"99b70306-62c4-4427-a953-428be3a28d43","meta":{"profile":["http://hl7.org/fhir/us/qicore/StructureDefinition/qicore-condition"]},"category":[{"coding":[{"system":"http://terminology.hl7.org/CodeSystem/condition-category","code":"encounter-diagnosis","display":"Encounter Diagnosis"}]}],"code":{"coding":[{"system":"http://snomed.info/sct","version":"2022-09","code":"169826009","display":"Single live birth (finding)","userSelected":true}]},"subject":{"reference":"Patient/e8157340-2867-44fc-8277-4e09507f4546"},"recordedDate":"2025-10-20T08:00:00.000+00:00"},"request":{"method":"PUT","url":"Condition/99b70306-62c4-4427-a953-428be3a28d43"}},{"fullUrl":"https://madie.cms.gov/Organization/123456","resource":{"resourceType":"Organization","id":"5224cb12-ed64-4d6d-ab28-40a64f0800f1","meta":{"profile":["http://hl7.org/fhir/us/qicore/StructureDefinition/qicore-organization"]},"identifier":[{"use":"temp","system":"urn:oid:2.16.840.1.113883.4.4","value":"21-3259825"}],"active":true,"type":[{"coding":[{"system":"http://terminology.hl7.org/CodeSystem/organization-type","code":"pay","display":"Payer"}]}],"name":"Blue Cross Blue Shield of Texas","telecom":[{"system":"phone","value":"(+1) 972-766-6900"}],"address":[{"use":"billing","type":"postal","line":["P.O. Box 660044"],"city":"Dallas","state":"TX","postalCode":"75266-0044","country":"USA"}]},"request":{"method":"PUT","url":"Organization/5224cb12-ed64-4d6d-ab28-40a64f0800f1"}},{"fullUrl":"https://madie.cms.gov/Practitioner/practitioner-123456","resource":{"resourceType":"Practitioner","id":"d9903be3-e64f-41d4-9f49-3cc2bd88f98b","identifier":[{"system":"http://hl7.org/fhir/sid/us-npi","value":"123456"}],"name":[{"family":"Evil","prefix":["Dr"]}]},"request":{"method":"PUT","url":"Practitioner/d9903be3-e64f-41d4-9f49-3cc2bd88f98b"}},{"fullUrl":"https://madie.cms.gov/MeasureReport/974cebfb-8669-4210-8a44-389145163d9c","resource":{"resourceType":"MeasureReport","id":"974cebfb-8669-4210-8a44-389145163d9c","meta":{"profile":["http://hl7.org/fhir/us/cqfmeasures/StructureDefinition/test-case-cqfm"]},"contained":[{"resourceType":"Parameters","id":"03904668-6bfb-4c10-ad37-84a1f043cffa-parameters","parameter":[{"name":"subject","valueString":"e8157340-2867-44fc-8277-4e09507f4546"}]}],"extension":[{"url":"http://hl7.org/fhir/us/cqfmeasures/StructureDefinition/cqfm-inputParameters","valueReference":{"reference":"#03904668-6bfb-4c10-ad37-84a1f043cffa-parameters"}},{"url":"http://hl7.org/fhir/us/cqfmeasures/StructureDefinition/cqfm-testCaseDescription","valueMarkdown":"\"Calculated EGA is 42 weeks with EDD relevant date/time 2 weeks prior to admission.\n\n"}],"modifierExtension":[{"url":"http://hl7.org/fhir/us/cqfmeasures/StructureDefinition/cqfm-isTestCase","valueBoolean":true}],"status":"complete","type":"individual","measure":"https://madie.cms.gov/Measure/CesareanBirthFHIR","period":{"start":"2025-01-01","end":"2025-12-31"},"group":[{"population":[{"code":{"coding":[{"system":"http://terminology.hl7.org/CodeSystem/measure-population","code":"initial-population","display":"Initial Population"}]},"count":1},{"code":{"coding":[{"system":"http://terminology.hl7.org/CodeSystem/measure-population","code":"denominator","display":"Denominator"}]},"count":1},{"code":{"coding":[{"system":"http://terminology.hl7.org/CodeSystem/measure-population","code":"denominator-exclusion","display":"Denominator Exclusion"}]},"count":0},{"code":{"coding":[{"system":"http://terminology.hl7.org/CodeSystem/measure-population","code":"numerator","display":"Numerator"}]},"count":0}]}]},"request":{"method":"PUT","url":"MeasureReport/974cebfb-8669-4210-8a44-389145163d9c"}}]}