{"resourceType":"Bundle","id":"tests-4355cfd9-9700-4bd3-b828-e7726e73f857-bundle","type":"transaction","entry":[{"fullUrl":"https://madie.cms.gov/Patient/4355cfd9-9700-4bd3-b828-e7726e73f857","resource":{"resourceType":"Patient","id":"4355cfd9-9700-4bd3-b828-e7726e73f857","meta":{"profile":["http://hl7.org/fhir/us/qicore/StructureDefinition/qicore-patient"]},"text":{"status":"generated","div":"<div xmlns=\"http://www.w3.org/1999/xhtml\"><div class=\"hapiHeaderText\">AssessParityLastMissingResult <b>DENPASS </b></div><table class=\"hapiPropertyTable\"><tbody><tr><td>Identifier</td><td>c06cc2d514ccfaffa49c54295f23978df6f00fe92fbd59d826ce4eb31140ad8c</td></tr><tr><td>Date of birth</td><td><span>14 February 1985</span></td></tr></tbody></table></div>"},"extension":[{"url":"http://hl7.org/fhir/us/core/StructureDefinition/us-core-race","extension":[{"url":"ombCategory","valueCoding":{"system":"urn:oid:2.16.840.1.113883.6.238","code":"1002-5","display":"American Indian or Alaska Native","userSelected":true}},{"url":"text","valueString":"American Indian or Alaska Native"}]},{"url":"http://hl7.org/fhir/us/core/StructureDefinition/us-core-ethnicity","extension":[{"url":"ombCategory","valueCoding":{"system":"urn:oid:2.16.840.1.113883.6.238","code":"2135-2","display":"Hispanic or Latino","userSelected":true}},{"url":"text","valueString":"Hispanic or Latino"}]}],"identifier":[{"type":{"coding":[{"system":"http://terminology.hl7.org/CodeSystem/v2-0203","code":"MR"}]},"system":"https://bonnie-fhir.healthit.gov/","value":"63487c300968f801225401bb"}],"active":true,"name":[{"use":"usual","family":"DENPass","given":["AssessParityLastMissingResult"]}],"gender":"female","birthDate":"1997-02-14"},"request":{"method":"PUT","url":"Patient/4355cfd9-9700-4bd3-b828-e7726e73f857"}},{"fullUrl":"https://madie.cms.gov/Observation/5d014eb2b84846087238064b","resource":{"resourceType":"Observation","id":"b922a4bb-bc26-4722-a510-29e422e1c33e","meta":{"profile":["http://hl7.org/fhir/us/qicore/StructureDefinition/qicore-observation"]},"status":"final","category":[{"coding":[{"system":"http://terminology.hl7.org/CodeSystem/observation-category","code":"exam","display":"exam","userSelected":true}]}],"code":{"coding":[{"system":"http://loinc.org","code":"11977-6"}]},"subject":{"reference":"Patient/4355cfd9-9700-4bd3-b828-e7726e73f857"},"effectiveDateTime":"2024-10-20T09:00:00.000+00:00","valueInteger":0},"request":{"method":"PUT","url":"Observation/b922a4bb-bc26-4722-a510-29e422e1c33e"}},{"fullUrl":"https://madie.cms.gov/Observation/5d014eb2b84846087238064d","resource":{"resourceType":"Observation","id":"748c9b59-7471-4779-97dc-3a3df8145755","meta":{"profile":["http://hl7.org/fhir/us/qicore/StructureDefinition/qicore-observation"]},"status":"final","category":[{"coding":[{"system":"http://terminology.hl7.org/CodeSystem/observation-category","code":"exam","display":"exam","userSelected":true}]}],"code":{"coding":[{"system":"http://loinc.org","code":"11884-4"}]},"subject":{"reference":"Patient/4355cfd9-9700-4bd3-b828-e7726e73f857"},"effectiveDateTime":"2025-06-08T20:00:00.000+00:00","valueQuantity":{"value":37.0,"system":"http://unitsofmeasure.org","code":"weeks"}},"request":{"method":"PUT","url":"Observation/748c9b59-7471-4779-97dc-3a3df8145755"}},{"fullUrl":"https://madie.cms.gov/Observation/5e68eb3959d82f0000c95ec8","resource":{"resourceType":"Observation","id":"0452b8a4-6c3d-4b16-9284-fb12f365ac41","meta":{"profile":["http://hl7.org/fhir/us/qicore/StructureDefinition/qicore-observation"]},"status":"final","category":[{"coding":[{"system":"http://terminology.hl7.org/CodeSystem/observation-category","code":"exam","display":"exam","userSelected":true}]}],"code":{"coding":[{"system":"http://loinc.org","code":"93857-1"}]},"subject":{"reference":"Patient/4355cfd9-9700-4bd3-b828-e7726e73f857"},"effectiveDateTime":"2025-06-08T20:00:00.000+00:00","valueDateTime":"2025-06-08T20:00:00+00:00"},"request":{"method":"PUT","url":"Observation/0452b8a4-6c3d-4b16-9284-fb12f365ac41"}},{"fullUrl":"https://madie.cms.gov/Observation/5e94b9764e70a2000047110c","resource":{"resourceType":"Observation","id":"be3adf82-9565-4aef-a7c2-61724ab22a5e","meta":{"profile":["http://hl7.org/fhir/us/qicore/StructureDefinition/qicore-observation"]},"status":"final","category":[{"coding":[{"system":"http://terminology.hl7.org/CodeSystem/observation-category","code":"exam","display":"exam","userSelected":true}]}],"code":{"coding":[{"system":"http://loinc.org","code":"11977-6"}]},"subject":{"reference":"Patient/4355cfd9-9700-4bd3-b828-e7726e73f857"}},"request":{"method":"PUT","url":"Observation/be3adf82-9565-4aef-a7c2-61724ab22a5e"}},{"fullUrl":"https://madie.cms.gov/Encounter/5d014eb2b848460872380649","resource":{"resourceType":"Encounter","id":"c793a1e6-ae87-44bb-829b-2500348fd2b9","meta":{"profile":["http://hl7.org/fhir/us/qicore/StructureDefinition/qicore-encounter"]},"status":"finished","class":{"system":"http://terminology.hl7.org/CodeSystem/v3-ActCode","code":"IMP","display":"inpatient encounter"},"type":[{"coding":[{"system":"http://snomed.info/sct","code":"8715000"}]}],"subject":{"reference":"Patient/4355cfd9-9700-4bd3-b828-e7726e73f857"},"period":{"start":"2025-06-08T08:00:00.000Z","end":"2025-06-10T08:15:00.000Z"},"length":{"value":2.0,"unit":"days"},"diagnosis":[{"condition":{"reference":"Condition/delivery-of-singleton-f83c"},"use":{"coding":[{"system":"http://snomed.info/sct","code":"169826009","display":"Delivery of Singleton"}]}},{"condition":{"reference":"Condition/delivery-of-singleton-3abd"}}]},"request":{"method":"PUT","url":"Encounter/c793a1e6-ae87-44bb-829b-2500348fd2b9"}},{"fullUrl":"https://madie.cms.gov/Coverage/5f5f9e541c76ba674bb033d3","resource":{"resourceType":"Coverage","id":"a3aed6fb-d9d8-4841-904c-37e678270a0f","status":"active","beneficiary":{"reference":"Patient/4355cfd9-9700-4bd3-b828-e7726e73f857"},"period":{"start":"1985-02-14T08:00:00.000Z"},"payor":[{"reference":"Organization/f6075515-d38f-4624-bde8-a1ce20473a69"}]},"request":{"method":"PUT","url":"Coverage/a3aed6fb-d9d8-4841-904c-37e678270a0f"}},{"fullUrl":"https://madie.cms.gov/Procedure/5d014eb2b84846087238064a","resource":{"resourceType":"Procedure","id":"5d27e955-621c-47cf-bd37-6d65944b17fb","meta":{"profile":["http://hl7.org/fhir/us/qicore/StructureDefinition/qicore-procedure"]},"extension":[{"url":"http://hl7.org/fhir/us/qicore/StructureDefinition/qicore-recorded","valueDateTime":"2013-04-05T09:35:00-04:00"}],"status":"completed","code":{"coding":[{"system":"http://www.cms.gov/Medicare/Coding/ICD10","code":"10D00Z0"},{"system":"http://www.icd10data.com/icd10pcs","code":"10D00Z1","userSelected":true}]},"subject":{"reference":"Patient/4355cfd9-9700-4bd3-b828-e7726e73f857"},"performedPeriod":{"start":"2025-06-08T20:00:00.000Z","end":"2025-06-08T20:15:00.000Z"}},"request":{"method":"PUT","url":"Procedure/5d27e955-621c-47cf-bd37-6d65944b17fb"}},{"fullUrl":"https://madie.cms.gov/Condition/delivery-of-singleton-3abd","resource":{"resourceType":"Condition","id":"329b8660-e58c-4947-adb0-69292023258b","meta":{"profile":["http://hl7.org/fhir/us/qicore/StructureDefinition/qicore-condition"]},"category":[{"coding":[{"system":"http://terminology.hl7.org/CodeSystem/condition-category","code":"encounter-diagnosis","display":"Encounter Diagnosis"}]}],"code":{"coding":[{"system":"http://snomed.info/sct","version":"2022-09","code":"169826009","display":"Single live birth (finding)","userSelected":true}]},"subject":{"reference":"Patient/4355cfd9-9700-4bd3-b828-e7726e73f857"},"recordedDate":"2025-10-18T08:00:00.000+00:00"},"request":{"method":"PUT","url":"Condition/329b8660-e58c-4947-adb0-69292023258b"}},{"fullUrl":"https://madie.cms.gov/Organization/123456","resource":{"resourceType":"Organization","id":"f6075515-d38f-4624-bde8-a1ce20473a69","meta":{"profile":["http://hl7.org/fhir/us/qicore/StructureDefinition/qicore-organization"]},"identifier":[{"use":"temp","system":"urn:oid:2.16.840.1.113883.4.4","value":"21-3259825"}],"active":true,"type":[{"coding":[{"system":"http://terminology.hl7.org/CodeSystem/organization-type","code":"pay","display":"Payer"}]}],"name":"Blue Cross Blue Shield of Texas","telecom":[{"system":"phone","value":"(+1) 972-766-6900"}],"address":[{"use":"billing","type":"postal","line":["P.O. Box 660044"],"city":"Dallas","state":"TX","postalCode":"75266-0044","country":"USA"}]},"request":{"method":"PUT","url":"Organization/f6075515-d38f-4624-bde8-a1ce20473a69"}},{"fullUrl":"https://madie.cms.gov/Practitioner/practitioner-123456","resource":{"resourceType":"Practitioner","id":"33d31c4b-f397-4835-9fe5-6c3ef3bc042e","identifier":[{"system":"http://hl7.org/fhir/sid/us-npi","value":"123456"}],"name":[{"family":"Evil","prefix":["Dr"]}]},"request":{"method":"PUT","url":"Practitioner/33d31c4b-f397-4835-9fe5-6c3ef3bc042e"}},{"fullUrl":"https://madie.cms.gov/MeasureReport/2c27c972-5049-406a-8c30-7c1a5c6a7703","resource":{"resourceType":"MeasureReport","id":"2c27c972-5049-406a-8c30-7c1a5c6a7703","meta":{"profile":["http://hl7.org/fhir/us/cqfmeasures/StructureDefinition/test-case-cqfm"]},"contained":[{"resourceType":"Parameters","id":"ff0614ee-9677-46df-8774-a7dc2e28dd73-parameters","parameter":[{"name":"subject","valueString":"4355cfd9-9700-4bd3-b828-e7726e73f857"}]}],"extension":[{"url":"http://hl7.org/fhir/us/cqfmeasures/StructureDefinition/cqfm-inputParameters","valueReference":{"reference":"#ff0614ee-9677-46df-8774-a7dc2e28dd73-parameters"}},{"url":"http://hl7.org/fhir/us/cqfmeasures/StructureDefinition/cqfm-testCaseDescription","valueMarkdown":"Two Parities, first Parity=0 but last Parity is missing result, relevant date/time less than 42 weeks prior to delivery date/time\n"}],"modifierExtension":[{"url":"http://hl7.org/fhir/us/cqfmeasures/StructureDefinition/cqfm-isTestCase","valueBoolean":true}],"status":"complete","type":"individual","measure":"https://madie.cms.gov/Measure/CesareanBirthFHIR","period":{"start":"2025-01-01","end":"2025-12-31"},"group":[{"population":[{"code":{"coding":[{"system":"http://terminology.hl7.org/CodeSystem/measure-population","code":"initial-population","display":"Initial Population"}]},"count":1},{"code":{"coding":[{"system":"http://terminology.hl7.org/CodeSystem/measure-population","code":"denominator","display":"Denominator"}]},"count":1},{"code":{"coding":[{"system":"http://terminology.hl7.org/CodeSystem/measure-population","code":"denominator-exclusion","display":"Denominator Exclusion"}]},"count":0},{"code":{"coding":[{"system":"http://terminology.hl7.org/CodeSystem/measure-population","code":"numerator","display":"Numerator"}]},"count":1}]}]},"request":{"method":"PUT","url":"MeasureReport/2c27c972-5049-406a-8c30-7c1a5c6a7703"}}]}