{"resourceType":"Bundle","id":"tests-30990946-5aea-4270-afef-182cc05f05f3-bundle","type":"transaction","entry":[{"fullUrl":"https://madie.cms.gov/Patient/30990946-5aea-4270-afef-182cc05f05f3","resource":{"resourceType":"Patient","id":"30990946-5aea-4270-afef-182cc05f05f3","meta":{"profile":["http://hl7.org/fhir/us/qicore/StructureDefinition/qicore-patient"]},"text":{"status":"generated","div":"<div xmlns=\"http://www.w3.org/1999/xhtml\"><div class=\"hapiHeaderText\">EncDxPlacentaPrevia <b>DENEXPASS </b></div><table class=\"hapiPropertyTable\"><tbody><tr><td>Identifier</td><td>26ae2095ae359d33c45002ef417f38a5e4f6a61da3ea75d0332f68a4cb93137e</td></tr><tr><td>Date of birth</td><td><span>14 February 1985</span></td></tr></tbody></table></div>"},"extension":[{"url":"http://hl7.org/fhir/us/core/StructureDefinition/us-core-race","extension":[{"url":"ombCategory","valueCoding":{"system":"urn:oid:2.16.840.1.113883.6.238","code":"1002-5","display":"American Indian or Alaska Native","userSelected":true}},{"url":"text","valueString":"American Indian or Alaska Native"}]},{"url":"http://hl7.org/fhir/us/core/StructureDefinition/us-core-ethnicity","extension":[{"url":"ombCategory","valueCoding":{"system":"urn:oid:2.16.840.1.113883.6.238","code":"2135-2","display":"Hispanic or Latino","userSelected":true}},{"url":"text","valueString":"Hispanic or Latino"}]}],"identifier":[{"type":{"coding":[{"system":"http://terminology.hl7.org/CodeSystem/v2-0203","code":"MR"}]},"system":"https://bonnie-fhir.healthit.gov/","value":"63487c2e0968f8012254018b"}],"active":true,"name":[{"use":"usual","family":"DENEXPass","given":["EncDxPlacentaPrevia"]}],"gender":"female","birthDate":"1997-02-14"},"request":{"method":"PUT","url":"Patient/30990946-5aea-4270-afef-182cc05f05f3"}},{"fullUrl":"https://madie.cms.gov/Observation/5d014eb2b8484608723805ea","resource":{"resourceType":"Observation","id":"0b1ee74c-8a13-4568-8650-6bb2a8830fd0","meta":{"profile":["http://hl7.org/fhir/us/qicore/StructureDefinition/qicore-observation"]},"status":"final","category":[{"coding":[{"system":"http://terminology.hl7.org/CodeSystem/observation-category","code":"exam","display":"exam","userSelected":true}]}],"code":{"coding":[{"system":"http://loinc.org","code":"11996-6"}]},"subject":{"reference":"Patient/30990946-5aea-4270-afef-182cc05f05f3"},"effectiveDateTime":"2025-06-08T08:00:00.000+00:00","valueInteger":1},"request":{"method":"PUT","url":"Observation/0b1ee74c-8a13-4568-8650-6bb2a8830fd0"}},{"fullUrl":"https://madie.cms.gov/Observation/5d014eb2b8484608723805ec","resource":{"resourceType":"Observation","id":"0241ac27-12b0-47d4-91ea-6c55067a629c","meta":{"profile":["http://hl7.org/fhir/us/qicore/StructureDefinition/qicore-observation"]},"status":"final","category":[{"coding":[{"system":"http://terminology.hl7.org/CodeSystem/observation-category","code":"exam","display":"exam","userSelected":true}]}],"code":{"coding":[{"system":"http://loinc.org","code":"11884-4"}]},"subject":{"reference":"Patient/30990946-5aea-4270-afef-182cc05f05f3"},"effectiveDateTime":"2025-06-08T08:00:00.000+00:00","valueQuantity":{"value":43.0,"system":"http://unitsofmeasure.org","code":"wk"}},"request":{"method":"PUT","url":"Observation/0241ac27-12b0-47d4-91ea-6c55067a629c"}},{"fullUrl":"https://madie.cms.gov/Observation/5e61190beadaae0000c2b763","resource":{"resourceType":"Observation","id":"0144b89d-7004-40d3-b426-76d117e355fe","meta":{"profile":["http://hl7.org/fhir/us/qicore/StructureDefinition/qicore-observation"]},"status":"final","category":[{"coding":[{"system":"http://terminology.hl7.org/CodeSystem/observation-category","code":"exam","display":"exam","userSelected":true}]}],"code":{"coding":[{"system":"http://loinc.org","code":"93857-1"}]},"subject":{"reference":"Patient/30990946-5aea-4270-afef-182cc05f05f3"},"effectiveDateTime":"2025-06-08T20:00:00.000+00:00","valueDateTime":"2025-06-08T20:00:00+00:00"},"request":{"method":"PUT","url":"Observation/0144b89d-7004-40d3-b426-76d117e355fe"}},{"fullUrl":"https://madie.cms.gov/Encounter/5d014eb2b8484608723805e8","resource":{"resourceType":"Encounter","id":"2ffc47f7-e635-4f6d-8d8c-9ac74ea759b2","meta":{"profile":["http://hl7.org/fhir/us/qicore/StructureDefinition/qicore-encounter"]},"status":"finished","class":{"system":"http://terminology.hl7.org/CodeSystem/v3-ActCode","code":"IMP","display":"inpatient encounter"},"type":[{"coding":[{"system":"http://snomed.info/sct","code":"8715000"}]}],"subject":{"reference":"Patient/30990946-5aea-4270-afef-182cc05f05f3"},"period":{"start":"2025-06-08T08:00:00.000Z","end":"2025-06-10T08:15:00.000Z"},"diagnosis":[{"condition":{"reference":"Condition/delivery-of-singleton-09a0"}},{"condition":{"reference":"Condition/placenta-previa-09a1"}}]},"request":{"method":"PUT","url":"Encounter/2ffc47f7-e635-4f6d-8d8c-9ac74ea759b2"}},{"fullUrl":"https://madie.cms.gov/Procedure/5d014eb2b8484608723805e9","resource":{"resourceType":"Procedure","id":"9bd683d9-de5d-41ae-a483-93bc40af9b6b","meta":{"profile":["http://hl7.org/fhir/us/qicore/StructureDefinition/qicore-procedure"]},"extension":[{"url":"http://hl7.org/fhir/us/qicore/StructureDefinition/qicore-recorded","valueDateTime":"2013-04-05T09:35:00-04:00"}],"status":"completed","code":{"coding":[{"system":"http://snomed.info/sct","code":"4504004"}]},"subject":{"reference":"Patient/30990946-5aea-4270-afef-182cc05f05f3"},"performedPeriod":{"start":"2025-06-08T20:00:00.000Z","end":"2025-06-18T20:00:00.000Z"}},"request":{"method":"PUT","url":"Procedure/9bd683d9-de5d-41ae-a483-93bc40af9b6b"}},{"fullUrl":"https://madie.cms.gov/Condition/delivery-of-singleton-09a0","resource":{"resourceType":"Condition","id":"9eac07a5-758b-4c02-a1b3-57b5ae0928fa","meta":{"profile":["http://hl7.org/fhir/us/qicore/StructureDefinition/qicore-condition"]},"category":[{"coding":[{"system":"http://terminology.hl7.org/CodeSystem/condition-category","code":"encounter-diagnosis","display":"Encounter Diagnosis"}]}],"code":{"coding":[{"system":"http://snomed.info/sct","version":"2022-09","code":"169826009","display":"Single live birth (finding)","userSelected":true}]},"subject":{"reference":"Patient/30990946-5aea-4270-afef-182cc05f05f3"},"recordedDate":"2025-10-17T08:00:00.000+00:00"},"request":{"method":"PUT","url":"Condition/9eac07a5-758b-4c02-a1b3-57b5ae0928fa"}},{"fullUrl":"https://madie.cms.gov/Condition/placenta-previa-09a1","resource":{"resourceType":"Condition","id":"059eba38-26e5-4a5c-9961-ac6dddf7969b","meta":{"profile":["http://hl7.org/fhir/us/qicore/StructureDefinition/qicore-condition"]},"category":[{"coding":[{"system":"http://terminology.hl7.org/CodeSystem/condition-category","code":"encounter-diagnosis","display":"Encounter Diagnosis"}]}],"code":{"coding":[{"system":"http://snomed.info/sct","version":"2022-09","code":"15663008","display":"Placenta previa centralis (disorder)","userSelected":true}]},"subject":{"reference":"Patient/30990946-5aea-4270-afef-182cc05f05f3"},"recordedDate":"2025-10-17T08:00:00.000+00:00"},"request":{"method":"PUT","url":"Condition/059eba38-26e5-4a5c-9961-ac6dddf7969b"}},{"fullUrl":"https://madie.cms.gov/Coverage/1","resource":{"resourceType":"Coverage","id":"9e0fed74-fcb8-4c4c-a55c-e40099a3ce75","meta":{"profile":["http://hl7.org/fhir/us/qicore/StructureDefinition/qicore-coverage"]},"status":"active","beneficiary":{"reference":"Patient/30990946-5aea-4270-afef-182cc05f05f3"},"payor":[{"reference":"Organization/42846cc3-1db0-4bf7-b9ff-8b81fa6e835d"}]},"request":{"method":"PUT","url":"Coverage/9e0fed74-fcb8-4c4c-a55c-e40099a3ce75"}},{"fullUrl":"https://madie.cms.gov/Organization/123456","resource":{"resourceType":"Organization","id":"42846cc3-1db0-4bf7-b9ff-8b81fa6e835d","meta":{"profile":["http://hl7.org/fhir/us/qicore/StructureDefinition/qicore-organization"]},"identifier":[{"use":"temp","system":"urn:oid:2.16.840.1.113883.4.4","value":"21-3259825"}],"active":true,"type":[{"coding":[{"system":"http://terminology.hl7.org/CodeSystem/organization-type","code":"pay","display":"Payer"}]}],"name":"Blue Cross Blue Shield of Texas","telecom":[{"system":"phone","value":"(+1) 972-766-6900"}],"address":[{"use":"billing","type":"postal","line":["P.O. Box 660044"],"city":"Dallas","state":"TX","postalCode":"75266-0044","country":"USA"}]},"request":{"method":"PUT","url":"Organization/42846cc3-1db0-4bf7-b9ff-8b81fa6e835d"}},{"fullUrl":"https://madie.cms.gov/Practitioner/practitioner-123456","resource":{"resourceType":"Practitioner","id":"d654e9d5-f074-44b3-9793-dbeda493636c","identifier":[{"system":"http://hl7.org/fhir/sid/us-npi","value":"123456"}],"name":[{"family":"Evil","prefix":["Dr"]}]},"request":{"method":"PUT","url":"Practitioner/d654e9d5-f074-44b3-9793-dbeda493636c"}},{"fullUrl":"https://madie.cms.gov/MeasureReport/14d128d9-ab81-4af1-b7f8-35875d23c194","resource":{"resourceType":"MeasureReport","id":"14d128d9-ab81-4af1-b7f8-35875d23c194","meta":{"profile":["http://hl7.org/fhir/us/cqfmeasures/StructureDefinition/test-case-cqfm"]},"contained":[{"resourceType":"Parameters","id":"2ccc9211-b273-4857-85d3-f3fc8bfc2ffe-parameters","parameter":[{"name":"subject","valueString":"30990946-5aea-4270-afef-182cc05f05f3"}]}],"extension":[{"url":"http://hl7.org/fhir/us/cqfmeasures/StructureDefinition/cqfm-inputParameters","valueReference":{"reference":"#2ccc9211-b273-4857-85d3-f3fc8bfc2ffe-parameters"}},{"url":"http://hl7.org/fhir/us/cqfmeasures/StructureDefinition/cqfm-testCaseDescription","valueMarkdown":"EGA 43 weeks; Placenta previa on encounter Attr dx, gravida 1, \n"}],"modifierExtension":[{"url":"http://hl7.org/fhir/us/cqfmeasures/StructureDefinition/cqfm-isTestCase","valueBoolean":true}],"status":"complete","type":"individual","measure":"https://madie.cms.gov/Measure/CesareanBirthFHIR","period":{"start":"2025-01-01","end":"2025-12-31"},"group":[{"population":[{"code":{"coding":[{"system":"http://terminology.hl7.org/CodeSystem/measure-population","code":"initial-population","display":"Initial Population"}]},"count":1},{"code":{"coding":[{"system":"http://terminology.hl7.org/CodeSystem/measure-population","code":"denominator","display":"Denominator"}]},"count":1},{"code":{"coding":[{"system":"http://terminology.hl7.org/CodeSystem/measure-population","code":"denominator-exclusion","display":"Denominator Exclusion"}]},"count":1},{"code":{"coding":[{"system":"http://terminology.hl7.org/CodeSystem/measure-population","code":"numerator","display":"Numerator"}]},"count":0}]}]},"request":{"method":"PUT","url":"MeasureReport/14d128d9-ab81-4af1-b7f8-35875d23c194"}}]}