{"resourceType":"Bundle","id":"tests-de3aa996-43b5-46d9-b8ef-f1839e38470a-bundle","type":"transaction","entry":[{"fullUrl":"https://madie.cms.gov/Patient/de3aa996-43b5-46d9-b8ef-f1839e38470a","resource":{"resourceType":"Patient","id":"de3aa996-43b5-46d9-b8ef-f1839e38470a","meta":{"profile":["http://hl7.org/fhir/us/qicore/StructureDefinition/qicore-patient"]},"text":{"status":"generated","div":"<div xmlns=\"http://www.w3.org/1999/xhtml\"><div class=\"hapiHeaderText\">AssessPreTerm0RelDate41wks6DaysB4DelivDate <b>DENPASS </b></div><table class=\"hapiPropertyTable\"><tbody><tr><td>Identifier</td><td>7960ac075aea8af54af93e2c2cf979cdfee3882ecdb2da9803e3d40be59520f6</td></tr><tr><td>Date of birth</td><td><span>14 February 1985</span></td></tr></tbody></table></div>"},"extension":[{"url":"http://hl7.org/fhir/us/core/StructureDefinition/us-core-race","extension":[{"url":"ombCategory","valueCoding":{"system":"urn:oid:2.16.840.1.113883.6.238","code":"1002-5","display":"American Indian or Alaska Native","userSelected":true}},{"url":"text","valueString":"American Indian or Alaska Native"}]},{"url":"http://hl7.org/fhir/us/core/StructureDefinition/us-core-ethnicity","extension":[{"url":"ombCategory","valueCoding":{"system":"urn:oid:2.16.840.1.113883.6.238","code":"2135-2","display":"Hispanic or Latino","userSelected":true}},{"url":"text","valueString":"Hispanic or Latino"}]}],"identifier":[{"type":{"coding":[{"system":"http://terminology.hl7.org/CodeSystem/v2-0203","code":"MR"}]},"system":"https://bonnie-fhir.healthit.gov/","value":"63487c2d0968f80122540153"}],"active":true,"name":[{"use":"usual","family":"DENPass","given":["AssessPreTerm0RelDate41wks6DaysB4DelivDate"]}],"gender":"female","birthDate":"1997-02-14"},"request":{"method":"PUT","url":"Patient/de3aa996-43b5-46d9-b8ef-f1839e38470a"}},{"fullUrl":"https://madie.cms.gov/Observation/5d014eb1b8484608723804ab","resource":{"resourceType":"Observation","id":"d4f9d26d-f0ba-4ca9-b486-8f59a9d60ff1","meta":{"profile":["http://hl7.org/fhir/us/qicore/StructureDefinition/qicore-observation"]},"status":"final","category":[{"coding":[{"system":"http://terminology.hl7.org/CodeSystem/observation-category","code":"exam","display":"exam","userSelected":true}]}],"code":{"coding":[{"system":"http://loinc.org","code":"11637-6"}]},"subject":{"reference":"Patient/de3aa996-43b5-46d9-b8ef-f1839e38470a"},"effectiveDateTime":"2024-08-20T09:00:00.000+00:00","valueInteger":0},"request":{"method":"PUT","url":"Observation/d4f9d26d-f0ba-4ca9-b486-8f59a9d60ff1"}},{"fullUrl":"https://madie.cms.gov/Observation/5d014eb1b8484608723804ad","resource":{"resourceType":"Observation","id":"6350a1ee-7720-4dd6-85f5-b09c745ca8c2","meta":{"profile":["http://hl7.org/fhir/us/qicore/StructureDefinition/qicore-observation"]},"status":"final","category":[{"coding":[{"system":"http://terminology.hl7.org/CodeSystem/observation-category","code":"exam","display":"exam","userSelected":true}]}],"code":{"coding":[{"system":"http://loinc.org","code":"11639-2"}]},"subject":{"reference":"Patient/de3aa996-43b5-46d9-b8ef-f1839e38470a"},"effectiveDateTime":"2024-09-19T09:00:00.000+00:00","valueInteger":0},"request":{"method":"PUT","url":"Observation/6350a1ee-7720-4dd6-85f5-b09c745ca8c2"}},{"fullUrl":"https://madie.cms.gov/Observation/5d014eb1b8484608723804af","resource":{"resourceType":"Observation","id":"64c29847-6b6b-46bf-9123-bb01a8c096e5","meta":{"profile":["http://hl7.org/fhir/us/qicore/StructureDefinition/qicore-observation"]},"status":"final","category":[{"coding":[{"system":"http://terminology.hl7.org/CodeSystem/observation-category","code":"exam","display":"exam","userSelected":true}]}],"code":{"coding":[{"system":"http://loinc.org","code":"11884-4"}]},"subject":{"reference":"Patient/de3aa996-43b5-46d9-b8ef-f1839e38470a"},"effectiveDateTime":"2025-06-08T20:00:00.000+00:00","valueQuantity":{"value":37.0,"system":"http://unitsofmeasure.org","code":"weeks"}},"request":{"method":"PUT","url":"Observation/64c29847-6b6b-46bf-9123-bb01a8c096e5"}},{"fullUrl":"https://madie.cms.gov/Observation/5e68ed2159d82f0000c962b3","resource":{"resourceType":"Observation","id":"20c194c2-2716-48f8-9105-c3c21afb2d75","meta":{"profile":["http://hl7.org/fhir/us/qicore/StructureDefinition/qicore-observation"]},"status":"final","category":[{"coding":[{"system":"http://terminology.hl7.org/CodeSystem/observation-category","code":"exam","display":"exam","userSelected":true}]}],"code":{"coding":[{"system":"http://loinc.org","code":"93857-1"}]},"subject":{"reference":"Patient/de3aa996-43b5-46d9-b8ef-f1839e38470a"},"effectiveDateTime":"2025-06-08T20:00:00.000+00:00","valueDateTime":"2025-06-08T20:00:00+00:00"},"request":{"method":"PUT","url":"Observation/20c194c2-2716-48f8-9105-c3c21afb2d75"}},{"fullUrl":"https://madie.cms.gov/Encounter/5d014eb1b8484608723804a9","resource":{"resourceType":"Encounter","id":"f4f8deca-2322-4610-8fad-a6b798d51293","meta":{"profile":["http://hl7.org/fhir/us/qicore/StructureDefinition/qicore-encounter"]},"status":"finished","class":{"system":"http://terminology.hl7.org/CodeSystem/v3-ActCode","code":"IMP","display":"inpatient encounter"},"type":[{"coding":[{"system":"http://snomed.info/sct","code":"8715000"}]}],"subject":{"reference":"Patient/de3aa996-43b5-46d9-b8ef-f1839e38470a"},"period":{"start":"2025-06-08T08:00:00.000Z","end":"2025-06-10T08:15:00.000Z"},"length":{"value":2.0,"unit":"days"},"diagnosis":[{"condition":{"reference":"Condition/delivery-of-singleton-f83c"},"use":{"coding":[{"system":"http://snomed.info/sct","code":"169826009","display":"Delivery of Singleton"}]}},{"condition":{"reference":"Condition/delivery-of-singleton-9479"}}]},"request":{"method":"PUT","url":"Encounter/f4f8deca-2322-4610-8fad-a6b798d51293"}},{"fullUrl":"https://madie.cms.gov/Procedure/5d014eb1b8484608723804aa","resource":{"resourceType":"Procedure","id":"6122ca09-c1ed-41aa-a156-51a626023c91","meta":{"profile":["http://hl7.org/fhir/us/qicore/StructureDefinition/qicore-procedure"]},"extension":[{"url":"http://hl7.org/fhir/us/qicore/StructureDefinition/qicore-recorded","valueDateTime":"2013-04-05T09:35:00-04:00"}],"status":"completed","code":{"coding":[{"system":"http://www.cms.gov/Medicare/Coding/ICD10","code":"10D00Z0"},{"system":"http://snomed.info/sct","code":"4504004"},{"system":"http://www.icd10data.com/icd10pcs","code":"10D00Z1","userSelected":true}]},"subject":{"reference":"Patient/de3aa996-43b5-46d9-b8ef-f1839e38470a"},"performedPeriod":{"start":"2025-06-08T20:00:00.000Z","end":"2025-06-08T20:15:00.000Z"}},"request":{"method":"PUT","url":"Procedure/6122ca09-c1ed-41aa-a156-51a626023c91"}},{"fullUrl":"https://madie.cms.gov/Condition/delivery-of-singleton-9479","resource":{"resourceType":"Condition","id":"7be2c27e-04c4-48c8-acd9-19de3005c76c","meta":{"profile":["http://hl7.org/fhir/us/qicore/StructureDefinition/qicore-condition"]},"category":[{"coding":[{"system":"http://terminology.hl7.org/CodeSystem/condition-category","code":"encounter-diagnosis","display":"Encounter Diagnosis"}]}],"code":{"coding":[{"system":"http://snomed.info/sct","version":"2022-09","code":"169826009","display":"Single live birth (finding)","userSelected":true}]},"subject":{"reference":"Patient/de3aa996-43b5-46d9-b8ef-f1839e38470a"},"recordedDate":"2025-10-20T08:00:00.000+00:00"},"request":{"method":"PUT","url":"Condition/7be2c27e-04c4-48c8-acd9-19de3005c76c"}},{"fullUrl":"https://madie.cms.gov/Coverage/1","resource":{"resourceType":"Coverage","id":"ec0da140-fd60-488a-9e81-6b2bf82359b2","meta":{"profile":["http://hl7.org/fhir/us/qicore/StructureDefinition/qicore-coverage"]},"status":"active","beneficiary":{"reference":"Patient/de3aa996-43b5-46d9-b8ef-f1839e38470a"},"payor":[{"reference":"Organization/42846cc3-1db0-4bf7-b9ff-8b81fa6e835d"}]},"request":{"method":"PUT","url":"Coverage/ec0da140-fd60-488a-9e81-6b2bf82359b2"}},{"fullUrl":"https://madie.cms.gov/Organization/123456","resource":{"resourceType":"Organization","id":"42846cc3-1db0-4bf7-b9ff-8b81fa6e835d","meta":{"profile":["http://hl7.org/fhir/us/qicore/StructureDefinition/qicore-organization"]},"identifier":[{"use":"temp","system":"urn:oid:2.16.840.1.113883.4.4","value":"21-3259825"}],"active":true,"type":[{"coding":[{"system":"http://terminology.hl7.org/CodeSystem/organization-type","code":"pay","display":"Payer"}]}],"name":"Blue Cross Blue Shield of Texas","telecom":[{"system":"phone","value":"(+1) 972-766-6900"}],"address":[{"use":"billing","type":"postal","line":["P.O. Box 660044"],"city":"Dallas","state":"TX","postalCode":"75266-0044","country":"USA"}]},"request":{"method":"PUT","url":"Organization/42846cc3-1db0-4bf7-b9ff-8b81fa6e835d"}},{"fullUrl":"https://madie.cms.gov/Practitioner/practitioner-123456","resource":{"resourceType":"Practitioner","id":"bcd13733-a147-4b1b-9f9e-a06b9ec2a854","identifier":[{"system":"http://hl7.org/fhir/sid/us-npi","value":"123456"}],"name":[{"family":"Evil","prefix":["Dr"]}]},"request":{"method":"PUT","url":"Practitioner/bcd13733-a147-4b1b-9f9e-a06b9ec2a854"}},{"fullUrl":"https://madie.cms.gov/MeasureReport/13cbc60e-aff3-4e31-9467-9c6ac714682a","resource":{"resourceType":"MeasureReport","id":"13cbc60e-aff3-4e31-9467-9c6ac714682a","meta":{"profile":["http://hl7.org/fhir/us/cqfmeasures/StructureDefinition/test-case-cqfm"]},"contained":[{"resourceType":"Parameters","id":"9e49a6c7-649e-4354-a013-874978163524-parameters","parameter":[{"name":"subject","valueString":"de3aa996-43b5-46d9-b8ef-f1839e38470a"}]}],"extension":[{"url":"http://hl7.org/fhir/us/cqfmeasures/StructureDefinition/cqfm-inputParameters","valueReference":{"reference":"#9e49a6c7-649e-4354-a013-874978163524-parameters"}},{"url":"http://hl7.org/fhir/us/cqfmeasures/StructureDefinition/cqfm-testCaseDescription","valueMarkdown":"Preterm Births=0, relevant date  41weeks 6 days prior to Asse delivery date\n"}],"modifierExtension":[{"url":"http://hl7.org/fhir/us/cqfmeasures/StructureDefinition/cqfm-isTestCase","valueBoolean":true}],"status":"complete","type":"individual","measure":"https://madie.cms.gov/Measure/CesareanBirthFHIR","period":{"start":"2025-01-01","end":"2025-12-31"},"group":[{"population":[{"code":{"coding":[{"system":"http://terminology.hl7.org/CodeSystem/measure-population","code":"initial-population","display":"Initial Population"}]},"count":1},{"code":{"coding":[{"system":"http://terminology.hl7.org/CodeSystem/measure-population","code":"denominator","display":"Denominator"}]},"count":1},{"code":{"coding":[{"system":"http://terminology.hl7.org/CodeSystem/measure-population","code":"denominator-exclusion","display":"Denominator Exclusion"}]},"count":0},{"code":{"coding":[{"system":"http://terminology.hl7.org/CodeSystem/measure-population","code":"numerator","display":"Numerator"}]},"count":1}]}]},"request":{"method":"PUT","url":"MeasureReport/13cbc60e-aff3-4e31-9467-9c6ac714682a"}}]}