{"resourceType":"Bundle","id":"tests-84cf7374-22c5-4f60-a594-f70020252dae-bundle","type":"transaction","entry":[{"fullUrl":"https://madie.cms.gov/Patient/84cf7374-22c5-4f60-a594-f70020252dae","resource":{"resourceType":"Patient","id":"84cf7374-22c5-4f60-a594-f70020252dae","meta":{"profile":["http://hl7.org/fhir/us/qicore/StructureDefinition/qicore-patient"]},"text":{"status":"generated","div":"<div xmlns=\"http://www.w3.org/1999/xhtml\"><div class=\"hapiHeaderText\">AssessPreTerm0RelDate42wksB4DelivDate <b>DENPASS </b></div><table class=\"hapiPropertyTable\"><tbody><tr><td>Identifier</td><td>ae2c858214ff9b1ffdc193923955b0f25c757408279ae2f0e7ea89ca980dbad8</td></tr><tr><td>Date of birth</td><td><span>14 February 1985</span></td></tr></tbody></table></div>"},"extension":[{"url":"http://hl7.org/fhir/us/core/StructureDefinition/us-core-race","extension":[{"url":"ombCategory","valueCoding":{"system":"urn:oid:2.16.840.1.113883.6.238","code":"1002-5","display":"American Indian or Alaska Native","userSelected":true}},{"url":"text","valueString":"American Indian or Alaska Native"}]},{"url":"http://hl7.org/fhir/us/core/StructureDefinition/us-core-ethnicity","extension":[{"url":"ombCategory","valueCoding":{"system":"urn:oid:2.16.840.1.113883.6.238","code":"2135-2","display":"Hispanic or Latino","userSelected":true}},{"url":"text","valueString":"Hispanic or Latino"}]}],"identifier":[{"type":{"coding":[{"system":"http://terminology.hl7.org/CodeSystem/v2-0203","code":"MR"}]},"system":"https://bonnie-fhir.healthit.gov/","value":"63487c2f0968f8012254018f"}],"active":true,"name":[{"use":"usual","family":"DENPass","given":["AssessPreTerm0RelDate42wksB4DelivDate"]}],"gender":"female","birthDate":"1997-02-14"},"request":{"method":"PUT","url":"Patient/84cf7374-22c5-4f60-a594-f70020252dae"}},{"fullUrl":"https://madie.cms.gov/Observation/5d014eb2b84846087238068e","resource":{"resourceType":"Observation","id":"5b2a8d0a-765f-4c56-8784-56e3cf9675d9","meta":{"profile":["http://hl7.org/fhir/us/qicore/StructureDefinition/qicore-observation"]},"status":"final","category":[{"coding":[{"system":"http://terminology.hl7.org/CodeSystem/observation-category","code":"exam","display":"exam","userSelected":true}]}],"code":{"coding":[{"system":"http://loinc.org","code":"11637-6"}]},"subject":{"reference":"Patient/84cf7374-22c5-4f60-a594-f70020252dae"},"effectiveDateTime":"2024-08-19T20:00:00.000+00:00","valueInteger":0},"request":{"method":"PUT","url":"Observation/5b2a8d0a-765f-4c56-8784-56e3cf9675d9"}},{"fullUrl":"https://madie.cms.gov/Observation/5d014eb2b848460872380690","resource":{"resourceType":"Observation","id":"f2bb6b5d-0317-457a-a247-c238cb6ad554","meta":{"profile":["http://hl7.org/fhir/us/qicore/StructureDefinition/qicore-observation"]},"status":"final","category":[{"coding":[{"system":"http://terminology.hl7.org/CodeSystem/observation-category","code":"exam","display":"exam","userSelected":true}]}],"code":{"coding":[{"system":"http://loinc.org","code":"11639-2"}]},"subject":{"reference":"Patient/84cf7374-22c5-4f60-a594-f70020252dae"},"effectiveDateTime":"2024-09-19T09:00:00.000+00:00","valueInteger":0},"request":{"method":"PUT","url":"Observation/f2bb6b5d-0317-457a-a247-c238cb6ad554"}},{"fullUrl":"https://madie.cms.gov/Observation/5d014eb2b848460872380692","resource":{"resourceType":"Observation","id":"30b1b231-1cfb-4b51-872c-4be8fd5a7c2e","meta":{"profile":["http://hl7.org/fhir/us/qicore/StructureDefinition/qicore-observation"]},"status":"final","category":[{"coding":[{"system":"http://terminology.hl7.org/CodeSystem/observation-category","code":"exam","display":"exam","userSelected":true}]}],"code":{"coding":[{"system":"http://loinc.org","code":"11884-4"}]},"subject":{"reference":"Patient/84cf7374-22c5-4f60-a594-f70020252dae"},"effectiveDateTime":"2025-06-08T20:00:00.000+00:00","valueQuantity":{"value":37.0,"system":"http://unitsofmeasure.org","code":"weeks"}},"request":{"method":"PUT","url":"Observation/30b1b231-1cfb-4b51-872c-4be8fd5a7c2e"}},{"fullUrl":"https://madie.cms.gov/Observation/5e68edb759d82f0000c96480","resource":{"resourceType":"Observation","id":"d601d665-6830-4b26-aede-73ffd24daacd","meta":{"profile":["http://hl7.org/fhir/us/qicore/StructureDefinition/qicore-observation"]},"status":"final","category":[{"coding":[{"system":"http://terminology.hl7.org/CodeSystem/observation-category","code":"exam","display":"exam","userSelected":true}]}],"code":{"coding":[{"system":"http://loinc.org","code":"93857-1"}]},"subject":{"reference":"Patient/84cf7374-22c5-4f60-a594-f70020252dae"},"effectiveDateTime":"2025-06-08T20:00:00.000+00:00","valueDateTime":"2025-06-08T20:00:00+00:00"},"request":{"method":"PUT","url":"Observation/d601d665-6830-4b26-aede-73ffd24daacd"}},{"fullUrl":"https://madie.cms.gov/Encounter/5d014eb2b84846087238068c","resource":{"resourceType":"Encounter","id":"2a739d33-a3df-48a9-9993-fc2a271abf63","meta":{"profile":["http://hl7.org/fhir/us/qicore/StructureDefinition/qicore-encounter"]},"status":"finished","class":{"system":"http://terminology.hl7.org/CodeSystem/v3-ActCode","code":"IMP","display":"inpatient encounter"},"type":[{"coding":[{"system":"http://snomed.info/sct","code":"8715000"}]}],"subject":{"reference":"Patient/84cf7374-22c5-4f60-a594-f70020252dae"},"period":{"start":"2025-06-08T08:00:00.000Z","end":"2025-06-10T08:15:00.000Z"},"length":{"value":2.0,"unit":"days"},"diagnosis":[{"condition":{"reference":"Condition/delivery-of-singleton-f83c"},"use":{"coding":[{"system":"http://snomed.info/sct","code":"169826009","display":"Delivery of Singleton"}]}},{"condition":{"reference":"Condition/delivery-of-singleton-947a"}}]},"request":{"method":"PUT","url":"Encounter/2a739d33-a3df-48a9-9993-fc2a271abf63"}},{"fullUrl":"https://madie.cms.gov/Procedure/5d014eb2b84846087238068d","resource":{"resourceType":"Procedure","id":"c3292873-e741-4ada-b2ed-5899c87da795","meta":{"profile":["http://hl7.org/fhir/us/qicore/StructureDefinition/qicore-procedure"]},"extension":[{"url":"http://hl7.org/fhir/us/qicore/StructureDefinition/qicore-recorded","valueDateTime":"2013-04-05T09:35:00-04:00"}],"status":"completed","code":{"coding":[{"system":"http://www.cms.gov/Medicare/Coding/ICD10","code":"10D00Z0"},{"system":"http://snomed.info/sct","code":"4504004"},{"system":"http://www.icd10data.com/icd10pcs","code":"10D00Z1","userSelected":true}]},"subject":{"reference":"Patient/84cf7374-22c5-4f60-a594-f70020252dae"},"performedPeriod":{"start":"2025-06-08T20:00:00.000Z","end":"2025-06-08T20:15:00.000Z"}},"request":{"method":"PUT","url":"Procedure/c3292873-e741-4ada-b2ed-5899c87da795"}},{"fullUrl":"https://madie.cms.gov/Condition/delivery-of-singleton-947a","resource":{"resourceType":"Condition","id":"512f0aa4-626c-4bf7-a65e-5d12ee032bac","meta":{"profile":["http://hl7.org/fhir/us/qicore/StructureDefinition/qicore-condition"]},"category":[{"coding":[{"system":"http://terminology.hl7.org/CodeSystem/condition-category","code":"encounter-diagnosis","display":"Encounter Diagnosis"}]}],"code":{"coding":[{"system":"http://snomed.info/sct","version":"2022-09","code":"169826009","display":"Single live birth (finding)","userSelected":true}]},"subject":{"reference":"Patient/84cf7374-22c5-4f60-a594-f70020252dae"},"recordedDate":"2025-10-20T08:00:00.000+00:00"},"request":{"method":"PUT","url":"Condition/512f0aa4-626c-4bf7-a65e-5d12ee032bac"}},{"fullUrl":"https://madie.cms.gov/Coverage/1","resource":{"resourceType":"Coverage","id":"5e970c8a-8b73-4b82-bc30-037330371c79","meta":{"profile":["http://hl7.org/fhir/us/qicore/StructureDefinition/qicore-coverage"]},"status":"active","beneficiary":{"reference":"Patient/84cf7374-22c5-4f60-a594-f70020252dae"},"payor":[{"reference":"Organization/77e4d06f-5e3c-436a-a598-80cefcca5028"}]},"request":{"method":"PUT","url":"Coverage/5e970c8a-8b73-4b82-bc30-037330371c79"}},{"fullUrl":"https://madie.cms.gov/Organization/123456","resource":{"resourceType":"Organization","id":"77e4d06f-5e3c-436a-a598-80cefcca5028","meta":{"profile":["http://hl7.org/fhir/us/qicore/StructureDefinition/qicore-organization"]},"identifier":[{"use":"temp","system":"urn:oid:2.16.840.1.113883.4.4","value":"21-3259825"}],"active":true,"type":[{"coding":[{"system":"http://terminology.hl7.org/CodeSystem/organization-type","code":"pay","display":"Payer"}]}],"name":"Blue Cross Blue Shield of Texas","telecom":[{"system":"phone","value":"(+1) 972-766-6900"}],"address":[{"use":"billing","type":"postal","line":["P.O. Box 660044"],"city":"Dallas","state":"TX","postalCode":"75266-0044","country":"USA"}]},"request":{"method":"PUT","url":"Organization/77e4d06f-5e3c-436a-a598-80cefcca5028"}},{"fullUrl":"https://madie.cms.gov/Practitioner/practitioner-123456","resource":{"resourceType":"Practitioner","id":"ac0ad70f-2969-4d75-9acd-c581f0a26198","identifier":[{"system":"http://hl7.org/fhir/sid/us-npi","value":"123456"}],"name":[{"family":"Evil","prefix":["Dr"]}]},"request":{"method":"PUT","url":"Practitioner/ac0ad70f-2969-4d75-9acd-c581f0a26198"}},{"fullUrl":"https://madie.cms.gov/MeasureReport/cad75dfc-d138-422d-867f-51aa79e740af","resource":{"resourceType":"MeasureReport","id":"cad75dfc-d138-422d-867f-51aa79e740af","meta":{"profile":["http://hl7.org/fhir/us/cqfmeasures/StructureDefinition/test-case-cqfm"]},"contained":[{"resourceType":"Parameters","id":"1510112e-9e51-4d6b-a619-6ed7c4d7279d-parameters","parameter":[{"name":"subject","valueString":"84cf7374-22c5-4f60-a594-f70020252dae"}]}],"extension":[{"url":"http://hl7.org/fhir/us/cqfmeasures/StructureDefinition/cqfm-inputParameters","valueReference":{"reference":"#1510112e-9e51-4d6b-a619-6ed7c4d7279d-parameters"}},{"url":"http://hl7.org/fhir/us/cqfmeasures/StructureDefinition/cqfm-testCaseDescription","valueMarkdown":"Preterm Births=0, relevant date  42weeks  and same time prior to delivery date/time\n"}],"modifierExtension":[{"url":"http://hl7.org/fhir/us/cqfmeasures/StructureDefinition/cqfm-isTestCase","valueBoolean":true}],"status":"complete","type":"individual","measure":"https://madie.cms.gov/Measure/CesareanBirthFHIR","period":{"start":"2025-01-01","end":"2025-12-31"},"group":[{"population":[{"code":{"coding":[{"system":"http://terminology.hl7.org/CodeSystem/measure-population","code":"initial-population","display":"Initial Population"}]},"count":1},{"code":{"coding":[{"system":"http://terminology.hl7.org/CodeSystem/measure-population","code":"denominator","display":"Denominator"}]},"count":1},{"code":{"coding":[{"system":"http://terminology.hl7.org/CodeSystem/measure-population","code":"denominator-exclusion","display":"Denominator Exclusion"}]},"count":0},{"code":{"coding":[{"system":"http://terminology.hl7.org/CodeSystem/measure-population","code":"numerator","display":"Numerator"}]},"count":1}]}]},"request":{"method":"PUT","url":"MeasureReport/cad75dfc-d138-422d-867f-51aa79e740af"}}]}