{"resourceType":"Bundle","id":"tests-4146c512-8262-4eed-83fc-8612480d8c66-bundle","type":"transaction","entry":[{"fullUrl":"https://madie.cms.gov/Patient/4146c512-8262-4eed-83fc-8612480d8c66","resource":{"resourceType":"Patient","id":"4146c512-8262-4eed-83fc-8612480d8c66","meta":{"profile":["http://hl7.org/fhir/us/qicore/StructureDefinition/qicore-patient"]},"text":{"status":"generated","div":"<div xmlns=\"http://www.w3.org/1999/xhtml\"><div class=\"hapiHeaderText\">CalcEGAEQ37Weeks1Day <b>DENPASS </b></div><table class=\"hapiPropertyTable\"><tbody><tr><td>Identifier</td><td>b00b06f67015bda652373741cca10f65466d828e3a674df9528f73ec417ce0bb</td></tr><tr><td>Date of birth</td><td><span>14 February 1985</span></td></tr></tbody></table></div>"},"extension":[{"url":"http://hl7.org/fhir/us/core/StructureDefinition/us-core-race","extension":[{"url":"ombCategory","valueCoding":{"system":"urn:oid:2.16.840.1.113883.6.238","code":"1002-5","display":"American Indian or Alaska Native","userSelected":true}},{"url":"text","valueString":"American Indian or Alaska Native"}]},{"url":"http://hl7.org/fhir/us/core/StructureDefinition/us-core-ethnicity","extension":[{"url":"ombCategory","valueCoding":{"system":"urn:oid:2.16.840.1.113883.6.238","code":"2135-2","display":"Hispanic or Latino","userSelected":true}},{"url":"text","valueString":"Hispanic or Latino"}]}],"identifier":[{"type":{"coding":[{"system":"http://terminology.hl7.org/CodeSystem/v2-0203","code":"MR"}]},"system":"https://bonnie-fhir.healthit.gov/","value":"63487c2f0968f8012254019d"}],"active":true,"name":[{"use":"usual","family":"DENPass","given":["CalcEGAEQ37Weeks1Day"]}],"gender":"female","birthDate":"1997-02-14"},"request":{"method":"PUT","url":"Patient/4146c512-8262-4eed-83fc-8612480d8c66"}},{"fullUrl":"https://madie.cms.gov/Observation/5e6165403e992300009b6c80","resource":{"resourceType":"Observation","id":"2d476c6b-303e-4ccc-8a2c-74994e773597","meta":{"profile":["http://hl7.org/fhir/us/qicore/StructureDefinition/qicore-observation"]},"status":"final","category":[{"coding":[{"system":"http://terminology.hl7.org/CodeSystem/observation-category","code":"exam","display":"exam","userSelected":true}]}],"code":{"coding":[{"system":"http://loinc.org","code":"93857-1"}]},"subject":{"reference":"Patient/4146c512-8262-4eed-83fc-8612480d8c66"},"effectiveDateTime":"2025-01-15T08:00:00.000+00:00","valueDateTime":"2025-01-15T08:00:00+00:00"},"request":{"method":"PUT","url":"Observation/2d476c6b-303e-4ccc-8a2c-74994e773597"}},{"fullUrl":"https://madie.cms.gov/Observation/5e8a4fd5ae28560000469f52","resource":{"resourceType":"Observation","id":"c65751b3-7781-44a9-8d24-23d378e20906","meta":{"profile":["http://hl7.org/fhir/us/qicore/StructureDefinition/qicore-observation"]},"status":"final","category":[{"coding":[{"system":"http://terminology.hl7.org/CodeSystem/observation-category","code":"exam","display":"exam","userSelected":true}]}],"code":{"coding":[{"system":"http://loinc.org","code":"11778-8"}]},"subject":{"reference":"Patient/4146c512-8262-4eed-83fc-8612480d8c66"},"effectiveDateTime":"2025-01-15T07:00:00.000+00:00","valueDateTime":"2025-02-04T08:00:00+00:00"},"request":{"method":"PUT","url":"Observation/c65751b3-7781-44a9-8d24-23d378e20906"}},{"fullUrl":"https://madie.cms.gov/Observation/5e8a568dae2856000046a3cf","resource":{"resourceType":"Observation","id":"84f7169a-f474-4a6c-ad54-ebe2cc4cb0f6","meta":{"profile":["http://hl7.org/fhir/us/qicore/StructureDefinition/qicore-observation"]},"status":"final","category":[{"coding":[{"system":"http://terminology.hl7.org/CodeSystem/observation-category","code":"exam","display":"exam","userSelected":true}]}],"code":{"coding":[{"system":"http://loinc.org","code":"11996-6"}]},"subject":{"reference":"Patient/4146c512-8262-4eed-83fc-8612480d8c66"},"effectiveDateTime":"2025-01-15T07:59:00.000+00:00","valueInteger":1},"request":{"method":"PUT","url":"Observation/84f7169a-f474-4a6c-ad54-ebe2cc4cb0f6"}},{"fullUrl":"https://madie.cms.gov/Encounter/5d014eb2b84846087238056f","resource":{"resourceType":"Encounter","id":"d6b4adad-8af0-493f-9569-ddfa56dd5981","meta":{"profile":["http://hl7.org/fhir/us/qicore/StructureDefinition/qicore-encounter"]},"status":"finished","class":{"system":"http://terminology.hl7.org/CodeSystem/v3-ActCode","code":"IMP","display":"inpatient encounter"},"type":[{"coding":[{"system":"http://snomed.info/sct","code":"183452005"}]}],"subject":{"reference":"Patient/4146c512-8262-4eed-83fc-8612480d8c66"},"period":{"start":"2025-01-15T08:00:00.000Z","end":"2025-01-20T08:15:00.000Z"},"diagnosis":[{"condition":{"reference":"Condition/delivery-of-singleton-f83c"},"use":{"coding":[{"system":"http://snomed.info/sct","code":"169826009","display":"Delivery of Singleton"}]}},{"condition":{"reference":"Condition/delivery-of-singleton-776c"}}]},"request":{"method":"PUT","url":"Encounter/d6b4adad-8af0-493f-9569-ddfa56dd5981"}},{"fullUrl":"https://madie.cms.gov/Procedure/5d014eb2b848460872380570","resource":{"resourceType":"Procedure","id":"159cd906-8ec4-42c0-9180-c534c848c441","meta":{"profile":["http://hl7.org/fhir/us/qicore/StructureDefinition/qicore-procedure"]},"extension":[{"url":"http://hl7.org/fhir/us/qicore/StructureDefinition/qicore-recorded","valueDateTime":"2013-04-05T09:35:00-04:00"}],"status":"completed","code":{"coding":[{"system":"http://www.cms.gov/Medicare/Coding/ICD10","code":"10D07Z3"},{"system":"http://www.icd10data.com/icd10pcs","code":"10D07Z3","userSelected":true}]},"subject":{"reference":"Patient/4146c512-8262-4eed-83fc-8612480d8c66"},"performedPeriod":{"start":"2025-01-15T08:10:00.000Z","end":"2025-01-15T09:14:00.000Z"}},"request":{"method":"PUT","url":"Procedure/159cd906-8ec4-42c0-9180-c534c848c441"}},{"fullUrl":"https://madie.cms.gov/Condition/delivery-of-singleton-776c","resource":{"resourceType":"Condition","id":"1088de30-0f71-4a51-8182-534de8360af6","meta":{"profile":["http://hl7.org/fhir/us/qicore/StructureDefinition/qicore-condition"]},"category":[{"coding":[{"system":"http://terminology.hl7.org/CodeSystem/condition-category","code":"encounter-diagnosis","display":"Encounter Diagnosis"}]}],"code":{"coding":[{"system":"http://snomed.info/sct","version":"2022-09","code":"169826009","display":"Single live birth (finding)","userSelected":true}]},"subject":{"reference":"Patient/4146c512-8262-4eed-83fc-8612480d8c66"},"recordedDate":"2025-10-20T08:00:00.000+00:00"},"request":{"method":"PUT","url":"Condition/1088de30-0f71-4a51-8182-534de8360af6"}},{"fullUrl":"https://madie.cms.gov/Coverage/1","resource":{"resourceType":"Coverage","id":"31df784d-d5f5-4308-bd01-7940e970118e","meta":{"profile":["http://hl7.org/fhir/us/qicore/StructureDefinition/qicore-coverage"]},"status":"active","beneficiary":{"reference":"Patient/4146c512-8262-4eed-83fc-8612480d8c66"},"payor":[{"reference":"Organization/80573fa1-cf83-4e9a-8f21-86a018689678"}]},"request":{"method":"PUT","url":"Coverage/31df784d-d5f5-4308-bd01-7940e970118e"}},{"fullUrl":"https://madie.cms.gov/Organization/123456","resource":{"resourceType":"Organization","id":"80573fa1-cf83-4e9a-8f21-86a018689678","meta":{"profile":["http://hl7.org/fhir/us/qicore/StructureDefinition/qicore-organization"]},"identifier":[{"use":"temp","system":"urn:oid:2.16.840.1.113883.4.4","value":"21-3259825"}],"active":true,"type":[{"coding":[{"system":"http://terminology.hl7.org/CodeSystem/organization-type","code":"pay","display":"Payer"}]}],"name":"Blue Cross Blue Shield of Texas","telecom":[{"system":"phone","value":"(+1) 972-766-6900"}],"address":[{"use":"billing","type":"postal","line":["P.O. Box 660044"],"city":"Dallas","state":"TX","postalCode":"75266-0044","country":"USA"}]},"request":{"method":"PUT","url":"Organization/80573fa1-cf83-4e9a-8f21-86a018689678"}},{"fullUrl":"https://madie.cms.gov/Practitioner/practitioner-123456","resource":{"resourceType":"Practitioner","id":"55538ec7-26f1-4bc7-82cc-3cf4d5802b2a","identifier":[{"system":"http://hl7.org/fhir/sid/us-npi","value":"123456"}],"name":[{"family":"Evil","prefix":["Dr"]}]},"request":{"method":"PUT","url":"Practitioner/55538ec7-26f1-4bc7-82cc-3cf4d5802b2a"}},{"fullUrl":"https://madie.cms.gov/MeasureReport/82d830c5-dc61-40da-846c-1669ce4dc801","resource":{"resourceType":"MeasureReport","id":"82d830c5-dc61-40da-846c-1669ce4dc801","meta":{"profile":["http://hl7.org/fhir/us/cqfmeasures/StructureDefinition/test-case-cqfm"]},"contained":[{"resourceType":"Parameters","id":"f4c18dc6-53ae-4091-9546-280aacee4ddb-parameters","parameter":[{"name":"subject","valueString":"4146c512-8262-4eed-83fc-8612480d8c66"}]}],"extension":[{"url":"http://hl7.org/fhir/us/cqfmeasures/StructureDefinition/cqfm-inputParameters","valueReference":{"reference":"#f4c18dc6-53ae-4091-9546-280aacee4ddb-parameters"}},{"url":"http://hl7.org/fhir/us/cqfmeasures/StructureDefinition/cqfm-testCaseDescription","valueMarkdown":"Passes: IP, Pt is 27 years of age,  encounter dx delivery of singleton, gravida=1authored less than 42 weeks prior to delivery, calculated EGA=37 weeks, 1 day\n"}],"modifierExtension":[{"url":"http://hl7.org/fhir/us/cqfmeasures/StructureDefinition/cqfm-isTestCase","valueBoolean":true}],"status":"complete","type":"individual","measure":"https://madie.cms.gov/Measure/CesareanBirthFHIR","period":{"start":"2025-01-01","end":"2025-12-31"},"group":[{"population":[{"code":{"coding":[{"system":"http://terminology.hl7.org/CodeSystem/measure-population","code":"initial-population","display":"Initial Population"}]},"count":1},{"code":{"coding":[{"system":"http://terminology.hl7.org/CodeSystem/measure-population","code":"denominator","display":"Denominator"}]},"count":1},{"code":{"coding":[{"system":"http://terminology.hl7.org/CodeSystem/measure-population","code":"denominator-exclusion","display":"Denominator Exclusion"}]},"count":0},{"code":{"coding":[{"system":"http://terminology.hl7.org/CodeSystem/measure-population","code":"numerator","display":"Numerator"}]},"count":0}]}]},"request":{"method":"PUT","url":"MeasureReport/82d830c5-dc61-40da-846c-1669ce4dc801"}}]}