{"resourceType":"Bundle","id":"tests-4b7b91d4-6f82-4db4-bc04-846bc01796b1-bundle","type":"transaction","entry":[{"fullUrl":"https://madie.cms.gov/Patient/4b7b91d4-6f82-4db4-bc04-846bc01796b1","resource":{"resourceType":"Patient","id":"4b7b91d4-6f82-4db4-bc04-846bc01796b1","meta":{"profile":["http://hl7.org/fhir/us/qicore/StructureDefinition/qicore-patient"]},"text":{"status":"generated","div":"<div xmlns=\"http://www.w3.org/1999/xhtml\"><div class=\"hapiHeaderText\">AssessG2P0 <b>DENPASS </b></div><table class=\"hapiPropertyTable\"><tbody><tr><td>Identifier</td><td>7ba44015901d3cd7e5539bec3f21dcf010a0d16b413410d65a34b2ae152ba10f</td></tr><tr><td>Date of birth</td><td><span>14 February 1985</span></td></tr></tbody></table></div>"},"extension":[{"url":"http://hl7.org/fhir/us/core/StructureDefinition/us-core-race","extension":[{"url":"ombCategory","valueCoding":{"system":"urn:oid:2.16.840.1.113883.6.238","code":"1002-5","display":"American Indian or Alaska Native","userSelected":true}},{"url":"text","valueString":"American Indian or Alaska Native"}]},{"url":"http://hl7.org/fhir/us/core/StructureDefinition/us-core-ethnicity","extension":[{"url":"ombCategory","valueCoding":{"system":"urn:oid:2.16.840.1.113883.6.238","code":"2135-2","display":"Hispanic or Latino","userSelected":true}},{"url":"text","valueString":"Hispanic or Latino"}]}],"identifier":[{"type":{"coding":[{"system":"http://terminology.hl7.org/CodeSystem/v2-0203","code":"MR"}]},"system":"https://bonnie-fhir.healthit.gov/","value":"63487c2e0968f8012254017c"}],"active":true,"name":[{"use":"usual","family":"DENPass","given":["AssessG2P0"]}],"gender":"female","birthDate":"1997-02-14"},"request":{"method":"PUT","url":"Patient/4b7b91d4-6f82-4db4-bc04-846bc01796b1"}},{"fullUrl":"https://madie.cms.gov/Observation/5d014eb1b84846087238045f","resource":{"resourceType":"Observation","id":"d9d1150d-14ed-4a6e-9779-95ba79d9e045","meta":{"profile":["http://hl7.org/fhir/us/qicore/StructureDefinition/qicore-observation"]},"status":"final","category":[{"coding":[{"system":"http://terminology.hl7.org/CodeSystem/observation-category","code":"exam","display":"exam","userSelected":true}]}],"code":{"coding":[{"system":"http://loinc.org","code":"11977-6"}]},"subject":{"reference":"Patient/4b7b91d4-6f82-4db4-bc04-846bc01796b1"},"effectiveDateTime":"2025-04-08T09:00:00.000+00:00","valueInteger":0},"request":{"method":"PUT","url":"Observation/d9d1150d-14ed-4a6e-9779-95ba79d9e045"}},{"fullUrl":"https://madie.cms.gov/Observation/5d014eb1b848460872380461","resource":{"resourceType":"Observation","id":"1442ad02-aa14-42fd-8f15-bc801c4abc4a","meta":{"profile":["http://hl7.org/fhir/us/qicore/StructureDefinition/qicore-observation"]},"status":"final","category":[{"coding":[{"system":"http://terminology.hl7.org/CodeSystem/observation-category","code":"exam","display":"exam","userSelected":true}]}],"code":{"coding":[{"system":"http://loinc.org","code":"11996-6"}]},"subject":{"reference":"Patient/4b7b91d4-6f82-4db4-bc04-846bc01796b1"},"effectiveDateTime":"2025-04-09T08:00:00.000+00:00","valueInteger":2},"request":{"method":"PUT","url":"Observation/1442ad02-aa14-42fd-8f15-bc801c4abc4a"}},{"fullUrl":"https://madie.cms.gov/Observation/5d014eb1b848460872380463","resource":{"resourceType":"Observation","id":"ff93c6af-1dcb-44c8-9416-ca080896cd77","meta":{"profile":["http://hl7.org/fhir/us/qicore/StructureDefinition/qicore-observation"]},"status":"final","category":[{"coding":[{"system":"http://terminology.hl7.org/CodeSystem/observation-category","code":"exam","display":"exam","userSelected":true}]}],"code":{"coding":[{"system":"http://loinc.org","code":"11884-4"}]},"subject":{"reference":"Patient/4b7b91d4-6f82-4db4-bc04-846bc01796b1"},"effectiveDateTime":"2025-06-08T07:00:00.000+00:00","valueQuantity":{"value":37.0,"system":"http://unitsofmeasure.org","code":"weeks"}},"request":{"method":"PUT","url":"Observation/ff93c6af-1dcb-44c8-9416-ca080896cd77"}},{"fullUrl":"https://madie.cms.gov/Observation/5e68e85859d82f0000c95b93","resource":{"resourceType":"Observation","id":"f4787843-6db0-4f41-8d54-0b8a70299f6e","meta":{"profile":["http://hl7.org/fhir/us/qicore/StructureDefinition/qicore-observation"]},"status":"final","category":[{"coding":[{"system":"http://terminology.hl7.org/CodeSystem/observation-category","code":"exam","display":"exam","userSelected":true}]}],"code":{"coding":[{"system":"http://loinc.org","code":"93857-1"}]},"subject":{"reference":"Patient/4b7b91d4-6f82-4db4-bc04-846bc01796b1"},"effectiveDateTime":"2025-06-08T07:15:00.000+00:00","valueDateTime":"2025-06-08T07:15:00+00:00"},"request":{"method":"PUT","url":"Observation/f4787843-6db0-4f41-8d54-0b8a70299f6e"}},{"fullUrl":"https://madie.cms.gov/Encounter/5d014eb1b84846087238045c","resource":{"resourceType":"Encounter","id":"5aecf6e1-3dfe-467f-824d-bb6be60a17e4","meta":{"profile":["http://hl7.org/fhir/us/qicore/StructureDefinition/qicore-encounter"]},"status":"finished","class":{"system":"http://terminology.hl7.org/CodeSystem/v3-ActCode","code":"IMP","display":"inpatient encounter"},"type":[{"coding":[{"system":"http://snomed.info/sct","code":"8715000"}]}],"subject":{"reference":"Patient/4b7b91d4-6f82-4db4-bc04-846bc01796b1"},"period":{"start":"2025-06-08T05:00:00.000Z","end":"2025-06-10T08:15:00.000Z"},"length":{"value":2.0,"unit":"days"},"diagnosis":[{"condition":{"reference":"Condition/delivery-of-singleton-f83c"},"use":{"coding":[{"system":"http://snomed.info/sct","code":"169826009","display":"Delivery of Singleton"}]}},{"condition":{"reference":"Condition/delivery-of-singleton-4d2b"}}]},"request":{"method":"PUT","url":"Encounter/5aecf6e1-3dfe-467f-824d-bb6be60a17e4"}},{"fullUrl":"https://madie.cms.gov/Procedure/5d014eb1b84846087238045d","resource":{"resourceType":"Procedure","id":"c632482e-e658-4af1-8027-e6036a09feda","meta":{"profile":["http://hl7.org/fhir/us/qicore/StructureDefinition/qicore-procedure"]},"extension":[{"url":"http://hl7.org/fhir/us/qicore/StructureDefinition/qicore-recorded","valueDateTime":"2013-04-05T09:35:00-04:00"}],"status":"completed","code":{"coding":[{"system":"http://www.cms.gov/Medicare/Coding/ICD10","code":"10D00Z0"},{"system":"http://snomed.info/sct","code":"4504004"}]},"subject":{"reference":"Patient/4b7b91d4-6f82-4db4-bc04-846bc01796b1"},"performedPeriod":{"start":"2025-06-08T06:00:00.000Z","end":"2025-06-08T07:15:00.000Z"}},"request":{"method":"PUT","url":"Procedure/c632482e-e658-4af1-8027-e6036a09feda"}},{"fullUrl":"https://madie.cms.gov/Procedure/5e68e9c259d82f0000c95bc6","resource":{"resourceType":"Procedure","id":"3ba64c67-df07-411f-8f7e-f8554d58c4d3","meta":{"profile":["http://hl7.org/fhir/us/qicore/StructureDefinition/qicore-procedure"]},"extension":[{"url":"http://hl7.org/fhir/us/qicore/StructureDefinition/qicore-recorded","valueDateTime":"2013-04-05T09:35:00-04:00"}],"status":"completed","code":{"coding":[{"system":"http://www.cms.gov/Medicare/Coding/ICD10","code":"10D00Z0"}]},"subject":{"reference":"Patient/4b7b91d4-6f82-4db4-bc04-846bc01796b1"},"performedPeriod":{"start":"2025-06-08T06:00:00.000Z","end":"2025-06-08T07:15:00.000Z"}},"request":{"method":"PUT","url":"Procedure/3ba64c67-df07-411f-8f7e-f8554d58c4d3"}},{"fullUrl":"https://madie.cms.gov/Condition/delivery-of-singleton-4d2b","resource":{"resourceType":"Condition","id":"d3eff987-63da-4c01-b58f-4c98db4dd544","meta":{"profile":["http://hl7.org/fhir/us/qicore/StructureDefinition/qicore-condition"]},"category":[{"coding":[{"system":"http://terminology.hl7.org/CodeSystem/condition-category","code":"encounter-diagnosis","display":"Encounter Diagnosis"}]}],"code":{"coding":[{"system":"http://snomed.info/sct","version":"2022-09","code":"169826009","display":"Single live birth (finding)","userSelected":true}]},"subject":{"reference":"Patient/4b7b91d4-6f82-4db4-bc04-846bc01796b1"},"recordedDate":"2025-10-18T08:00:00.000+00:00"},"request":{"method":"PUT","url":"Condition/d3eff987-63da-4c01-b58f-4c98db4dd544"}},{"fullUrl":"https://madie.cms.gov/Coverage/1","resource":{"resourceType":"Coverage","id":"d51f2ac2-1b43-42a3-86b4-98069e009ff9","meta":{"profile":["http://hl7.org/fhir/us/qicore/StructureDefinition/qicore-coverage"]},"status":"active","beneficiary":{"reference":"Patient/4b7b91d4-6f82-4db4-bc04-846bc01796b1"},"payor":[{"reference":"Organization/880a275e-1cf2-4fb9-869b-f1d2173fdc2b"}]},"request":{"method":"PUT","url":"Coverage/d51f2ac2-1b43-42a3-86b4-98069e009ff9"}},{"fullUrl":"https://madie.cms.gov/Organization/123456","resource":{"resourceType":"Organization","id":"880a275e-1cf2-4fb9-869b-f1d2173fdc2b","meta":{"profile":["http://hl7.org/fhir/us/qicore/StructureDefinition/qicore-organization"]},"identifier":[{"use":"temp","system":"urn:oid:2.16.840.1.113883.4.4","value":"21-3259825"}],"active":true,"type":[{"coding":[{"system":"http://terminology.hl7.org/CodeSystem/organization-type","code":"pay","display":"Payer"}]}],"name":"Blue Cross Blue Shield of Texas","telecom":[{"system":"phone","value":"(+1) 972-766-6900"}],"address":[{"use":"billing","type":"postal","line":["P.O. Box 660044"],"city":"Dallas","state":"TX","postalCode":"75266-0044","country":"USA"}]},"request":{"method":"PUT","url":"Organization/880a275e-1cf2-4fb9-869b-f1d2173fdc2b"}},{"fullUrl":"https://madie.cms.gov/Practitioner/practitioner-123456","resource":{"resourceType":"Practitioner","id":"4c96cb65-e8be-43d9-9042-d86beb2fa0b1","identifier":[{"system":"http://hl7.org/fhir/sid/us-npi","value":"123456"}],"name":[{"family":"Evil","prefix":["Dr"]}]},"request":{"method":"PUT","url":"Practitioner/4c96cb65-e8be-43d9-9042-d86beb2fa0b1"}},{"fullUrl":"https://madie.cms.gov/MeasureReport/0c9544f3-3d7a-417c-af5a-56d46941769d","resource":{"resourceType":"MeasureReport","id":"0c9544f3-3d7a-417c-af5a-56d46941769d","meta":{"profile":["http://hl7.org/fhir/us/cqfmeasures/StructureDefinition/test-case-cqfm"]},"contained":[{"resourceType":"Parameters","id":"7f12b059-9df4-48fb-a388-15377e9ed47e-parameters","parameter":[{"name":"subject","valueString":"4b7b91d4-6f82-4db4-bc04-846bc01796b1"}]}],"extension":[{"url":"http://hl7.org/fhir/us/cqfmeasures/StructureDefinition/cqfm-inputParameters","valueReference":{"reference":"#7f12b059-9df4-48fb-a388-15377e9ed47e-parameters"}},{"url":"http://hl7.org/fhir/us/cqfmeasures/StructureDefinition/cqfm-testCaseDescription","valueMarkdown":"This patient has Gravida 2 Parity 0.  This measure accepts Parity 0 for denom regardless of Gravida value (union).\n"}],"modifierExtension":[{"url":"http://hl7.org/fhir/us/cqfmeasures/StructureDefinition/cqfm-isTestCase","valueBoolean":true}],"status":"complete","type":"individual","measure":"https://madie.cms.gov/Measure/CesareanBirthFHIR","period":{"start":"2025-01-01","end":"2025-12-31"},"group":[{"population":[{"code":{"coding":[{"system":"http://terminology.hl7.org/CodeSystem/measure-population","code":"initial-population","display":"Initial Population"}]},"count":1},{"code":{"coding":[{"system":"http://terminology.hl7.org/CodeSystem/measure-population","code":"denominator","display":"Denominator"}]},"count":1},{"code":{"coding":[{"system":"http://terminology.hl7.org/CodeSystem/measure-population","code":"denominator-exclusion","display":"Denominator Exclusion"}]},"count":0},{"code":{"coding":[{"system":"http://terminology.hl7.org/CodeSystem/measure-population","code":"numerator","display":"Numerator"}]},"count":1}]}]},"request":{"method":"PUT","url":"MeasureReport/0c9544f3-3d7a-417c-af5a-56d46941769d"}}]}