{"resourceType":"Bundle","id":"tests-45a481a1-13fe-4a18-8e8d-3d8ae497d28f-bundle","type":"transaction","entry":[{"fullUrl":"https://madie.cms.gov/Patient/45a481a1-13fe-4a18-8e8d-3d8ae497d28f","resource":{"resourceType":"Patient","id":"45a481a1-13fe-4a18-8e8d-3d8ae497d28f","meta":{"profile":["http://hl7.org/fhir/us/qicore/StructureDefinition/qicore-patient"]},"text":{"status":"generated","div":"<div xmlns=\"http://www.w3.org/1999/xhtml\"><div class=\"hapiHeaderText\">AssessEDDRelDtTime24Hours1minB4TimeOfDeliv <b>DENPASS </b></div><table class=\"hapiPropertyTable\"><tbody><tr><td>Identifier</td><td>b00b06f67015bda652373741cca10f65466d828e3a674df9528f73ec417ce0bb</td></tr><tr><td>Date of birth</td><td><span>14 February 1985</span></td></tr></tbody></table></div>"},"extension":[{"url":"http://hl7.org/fhir/us/core/StructureDefinition/us-core-race","extension":[{"url":"ombCategory","valueCoding":{"system":"urn:oid:2.16.840.1.113883.6.238","code":"1002-5","display":"American Indian or Alaska Native","userSelected":true}},{"url":"text","valueString":"American Indian or Alaska Native"}]},{"url":"http://hl7.org/fhir/us/core/StructureDefinition/us-core-ethnicity","extension":[{"url":"ombCategory","valueCoding":{"system":"urn:oid:2.16.840.1.113883.6.238","code":"2135-2","display":"Hispanic or Latino","userSelected":true}},{"url":"text","valueString":"Hispanic or Latino"}]}],"identifier":[{"type":{"coding":[{"system":"http://terminology.hl7.org/CodeSystem/v2-0203","code":"MR"}]},"system":"https://bonnie-fhir.healthit.gov/","value":"63487c2f0968f801225401ac"}],"active":true,"name":[{"use":"usual","family":"DENPass","given":["AssessEDDRelDtTime24Hours1minB4TimeOfDeliv"]}],"gender":"female","birthDate":"1997-02-14"},"request":{"method":"PUT","url":"Patient/45a481a1-13fe-4a18-8e8d-3d8ae497d28f"}},{"fullUrl":"https://madie.cms.gov/Observation/5e6165403e992300009b6c80","resource":{"resourceType":"Observation","id":"4d267aec-a332-4433-8deb-163b088c37d7","meta":{"profile":["http://hl7.org/fhir/us/qicore/StructureDefinition/qicore-observation"]},"status":"final","category":[{"coding":[{"system":"http://terminology.hl7.org/CodeSystem/observation-category","code":"exam","display":"exam","userSelected":true}]}],"code":{"coding":[{"system":"http://loinc.org","code":"93857-1"}]},"subject":{"reference":"Patient/45a481a1-13fe-4a18-8e8d-3d8ae497d28f"},"effectiveDateTime":"2025-01-15T08:00:00.000+00:00","valueDateTime":"2025-01-15T08:00:00+00:00"},"request":{"method":"PUT","url":"Observation/4d267aec-a332-4433-8deb-163b088c37d7"}},{"fullUrl":"https://madie.cms.gov/Observation/5e8a4fd5ae28560000469f52","resource":{"resourceType":"Observation","id":"465e9698-c81c-4c84-9c8b-8a267edce8d8","meta":{"profile":["http://hl7.org/fhir/us/qicore/StructureDefinition/qicore-observation"]},"status":"final","category":[{"coding":[{"system":"http://terminology.hl7.org/CodeSystem/observation-category","code":"exam","display":"exam","userSelected":true}]}],"code":{"coding":[{"system":"http://loinc.org","code":"11778-8"}]},"subject":{"reference":"Patient/45a481a1-13fe-4a18-8e8d-3d8ae497d28f"},"effectiveDateTime":"2025-01-14T07:59:00.000+00:00","valueDateTime":"2025-02-04T08:00:00+00:00"},"request":{"method":"PUT","url":"Observation/465e9698-c81c-4c84-9c8b-8a267edce8d8"}},{"fullUrl":"https://madie.cms.gov/Observation/5e8a568dae2856000046a3cf","resource":{"resourceType":"Observation","id":"2b7a6c12-219b-44eb-a1f1-7fb6f6b8f421","meta":{"profile":["http://hl7.org/fhir/us/qicore/StructureDefinition/qicore-observation"]},"status":"final","category":[{"coding":[{"system":"http://terminology.hl7.org/CodeSystem/observation-category","code":"exam","display":"exam","userSelected":true}]}],"code":{"coding":[{"system":"http://loinc.org","code":"11996-6"}]},"subject":{"reference":"Patient/45a481a1-13fe-4a18-8e8d-3d8ae497d28f"},"effectiveDateTime":"2025-01-15T07:59:00.000+00:00","valueInteger":1},"request":{"method":"PUT","url":"Observation/2b7a6c12-219b-44eb-a1f1-7fb6f6b8f421"}},{"fullUrl":"https://madie.cms.gov/Encounter/5d014eb2b84846087238056f","resource":{"resourceType":"Encounter","id":"a939a621-3130-4a23-96a9-dadc82ac5007","meta":{"profile":["http://hl7.org/fhir/us/qicore/StructureDefinition/qicore-encounter"]},"status":"finished","class":{"system":"http://terminology.hl7.org/CodeSystem/v3-ActCode","code":"IMP","display":"inpatient encounter"},"type":[{"coding":[{"system":"http://snomed.info/sct","code":"183452005"}]}],"subject":{"reference":"Patient/45a481a1-13fe-4a18-8e8d-3d8ae497d28f"},"period":{"start":"2025-01-15T08:00:00.000Z","end":"2025-01-20T08:15:00.000Z"},"diagnosis":[{"condition":{"reference":"Condition/delivery-of-singleton-99c3"},"use":{"coding":[{"system":"http://snomed.info/sct","code":"169826009","display":"Delivery of Singleton"}]}}]},"request":{"method":"PUT","url":"Encounter/a939a621-3130-4a23-96a9-dadc82ac5007"}},{"fullUrl":"https://madie.cms.gov/Procedure/5d014eb2b848460872380570","resource":{"resourceType":"Procedure","id":"85250cc3-e9c9-47c7-9e74-0a4f3a0ae8c6","meta":{"profile":["http://hl7.org/fhir/us/qicore/StructureDefinition/qicore-procedure"]},"extension":[{"url":"http://hl7.org/fhir/us/qicore/StructureDefinition/qicore-recorded","valueDateTime":"2013-04-05T09:35:00-04:00"}],"status":"completed","code":{"coding":[{"system":"http://snomed.info/sct","version":"2022-09","code":"10745001","display":"Delivery of transverse presentation (procedure)","userSelected":true}]},"subject":{"reference":"Patient/45a481a1-13fe-4a18-8e8d-3d8ae497d28f"},"performedPeriod":{"start":"2025-01-15T08:10:00.000Z","end":"2025-01-15T09:14:00.000Z"}},"request":{"method":"PUT","url":"Procedure/85250cc3-e9c9-47c7-9e74-0a4f3a0ae8c6"}},{"fullUrl":"https://madie.cms.gov/Condition/delivery-of-singleton-99c3","resource":{"resourceType":"Condition","id":"2fff5ec4-22d0-4e9e-8345-dfdb37e1adb5","meta":{"profile":["http://hl7.org/fhir/us/qicore/StructureDefinition/qicore-condition"]},"category":[{"coding":[{"system":"http://terminology.hl7.org/CodeSystem/condition-category","code":"encounter-diagnosis","display":"Encounter Diagnosis"}]}],"code":{"coding":[{"system":"http://snomed.info/sct","version":"2022-09","code":"169826009","display":"Single live birth (finding)","userSelected":true}]},"subject":{"reference":"Patient/45a481a1-13fe-4a18-8e8d-3d8ae497d28f"},"recordedDate":"2025-10-14T08:00:00.000+00:00"},"request":{"method":"PUT","url":"Condition/2fff5ec4-22d0-4e9e-8345-dfdb37e1adb5"}},{"fullUrl":"https://madie.cms.gov/Coverage/1","resource":{"resourceType":"Coverage","id":"e349fc01-d3f5-42b6-b2b3-acb2f71ee042","meta":{"profile":["http://hl7.org/fhir/us/qicore/StructureDefinition/qicore-coverage"]},"status":"active","beneficiary":{"reference":"Patient/45a481a1-13fe-4a18-8e8d-3d8ae497d28f"},"payor":[{"reference":"Organization/024e2731-b045-43bf-80d2-684774c5b51c"}]},"request":{"method":"PUT","url":"Coverage/e349fc01-d3f5-42b6-b2b3-acb2f71ee042"}},{"fullUrl":"https://madie.cms.gov/Organization/123456","resource":{"resourceType":"Organization","id":"024e2731-b045-43bf-80d2-684774c5b51c","meta":{"profile":["http://hl7.org/fhir/us/qicore/StructureDefinition/qicore-organization"]},"identifier":[{"use":"temp","system":"urn:oid:2.16.840.1.113883.4.4","value":"21-3259825"}],"active":true,"type":[{"coding":[{"system":"http://terminology.hl7.org/CodeSystem/organization-type","code":"pay","display":"Payer"}]}],"name":"Blue Cross Blue Shield of Texas","telecom":[{"system":"phone","value":"(+1) 972-766-6900"}],"address":[{"use":"billing","type":"postal","line":["P.O. Box 660044"],"city":"Dallas","state":"TX","postalCode":"75266-0044","country":"USA"}]},"request":{"method":"PUT","url":"Organization/024e2731-b045-43bf-80d2-684774c5b51c"}},{"fullUrl":"https://madie.cms.gov/Practitioner/practitioner-123456","resource":{"resourceType":"Practitioner","id":"8154ae9e-389f-4b97-9b89-48507e3ac48b","identifier":[{"system":"http://hl7.org/fhir/sid/us-npi","value":"123456"}],"name":[{"family":"Evil","prefix":["Dr"]}]},"request":{"method":"PUT","url":"Practitioner/8154ae9e-389f-4b97-9b89-48507e3ac48b"}},{"fullUrl":"https://madie.cms.gov/MeasureReport/91c7a50d-7774-4b9b-89c0-bb666bc7489f","resource":{"resourceType":"MeasureReport","id":"91c7a50d-7774-4b9b-89c0-bb666bc7489f","meta":{"profile":["http://hl7.org/fhir/us/cqfmeasures/StructureDefinition/test-case-cqfm"]},"contained":[{"resourceType":"Parameters","id":"5006c505-ddfd-4bab-aa49-da88239e8329-parameters","parameter":[{"name":"subject","valueString":"45a481a1-13fe-4a18-8e8d-3d8ae497d28f"}]}],"extension":[{"url":"http://hl7.org/fhir/us/cqfmeasures/StructureDefinition/cqfm-inputParameters","valueReference":{"reference":"#5006c505-ddfd-4bab-aa49-da88239e8329-parameters"}},{"url":"http://hl7.org/fhir/us/cqfmeasures/StructureDefinition/cqfm-testCaseDescription","valueMarkdown":"Passes: IP, Pass DENOM, Pt is 27 years of age,  encounter dx delivery of singleton, gravida=1authored less than 42 weeks prior to delivery, Delivery date Estimated Relevant DateTime 24 hours and 1 minute before the Time of Delivery\n"}],"modifierExtension":[{"url":"http://hl7.org/fhir/us/cqfmeasures/StructureDefinition/cqfm-isTestCase","valueBoolean":true}],"status":"complete","type":"individual","measure":"https://madie.cms.gov/Measure/CesareanBirthFHIR","period":{"start":"2025-01-01","end":"2025-12-31"},"group":[{"population":[{"code":{"coding":[{"system":"http://terminology.hl7.org/CodeSystem/measure-population","code":"initial-population","display":"Initial Population"}]},"count":1},{"code":{"coding":[{"system":"http://terminology.hl7.org/CodeSystem/measure-population","code":"denominator","display":"Denominator"}]},"count":1},{"code":{"coding":[{"system":"http://terminology.hl7.org/CodeSystem/measure-population","code":"denominator-exclusion","display":"Denominator Exclusion"}]},"count":0},{"code":{"coding":[{"system":"http://terminology.hl7.org/CodeSystem/measure-population","code":"numerator","display":"Numerator"}]},"count":0}]}]},"request":{"method":"PUT","url":"MeasureReport/91c7a50d-7774-4b9b-89c0-bb666bc7489f"}}]}