{"resourceType":"Bundle","id":"tests-f448b52e-d9bf-4989-88c9-20b8a8d9907e-bundle","type":"transaction","entry":[{"fullUrl":"https://madie.cms.gov/Patient/f448b52e-d9bf-4989-88c9-20b8a8d9907e","resource":{"resourceType":"Patient","id":"f448b52e-d9bf-4989-88c9-20b8a8d9907e","meta":{"profile":["http://hl7.org/fhir/us/qicore/StructureDefinition/qicore-patient"]},"text":{"status":"generated","div":"<div xmlns=\"http://www.w3.org/1999/xhtml\"><div class=\"hapiHeaderText\">AssessP0RelDtTimeEQTimeOfDeliv <b>DENFAIL </b></div><table class=\"hapiPropertyTable\"><tbody><tr><td>Identifier</td><td>3ea719415f2f0fb521730d958474147ea3705811d2881f35f880c69e959fdbb1</td></tr><tr><td>Date of birth</td><td><span>14 February 1985</span></td></tr></tbody></table></div>"},"extension":[{"url":"http://hl7.org/fhir/us/core/StructureDefinition/us-core-race","extension":[{"url":"ombCategory","valueCoding":{"system":"urn:oid:2.16.840.1.113883.6.238","code":"1002-5","display":"American Indian or Alaska Native","userSelected":true}},{"url":"text","valueString":"American Indian or Alaska Native"}]},{"url":"http://hl7.org/fhir/us/core/StructureDefinition/us-core-ethnicity","extension":[{"url":"ombCategory","valueCoding":{"system":"urn:oid:2.16.840.1.113883.6.238","code":"2135-2","display":"Hispanic or Latino","userSelected":true}},{"url":"text","valueString":"Hispanic or Latino"}]}],"identifier":[{"type":{"coding":[{"system":"http://terminology.hl7.org/CodeSystem/v2-0203","code":"MR"}]},"system":"https://bonnie-fhir.healthit.gov/","value":"63487c2e0968f80122540167"}],"active":true,"name":[{"use":"usual","family":"DENFail","given":["AssessP0RelDtTimeEQTimeOfDeliv"]}],"gender":"female","birthDate":"1997-02-14"},"request":{"method":"PUT","url":"Patient/f448b52e-d9bf-4989-88c9-20b8a8d9907e"}},{"fullUrl":"https://madie.cms.gov/Observation/5d014eb2b84846087238061c","resource":{"resourceType":"Observation","id":"d36b61f0-9fb8-4aa7-9c76-89e2a539207a","meta":{"profile":["http://hl7.org/fhir/us/qicore/StructureDefinition/qicore-observation"]},"status":"final","category":[{"coding":[{"system":"http://terminology.hl7.org/CodeSystem/observation-category","code":"exam","display":"exam","userSelected":true}]}],"code":{"coding":[{"system":"http://loinc.org","code":"11977-6"}]},"subject":{"reference":"Patient/f448b52e-d9bf-4989-88c9-20b8a8d9907e"},"effectiveDateTime":"2025-06-08T20:00:00.000+00:00","valueInteger":0},"request":{"method":"PUT","url":"Observation/d36b61f0-9fb8-4aa7-9c76-89e2a539207a"}},{"fullUrl":"https://madie.cms.gov/Observation/5d014eb2b84846087238061f","resource":{"resourceType":"Observation","id":"e6b56f69-1eed-4798-b345-03167ac96d6b","meta":{"profile":["http://hl7.org/fhir/us/qicore/StructureDefinition/qicore-observation"]},"status":"final","category":[{"coding":[{"system":"http://terminology.hl7.org/CodeSystem/observation-category","code":"exam","display":"exam","userSelected":true}]}],"code":{"coding":[{"system":"http://loinc.org","code":"11884-4"}]},"subject":{"reference":"Patient/f448b52e-d9bf-4989-88c9-20b8a8d9907e"},"effectiveDateTime":"2025-06-08T20:00:00.000+00:00","valueQuantity":{"value":37.0,"system":"http://unitsofmeasure.org","code":"weeks"}},"request":{"method":"PUT","url":"Observation/e6b56f69-1eed-4798-b345-03167ac96d6b"}},{"fullUrl":"https://madie.cms.gov/Observation/5e695fda7ffec70000320edc","resource":{"resourceType":"Observation","id":"30717750-a137-4a16-ac26-93c6d6384f7a","meta":{"profile":["http://hl7.org/fhir/us/qicore/StructureDefinition/qicore-observation"]},"status":"final","category":[{"coding":[{"system":"http://terminology.hl7.org/CodeSystem/observation-category","code":"exam","display":"exam","userSelected":true}]}],"code":{"coding":[{"system":"http://loinc.org","code":"93857-1"}]},"subject":{"reference":"Patient/f448b52e-d9bf-4989-88c9-20b8a8d9907e"},"effectiveDateTime":"2025-06-08T20:00:00.000+00:00","valueDateTime":"2025-06-08T20:00:00+00:00"},"request":{"method":"PUT","url":"Observation/30717750-a137-4a16-ac26-93c6d6384f7a"}},{"fullUrl":"https://madie.cms.gov/Encounter/5d014eb2b84846087238061a","resource":{"resourceType":"Encounter","id":"9fb19fda-3433-4435-b725-027027667eec","meta":{"profile":["http://hl7.org/fhir/us/qicore/StructureDefinition/qicore-encounter"]},"status":"finished","class":{"system":"http://terminology.hl7.org/CodeSystem/v3-ActCode","code":"IMP","display":"inpatient encounter"},"type":[{"coding":[{"system":"http://snomed.info/sct","code":"8715000"}]}],"subject":{"reference":"Patient/f448b52e-d9bf-4989-88c9-20b8a8d9907e"},"period":{"start":"2025-06-08T08:00:00.000Z","end":"2025-06-10T08:15:00.000Z"},"length":{"value":2.0,"unit":"days"},"diagnosis":[{"condition":{"reference":"Condition/delivery-of-singleton-f83c"},"use":{"coding":[{"system":"http://snomed.info/sct","code":"169826009","display":"Delivery of Singleton"}]}},{"condition":{"reference":"Condition/delivery-of-singleton-4b0a"}}]},"request":{"method":"PUT","url":"Encounter/9fb19fda-3433-4435-b725-027027667eec"}},{"fullUrl":"https://madie.cms.gov/Procedure/5d014eb2b84846087238061b","resource":{"resourceType":"Procedure","id":"6327719a-fb9c-4be7-bc1c-a1b6df57668c","meta":{"profile":["http://hl7.org/fhir/us/qicore/StructureDefinition/qicore-procedure"]},"extension":[{"url":"http://hl7.org/fhir/us/qicore/StructureDefinition/qicore-recorded","valueDateTime":"2013-04-05T09:35:00-04:00"}],"status":"completed","code":{"coding":[{"system":"http://www.cms.gov/Medicare/Coding/ICD10","code":"10D00Z0"},{"system":"http://snomed.info/sct","code":"4504004"},{"system":"http://www.icd10data.com/icd10pcs","code":"10D00Z0","userSelected":true}]},"subject":{"reference":"Patient/f448b52e-d9bf-4989-88c9-20b8a8d9907e"},"performedPeriod":{"start":"2025-06-08T20:00:00.000Z","end":"2025-06-08T20:15:00.000Z"}},"request":{"method":"PUT","url":"Procedure/6327719a-fb9c-4be7-bc1c-a1b6df57668c"}},{"fullUrl":"https://madie.cms.gov/Condition/delivery-of-singleton-4b0a","resource":{"resourceType":"Condition","id":"9a7ef98b-aa70-4b70-ac70-54c18be17581","meta":{"profile":["http://hl7.org/fhir/us/qicore/StructureDefinition/qicore-condition"]},"category":[{"coding":[{"system":"http://terminology.hl7.org/CodeSystem/condition-category","code":"encounter-diagnosis","display":"Encounter Diagnosis"}]}],"code":{"coding":[{"system":"http://snomed.info/sct","version":"2022-09","code":"169826009","display":"Single live birth (finding)","userSelected":true}]},"subject":{"reference":"Patient/f448b52e-d9bf-4989-88c9-20b8a8d9907e"},"recordedDate":"2025-10-21T08:00:00.000+00:00"},"request":{"method":"PUT","url":"Condition/9a7ef98b-aa70-4b70-ac70-54c18be17581"}},{"fullUrl":"https://madie.cms.gov/Coverage/1","resource":{"resourceType":"Coverage","id":"01d14b03-c4e7-4473-abff-40da4af7916c","meta":{"profile":["http://hl7.org/fhir/us/qicore/StructureDefinition/qicore-coverage"]},"status":"active","beneficiary":{"reference":"Patient/f448b52e-d9bf-4989-88c9-20b8a8d9907e"},"payor":[{"reference":"Organization/84b56847-ad40-4bf6-b612-9e42ad2a84e5"}]},"request":{"method":"PUT","url":"Coverage/01d14b03-c4e7-4473-abff-40da4af7916c"}},{"fullUrl":"https://madie.cms.gov/Organization/123456","resource":{"resourceType":"Organization","id":"84b56847-ad40-4bf6-b612-9e42ad2a84e5","meta":{"profile":["http://hl7.org/fhir/us/qicore/StructureDefinition/qicore-organization"]},"identifier":[{"use":"temp","system":"urn:oid:2.16.840.1.113883.4.4","value":"21-3259825"}],"active":true,"type":[{"coding":[{"system":"http://terminology.hl7.org/CodeSystem/organization-type","code":"pay","display":"Payer"}]}],"name":"Blue Cross Blue Shield of Texas","telecom":[{"system":"phone","value":"(+1) 972-766-6900"}],"address":[{"use":"billing","type":"postal","line":["P.O. Box 660044"],"city":"Dallas","state":"TX","postalCode":"75266-0044","country":"USA"}]},"request":{"method":"PUT","url":"Organization/84b56847-ad40-4bf6-b612-9e42ad2a84e5"}},{"fullUrl":"https://madie.cms.gov/Practitioner/practitioner-123456","resource":{"resourceType":"Practitioner","id":"39115e08-ff42-4d28-a551-80b3d380ddf6","identifier":[{"system":"http://hl7.org/fhir/sid/us-npi","value":"123456"}],"name":[{"family":"Evil","prefix":["Dr"]}]},"request":{"method":"PUT","url":"Practitioner/39115e08-ff42-4d28-a551-80b3d380ddf6"}},{"fullUrl":"https://madie.cms.gov/MeasureReport/8342b348-d3a1-4251-903b-2fab70eca6e4","resource":{"resourceType":"MeasureReport","id":"8342b348-d3a1-4251-903b-2fab70eca6e4","meta":{"profile":["http://hl7.org/fhir/us/cqfmeasures/StructureDefinition/test-case-cqfm"]},"contained":[{"resourceType":"Parameters","id":"ec17f3cb-28dd-45ac-80bd-15dfdf5b9c6d-parameters","parameter":[{"name":"subject","valueString":"f448b52e-d9bf-4989-88c9-20b8a8d9907e"}]}],"extension":[{"url":"http://hl7.org/fhir/us/cqfmeasures/StructureDefinition/cqfm-inputParameters","valueReference":{"reference":"#ec17f3cb-28dd-45ac-80bd-15dfdf5b9c6d-parameters"}},{"url":"http://hl7.org/fhir/us/cqfmeasures/StructureDefinition/cqfm-testCaseDescription","valueMarkdown":"Parity=0, relative date/time same date and time as delivery date/time.\n"}],"modifierExtension":[{"url":"http://hl7.org/fhir/us/cqfmeasures/StructureDefinition/cqfm-isTestCase","valueBoolean":true}],"status":"complete","type":"individual","measure":"https://madie.cms.gov/Measure/CesareanBirthFHIR","period":{"start":"2025-01-01","end":"2025-12-31"},"group":[{"population":[{"code":{"coding":[{"system":"http://terminology.hl7.org/CodeSystem/measure-population","code":"initial-population","display":"Initial Population"}]},"count":1},{"code":{"coding":[{"system":"http://terminology.hl7.org/CodeSystem/measure-population","code":"denominator","display":"Denominator"}]},"count":0},{"code":{"coding":[{"system":"http://terminology.hl7.org/CodeSystem/measure-population","code":"denominator-exclusion","display":"Denominator Exclusion"}]},"count":0},{"code":{"coding":[{"system":"http://terminology.hl7.org/CodeSystem/measure-population","code":"numerator","display":"Numerator"}]},"count":0}]}]},"request":{"method":"PUT","url":"MeasureReport/8342b348-d3a1-4251-903b-2fab70eca6e4"}}]}