{"resourceType":"Bundle","id":"tests-210e5a88-c28c-41ff-8002-7fc31b41f413-bundle","type":"transaction","entry":[{"fullUrl":"https://madie.cms.gov/Patient/210e5a88-c28c-41ff-8002-7fc31b41f413","resource":{"resourceType":"Patient","id":"210e5a88-c28c-41ff-8002-7fc31b41f413","meta":{"profile":["http://hl7.org/fhir/us/qicore/StructureDefinition/qicore-patient"]},"text":{"status":"generated","div":"<div xmlns=\"http://www.w3.org/1999/xhtml\"><div class=\"hapiHeaderText\">CalcEGAIsTimeOfDelivNULL <b>DENFAIL </b></div><table class=\"hapiPropertyTable\"><tbody><tr><td>Identifier</td><td>b00b06f67015bda652373741cca10f65466d828e3a674df9528f73ec417ce0bb</td></tr><tr><td>Date of birth</td><td><span>14 February 1985</span></td></tr></tbody></table></div>"},"extension":[{"url":"http://hl7.org/fhir/us/core/StructureDefinition/us-core-race","extension":[{"url":"ombCategory","valueCoding":{"system":"urn:oid:2.16.840.1.113883.6.238","code":"1002-5","display":"American Indian or Alaska Native","userSelected":true}},{"url":"text","valueString":"American Indian or Alaska Native"}]},{"url":"http://hl7.org/fhir/us/core/StructureDefinition/us-core-ethnicity","extension":[{"url":"ombCategory","valueCoding":{"system":"urn:oid:2.16.840.1.113883.6.238","code":"2135-2","display":"Hispanic or Latino","userSelected":true}},{"url":"text","valueString":"Hispanic or Latino"}]}],"identifier":[{"type":{"coding":[{"system":"http://terminology.hl7.org/CodeSystem/v2-0203","code":"MR"}]},"system":"https://bonnie-fhir.healthit.gov/","value":"63487c2f0968f801225401a3"}],"active":true,"name":[{"use":"usual","family":"DENFail","given":["CalcEGAIsTimeOfDelivNULL"]}],"gender":"female","birthDate":"1997-02-14"},"request":{"method":"PUT","url":"Patient/210e5a88-c28c-41ff-8002-7fc31b41f413"}},{"fullUrl":"https://madie.cms.gov/Observation/5e6165403e992300009b6c80","resource":{"resourceType":"Observation","id":"609f60e1-54af-4a42-ae9f-71fef2ec99e6","meta":{"profile":["http://hl7.org/fhir/us/qicore/StructureDefinition/qicore-observation"]},"status":"final","category":[{"coding":[{"system":"http://terminology.hl7.org/CodeSystem/observation-category","code":"exam","display":"exam","userSelected":true}]}],"code":{"coding":[{"system":"http://loinc.org","code":"93857-1"}]},"subject":{"reference":"Patient/210e5a88-c28c-41ff-8002-7fc31b41f413"},"valueDateTime":"2025-01-15T08:00:00+00:00"},"request":{"method":"PUT","url":"Observation/609f60e1-54af-4a42-ae9f-71fef2ec99e6"}},{"fullUrl":"https://madie.cms.gov/Observation/5e8a4fd5ae28560000469f52","resource":{"resourceType":"Observation","id":"1ab12297-1010-48a7-99d6-c6f969774d29","meta":{"profile":["http://hl7.org/fhir/us/qicore/StructureDefinition/qicore-observation"]},"status":"final","category":[{"coding":[{"system":"http://terminology.hl7.org/CodeSystem/observation-category","code":"exam","display":"exam","userSelected":true}]}],"code":{"coding":[{"system":"http://loinc.org","code":"11778-8"}]},"subject":{"reference":"Patient/210e5a88-c28c-41ff-8002-7fc31b41f413"},"effectiveDateTime":"2025-01-15T08:00:00.000+00:00","valueDateTime":"2025-02-04T08:00:00+00:00"},"request":{"method":"PUT","url":"Observation/1ab12297-1010-48a7-99d6-c6f969774d29"}},{"fullUrl":"https://madie.cms.gov/Observation/5e8a568dae2856000046a3cf","resource":{"resourceType":"Observation","id":"9619916b-7579-4a4a-8ac6-e09120444e7a","meta":{"profile":["http://hl7.org/fhir/us/qicore/StructureDefinition/qicore-observation"]},"status":"final","category":[{"coding":[{"system":"http://terminology.hl7.org/CodeSystem/observation-category","code":"exam","display":"exam","userSelected":true}]}],"code":{"coding":[{"system":"http://loinc.org","code":"11996-6"}]},"subject":{"reference":"Patient/210e5a88-c28c-41ff-8002-7fc31b41f413"},"effectiveDateTime":"2025-01-15T07:59:00.000+00:00","valueInteger":1},"request":{"method":"PUT","url":"Observation/9619916b-7579-4a4a-8ac6-e09120444e7a"}},{"fullUrl":"https://madie.cms.gov/Encounter/5d014eb2b84846087238056f","resource":{"resourceType":"Encounter","id":"538d9c6a-557c-4a83-b3b1-06826c1f43d4","meta":{"profile":["http://hl7.org/fhir/us/qicore/StructureDefinition/qicore-encounter"]},"status":"finished","class":{"system":"http://terminology.hl7.org/CodeSystem/v3-ActCode","code":"IMP","display":"inpatient encounter"},"type":[{"coding":[{"system":"http://snomed.info/sct","code":"183452005"}]}],"subject":{"reference":"Patient/210e5a88-c28c-41ff-8002-7fc31b41f413"},"period":{"start":"2025-01-15T08:00:00.000Z","end":"2025-01-20T08:15:00.000Z"},"diagnosis":[{"condition":{"reference":"Condition/delivery-of-singleton-f83c"},"use":{"coding":[{"system":"http://snomed.info/sct","code":"169826009","display":"Delivery of Singleton"}]}},{"condition":{"reference":"Condition/delivery-of-singleton-4b29"}}]},"request":{"method":"PUT","url":"Encounter/538d9c6a-557c-4a83-b3b1-06826c1f43d4"}},{"fullUrl":"https://madie.cms.gov/Procedure/5d014eb2b848460872380570","resource":{"resourceType":"Procedure","id":"2acbf3b5-36eb-47b6-bda1-65364101d9e5","meta":{"profile":["http://hl7.org/fhir/us/qicore/StructureDefinition/qicore-procedure"]},"extension":[{"url":"http://hl7.org/fhir/us/qicore/StructureDefinition/qicore-recorded","valueDateTime":"2013-04-05T09:35:00-04:00"}],"status":"completed","code":{"coding":[{"system":"http://www.cms.gov/Medicare/Coding/ICD10","code":"10D07Z3"},{"system":"http://www.icd10data.com/icd10pcs","code":"10D07Z3","userSelected":true}]},"subject":{"reference":"Patient/210e5a88-c28c-41ff-8002-7fc31b41f413"},"performedPeriod":{"start":"2025-01-15T08:10:00.000Z","end":"2025-01-15T09:14:00.000Z"}},"request":{"method":"PUT","url":"Procedure/2acbf3b5-36eb-47b6-bda1-65364101d9e5"}},{"fullUrl":"https://madie.cms.gov/Condition/delivery-of-singleton-4b29","resource":{"resourceType":"Condition","id":"cb700248-e4a5-4818-b604-1a781cc3de00","meta":{"profile":["http://hl7.org/fhir/us/qicore/StructureDefinition/qicore-condition"]},"category":[{"coding":[{"system":"http://terminology.hl7.org/CodeSystem/condition-category","code":"encounter-diagnosis","display":"Encounter Diagnosis"}]}],"code":{"coding":[{"system":"http://snomed.info/sct","version":"2022-09","code":"169826009","display":"Single live birth (finding)","userSelected":true}]},"subject":{"reference":"Patient/210e5a88-c28c-41ff-8002-7fc31b41f413"},"recordedDate":"2025-10-21T08:00:00.000+00:00"},"request":{"method":"PUT","url":"Condition/cb700248-e4a5-4818-b604-1a781cc3de00"}},{"fullUrl":"https://madie.cms.gov/Coverage/1","resource":{"resourceType":"Coverage","id":"7dda18ed-85c5-4c65-8c66-b8347659c7c9","meta":{"profile":["http://hl7.org/fhir/us/qicore/StructureDefinition/qicore-coverage"]},"status":"active","beneficiary":{"reference":"Patient/210e5a88-c28c-41ff-8002-7fc31b41f413"},"payor":[{"reference":"Organization/ec8cac12-7dd8-4c6e-8c44-d6c645085c80"}]},"request":{"method":"PUT","url":"Coverage/7dda18ed-85c5-4c65-8c66-b8347659c7c9"}},{"fullUrl":"https://madie.cms.gov/Organization/123456","resource":{"resourceType":"Organization","id":"ec8cac12-7dd8-4c6e-8c44-d6c645085c80","meta":{"profile":["http://hl7.org/fhir/us/qicore/StructureDefinition/qicore-organization"]},"identifier":[{"use":"temp","system":"urn:oid:2.16.840.1.113883.4.4","value":"21-3259825"}],"active":true,"type":[{"coding":[{"system":"http://terminology.hl7.org/CodeSystem/organization-type","code":"pay","display":"Payer"}]}],"name":"Blue Cross Blue Shield of Texas","telecom":[{"system":"phone","value":"(+1) 972-766-6900"}],"address":[{"use":"billing","type":"postal","line":["P.O. Box 660044"],"city":"Dallas","state":"TX","postalCode":"75266-0044","country":"USA"}]},"request":{"method":"PUT","url":"Organization/ec8cac12-7dd8-4c6e-8c44-d6c645085c80"}},{"fullUrl":"https://madie.cms.gov/Practitioner/practitioner-123456","resource":{"resourceType":"Practitioner","id":"c7c0ddf1-ad3b-499b-8c33-959ac0234f4d","identifier":[{"system":"http://hl7.org/fhir/sid/us-npi","value":"123456"}],"name":[{"family":"Evil","prefix":["Dr"]}]},"request":{"method":"PUT","url":"Practitioner/c7c0ddf1-ad3b-499b-8c33-959ac0234f4d"}},{"fullUrl":"https://madie.cms.gov/MeasureReport/1efb52af-8a55-44ae-b0f7-842a95d6fedb","resource":{"resourceType":"MeasureReport","id":"1efb52af-8a55-44ae-b0f7-842a95d6fedb","meta":{"profile":["http://hl7.org/fhir/us/cqfmeasures/StructureDefinition/test-case-cqfm"]},"contained":[{"resourceType":"Parameters","id":"48bc8ee3-16c2-4306-8a02-60e54b6bfa2e-parameters","parameter":[{"name":"subject","valueString":"210e5a88-c28c-41ff-8002-7fc31b41f413"}]}],"extension":[{"url":"http://hl7.org/fhir/us/cqfmeasures/StructureDefinition/cqfm-inputParameters","valueReference":{"reference":"#48bc8ee3-16c2-4306-8a02-60e54b6bfa2e-parameters"}},{"url":"http://hl7.org/fhir/us/cqfmeasures/StructureDefinition/cqfm-testCaseDescription","valueMarkdown":"Passes: IP, Fails: DENOM  Pt is 27 years of age,  encounter dx delivery of singleton, gravida=1authored less than 42 weeks prior to delivery, calculated EGA fails because Time of Delivery is NULL\n"}],"modifierExtension":[{"url":"http://hl7.org/fhir/us/cqfmeasures/StructureDefinition/cqfm-isTestCase","valueBoolean":true}],"status":"complete","type":"individual","measure":"https://madie.cms.gov/Measure/CesareanBirthFHIR","period":{"start":"2025-01-01","end":"2025-12-31"},"group":[{"population":[{"code":{"coding":[{"system":"http://terminology.hl7.org/CodeSystem/measure-population","code":"initial-population","display":"Initial Population"}]},"count":1},{"code":{"coding":[{"system":"http://terminology.hl7.org/CodeSystem/measure-population","code":"denominator","display":"Denominator"}]},"count":0},{"code":{"coding":[{"system":"http://terminology.hl7.org/CodeSystem/measure-population","code":"denominator-exclusion","display":"Denominator Exclusion"}]},"count":0},{"code":{"coding":[{"system":"http://terminology.hl7.org/CodeSystem/measure-population","code":"numerator","display":"Numerator"}]},"count":0}]}]},"request":{"method":"PUT","url":"MeasureReport/1efb52af-8a55-44ae-b0f7-842a95d6fedb"}}]}