{"resourceType":"Bundle","id":"tests-ea482ebf-f11a-4984-9289-0257711ed160-bundle","type":"transaction","entry":[{"fullUrl":"https://madie.cms.gov/Patient/ea482ebf-f11a-4984-9289-0257711ed160","resource":{"resourceType":"Patient","id":"ea482ebf-f11a-4984-9289-0257711ed160","meta":{"profile":["http://hl7.org/fhir/us/qicore/StructureDefinition/qicore-patient"]},"text":{"status":"generated","div":"<div xmlns=\"http://www.w3.org/1999/xhtml\"><div class=\"hapiHeaderText\">ProcCsectStartEQDelivEncStart <b>NUMPASS </b></div><table class=\"hapiPropertyTable\"><tbody><tr><td>Identifier</td><td>ba4fd3b10ac3c0774130502644ec993f7ad4c4fe84bc3b79df4100b77375baef</td></tr><tr><td>Date of birth</td><td><span>14 February 1985</span></td></tr></tbody></table></div>"},"extension":[{"url":"http://hl7.org/fhir/us/core/StructureDefinition/us-core-race","extension":[{"url":"ombCategory","valueCoding":{"system":"urn:oid:2.16.840.1.113883.6.238","code":"1002-5","display":"American Indian or Alaska Native","userSelected":true}},{"url":"text","valueString":"American Indian or Alaska Native"}]},{"url":"http://hl7.org/fhir/us/core/StructureDefinition/us-core-ethnicity","extension":[{"url":"ombCategory","valueCoding":{"system":"urn:oid:2.16.840.1.113883.6.238","code":"2135-2","display":"Hispanic or Latino","userSelected":true}},{"url":"text","valueString":"Hispanic or Latino"}]}],"identifier":[{"type":{"coding":[{"system":"http://terminology.hl7.org/CodeSystem/v2-0203","code":"MR"}]},"system":"https://bonnie-fhir.healthit.gov/","value":"63487c2d0968f80122540155"}],"active":true,"name":[{"use":"usual","family":"NUMPass","given":["ProcCsectStartEQDelivEncStart"]}],"gender":"female","birthDate":"1997-02-14"},"request":{"method":"PUT","url":"Patient/ea482ebf-f11a-4984-9289-0257711ed160"}},{"fullUrl":"https://madie.cms.gov/Observation/5d014eb1b848460872380527","resource":{"resourceType":"Observation","id":"6c6520d7-db11-4973-9d8f-bc2cd6ee7614","meta":{"profile":["http://hl7.org/fhir/us/qicore/StructureDefinition/qicore-observation"]},"status":"final","category":[{"coding":[{"system":"http://terminology.hl7.org/CodeSystem/observation-category","code":"exam","display":"exam","userSelected":true}]}],"code":{"coding":[{"system":"http://loinc.org","code":"11996-6"}]},"subject":{"reference":"Patient/ea482ebf-f11a-4984-9289-0257711ed160"},"effectiveDateTime":"2025-02-09T08:00:00.000+00:00","valueInteger":1},"request":{"method":"PUT","url":"Observation/6c6520d7-db11-4973-9d8f-bc2cd6ee7614"}},{"fullUrl":"https://madie.cms.gov/Observation/5d014eb1b848460872380529","resource":{"resourceType":"Observation","id":"eedea09c-73c2-4408-82e8-f6b55d74d0eb","meta":{"profile":["http://hl7.org/fhir/us/qicore/StructureDefinition/qicore-observation"]},"status":"final","category":[{"coding":[{"system":"http://terminology.hl7.org/CodeSystem/observation-category","code":"exam","display":"exam","userSelected":true}]}],"code":{"coding":[{"system":"http://loinc.org","code":"11884-4"}]},"subject":{"reference":"Patient/ea482ebf-f11a-4984-9289-0257711ed160"},"effectiveDateTime":"2025-11-28T21:15:00.000+00:00","valueQuantity":{"value":40.0,"system":"http://unitsofmeasure.org","code":"weeks"}},"request":{"method":"PUT","url":"Observation/eedea09c-73c2-4408-82e8-f6b55d74d0eb"}},{"fullUrl":"https://madie.cms.gov/Observation/5e6941f87ffec7000031f90e","resource":{"resourceType":"Observation","id":"02e9798d-53c1-4cbd-9a33-33fef9cdbe3b","meta":{"profile":["http://hl7.org/fhir/us/qicore/StructureDefinition/qicore-observation"]},"status":"final","category":[{"coding":[{"system":"http://terminology.hl7.org/CodeSystem/observation-category","code":"exam","display":"exam","userSelected":true}]}],"code":{"coding":[{"system":"http://loinc.org","code":"93857-1"}]},"subject":{"reference":"Patient/ea482ebf-f11a-4984-9289-0257711ed160"},"effectiveDateTime":"2025-11-28T21:15:00.000+00:00","valueDateTime":"2025-11-28T21:15:00+00:00"},"request":{"method":"PUT","url":"Observation/02e9798d-53c1-4cbd-9a33-33fef9cdbe3b"}},{"fullUrl":"https://madie.cms.gov/Encounter/5d014eb1b848460872380525","resource":{"resourceType":"Encounter","id":"ec6c5ed6-b657-4d33-acab-f776970f06af","meta":{"profile":["http://hl7.org/fhir/us/qicore/StructureDefinition/qicore-encounter"]},"status":"finished","class":{"system":"http://terminology.hl7.org/CodeSystem/v3-ActCode","code":"IMP","display":"inpatient encounter"},"type":[{"coding":[{"system":"http://snomed.info/sct","code":"8715000"}]}],"subject":{"reference":"Patient/ea482ebf-f11a-4984-9289-0257711ed160"},"period":{"start":"2025-11-28T08:00:00.000Z","end":"2025-11-30T08:15:00.000Z"},"diagnosis":[{"condition":{"reference":"Condition/delivery-of-singleton-df6f"}}]},"request":{"method":"PUT","url":"Encounter/ec6c5ed6-b657-4d33-acab-f776970f06af"}},{"fullUrl":"https://madie.cms.gov/Procedure/5d014eb1b848460872380526","resource":{"resourceType":"Procedure","id":"d628e637-40da-450c-a984-613593e2e8ef","meta":{"profile":["http://hl7.org/fhir/us/qicore/StructureDefinition/qicore-procedure"]},"extension":[{"url":"http://hl7.org/fhir/us/qicore/StructureDefinition/qicore-recorded","valueDateTime":"2013-04-05T09:35:00-04:00"}],"status":"completed","code":{"coding":[{"system":"http://www.cms.gov/Medicare/Coding/ICD10","code":"10D00Z0"},{"system":"http://www.icd10data.com/icd10pcs","code":"10D00Z0","userSelected":true}]},"subject":{"reference":"Patient/ea482ebf-f11a-4984-9289-0257711ed160"},"performedPeriod":{"start":"2025-11-28T08:00:00.000Z","end":"2025-11-28T09:00:00.000Z"}},"request":{"method":"PUT","url":"Procedure/d628e637-40da-450c-a984-613593e2e8ef"}},{"fullUrl":"https://madie.cms.gov/Condition/delivery-of-singleton-df6f","resource":{"resourceType":"Condition","id":"8d32c149-4089-4ffa-b51e-d5675b4b00af","meta":{"profile":["http://hl7.org/fhir/us/qicore/StructureDefinition/qicore-condition"]},"category":[{"coding":[{"system":"http://terminology.hl7.org/CodeSystem/condition-category","code":"encounter-diagnosis","display":"Encounter Diagnosis"}]}],"code":{"coding":[{"system":"http://snomed.info/sct","version":"2022-09","code":"169826009","display":"Single live birth (finding)","userSelected":true}]},"subject":{"reference":"Patient/ea482ebf-f11a-4984-9289-0257711ed160"},"recordedDate":"2025-10-17T08:00:00.000+00:00"},"request":{"method":"PUT","url":"Condition/8d32c149-4089-4ffa-b51e-d5675b4b00af"}},{"fullUrl":"https://madie.cms.gov/Coverage/1","resource":{"resourceType":"Coverage","id":"8dbea122-7bbc-4f13-9d6e-de37e3089862","meta":{"profile":["http://hl7.org/fhir/us/qicore/StructureDefinition/qicore-coverage"]},"status":"active","beneficiary":{"reference":"Patient/ea482ebf-f11a-4984-9289-0257711ed160"},"payor":[{"reference":"Organization/80573fa1-cf83-4e9a-8f21-86a018689678"}]},"request":{"method":"PUT","url":"Coverage/8dbea122-7bbc-4f13-9d6e-de37e3089862"}},{"fullUrl":"https://madie.cms.gov/Organization/123456","resource":{"resourceType":"Organization","id":"80573fa1-cf83-4e9a-8f21-86a018689678","meta":{"profile":["http://hl7.org/fhir/us/qicore/StructureDefinition/qicore-organization"]},"identifier":[{"use":"temp","system":"urn:oid:2.16.840.1.113883.4.4","value":"21-3259825"}],"active":true,"type":[{"coding":[{"system":"http://terminology.hl7.org/CodeSystem/organization-type","code":"pay","display":"Payer"}]}],"name":"Blue Cross Blue Shield of Texas","telecom":[{"system":"phone","value":"(+1) 972-766-6900"}],"address":[{"use":"billing","type":"postal","line":["P.O. Box 660044"],"city":"Dallas","state":"TX","postalCode":"75266-0044","country":"USA"}]},"request":{"method":"PUT","url":"Organization/80573fa1-cf83-4e9a-8f21-86a018689678"}},{"fullUrl":"https://madie.cms.gov/Practitioner/practitioner-123456","resource":{"resourceType":"Practitioner","id":"f075a273-f927-4776-99be-9e52f316a679","identifier":[{"system":"http://hl7.org/fhir/sid/us-npi","value":"123456"}],"name":[{"family":"Evil","prefix":["Dr"]}]},"request":{"method":"PUT","url":"Practitioner/f075a273-f927-4776-99be-9e52f316a679"}},{"fullUrl":"https://madie.cms.gov/MeasureReport/b8ea02bd-845c-4c97-b874-ccbc9e907929","resource":{"resourceType":"MeasureReport","id":"b8ea02bd-845c-4c97-b874-ccbc9e907929","meta":{"profile":["http://hl7.org/fhir/us/cqfmeasures/StructureDefinition/test-case-cqfm"]},"contained":[{"resourceType":"Parameters","id":"c81fb5c8-0bd6-4404-8507-c3bb955983ae-parameters","parameter":[{"name":"subject","valueString":"ea482ebf-f11a-4984-9289-0257711ed160"}]}],"extension":[{"url":"http://hl7.org/fhir/us/cqfmeasures/StructureDefinition/cqfm-inputParameters","valueReference":{"reference":"#c81fb5c8-0bd6-4404-8507-c3bb955983ae-parameters"}},{"url":"http://hl7.org/fhir/us/cqfmeasures/StructureDefinition/cqfm-testCaseDescription","valueMarkdown":"Passes IP, DEN, NUM; Gravida 1(effective date 42 weeks)  and EGA 40 weeks;  Start of Proc Csect equals start of Delivery Encounter."}],"modifierExtension":[{"url":"http://hl7.org/fhir/us/cqfmeasures/StructureDefinition/cqfm-isTestCase","valueBoolean":true}],"status":"complete","type":"individual","measure":"https://madie.cms.gov/Measure/CesareanBirthFHIR","period":{"start":"2025-01-01","end":"2025-12-31"},"group":[{"population":[{"code":{"coding":[{"system":"http://terminology.hl7.org/CodeSystem/measure-population","code":"initial-population","display":"Initial Population"}]},"count":1},{"code":{"coding":[{"system":"http://terminology.hl7.org/CodeSystem/measure-population","code":"denominator","display":"Denominator"}]},"count":1},{"code":{"coding":[{"system":"http://terminology.hl7.org/CodeSystem/measure-population","code":"denominator-exclusion","display":"Denominator Exclusion"}]},"count":0},{"code":{"coding":[{"system":"http://terminology.hl7.org/CodeSystem/measure-population","code":"numerator","display":"Numerator"}]},"count":1}]}]},"request":{"method":"PUT","url":"MeasureReport/b8ea02bd-845c-4c97-b874-ccbc9e907929"}}]}