{"resourceType":"Bundle","id":"tests-33bdec01-260e-4b20-b457-adb03a0da942-bundle","type":"transaction","entry":[{"fullUrl":"https://madie.cms.gov/Patient/33bdec01-260e-4b20-b457-adb03a0da942","resource":{"resourceType":"Patient","id":"33bdec01-260e-4b20-b457-adb03a0da942","meta":{"profile":["http://hl7.org/fhir/us/qicore/StructureDefinition/qicore-patient"]},"text":{"status":"generated","div":"<div xmlns=\"http://www.w3.org/1999/xhtml\"><div class=\"hapiHeaderText\">ProcCsectStart1MinB4EncStart <b>NUMFAIL </b></div><table class=\"hapiPropertyTable\"><tbody><tr><td>Identifier</td><td>e1638c16b27fb415c0157f60f96f2959a17658905e2d025e6949f4a48a957bdc</td></tr><tr><td>Date of birth</td><td><span>14 February 1985</span></td></tr></tbody></table></div>"},"extension":[{"url":"http://hl7.org/fhir/us/core/StructureDefinition/us-core-race","extension":[{"url":"ombCategory","valueCoding":{"system":"urn:oid:2.16.840.1.113883.6.238","code":"1002-5","display":"American Indian or Alaska Native","userSelected":true}},{"url":"text","valueString":"American Indian or Alaska Native"}]},{"url":"http://hl7.org/fhir/us/core/StructureDefinition/us-core-ethnicity","extension":[{"url":"ombCategory","valueCoding":{"system":"urn:oid:2.16.840.1.113883.6.238","code":"2135-2","display":"Hispanic or Latino","userSelected":true}},{"url":"text","valueString":"Hispanic or Latino"}]}],"identifier":[{"type":{"coding":[{"system":"http://terminology.hl7.org/CodeSystem/v2-0203","code":"MR"}]},"system":"https://bonnie-fhir.healthit.gov/","value":"63487c2d0968f80122540156"}],"active":true,"name":[{"use":"usual","family":"NUMFail","given":["ProcCsectStart1MinB4EncStart"]}],"gender":"female","birthDate":"1997-02-14"},"request":{"method":"PUT","url":"Patient/33bdec01-260e-4b20-b457-adb03a0da942"}},{"fullUrl":"https://madie.cms.gov/Observation/5d014eb1b84846087238052f","resource":{"resourceType":"Observation","id":"568135a8-13e6-4bf7-bc8b-73aff10729d6","meta":{"profile":["http://hl7.org/fhir/us/qicore/StructureDefinition/qicore-observation"]},"status":"final","category":[{"coding":[{"system":"http://terminology.hl7.org/CodeSystem/observation-category","code":"exam","display":"exam","userSelected":true}]}],"code":{"coding":[{"system":"http://loinc.org","code":"11996-6"}]},"subject":{"reference":"Patient/33bdec01-260e-4b20-b457-adb03a0da942"},"effectiveDateTime":"2025-02-09T08:00:00.000+00:00","valueInteger":1},"request":{"method":"PUT","url":"Observation/568135a8-13e6-4bf7-bc8b-73aff10729d6"}},{"fullUrl":"https://madie.cms.gov/Observation/5d014eb1b848460872380532","resource":{"resourceType":"Observation","id":"0f397c0a-1982-4eba-90d6-5d42a8302490","meta":{"profile":["http://hl7.org/fhir/us/qicore/StructureDefinition/qicore-observation"]},"status":"final","category":[{"coding":[{"system":"http://terminology.hl7.org/CodeSystem/observation-category","code":"exam","display":"exam","userSelected":true}]}],"code":{"coding":[{"system":"http://loinc.org","code":"11884-4"}]},"subject":{"reference":"Patient/33bdec01-260e-4b20-b457-adb03a0da942"},"effectiveDateTime":"2025-11-28T21:15:00.000+00:00","valueQuantity":{"value":40.0,"system":"http://unitsofmeasure.org","code":"weeks"}},"request":{"method":"PUT","url":"Observation/0f397c0a-1982-4eba-90d6-5d42a8302490"}},{"fullUrl":"https://madie.cms.gov/Observation/5e6a71701adc680000b501a9","resource":{"resourceType":"Observation","id":"e2065e87-89b2-4080-a3d9-f0154dd5dad1","meta":{"profile":["http://hl7.org/fhir/us/qicore/StructureDefinition/qicore-observation"]},"status":"final","category":[{"coding":[{"system":"http://terminology.hl7.org/CodeSystem/observation-category","code":"exam","display":"exam","userSelected":true}]}],"code":{"coding":[{"system":"http://loinc.org","code":"93857-1"}]},"subject":{"reference":"Patient/33bdec01-260e-4b20-b457-adb03a0da942"},"effectiveDateTime":"2025-11-28T21:15:00.000+00:00","valueDateTime":"2025-11-28T21:15:00+00:00"},"request":{"method":"PUT","url":"Observation/e2065e87-89b2-4080-a3d9-f0154dd5dad1"}},{"fullUrl":"https://madie.cms.gov/Encounter/5d014eb1b84846087238052d","resource":{"resourceType":"Encounter","id":"421ca689-f338-43ba-88c2-ab0902123299","meta":{"profile":["http://hl7.org/fhir/us/qicore/StructureDefinition/qicore-encounter"]},"status":"finished","class":{"system":"http://terminology.hl7.org/CodeSystem/v3-ActCode","code":"IMP","display":"inpatient encounter"},"type":[{"coding":[{"system":"http://snomed.info/sct","code":"8715000"}]}],"subject":{"reference":"Patient/33bdec01-260e-4b20-b457-adb03a0da942"},"period":{"start":"2025-11-28T08:00:00.000Z","end":"2025-11-30T08:15:00.000Z"},"diagnosis":[{"condition":{"reference":"Condition/delivery-of-singleton-df71"}}]},"request":{"method":"PUT","url":"Encounter/421ca689-f338-43ba-88c2-ab0902123299"}},{"fullUrl":"https://madie.cms.gov/Procedure/5e6a71dd1adc680000b50229","resource":{"resourceType":"Procedure","id":"82744a2e-154b-41b8-bfcc-5d60267e26d5","meta":{"profile":["http://hl7.org/fhir/us/qicore/StructureDefinition/qicore-procedure"]},"extension":[{"url":"http://hl7.org/fhir/us/qicore/StructureDefinition/qicore-recorded","valueDateTime":"2013-04-05T09:35:00-04:00"}],"status":"completed","code":{"coding":[{"system":"http://snomed.info/sct","code":"10745001"}]},"subject":{"reference":"Patient/33bdec01-260e-4b20-b457-adb03a0da942"},"performedPeriod":{"start":"2025-11-28T08:00:00.000Z","end":"2025-11-30T08:15:00.000Z"}},"request":{"method":"PUT","url":"Procedure/82744a2e-154b-41b8-bfcc-5d60267e26d5"}},{"fullUrl":"https://madie.cms.gov/Procedure/5e6a72091adc680000b50239","resource":{"resourceType":"Procedure","id":"4e821f4d-3499-4008-b621-5711f43d689a","meta":{"profile":["http://hl7.org/fhir/us/qicore/StructureDefinition/qicore-procedure"]},"extension":[{"url":"http://hl7.org/fhir/us/qicore/StructureDefinition/qicore-recorded","valueDateTime":"2013-04-05T09:35:00-04:00"}],"status":"completed","code":{"coding":[{"system":"http://www.cms.gov/Medicare/Coding/ICD10","code":"10D00Z0"},{"system":"http://www.icd10data.com/icd10pcs","code":"10D00z0","userSelected":true}]},"subject":{"reference":"Patient/33bdec01-260e-4b20-b457-adb03a0da942"},"performedDateTime":"2025-11-28T07:59:00.000+00:00"},"request":{"method":"PUT","url":"Procedure/4e821f4d-3499-4008-b621-5711f43d689a"}},{"fullUrl":"https://madie.cms.gov/Condition/delivery-of-singleton-df71","resource":{"resourceType":"Condition","id":"70a175aa-4a72-4c09-aaa3-21771cfbf662","meta":{"profile":["http://hl7.org/fhir/us/qicore/StructureDefinition/qicore-condition"]},"category":[{"coding":[{"system":"http://terminology.hl7.org/CodeSystem/condition-category","code":"encounter-diagnosis","display":"Encounter Diagnosis"}]}],"code":{"coding":[{"system":"http://snomed.info/sct","version":"2022-09","code":"169826009","display":"Single live birth (finding)","userSelected":true}]},"subject":{"reference":"Patient/33bdec01-260e-4b20-b457-adb03a0da942"},"recordedDate":"2025-10-17T08:00:00.000+00:00"},"request":{"method":"PUT","url":"Condition/70a175aa-4a72-4c09-aaa3-21771cfbf662"}},{"fullUrl":"https://madie.cms.gov/Coverage/1","resource":{"resourceType":"Coverage","id":"efc55904-96fe-4a1f-800a-a7948eeae5a8","meta":{"profile":["http://hl7.org/fhir/us/qicore/StructureDefinition/qicore-coverage"]},"status":"active","beneficiary":{"reference":"Patient/33bdec01-260e-4b20-b457-adb03a0da942"},"payor":[{"reference":"Organization/a6c3e6fa-301e-4714-9d04-3dde9a7e7c49"}]},"request":{"method":"PUT","url":"Coverage/efc55904-96fe-4a1f-800a-a7948eeae5a8"}},{"fullUrl":"https://madie.cms.gov/Organization/123456","resource":{"resourceType":"Organization","id":"a6c3e6fa-301e-4714-9d04-3dde9a7e7c49","meta":{"profile":["http://hl7.org/fhir/us/qicore/StructureDefinition/qicore-organization"]},"identifier":[{"use":"temp","system":"urn:oid:2.16.840.1.113883.4.4","value":"21-3259825"}],"active":true,"type":[{"coding":[{"system":"http://terminology.hl7.org/CodeSystem/organization-type","code":"pay","display":"Payer"}]}],"name":"Blue Cross Blue Shield of Texas","telecom":[{"system":"phone","value":"(+1) 972-766-6900"}],"address":[{"use":"billing","type":"postal","line":["P.O. Box 660044"],"city":"Dallas","state":"TX","postalCode":"75266-0044","country":"USA"}]},"request":{"method":"PUT","url":"Organization/a6c3e6fa-301e-4714-9d04-3dde9a7e7c49"}},{"fullUrl":"https://madie.cms.gov/Practitioner/practitioner-123456","resource":{"resourceType":"Practitioner","id":"c0a8a71e-8855-4016-b13f-1584665200b1","identifier":[{"system":"http://hl7.org/fhir/sid/us-npi","value":"123456"}],"name":[{"family":"Evil","prefix":["Dr"]}]},"request":{"method":"PUT","url":"Practitioner/c0a8a71e-8855-4016-b13f-1584665200b1"}},{"fullUrl":"https://madie.cms.gov/MeasureReport/b0861f2b-7f88-4807-ae4a-f7a0a70da1d0","resource":{"resourceType":"MeasureReport","id":"b0861f2b-7f88-4807-ae4a-f7a0a70da1d0","meta":{"profile":["http://hl7.org/fhir/us/cqfmeasures/StructureDefinition/test-case-cqfm"]},"contained":[{"resourceType":"Parameters","id":"68d2e0e0-a4cf-4091-9489-b7afe0f1a06c-parameters","parameter":[{"name":"subject","valueString":"33bdec01-260e-4b20-b457-adb03a0da942"}]}],"extension":[{"url":"http://hl7.org/fhir/us/cqfmeasures/StructureDefinition/cqfm-inputParameters","valueReference":{"reference":"#68d2e0e0-a4cf-4091-9489-b7afe0f1a06c-parameters"}},{"url":"http://hl7.org/fhir/us/cqfmeasures/StructureDefinition/cqfm-testCaseDescription","valueMarkdown":"IP, DEN, meets Gravida 1(effect 42 weeks)  and EGA 40 weeks;  Start of Proc Num fails as Csect start is 1 minute before start of Delivery Encounter."}],"modifierExtension":[{"url":"http://hl7.org/fhir/us/cqfmeasures/StructureDefinition/cqfm-isTestCase","valueBoolean":true}],"status":"complete","type":"individual","measure":"https://madie.cms.gov/Measure/CesareanBirthFHIR","period":{"start":"2025-01-01","end":"2025-12-31"},"group":[{"population":[{"code":{"coding":[{"system":"http://terminology.hl7.org/CodeSystem/measure-population","code":"initial-population","display":"Initial Population"}]},"count":1},{"code":{"coding":[{"system":"http://terminology.hl7.org/CodeSystem/measure-population","code":"denominator","display":"Denominator"}]},"count":1},{"code":{"coding":[{"system":"http://terminology.hl7.org/CodeSystem/measure-population","code":"denominator-exclusion","display":"Denominator Exclusion"}]},"count":0},{"code":{"coding":[{"system":"http://terminology.hl7.org/CodeSystem/measure-population","code":"numerator","display":"Numerator"}]},"count":0}]}]},"request":{"method":"PUT","url":"MeasureReport/b0861f2b-7f88-4807-ae4a-f7a0a70da1d0"}}]}