{"resourceType":"Bundle","id":"tests-73da474b-7013-4d51-8ef8-25c42c3fc686-bundle","type":"transaction","entry":[{"fullUrl":"https://madie.cms.gov/Patient/73da474b-7013-4d51-8ef8-25c42c3fc686","resource":{"resourceType":"Patient","id":"73da474b-7013-4d51-8ef8-25c42c3fc686","meta":{"profile":["http://hl7.org/fhir/us/qicore/StructureDefinition/qicore-patient"]},"text":{"status":"generated","div":"<div xmlns=\"http://www.w3.org/1999/xhtml\"><div class=\"hapiHeaderText\">AssessG0Pnull <b>DENFAIL </b></div><table class=\"hapiPropertyTable\"><tbody><tr><td>Identifier</td><td>b8dbe157da4a58e4e68c2785ca3a1f558369f025fbb700c089d37aa7791ee57b</td></tr><tr><td>Date of birth</td><td><span>14 February 1985</span></td></tr></tbody></table></div>"},"extension":[{"url":"http://hl7.org/fhir/us/core/StructureDefinition/us-core-race","extension":[{"url":"ombCategory","valueCoding":{"system":"urn:oid:2.16.840.1.113883.6.238","code":"1002-5","display":"American Indian or Alaska Native","userSelected":true}},{"url":"text","valueString":"American Indian or Alaska Native"}]},{"url":"http://hl7.org/fhir/us/core/StructureDefinition/us-core-ethnicity","extension":[{"url":"ombCategory","valueCoding":{"system":"urn:oid:2.16.840.1.113883.6.238","code":"2135-2","display":"Hispanic or Latino","userSelected":true}},{"url":"text","valueString":"Hispanic or Latino"}]}],"identifier":[{"type":{"coding":[{"system":"http://terminology.hl7.org/CodeSystem/v2-0203","code":"MR"}]},"system":"https://bonnie-fhir.healthit.gov/","value":"63487c2e0968f80122540176"}],"active":true,"name":[{"use":"usual","family":"DENFail","given":["2EncW_in42weeks"]}],"gender":"female","birthDate":"1997-02-14"},"request":{"method":"PUT","url":"Patient/73da474b-7013-4d51-8ef8-25c42c3fc686"}},{"fullUrl":"https://madie.cms.gov/Observation/5d014eb2b8484608723805a3","resource":{"resourceType":"Observation","id":"e22109e5-89a6-422f-afde-3bef4a4b6a2a","meta":{"profile":["http://hl7.org/fhir/us/qicore/StructureDefinition/qicore-observation"]},"status":"final","category":[{"coding":[{"system":"http://terminology.hl7.org/CodeSystem/observation-category","code":"exam","display":"exam","userSelected":true}]}],"code":{"coding":[{"system":"http://loinc.org","code":"11996-6"}]},"subject":{"reference":"Patient/73da474b-7013-4d51-8ef8-25c42c3fc686"},"effectiveDateTime":"2025-01-31T08:00:00.000+00:00","valueInteger":1},"request":{"method":"PUT","url":"Observation/e22109e5-89a6-422f-afde-3bef4a4b6a2a"}},{"fullUrl":"https://madie.cms.gov/Observation/5d014eb2b8484608723805a4","resource":{"resourceType":"Observation","id":"237d48ac-ecea-4e25-b055-46fb0414761b","meta":{"profile":["http://hl7.org/fhir/us/qicore/StructureDefinition/qicore-observation"]},"status":"final","category":[{"coding":[{"system":"http://terminology.hl7.org/CodeSystem/observation-category","code":"exam","display":"exam","userSelected":true}]}],"code":{"coding":[{"system":"http://loinc.org","code":"11996-6"}]},"subject":{"reference":"Patient/73da474b-7013-4d51-8ef8-25c42c3fc686"},"effectiveDateTime":"2025-11-09T08:00:00.000+00:00","valueInteger":1},"request":{"method":"PUT","url":"Observation/237d48ac-ecea-4e25-b055-46fb0414761b"}},{"fullUrl":"https://madie.cms.gov/Observation/5d014eb2b8484608723805a6","resource":{"resourceType":"Observation","id":"1f0f1185-6bd6-490b-9268-99e58225f1cc","meta":{"profile":["http://hl7.org/fhir/us/qicore/StructureDefinition/qicore-observation"]},"status":"final","category":[{"coding":[{"system":"http://terminology.hl7.org/CodeSystem/observation-category","code":"exam","display":"exam","userSelected":true}]}],"code":{"coding":[{"system":"http://loinc.org","code":"11884-4"}]},"subject":{"reference":"Patient/73da474b-7013-4d51-8ef8-25c42c3fc686"},"effectiveDateTime":"2025-02-01T09:15:00.000+00:00","valueQuantity":{"value":38.0,"system":"http://unitsofmeasure.org","code":"weeks"}},"request":{"method":"PUT","url":"Observation/1f0f1185-6bd6-490b-9268-99e58225f1cc"}},{"fullUrl":"https://madie.cms.gov/Observation/5d014eb2b8484608723806a6","resource":{"resourceType":"Observation","id":"b1049734-985b-4c0d-9572-2dae94c59e6d","meta":{"profile":["http://hl7.org/fhir/us/qicore/StructureDefinition/qicore-observation"]},"status":"final","category":[{"coding":[{"system":"http://terminology.hl7.org/CodeSystem/observation-category","code":"exam","display":"exam","userSelected":true}]}],"code":{"coding":[{"system":"http://loinc.org","code":"11884-4"}]},"subject":{"reference":"Patient/73da474b-7013-4d51-8ef8-25c42c3fc686"},"effectiveDateTime":"2025-11-10T08:00:00.000+00:00","valueQuantity":{"value":38.0,"system":"http://unitsofmeasure.org","code":"weeks"}},"request":{"method":"PUT","url":"Observation/b1049734-985b-4c0d-9572-2dae94c59e6d"}},{"fullUrl":"https://madie.cms.gov/Observation/5e69466d7ffec7000031ff7d","resource":{"resourceType":"Observation","id":"a999e2ee-56a7-4411-a2b5-05dbbf6f41e1","meta":{"profile":["http://hl7.org/fhir/us/qicore/StructureDefinition/qicore-observation"]},"status":"final","category":[{"coding":[{"system":"http://terminology.hl7.org/CodeSystem/observation-category","code":"exam","display":"exam","userSelected":true}]}],"code":{"coding":[{"system":"http://loinc.org","code":"93857-1"}]},"subject":{"reference":"Patient/73da474b-7013-4d51-8ef8-25c42c3fc686"},"effectiveDateTime":"2025-02-01T19:00:00.000+00:00","valueDateTime":"2025-02-01T19:00:00+00:00"},"request":{"method":"PUT","url":"Observation/a999e2ee-56a7-4411-a2b5-05dbbf6f41e1"}},{"fullUrl":"https://madie.cms.gov/Observation/5e69466d7ffec7000035ff7d","resource":{"resourceType":"Observation","id":"8479f4c0-7011-4268-a00f-5db4c2a37321","meta":{"profile":["http://hl7.org/fhir/us/qicore/StructureDefinition/qicore-observation"]},"status":"final","category":[{"coding":[{"system":"http://terminology.hl7.org/CodeSystem/observation-category","code":"exam","display":"exam","userSelected":true}]}],"code":{"coding":[{"system":"http://loinc.org","code":"93857-1"}]},"subject":{"reference":"Patient/73da474b-7013-4d51-8ef8-25c42c3fc686"},"effectiveDateTime":"2025-11-10T08:00:00.000+00:00","valueDateTime":"2025-11-10T08:00:00+00:00"},"request":{"method":"PUT","url":"Observation/8479f4c0-7011-4268-a00f-5db4c2a37321"}},{"fullUrl":"https://madie.cms.gov/Encounter/5d014eb2b8484608723805a1","resource":{"resourceType":"Encounter","id":"e3fb6c7e-236a-47d9-bacc-bc42b40b980f","meta":{"profile":["http://hl7.org/fhir/us/qicore/StructureDefinition/qicore-encounter"]},"status":"finished","class":{"system":"http://terminology.hl7.org/CodeSystem/v3-ActCode","code":"IMP","display":"inpatient encounter"},"type":[{"coding":[{"system":"http://snomed.info/sct","code":"8715000"}]}],"subject":{"reference":"Patient/73da474b-7013-4d51-8ef8-25c42c3fc686"},"period":{"start":"2025-02-01T08:00:00.000Z","end":"2025-02-05T08:15:00.000Z"},"length":{"value":4.0,"unit":"days"},"diagnosis":[{"condition":{"reference":"Condition/delivery-of-singleton-f83c"},"use":{"coding":[{"system":"http://snomed.info/sct","code":"169826009","display":"Delivery of Singleton"}]}}]},"request":{"method":"PUT","url":"Encounter/e3fb6c7e-236a-47d9-bacc-bc42b40b980f"}},{"fullUrl":"https://madie.cms.gov/Encounter/5d014eb2b8484608723804a2","resource":{"resourceType":"Encounter","id":"f1e5cdb3-8c60-4ddd-9ed2-6fe3aee5935b","meta":{"profile":["http://hl7.org/fhir/us/qicore/StructureDefinition/qicore-encounter"]},"status":"finished","class":{"system":"http://terminology.hl7.org/CodeSystem/v3-ActCode","code":"IMP","display":"inpatient encounter"},"type":[{"coding":[{"system":"http://snomed.info/sct","code":"8715000"}]}],"subject":{"reference":"Patient/73da474b-7013-4d51-8ef8-25c42c3fc686"},"period":{"start":"2025-11-10T08:00:00.000Z","end":"2025-11-15T08:15:00.000Z"},"length":{"value":4.0,"unit":"days"},"diagnosis":[{"condition":{"reference":"Condition/delivery-of-singleton-f83d"},"use":{"coding":[{"system":"http://snomed.info/sct","code":"169826009","display":"Delivery of Singleton"}]}}]},"request":{"method":"PUT","url":"Encounter/f1e5cdb3-8c60-4ddd-9ed2-6fe3aee5935b"}},{"fullUrl":"https://madie.cms.gov/Procedure/5d014eb2b8484608723805a2","resource":{"resourceType":"Procedure","id":"bafd02e5-3056-42c3-9083-7f846609aca6","meta":{"profile":["http://hl7.org/fhir/us/qicore/StructureDefinition/qicore-procedure"]},"extension":[{"url":"http://hl7.org/fhir/us/qicore/StructureDefinition/qicore-recorded","valueDateTime":"2013-04-05T09:35:00-04:00"}],"status":"completed","code":{"coding":[{"system":"http://www.cms.gov/Medicare/Coding/ICD10","code":"10D00Z0"},{"system":"http://snomed.info/sct","code":"4504004"}]},"subject":{"reference":"Patient/73da474b-7013-4d51-8ef8-25c42c3fc686"},"performedPeriod":{"start":"2025-02-01T08:00:00.000Z","end":"2025-02-01T08:00:00.000Z"}},"request":{"method":"PUT","url":"Procedure/bafd02e5-3056-42c3-9083-7f846609aca6"}},{"fullUrl":"https://madie.cms.gov/Procedure/5d014eb2b8484608723905a2","resource":{"resourceType":"Procedure","id":"483f1fa2-9a07-4a18-8452-f080f930a241","meta":{"profile":["http://hl7.org/fhir/us/qicore/StructureDefinition/qicore-procedure"]},"extension":[{"url":"http://hl7.org/fhir/us/qicore/StructureDefinition/qicore-recorded","valueDateTime":"2013-04-05T09:35:00-04:00"}],"status":"completed","code":{"coding":[{"system":"http://www.cms.gov/Medicare/Coding/ICD10","code":"10D00Z0"},{"system":"http://snomed.info/sct","code":"4504004"}]},"subject":{"reference":"Patient/73da474b-7013-4d51-8ef8-25c42c3fc686"},"performedPeriod":{"start":"2025-11-10T08:00:00.000Z","end":"2025-11-15T08:15:00.000Z"}},"request":{"method":"PUT","url":"Procedure/483f1fa2-9a07-4a18-8452-f080f930a241"}},{"fullUrl":"https://madie.cms.gov/Condition/delivery-of-singleton-f83c","resource":{"resourceType":"Condition","id":"87ea8784-0847-4d38-a4d8-fb3b3d17bd04","meta":{"profile":["http://hl7.org/fhir/us/qicore/StructureDefinition/qicore-condition"]},"category":[{"coding":[{"system":"http://terminology.hl7.org/CodeSystem/condition-category","code":"encounter-diagnosis","display":"Encounter Diagnosis"}]}],"code":{"coding":[{"system":"http://snomed.info/sct","version":"2022-09","code":"169826009","display":"Single live birth (finding)","userSelected":true}]},"subject":{"reference":"Patient/73da474b-7013-4d51-8ef8-25c42c3fc686"},"recordedDate":"2025-10-21T08:00:00.000+00:00"},"request":{"method":"PUT","url":"Condition/87ea8784-0847-4d38-a4d8-fb3b3d17bd04"}},{"fullUrl":"https://madie.cms.gov/Condition/delivery-of-singleton-f83d","resource":{"resourceType":"Condition","id":"1674e66d-8549-4dfa-93d7-5e996fff2408","meta":{"profile":["http://hl7.org/fhir/us/qicore/StructureDefinition/qicore-condition"]},"category":[{"coding":[{"system":"http://terminology.hl7.org/CodeSystem/condition-category","code":"encounter-diagnosis","display":"Encounter Diagnosis"}]}],"code":{"coding":[{"system":"http://snomed.info/sct","version":"2022-09","code":"169826009","display":"Single live birth (finding)","userSelected":true}]},"subject":{"reference":"Patient/73da474b-7013-4d51-8ef8-25c42c3fc686"},"recordedDate":"2025-10-21T08:00:00.000+00:00"},"request":{"method":"PUT","url":"Condition/1674e66d-8549-4dfa-93d7-5e996fff2408"}},{"fullUrl":"https://madie.cms.gov/Coverage/1","resource":{"resourceType":"Coverage","id":"06cb2ca9-fac1-44c0-9aa4-c1785a07d1de","meta":{"profile":["http://hl7.org/fhir/us/qicore/StructureDefinition/qicore-coverage"]},"status":"active","beneficiary":{"reference":"Patient/73da474b-7013-4d51-8ef8-25c42c3fc686"},"payor":[{"reference":"Organization/5224cb12-ed64-4d6d-ab28-40a64f0800f1"}]},"request":{"method":"PUT","url":"Coverage/06cb2ca9-fac1-44c0-9aa4-c1785a07d1de"}},{"fullUrl":"https://madie.cms.gov/Organization/123456","resource":{"resourceType":"Organization","id":"5224cb12-ed64-4d6d-ab28-40a64f0800f1","meta":{"profile":["http://hl7.org/fhir/us/qicore/StructureDefinition/qicore-organization"]},"identifier":[{"use":"temp","system":"urn:oid:2.16.840.1.113883.4.4","value":"21-3259825"}],"active":true,"type":[{"coding":[{"system":"http://terminology.hl7.org/CodeSystem/organization-type","code":"pay","display":"Payer"}]}],"name":"Blue Cross Blue Shield of Texas","telecom":[{"system":"phone","value":"(+1) 972-766-6900"}],"address":[{"use":"billing","type":"postal","line":["P.O. Box 660044"],"city":"Dallas","state":"TX","postalCode":"75266-0044","country":"USA"}]},"request":{"method":"PUT","url":"Organization/5224cb12-ed64-4d6d-ab28-40a64f0800f1"}},{"fullUrl":"https://madie.cms.gov/Condition/Condition-1","resource":{"resourceType":"Condition","id":"20968251-4da5-42df-bbe9-2ab8e391b2d3","meta":{"profile":["http://hl7.org/fhir/us/qicore/StructureDefinition/qicore-condition"]},"category":[{"coding":[{"system":"http://terminology.hl7.org/CodeSystem/condition-category","code":"encounter-diagnosis","display":"Encounter Diagnosis"}]}],"code":{"coding":[{"system":"http://snomed.info/sct","code":"169826009","display":"Single live birth (finding)"}]},"subject":{"reference":"Patient/73da474b-7013-4d51-8ef8-25c42c3fc686"}},"request":{"method":"PUT","url":"Condition/20968251-4da5-42df-bbe9-2ab8e391b2d3"}},{"fullUrl":"https://madie.cms.gov/Condition/Condition-2","resource":{"resourceType":"Condition","id":"bc43f6ef-d845-4daf-9446-e044f7923d20","meta":{"profile":["http://hl7.org/fhir/us/qicore/StructureDefinition/qicore-condition"]},"category":[{"coding":[{"system":"http://terminology.hl7.org/CodeSystem/condition-category","code":"encounter-diagnosis","display":"Encounter Diagnosis"}]}],"code":{"coding":[{"system":"http://snomed.info/sct","code":"169826009","display":"Single live birth (finding)"}]},"subject":{"reference":"Patient/73da474b-7013-4d51-8ef8-25c42c3fc686"}},"request":{"method":"PUT","url":"Condition/bc43f6ef-d845-4daf-9446-e044f7923d20"}},{"fullUrl":"https://madie.cms.gov/Practitioner/practitioner-123456","resource":{"resourceType":"Practitioner","id":"f96e564f-b9a8-4754-9e0e-8c3069c4f3da","identifier":[{"system":"http://hl7.org/fhir/sid/us-npi","value":"123456"}],"name":[{"family":"Evil","prefix":["Dr"]}]},"request":{"method":"PUT","url":"Practitioner/f96e564f-b9a8-4754-9e0e-8c3069c4f3da"}},{"fullUrl":"https://madie.cms.gov/MeasureReport/59d8ab43-f893-4a79-92e0-daa012123d3d","resource":{"resourceType":"MeasureReport","id":"59d8ab43-f893-4a79-92e0-daa012123d3d","meta":{"profile":["http://hl7.org/fhir/us/cqfmeasures/StructureDefinition/test-case-cqfm"]},"contained":[{"resourceType":"Parameters","id":"fdc731bf-924a-43d6-bfc5-bb4471d22935-parameters","parameter":[{"name":"subject","valueString":"73da474b-7013-4d51-8ef8-25c42c3fc686"}]}],"extension":[{"url":"http://hl7.org/fhir/us/cqfmeasures/StructureDefinition/cqfm-inputParameters","valueReference":{"reference":"#fdc731bf-924a-43d6-bfc5-bb4471d22935-parameters"}},{"url":"http://hl7.org/fhir/us/cqfmeasures/StructureDefinition/cqfm-testCaseDescription","valueMarkdown":"Pregnancy 1 delivery documented 2/1/2012, Gravida 1\nPregnancy 2  delivery documented 11/10/2012, Gravida 1 (note, unrealistic for pregnancy 2 to be Gravida 1 (again) but goal was to test if denominator would pass twice)"}],"modifierExtension":[{"url":"http://hl7.org/fhir/us/cqfmeasures/StructureDefinition/cqfm-isTestCase","valueBoolean":true}],"status":"complete","type":"individual","measure":"https://madie.cms.gov/Measure/CesareanBirthFHIR","period":{"start":"2025-01-01","end":"2025-12-31"},"group":[{"population":[{"code":{"coding":[{"system":"http://terminology.hl7.org/CodeSystem/measure-population","code":"initial-population","display":"Initial Population"}]},"count":2},{"code":{"coding":[{"system":"http://terminology.hl7.org/CodeSystem/measure-population","code":"denominator","display":"Denominator"}]},"count":2},{"code":{"coding":[{"system":"http://terminology.hl7.org/CodeSystem/measure-population","code":"denominator-exclusion","display":"Denominator Exclusion"}]},"count":0},{"code":{"coding":[{"system":"http://terminology.hl7.org/CodeSystem/measure-population","code":"numerator","display":"Numerator"}]},"count":2}]}]},"request":{"method":"PUT","url":"MeasureReport/59d8ab43-f893-4a79-92e0-daa012123d3d"}}]}