{"resourceType":"Bundle","id":"tests-99440dd9-4de8-4a02-8cd6-bccbda4bc1dc-bundle","type":"transaction","entry":[{"fullUrl":"https://madie.cms.gov/Patient/99440dd9-4de8-4a02-8cd6-bccbda4bc1dc","resource":{"resourceType":"Patient","id":"99440dd9-4de8-4a02-8cd6-bccbda4bc1dc","meta":{"profile":["http://hl7.org/fhir/us/qicore/StructureDefinition/qicore-patient"]},"text":{"status":"generated","div":"<div xmlns=\"http://www.w3.org/1999/xhtml\"><div class=\"hapiHeaderText\">CesareanBirth <b>NUMPASS </b></div><table class=\"hapiPropertyTable\"><tbody><tr><td>Identifier</td><td>51bc91759da5bde99551dcfdd772aded6a0c8eacab7ec3cd70b3b8f217efaea9</td></tr><tr><td>Date of birth</td><td><span>14 February 1985</span></td></tr></tbody></table></div>"},"extension":[{"url":"http://hl7.org/fhir/us/core/StructureDefinition/us-core-race","extension":[{"url":"ombCategory","valueCoding":{"system":"urn:oid:2.16.840.1.113883.6.238","code":"1002-5","display":"American Indian or Alaska Native","userSelected":true}},{"url":"text","valueString":"American Indian or Alaska Native"}]},{"url":"http://hl7.org/fhir/us/core/StructureDefinition/us-core-ethnicity","extension":[{"url":"ombCategory","valueCoding":{"system":"urn:oid:2.16.840.1.113883.6.238","code":"2135-2","display":"Hispanic or Latino","userSelected":true}},{"url":"text","valueString":"Hispanic or Latino"}]}],"identifier":[{"type":{"coding":[{"system":"http://terminology.hl7.org/CodeSystem/v2-0203","code":"MR"}]},"system":"https://bonnie-fhir.healthit.gov/","value":"63487c2e0968f8012254017f"}],"active":true,"name":[{"use":"usual","family":"NUMPass","given":["CesareanBirth"]}],"gender":"female","birthDate":"1997-02-14"},"request":{"method":"PUT","url":"Patient/99440dd9-4de8-4a02-8cd6-bccbda4bc1dc"}},{"fullUrl":"https://madie.cms.gov/Observation/5d014eb1b848460872380472","resource":{"resourceType":"Observation","id":"13a6f504-c349-47f3-8e7b-4f29a79290df","meta":{"profile":["http://hl7.org/fhir/us/qicore/StructureDefinition/qicore-observation"]},"status":"final","category":[{"coding":[{"system":"http://terminology.hl7.org/CodeSystem/observation-category","code":"exam","display":"exam","userSelected":true}]}],"code":{"coding":[{"system":"http://loinc.org","code":"11996-6"}]},"subject":{"reference":"Patient/99440dd9-4de8-4a02-8cd6-bccbda4bc1dc"},"effectiveDateTime":"2025-02-09T08:00:00.000+00:00","valueInteger":1},"request":{"method":"PUT","url":"Observation/13a6f504-c349-47f3-8e7b-4f29a79290df"}},{"fullUrl":"https://madie.cms.gov/Observation/5d014eb1b848460872380474","resource":{"resourceType":"Observation","id":"9f87a9d4-a207-4962-8f7f-e2279545d718","meta":{"profile":["http://hl7.org/fhir/us/qicore/StructureDefinition/qicore-observation"]},"status":"final","category":[{"coding":[{"system":"http://terminology.hl7.org/CodeSystem/observation-category","code":"exam","display":"exam","userSelected":true}]}],"code":{"coding":[{"system":"http://loinc.org","code":"11884-4"}]},"subject":{"reference":"Patient/99440dd9-4de8-4a02-8cd6-bccbda4bc1dc"},"effectiveDateTime":"2025-11-28T21:15:00.000+00:00","valueQuantity":{"value":40.0,"system":"http://unitsofmeasure.org","code":"weeks"}},"request":{"method":"PUT","url":"Observation/9f87a9d4-a207-4962-8f7f-e2279545d718"}},{"fullUrl":"https://madie.cms.gov/Observation/5e693e837ffec7000031f3f6","resource":{"resourceType":"Observation","id":"cdf9342c-b094-462c-b76a-6e892c82ff83","meta":{"profile":["http://hl7.org/fhir/us/qicore/StructureDefinition/qicore-observation"]},"status":"final","category":[{"coding":[{"system":"http://terminology.hl7.org/CodeSystem/observation-category","code":"exam","display":"exam","userSelected":true}]}],"code":{"coding":[{"system":"http://loinc.org","code":"93857-1"}]},"subject":{"reference":"Patient/99440dd9-4de8-4a02-8cd6-bccbda4bc1dc"},"effectiveDateTime":"2025-11-28T21:15:00.000+00:00","valueDateTime":"2025-11-28T21:15:00+00:00"},"request":{"method":"PUT","url":"Observation/cdf9342c-b094-462c-b76a-6e892c82ff83"}},{"fullUrl":"https://madie.cms.gov/Encounter/5d014eb1b848460872380470","resource":{"resourceType":"Encounter","id":"59af016e-04f3-4128-b0c2-648c0da58e1e","meta":{"profile":["http://hl7.org/fhir/us/qicore/StructureDefinition/qicore-encounter"]},"status":"finished","class":{"system":"http://terminology.hl7.org/CodeSystem/v3-ActCode","code":"IMP","display":"inpatient encounter"},"type":[{"coding":[{"system":"http://snomed.info/sct","code":"183452005"}]}],"subject":{"reference":"Patient/99440dd9-4de8-4a02-8cd6-bccbda4bc1dc"},"period":{"start":"2025-11-28T08:00:00.000Z","end":"2025-11-30T08:15:00.000Z"},"diagnosis":[{"condition":{"reference":"Condition/delivery-of-singleton-df6a"},"use":{"coding":[{"system":"http://snomed.info/sct","code":"169826009","display":"Delivery of Singleton"}]}}]},"request":{"method":"PUT","url":"Encounter/59af016e-04f3-4128-b0c2-648c0da58e1e"}},{"fullUrl":"https://madie.cms.gov/Procedure/5e6a73ca1adc680000b50361","resource":{"resourceType":"Procedure","id":"f82c41db-4015-4b23-8b43-a1e62793cb39","meta":{"profile":["http://hl7.org/fhir/us/qicore/StructureDefinition/qicore-procedure"]},"extension":[{"url":"http://hl7.org/fhir/us/qicore/StructureDefinition/qicore-recorded","valueDateTime":"2013-04-05T09:35:00-04:00"}],"status":"completed","code":{"coding":[{"system":"http://www.cms.gov/Medicare/Coding/ICD10","code":"10D00Z0"},{"system":"http://www.icd10data.com/icd10pcs","code":"10D00Z0","userSelected":true}]},"subject":{"reference":"Patient/99440dd9-4de8-4a02-8cd6-bccbda4bc1dc"},"performedPeriod":{"start":"2025-11-28T20:00:00.000Z","end":"2025-11-28T20:15:00.000Z"}},"request":{"method":"PUT","url":"Procedure/f82c41db-4015-4b23-8b43-a1e62793cb39"}},{"fullUrl":"https://madie.cms.gov/Condition/delivery-of-singleton-df6a","resource":{"resourceType":"Condition","id":"5bc7f141-1239-4d75-8029-be3f1aa4b106","meta":{"profile":["http://hl7.org/fhir/us/qicore/StructureDefinition/qicore-condition"]},"category":[{"coding":[{"system":"http://terminology.hl7.org/CodeSystem/condition-category","code":"encounter-diagnosis","display":"Encounter Diagnosis"}]}],"code":{"coding":[{"system":"http://snomed.info/sct","version":"2022-09","code":"169826009","display":"Single live birth (finding)","userSelected":true}]},"subject":{"reference":"Patient/99440dd9-4de8-4a02-8cd6-bccbda4bc1dc"},"recordedDate":"2025-10-17T08:00:00.000+00:00"},"request":{"method":"PUT","url":"Condition/5bc7f141-1239-4d75-8029-be3f1aa4b106"}},{"fullUrl":"https://madie.cms.gov/Coverage/1","resource":{"resourceType":"Coverage","id":"b290589c-cfdc-4703-8ea2-fb5888193f51","meta":{"profile":["http://hl7.org/fhir/us/qicore/StructureDefinition/qicore-coverage"]},"status":"active","beneficiary":{"reference":"Patient/99440dd9-4de8-4a02-8cd6-bccbda4bc1dc"},"payor":[{"reference":"Organization/42846cc3-1db0-4bf7-b9ff-8b81fa6e835d"}]},"request":{"method":"PUT","url":"Coverage/b290589c-cfdc-4703-8ea2-fb5888193f51"}},{"fullUrl":"https://madie.cms.gov/Organization/123456","resource":{"resourceType":"Organization","id":"42846cc3-1db0-4bf7-b9ff-8b81fa6e835d","meta":{"profile":["http://hl7.org/fhir/us/qicore/StructureDefinition/qicore-organization"]},"identifier":[{"use":"temp","system":"urn:oid:2.16.840.1.113883.4.4","value":"21-3259825"}],"active":true,"type":[{"coding":[{"system":"http://terminology.hl7.org/CodeSystem/organization-type","code":"pay","display":"Payer"}]}],"name":"Blue Cross Blue Shield of Texas","telecom":[{"system":"phone","value":"(+1) 972-766-6900"}],"address":[{"use":"billing","type":"postal","line":["P.O. Box 660044"],"city":"Dallas","state":"TX","postalCode":"75266-0044","country":"USA"}]},"request":{"method":"PUT","url":"Organization/42846cc3-1db0-4bf7-b9ff-8b81fa6e835d"}},{"fullUrl":"https://madie.cms.gov/Practitioner/practitioner-123456","resource":{"resourceType":"Practitioner","id":"8dd2baec-c75c-40a1-904b-51fef95a2ddb","identifier":[{"system":"http://hl7.org/fhir/sid/us-npi","value":"123456"}],"name":[{"family":"Evil","prefix":["Dr"]}]},"request":{"method":"PUT","url":"Practitioner/8dd2baec-c75c-40a1-904b-51fef95a2ddb"}},{"fullUrl":"https://madie.cms.gov/Condition/Condition-1","resource":{"resourceType":"Condition","id":"4f510928-336a-418c-aa71-f8e6dc2106bd","meta":{"profile":["http://hl7.org/fhir/us/qicore/StructureDefinition/qicore-condition"]},"category":[{"coding":[{"system":"http://terminology.hl7.org/CodeSystem/condition-category","code":"encounter-diagnosis","display":"Encounter Diagnosis"}]}],"code":{"coding":[{"system":"http://snomed.info/sct","code":"169826009","display":"Single live birth (finding)"}]},"subject":{"reference":"Patient/99440dd9-4de8-4a02-8cd6-bccbda4bc1dc"}},"request":{"method":"PUT","url":"Condition/4f510928-336a-418c-aa71-f8e6dc2106bd"}},{"fullUrl":"https://madie.cms.gov/MeasureReport/f738e9dd-1459-4814-8907-a920f81ed9f0","resource":{"resourceType":"MeasureReport","id":"f738e9dd-1459-4814-8907-a920f81ed9f0","meta":{"profile":["http://hl7.org/fhir/us/cqfmeasures/StructureDefinition/test-case-cqfm"]},"contained":[{"resourceType":"Parameters","id":"9e427c3a-41bb-4772-b369-1a9b04dd6d06-parameters","parameter":[{"name":"subject","valueString":"99440dd9-4de8-4a02-8cd6-bccbda4bc1dc"}]}],"extension":[{"url":"http://hl7.org/fhir/us/cqfmeasures/StructureDefinition/cqfm-inputParameters","valueReference":{"reference":"#9e427c3a-41bb-4772-b369-1a9b04dd6d06-parameters"}},{"url":"http://hl7.org/fhir/us/cqfmeasures/StructureDefinition/cqfm-testCaseDescription","valueMarkdown":"Passes IP, DEN, NUM; Gravida 1( effective date 42 weeks)  and EGA 40 weeks; "}],"modifierExtension":[{"url":"http://hl7.org/fhir/us/cqfmeasures/StructureDefinition/cqfm-isTestCase","valueBoolean":true}],"status":"complete","type":"individual","measure":"https://madie.cms.gov/Measure/CesareanBirthFHIR","period":{"start":"2025-01-01","end":"2025-12-31"},"group":[{"population":[{"code":{"coding":[{"system":"http://terminology.hl7.org/CodeSystem/measure-population","code":"initial-population","display":"Initial Population"}]},"count":1},{"code":{"coding":[{"system":"http://terminology.hl7.org/CodeSystem/measure-population","code":"denominator","display":"Denominator"}]},"count":1},{"code":{"coding":[{"system":"http://terminology.hl7.org/CodeSystem/measure-population","code":"denominator-exclusion","display":"Denominator Exclusion"}]},"count":0},{"code":{"coding":[{"system":"http://terminology.hl7.org/CodeSystem/measure-population","code":"numerator","display":"Numerator"}]},"count":1}]}]},"request":{"method":"PUT","url":"MeasureReport/f738e9dd-1459-4814-8907-a920f81ed9f0"}}]}