{"resourceType":"Bundle","id":"tests-05a14141-d625-46ef-8ec1-f522980d2daa-bundle","type":"transaction","entry":[{"fullUrl":"https://madie.cms.gov/Patient/05a14141-d625-46ef-8ec1-f522980d2daa","resource":{"resourceType":"Patient","id":"05a14141-d625-46ef-8ec1-f522980d2daa","meta":{"profile":["http://hl7.org/fhir/us/qicore/StructureDefinition/qicore-patient"]},"text":{"status":"generated","div":"<div xmlns=\"http://www.w3.org/1999/xhtml\"><div class=\"hapiHeaderText\">CalcEGA37Weeks_EDD1minBFDeliveryTime <b>DENPASS </b></div><table class=\"hapiPropertyTable\"><tbody><tr><td>Identifier</td><td>c6b51506d3a7092894a3f06af44f7ab397fd257a35f97f16644057feff48ec70</td></tr><tr><td>Date of birth</td><td><span>14 February 1985</span></td></tr></tbody></table></div>"},"extension":[{"url":"http://hl7.org/fhir/us/core/StructureDefinition/us-core-race","extension":[{"url":"ombCategory","valueCoding":{"system":"urn:oid:2.16.840.1.113883.6.238","code":"1002-5","display":"American Indian or Alaska Native","userSelected":true}},{"url":"text","valueString":"American Indian or Alaska Native"}]},{"url":"http://hl7.org/fhir/us/core/StructureDefinition/us-core-ethnicity","extension":[{"url":"ombCategory","valueCoding":{"system":"urn:oid:2.16.840.1.113883.6.238","code":"2135-2","display":"Hispanic or Latino","userSelected":true}},{"url":"text","valueString":"Hispanic or Latino"}]}],"identifier":[{"type":{"coding":[{"system":"http://terminology.hl7.org/CodeSystem/v2-0203","code":"MR"}]},"system":"https://bonnie-fhir.healthit.gov/","value":"63487c2f0968f8012254019e"}],"active":true,"name":[{"use":"usual","family":"DENPass","given":["CalcEGA37Weeks_EDD1minBFDeliveryTime"]}],"gender":"female","birthDate":"1997-02-14"},"request":{"method":"PUT","url":"Patient/05a14141-d625-46ef-8ec1-f522980d2daa"}},{"fullUrl":"https://madie.cms.gov/Observation/5d014eb3b8484608723806a8","resource":{"resourceType":"Observation","id":"d383c78f-3310-492e-9d64-f425f38525a3","meta":{"profile":["http://hl7.org/fhir/us/qicore/StructureDefinition/qicore-observation"]},"status":"final","category":[{"coding":[{"system":"http://terminology.hl7.org/CodeSystem/observation-category","code":"exam","display":"exam","userSelected":true}]}],"code":{"coding":[{"system":"http://loinc.org","code":"11996-6"}]},"subject":{"reference":"Patient/05a14141-d625-46ef-8ec1-f522980d2daa"},"effectiveDateTime":"2024-08-19T19:00:00.000+00:00","valueInteger":1},"request":{"method":"PUT","url":"Observation/d383c78f-3310-492e-9d64-f425f38525a3"}},{"fullUrl":"https://madie.cms.gov/Observation/5e61678a3e992300009b6f5e","resource":{"resourceType":"Observation","id":"ac058895-28cd-4eea-9e62-a091e35589bb","meta":{"profile":["http://hl7.org/fhir/us/qicore/StructureDefinition/qicore-observation"]},"status":"final","category":[{"coding":[{"system":"http://terminology.hl7.org/CodeSystem/observation-category","code":"exam","display":"exam","userSelected":true}]}],"code":{"coding":[{"system":"http://loinc.org","code":"93857-1"}]},"subject":{"reference":"Patient/05a14141-d625-46ef-8ec1-f522980d2daa"},"effectiveDateTime":"2025-01-15T19:00:00.000+00:00","valueDateTime":"2025-01-15T19:00:00+00:00"},"request":{"method":"PUT","url":"Observation/ac058895-28cd-4eea-9e62-a091e35589bb"}},{"fullUrl":"https://madie.cms.gov/Observation/5e8a5430ae2856000046a20d","resource":{"resourceType":"Observation","id":"baa6ee9c-f315-4f92-a2be-b5ea60fa7bf8","meta":{"profile":["http://hl7.org/fhir/us/qicore/StructureDefinition/qicore-observation"]},"status":"final","category":[{"coding":[{"system":"http://terminology.hl7.org/CodeSystem/observation-category","code":"exam","display":"exam","userSelected":true}]}],"code":{"coding":[{"system":"http://loinc.org","code":"11778-8"}]},"subject":{"reference":"Patient/05a14141-d625-46ef-8ec1-f522980d2daa"},"effectiveDateTime":"2025-01-15T18:59:00.000+00:00","valueDateTime":"2025-02-05T08:00:00+00:00"},"request":{"method":"PUT","url":"Observation/baa6ee9c-f315-4f92-a2be-b5ea60fa7bf8"}},{"fullUrl":"https://madie.cms.gov/Encounter/5d014eb3b8484608723806a6","resource":{"resourceType":"Encounter","id":"6501c84e-1658-4205-98ac-d27d4f430ae9","meta":{"profile":["http://hl7.org/fhir/us/qicore/StructureDefinition/qicore-encounter"]},"status":"finished","class":{"system":"http://terminology.hl7.org/CodeSystem/v3-ActCode","code":"IMP","display":"inpatient encounter"},"type":[{"coding":[{"system":"http://snomed.info/sct","code":"183452005"}]}],"subject":{"reference":"Patient/05a14141-d625-46ef-8ec1-f522980d2daa"},"period":{"start":"2025-01-15T08:00:00.000Z","end":"2025-01-20T08:15:00.000Z"},"length":{"value":2.0,"unit":"days"},"diagnosis":[{"condition":{"reference":"Condition/delivery-of-singleton-f83c"},"use":{"coding":[{"system":"http://snomed.info/sct","code":"169826009","display":"Delivery of Singleton"}]}},{"condition":{"reference":"Condition/delivery-of-singleton-7769"}}]},"request":{"method":"PUT","url":"Encounter/6501c84e-1658-4205-98ac-d27d4f430ae9"}},{"fullUrl":"https://madie.cms.gov/Procedure/5d014eb3b8484608723806a7","resource":{"resourceType":"Procedure","id":"9a96498d-f789-4ef6-bfe5-f7e8ce3370bd","meta":{"profile":["http://hl7.org/fhir/us/qicore/StructureDefinition/qicore-procedure"]},"extension":[{"url":"http://hl7.org/fhir/us/qicore/StructureDefinition/qicore-recorded","valueDateTime":"2013-04-05T09:35:00-04:00"}],"status":"completed","code":{"coding":[{"system":"http://www.cms.gov/Medicare/Coding/ICD10","code":"10D07Z3"},{"system":"http://www.icd10data.com/icd10pcs","code":"10D07Z3","userSelected":true}]},"subject":{"reference":"Patient/05a14141-d625-46ef-8ec1-f522980d2daa"},"performedPeriod":{"start":"2025-01-15T08:10:00.000Z","end":"2025-01-15T09:14:00.000Z"}},"request":{"method":"PUT","url":"Procedure/9a96498d-f789-4ef6-bfe5-f7e8ce3370bd"}},{"fullUrl":"https://madie.cms.gov/Condition/delivery-of-singleton-7769","resource":{"resourceType":"Condition","id":"56f6e2ca-b20a-4ae3-b42b-78ec5837155c","meta":{"profile":["http://hl7.org/fhir/us/qicore/StructureDefinition/qicore-condition"]},"category":[{"coding":[{"system":"http://terminology.hl7.org/CodeSystem/condition-category","code":"encounter-diagnosis","display":"Encounter Diagnosis"}]}],"code":{"coding":[{"system":"http://snomed.info/sct","version":"2022-09","code":"169826009","display":"Single live birth (finding)","userSelected":true}]},"subject":{"reference":"Patient/05a14141-d625-46ef-8ec1-f522980d2daa"},"recordedDate":"2025-10-20T08:00:00.000+00:00"},"request":{"method":"PUT","url":"Condition/56f6e2ca-b20a-4ae3-b42b-78ec5837155c"}},{"fullUrl":"https://madie.cms.gov/Coverage/1","resource":{"resourceType":"Coverage","id":"a581b4c4-a7e6-434b-81ef-16be47857f95","meta":{"profile":["http://hl7.org/fhir/us/qicore/StructureDefinition/qicore-coverage"]},"status":"active","beneficiary":{"reference":"Patient/05a14141-d625-46ef-8ec1-f522980d2daa"},"payor":[{"reference":"Organization/42846cc3-1db0-4bf7-b9ff-8b81fa6e835d"}]},"request":{"method":"PUT","url":"Coverage/a581b4c4-a7e6-434b-81ef-16be47857f95"}},{"fullUrl":"https://madie.cms.gov/Organization/123456","resource":{"resourceType":"Organization","id":"42846cc3-1db0-4bf7-b9ff-8b81fa6e835d","meta":{"profile":["http://hl7.org/fhir/us/qicore/StructureDefinition/qicore-organization"]},"identifier":[{"use":"temp","system":"urn:oid:2.16.840.1.113883.4.4","value":"21-3259825"}],"active":true,"type":[{"coding":[{"system":"http://terminology.hl7.org/CodeSystem/organization-type","code":"pay","display":"Payer"}]}],"name":"Blue Cross Blue Shield of Texas","telecom":[{"system":"phone","value":"(+1) 972-766-6900"}],"address":[{"use":"billing","type":"postal","line":["P.O. Box 660044"],"city":"Dallas","state":"TX","postalCode":"75266-0044","country":"USA"}]},"request":{"method":"PUT","url":"Organization/42846cc3-1db0-4bf7-b9ff-8b81fa6e835d"}},{"fullUrl":"https://madie.cms.gov/Practitioner/practitioner-123456","resource":{"resourceType":"Practitioner","id":"08def6f5-3456-4e45-ade2-bf755b54156f","identifier":[{"system":"http://hl7.org/fhir/sid/us-npi","value":"123456"}],"name":[{"family":"Evil","prefix":["Dr"]}]},"request":{"method":"PUT","url":"Practitioner/08def6f5-3456-4e45-ade2-bf755b54156f"}},{"fullUrl":"https://madie.cms.gov/MeasureReport/e9226198-6c48-42a9-b518-98327129a517","resource":{"resourceType":"MeasureReport","id":"e9226198-6c48-42a9-b518-98327129a517","meta":{"profile":["http://hl7.org/fhir/us/cqfmeasures/StructureDefinition/test-case-cqfm"]},"contained":[{"resourceType":"Parameters","id":"e1f880c8-fa03-4d73-b706-50323819f4c4-parameters","parameter":[{"name":"subject","valueString":"05a14141-d625-46ef-8ec1-f522980d2daa"}]}],"extension":[{"url":"http://hl7.org/fhir/us/cqfmeasures/StructureDefinition/cqfm-inputParameters","valueReference":{"reference":"#e1f880c8-fa03-4d73-b706-50323819f4c4-parameters"}},{"url":"http://hl7.org/fhir/us/cqfmeasures/StructureDefinition/cqfm-testCaseDescription","valueMarkdown":"EDD is 1 min before delivery time so CGA37Weeks\n"}],"modifierExtension":[{"url":"http://hl7.org/fhir/us/cqfmeasures/StructureDefinition/cqfm-isTestCase","valueBoolean":true}],"status":"complete","type":"individual","measure":"https://madie.cms.gov/Measure/CesareanBirthFHIR","period":{"start":"2025-01-01","end":"2025-12-31"},"group":[{"population":[{"code":{"coding":[{"system":"http://terminology.hl7.org/CodeSystem/measure-population","code":"initial-population","display":"Initial Population"}]},"count":1},{"code":{"coding":[{"system":"http://terminology.hl7.org/CodeSystem/measure-population","code":"denominator","display":"Denominator"}]},"count":1},{"code":{"coding":[{"system":"http://terminology.hl7.org/CodeSystem/measure-population","code":"denominator-exclusion","display":"Denominator Exclusion"}]},"count":0},{"code":{"coding":[{"system":"http://terminology.hl7.org/CodeSystem/measure-population","code":"numerator","display":"Numerator"}]},"count":0}]}]},"request":{"method":"PUT","url":"MeasureReport/e9226198-6c48-42a9-b518-98327129a517"}}]}