{"resourceType":"Bundle","id":"tests-67037280-6411-4f2c-a9d9-6d89da600887-bundle","type":"transaction","entry":[{"fullUrl":"https://madie.cms.gov/Patient/67037280-6411-4f2c-a9d9-6d89da600887","resource":{"resourceType":"Patient","id":"67037280-6411-4f2c-a9d9-6d89da600887","meta":{"profile":["http://hl7.org/fhir/us/qicore/StructureDefinition/qicore-patient"]},"text":{"status":"generated","div":"<div xmlns=\"http://www.w3.org/1999/xhtml\"><div class=\"hapiHeaderText\">AssessG0Pnull <b>DENFAIL </b></div><table class=\"hapiPropertyTable\"><tbody><tr><td>Identifier</td><td>b8dbe157da4a58e4e68c2785ca3a1f558369f025fbb700c089d37aa7791ee57b</td></tr><tr><td>Date of birth</td><td><span>14 February 1985</span></td></tr></tbody></table></div>"},"extension":[{"url":"http://hl7.org/fhir/us/core/StructureDefinition/us-core-race","extension":[{"url":"ombCategory","valueCoding":{"system":"urn:oid:2.16.840.1.113883.6.238","code":"1002-5","display":"American Indian or Alaska Native","userSelected":true}},{"url":"text","valueString":"American Indian or Alaska Native"}]},{"url":"http://hl7.org/fhir/us/core/StructureDefinition/us-core-ethnicity","extension":[{"url":"ombCategory","valueCoding":{"system":"urn:oid:2.16.840.1.113883.6.238","code":"2135-2","display":"Hispanic or Latino","userSelected":true}},{"url":"text","valueString":"Hispanic or Latino"}]}],"identifier":[{"type":{"coding":[{"system":"http://terminology.hl7.org/CodeSystem/v2-0203","code":"MR"}]},"system":"https://bonnie-fhir.healthit.gov/","value":"63487c2e0968f80122540176"}],"active":true,"name":[{"use":"usual","family":"DENFail","given":["AssessG0Pnull"]}],"gender":"female","birthDate":"1985-02-14"},"request":{"method":"PUT","url":"Patient/67037280-6411-4f2c-a9d9-6d89da600887"}},{"fullUrl":"https://madie.cms.gov/Observation/5d014eb2b8484608723805a3","resource":{"resourceType":"Observation","id":"3769b8f9-4a7f-495d-b691-708adc524e73","meta":{"profile":["http://hl7.org/fhir/us/qicore/StructureDefinition/qicore-observation"]},"status":"final","category":[{"coding":[{"system":"http://terminology.hl7.org/CodeSystem/observation-category","code":"exam","display":"exam","userSelected":true}]}],"code":{"coding":[{"system":"http://loinc.org","code":"11977-6"}]},"subject":{"reference":"Patient/67037280-6411-4f2c-a9d9-6d89da600887"},"effectiveDateTime":"2025-03-08T09:00:00.000+00:00"},"request":{"method":"PUT","url":"Observation/3769b8f9-4a7f-495d-b691-708adc524e73"}},{"fullUrl":"https://madie.cms.gov/Observation/5d014eb2b8484608723805a4","resource":{"resourceType":"Observation","id":"678e35aa-f30f-4740-8f18-40bae42d3d0e","meta":{"profile":["http://hl7.org/fhir/us/qicore/StructureDefinition/qicore-observation"]},"status":"final","category":[{"coding":[{"system":"http://terminology.hl7.org/CodeSystem/observation-category","code":"exam","display":"exam","userSelected":true}]}],"code":{"coding":[{"system":"http://loinc.org","code":"11996-6"}]},"subject":{"reference":"Patient/67037280-6411-4f2c-a9d9-6d89da600887"},"effectiveDateTime":"2025-03-09T08:00:00.000+00:00","valueInteger":0},"request":{"method":"PUT","url":"Observation/678e35aa-f30f-4740-8f18-40bae42d3d0e"}},{"fullUrl":"https://madie.cms.gov/Observation/5d014eb2b8484608723805a6","resource":{"resourceType":"Observation","id":"42c6a4e8-52fa-42c7-8624-96f61d842c59","meta":{"profile":["http://hl7.org/fhir/us/qicore/StructureDefinition/qicore-observation"]},"status":"final","category":[{"coding":[{"system":"http://terminology.hl7.org/CodeSystem/observation-category","code":"exam","display":"exam","userSelected":true}]}],"code":{"coding":[{"system":"http://loinc.org","code":"11884-4"}]},"subject":{"reference":"Patient/67037280-6411-4f2c-a9d9-6d89da600887"},"effectiveDateTime":"2025-06-08T20:00:00.000+00:00","valueQuantity":{"value":37.0,"system":"http://unitsofmeasure.org","code":"weeks"}},"request":{"method":"PUT","url":"Observation/42c6a4e8-52fa-42c7-8624-96f61d842c59"}},{"fullUrl":"https://madie.cms.gov/Observation/5e69466d7ffec7000031ff7d","resource":{"resourceType":"Observation","id":"ebc2cc2f-31ac-437e-81c9-c757c06b60d2","meta":{"profile":["http://hl7.org/fhir/us/qicore/StructureDefinition/qicore-observation"]},"status":"final","category":[{"coding":[{"system":"http://terminology.hl7.org/CodeSystem/observation-category","code":"exam","display":"exam","userSelected":true}]}],"code":{"coding":[{"system":"http://loinc.org","code":"93857-1"}]},"subject":{"reference":"Patient/67037280-6411-4f2c-a9d9-6d89da600887"},"effectiveDateTime":"2025-06-08T20:00:00.000+00:00","valueDateTime":"2025-06-08T20:00:00+00:00"},"request":{"method":"PUT","url":"Observation/ebc2cc2f-31ac-437e-81c9-c757c06b60d2"}},{"fullUrl":"https://madie.cms.gov/Encounter/5d014eb2b8484608723805a1","resource":{"resourceType":"Encounter","id":"283d9c63-f98a-4817-babd-6bddb6f4585f","meta":{"profile":["http://hl7.org/fhir/us/qicore/StructureDefinition/qicore-encounter"]},"status":"finished","class":{"system":"http://terminology.hl7.org/CodeSystem/v3-ActCode","code":"IMP","display":"inpatient encounter"},"type":[{"coding":[{"system":"http://snomed.info/sct","code":"8715000"}]}],"subject":{"reference":"Patient/67037280-6411-4f2c-a9d9-6d89da600887"},"period":{"start":"2025-06-08T08:00:00.000Z","end":"2025-06-10T08:15:00.000Z"},"length":{"value":2.0,"unit":"days"},"diagnosis":[{"condition":{"reference":"Condition/delivery-of-singleton-f83c"},"use":{"coding":[{"system":"http://snomed.info/sct","code":"169826009","display":"Delivery of Singleton"}]}}]},"request":{"method":"PUT","url":"Encounter/283d9c63-f98a-4817-babd-6bddb6f4585f"}},{"fullUrl":"https://madie.cms.gov/Procedure/5d014eb2b8484608723805a2","resource":{"resourceType":"Procedure","id":"ebbf31cd-2745-4a04-9665-84d019335784","meta":{"profile":["http://hl7.org/fhir/us/qicore/StructureDefinition/qicore-procedure"]},"extension":[{"url":"http://hl7.org/fhir/us/qicore/StructureDefinition/qicore-recorded","valueDateTime":"2013-04-05T09:35:00-04:00"}],"status":"completed","code":{"coding":[{"system":"http://www.cms.gov/Medicare/Coding/ICD10","code":"10D00Z0"},{"system":"http://snomed.info/sct","code":"4504004"}]},"subject":{"reference":"Patient/67037280-6411-4f2c-a9d9-6d89da600887"},"performedPeriod":{"start":"2025-06-08T20:00:00.000Z","end":"2025-06-08T20:15:00.000Z"}},"request":{"method":"PUT","url":"Procedure/ebbf31cd-2745-4a04-9665-84d019335784"}},{"fullUrl":"https://madie.cms.gov/Condition/delivery-of-singleton-9a84","resource":{"resourceType":"Condition","id":"a51709c5-0b9e-4e25-b4ad-60fa8c17410d","meta":{"profile":["http://hl7.org/fhir/us/qicore/StructureDefinition/qicore-condition"]},"category":[{"coding":[{"system":"http://terminology.hl7.org/CodeSystem/condition-category","code":"encounter-diagnosis","display":"Encounter Diagnosis"}]}],"code":{"coding":[{"system":"http://snomed.info/sct","version":"2022-09","code":"169826009","display":"Single live birth (finding)","userSelected":true}]},"subject":{"reference":"Patient/67037280-6411-4f2c-a9d9-6d89da600887"},"recordedDate":"2025-10-21T08:00:00.000+00:00"},"request":{"method":"PUT","url":"Condition/a51709c5-0b9e-4e25-b4ad-60fa8c17410d"}},{"fullUrl":"https://madie.cms.gov/Coverage/1","resource":{"resourceType":"Coverage","id":"7c6785da-9751-4234-9448-08de23dffd14","meta":{"profile":["http://hl7.org/fhir/us/qicore/StructureDefinition/qicore-coverage"]},"status":"active","beneficiary":{"reference":"Patient/67037280-6411-4f2c-a9d9-6d89da600887"},"payor":[{"reference":"Organization/77e4d06f-5e3c-436a-a598-80cefcca5028"}]},"request":{"method":"PUT","url":"Coverage/7c6785da-9751-4234-9448-08de23dffd14"}},{"fullUrl":"https://madie.cms.gov/Organization/123456","resource":{"resourceType":"Organization","id":"77e4d06f-5e3c-436a-a598-80cefcca5028","meta":{"profile":["http://hl7.org/fhir/us/qicore/StructureDefinition/qicore-organization"]},"identifier":[{"use":"temp","system":"urn:oid:2.16.840.1.113883.4.4","value":"21-3259825"}],"active":true,"type":[{"coding":[{"system":"http://terminology.hl7.org/CodeSystem/organization-type","code":"pay","display":"Payer"}]}],"name":"Blue Cross Blue Shield of Texas","telecom":[{"system":"phone","value":"(+1) 972-766-6900"}],"address":[{"use":"billing","type":"postal","line":["P.O. Box 660044"],"city":"Dallas","state":"TX","postalCode":"75266-0044","country":"USA"}]},"request":{"method":"PUT","url":"Organization/77e4d06f-5e3c-436a-a598-80cefcca5028"}},{"fullUrl":"https://madie.cms.gov/Condition/Condition-1","resource":{"resourceType":"Condition","id":"2c22b695-ebe6-47a9-8373-963766f8cb42","meta":{"profile":["http://hl7.org/fhir/us/qicore/StructureDefinition/qicore-condition"]},"category":[{"coding":[{"system":"http://terminology.hl7.org/CodeSystem/condition-category","code":"encounter-diagnosis","display":"Encounter Diagnosis"}]}],"code":{"coding":[{"system":"http://snomed.info/sct","code":"169826009","display":"Single live birth (finding)"}]},"subject":{"reference":"Patient/67037280-6411-4f2c-a9d9-6d89da600887"}},"request":{"method":"PUT","url":"Condition/2c22b695-ebe6-47a9-8373-963766f8cb42"}},{"fullUrl":"https://madie.cms.gov/Practitioner/practitioner-123456","resource":{"resourceType":"Practitioner","id":"56be35dc-d7c3-4bb1-9605-1add28a549c6","identifier":[{"system":"http://hl7.org/fhir/sid/us-npi","value":"123456"}],"name":[{"family":"Evil","prefix":["Dr"]}]},"request":{"method":"PUT","url":"Practitioner/56be35dc-d7c3-4bb1-9605-1add28a549c6"}},{"fullUrl":"https://madie.cms.gov/MeasureReport/759c854c-97dc-4c96-8739-f44034266b5b","resource":{"resourceType":"MeasureReport","id":"759c854c-97dc-4c96-8739-f44034266b5b","meta":{"profile":["http://hl7.org/fhir/us/cqfmeasures/StructureDefinition/test-case-cqfm"]},"contained":[{"resourceType":"Parameters","id":"8969efee-9857-4efa-9207-1876ce7647fd-parameters","parameter":[{"name":"subject","valueString":"67037280-6411-4f2c-a9d9-6d89da600887"}]}],"extension":[{"url":"http://hl7.org/fhir/us/cqfmeasures/StructureDefinition/cqfm-inputParameters","valueReference":{"reference":"#8969efee-9857-4efa-9207-1876ce7647fd-parameters"}},{"url":"http://hl7.org/fhir/us/cqfmeasures/StructureDefinition/cqfm-testCaseDescription","valueMarkdown":"Passes IP,   Gravida 0 and Parity has no result \n"}],"modifierExtension":[{"url":"http://hl7.org/fhir/us/cqfmeasures/StructureDefinition/cqfm-isTestCase","valueBoolean":true}],"status":"complete","type":"individual","measure":"https://madie.cms.gov/Measure/CesareanBirthFHIR","period":{"start":"2025-01-01","end":"2025-12-31"},"group":[{"population":[{"code":{"coding":[{"system":"http://terminology.hl7.org/CodeSystem/measure-population","code":"initial-population","display":"Initial Population"}]},"count":1},{"code":{"coding":[{"system":"http://terminology.hl7.org/CodeSystem/measure-population","code":"denominator","display":"Denominator"}]},"count":0},{"code":{"coding":[{"system":"http://terminology.hl7.org/CodeSystem/measure-population","code":"denominator-exclusion","display":"Denominator Exclusion"}]},"count":0},{"code":{"coding":[{"system":"http://terminology.hl7.org/CodeSystem/measure-population","code":"numerator","display":"Numerator"}]},"count":0}]}]},"request":{"method":"PUT","url":"MeasureReport/759c854c-97dc-4c96-8739-f44034266b5b"}}]}