{"resourceType":"Bundle","id":"tests-337997e0-68a7-47e2-a9b8-f9846bf23baf-bundle","type":"transaction","entry":[{"fullUrl":"https://madie.cms.gov/Patient/337997e0-68a7-47e2-a9b8-f9846bf23baf","resource":{"resourceType":"Patient","id":"337997e0-68a7-47e2-a9b8-f9846bf23baf","meta":{"profile":["http://hl7.org/fhir/us/qicore/StructureDefinition/qicore-patient"]},"text":{"status":"generated","div":"<div xmlns=\"http://www.w3.org/1999/xhtml\"><div class=\"hapiHeaderText\">AssessTimeOfDeliveryResultIsBad <b>DENFAIL </b></div><table class=\"hapiPropertyTable\"><tbody><tr><td>Identifier</td><td>2b1f0141ffe85efd85bb0ba18ddf833ac147ccc7ffd86f1de2a9b7f23de6478b</td></tr><tr><td>Date of birth</td><td><span>14 February 1985</span></td></tr></tbody></table></div>"},"extension":[{"url":"http://hl7.org/fhir/us/core/StructureDefinition/us-core-race","extension":[{"url":"ombCategory","valueCoding":{"system":"urn:oid:2.16.840.1.113883.6.238","code":"1002-5","display":"American Indian or Alaska Native","userSelected":true}},{"url":"text","valueString":"American Indian or Alaska Native"}]},{"url":"http://hl7.org/fhir/us/core/StructureDefinition/us-core-ethnicity","extension":[{"url":"ombCategory","valueCoding":{"system":"urn:oid:2.16.840.1.113883.6.238","code":"2135-2","display":"Hispanic or Latino","userSelected":true}},{"url":"text","valueString":"Hispanic or Latino"}]}],"identifier":[{"type":{"coding":[{"system":"http://terminology.hl7.org/CodeSystem/v2-0203","code":"MR"}]},"system":"https://bonnie-fhir.healthit.gov/","value":"63487c2f0968f801225401aa"}],"active":true,"name":[{"use":"usual","family":"DENFail","given":["AssessTimeOfDeliveryResultIsBad "]}],"gender":"female","birthDate":"1997-02-14"},"request":{"method":"PUT","url":"Patient/337997e0-68a7-47e2-a9b8-f9846bf23baf"}},{"fullUrl":"https://madie.cms.gov/Observation/5d014eb1b848460872380488","resource":{"resourceType":"Observation","id":"fadb404c-28ac-49ba-99e1-c38dbde4a9b3","meta":{"profile":["http://hl7.org/fhir/us/qicore/StructureDefinition/qicore-observation"]},"status":"final","category":[{"coding":[{"system":"http://terminology.hl7.org/CodeSystem/observation-category","code":"exam","display":"exam","userSelected":true}]}],"code":{"coding":[{"system":"http://loinc.org","code":"11884-4"}]},"subject":{"reference":"Patient/337997e0-68a7-47e2-a9b8-f9846bf23baf"},"effectiveDateTime":"2025-06-08T07:15:00.000+00:00","valueQuantity":{"value":38.0,"system":"http://unitsofmeasure.org","code":"weeks"}},"request":{"method":"PUT","url":"Observation/fadb404c-28ac-49ba-99e1-c38dbde4a9b3"}},{"fullUrl":"https://madie.cms.gov/Observation/5d014eb1b84846087238048a","resource":{"resourceType":"Observation","id":"77445cae-a279-4749-b3a4-d0d7c5c2372c","meta":{"profile":["http://hl7.org/fhir/us/qicore/StructureDefinition/qicore-observation"]},"status":"final","category":[{"coding":[{"system":"http://terminology.hl7.org/CodeSystem/observation-category","code":"exam","display":"exam","userSelected":true}]}],"code":{"coding":[{"system":"http://loinc.org","code":"11996-6"}]},"subject":{"reference":"Patient/337997e0-68a7-47e2-a9b8-f9846bf23baf"},"effectiveDateTime":"2025-06-08T07:59:00.000+00:00","valueInteger":1},"request":{"method":"PUT","url":"Observation/77445cae-a279-4749-b3a4-d0d7c5c2372c"}},{"fullUrl":"https://madie.cms.gov/Observation/5e6937c77ffec7000031e83c","resource":{"resourceType":"Observation","id":"88cc53da-cf94-4d78-b0f2-21629afccf51","meta":{"profile":["http://hl7.org/fhir/us/qicore/StructureDefinition/qicore-observation"]},"status":"final","category":[{"coding":[{"system":"http://terminology.hl7.org/CodeSystem/observation-category","code":"exam","display":"exam","userSelected":true}]}],"code":{"coding":[{"system":"http://loinc.org","code":"93857-1"}]},"subject":{"reference":"Patient/337997e0-68a7-47e2-a9b8-f9846bf23baf"},"effectiveDateTime":"2025-06-08T08:00:00.000+00:00","valueDateTime":"1899-04-13T08:00:00+00:00"},"request":{"method":"PUT","url":"Observation/88cc53da-cf94-4d78-b0f2-21629afccf51"}},{"fullUrl":"https://madie.cms.gov/Encounter/5d014eb1b848460872380486","resource":{"resourceType":"Encounter","id":"ded91337-510a-4c33-aba3-d2df76533613","meta":{"profile":["http://hl7.org/fhir/us/qicore/StructureDefinition/qicore-encounter"]},"status":"finished","class":{"system":"http://terminology.hl7.org/CodeSystem/v3-ActCode","code":"IMP","display":"inpatient encounter"},"type":[{"coding":[{"system":"http://snomed.info/sct","code":"183452005"}]}],"subject":{"reference":"Patient/337997e0-68a7-47e2-a9b8-f9846bf23baf"},"period":{"start":"2025-06-08T08:00:00.000Z","end":"2025-06-10T08:15:00.000Z"},"length":{"value":2.0,"unit":"days"},"diagnosis":[{"condition":{"reference":"Condition/delivery-of-singleton-f83c"},"use":{"coding":[{"system":"http://snomed.info/sct","code":"169826009","display":"Delivery of Singleton"}]}},{"condition":{"reference":"Condition/delivery-of-singleton-4b20"}}]},"request":{"method":"PUT","url":"Encounter/ded91337-510a-4c33-aba3-d2df76533613"}},{"fullUrl":"https://madie.cms.gov/Procedure/5d014eb1b848460872380487","resource":{"resourceType":"Procedure","id":"bd04687b-9d16-4c30-a6a3-8442b9d17fe4","meta":{"profile":["http://hl7.org/fhir/us/qicore/StructureDefinition/qicore-procedure"]},"extension":[{"url":"http://hl7.org/fhir/us/qicore/StructureDefinition/qicore-recorded","valueDateTime":"2013-04-05T09:35:00-04:00"}],"status":"completed","code":{"coding":[{"system":"http://www.cms.gov/Medicare/Coding/ICD10","code":"10D00Z0"},{"system":"http://www.icd10data.com/icd10pcs","code":"10D00Z0","userSelected":true}]},"subject":{"reference":"Patient/337997e0-68a7-47e2-a9b8-f9846bf23baf"},"performedPeriod":{"start":"2025-06-08T08:00:00.000Z","end":"2025-06-08T09:15:00.000Z"}},"request":{"method":"PUT","url":"Procedure/bd04687b-9d16-4c30-a6a3-8442b9d17fe4"}},{"fullUrl":"https://madie.cms.gov/Condition/delivery-of-singleton-4b20","resource":{"resourceType":"Condition","id":"07e5ba04-648f-42f9-9ce4-ea3506871108","meta":{"profile":["http://hl7.org/fhir/us/qicore/StructureDefinition/qicore-condition"]},"category":[{"coding":[{"system":"http://terminology.hl7.org/CodeSystem/condition-category","code":"encounter-diagnosis","display":"Encounter Diagnosis"}]}],"code":{"coding":[{"system":"http://snomed.info/sct","version":"2022-09","code":"169826009","display":"Single live birth (finding)","userSelected":true}]},"subject":{"reference":"Patient/337997e0-68a7-47e2-a9b8-f9846bf23baf"},"recordedDate":"2025-10-21T08:00:00.000+00:00"},"request":{"method":"PUT","url":"Condition/07e5ba04-648f-42f9-9ce4-ea3506871108"}},{"fullUrl":"https://madie.cms.gov/Coverage/1","resource":{"resourceType":"Coverage","id":"1ace8c59-5d45-494e-9ca7-a5967a242fe1","meta":{"profile":["http://hl7.org/fhir/us/qicore/StructureDefinition/qicore-coverage"]},"status":"active","beneficiary":{"reference":"Patient/337997e0-68a7-47e2-a9b8-f9846bf23baf"},"payor":[{"reference":"Organization/5224cb12-ed64-4d6d-ab28-40a64f0800f1"}]},"request":{"method":"PUT","url":"Coverage/1ace8c59-5d45-494e-9ca7-a5967a242fe1"}},{"fullUrl":"https://madie.cms.gov/Organization/123456","resource":{"resourceType":"Organization","id":"5224cb12-ed64-4d6d-ab28-40a64f0800f1","meta":{"profile":["http://hl7.org/fhir/us/qicore/StructureDefinition/qicore-organization"]},"identifier":[{"use":"temp","system":"urn:oid:2.16.840.1.113883.4.4","value":"21-3259825"}],"active":true,"type":[{"coding":[{"system":"http://terminology.hl7.org/CodeSystem/organization-type","code":"pay","display":"Payer"}]}],"name":"Blue Cross Blue Shield of Texas","telecom":[{"system":"phone","value":"(+1) 972-766-6900"}],"address":[{"use":"billing","type":"postal","line":["P.O. Box 660044"],"city":"Dallas","state":"TX","postalCode":"75266-0044","country":"USA"}]},"request":{"method":"PUT","url":"Organization/5224cb12-ed64-4d6d-ab28-40a64f0800f1"}},{"fullUrl":"https://madie.cms.gov/Practitioner/practitioner-123456","resource":{"resourceType":"Practitioner","id":"6f916d11-f547-47fc-ae83-d992c1c090e2","identifier":[{"system":"http://hl7.org/fhir/sid/us-npi","value":"123456"}],"name":[{"family":"Evil","prefix":["Dr"]}]},"request":{"method":"PUT","url":"Practitioner/6f916d11-f547-47fc-ae83-d992c1c090e2"}},{"fullUrl":"https://madie.cms.gov/MeasureReport/733926d5-c95a-48eb-bce1-e5895e31aa83","resource":{"resourceType":"MeasureReport","id":"733926d5-c95a-48eb-bce1-e5895e31aa83","meta":{"profile":["http://hl7.org/fhir/us/cqfmeasures/StructureDefinition/test-case-cqfm"]},"contained":[{"resourceType":"Parameters","id":"43acd9af-e67b-41c3-aa83-e306db2e44f5-parameters","parameter":[{"name":"subject","valueString":"337997e0-68a7-47e2-a9b8-f9846bf23baf"}]}],"extension":[{"url":"http://hl7.org/fhir/us/cqfmeasures/StructureDefinition/cqfm-inputParameters","valueReference":{"reference":"#43acd9af-e67b-41c3-aa83-e306db2e44f5-parameters"}},{"url":"http://hl7.org/fhir/us/cqfmeasures/StructureDefinition/cqfm-testCaseDescription","valueMarkdown":"Passes: IP, Fails DENOM Pt is 27 years of age,  encounter dx of delivery of singleton, gravida, EGA( >37 ) and @ 38 weeks, AsseDelivTm Result has date out of range, lower than 1900\n"}],"modifierExtension":[{"url":"http://hl7.org/fhir/us/cqfmeasures/StructureDefinition/cqfm-isTestCase","valueBoolean":true}],"status":"complete","type":"individual","measure":"https://madie.cms.gov/Measure/CesareanBirthFHIR","period":{"start":"2025-01-01","end":"2025-12-31"},"group":[{"population":[{"code":{"coding":[{"system":"http://terminology.hl7.org/CodeSystem/measure-population","code":"initial-population","display":"Initial Population"}]},"count":1},{"code":{"coding":[{"system":"http://terminology.hl7.org/CodeSystem/measure-population","code":"denominator","display":"Denominator"}]},"count":0},{"code":{"coding":[{"system":"http://terminology.hl7.org/CodeSystem/measure-population","code":"denominator-exclusion","display":"Denominator Exclusion"}]},"count":0},{"code":{"coding":[{"system":"http://terminology.hl7.org/CodeSystem/measure-population","code":"numerator","display":"Numerator"}]},"count":0}]}]},"request":{"method":"PUT","url":"MeasureReport/733926d5-c95a-48eb-bce1-e5895e31aa83"}}]}