{"resourceType":"Bundle","id":"tests-64bbffd3-e7b5-4cfb-8e7d-6705b46ce964-bundle","type":"transaction","entry":[{"fullUrl":"https://madie.cms.gov/Patient/64bbffd3-e7b5-4cfb-8e7d-6705b46ce964","resource":{"resourceType":"Patient","id":"64bbffd3-e7b5-4cfb-8e7d-6705b46ce964","meta":{"profile":["http://hl7.org/fhir/us/qicore/StructureDefinition/qicore-patient"]},"text":{"status":"generated","div":"<div xmlns=\"http://www.w3.org/1999/xhtml\"><div class=\"hapiHeaderText\">2EncW/in42weeksEGAeq38OnFirstEGAeq36OnSecond <b>DENFAIL </b></div><table class=\"hapiPropertyTable\"><tbody><tr><td>Identifier</td><td>d49eff12b5ae0570e385f43288917b0fcc7f54d4422938b9cf7918aaeb400005</td></tr><tr><td>Date of birth</td><td><span>14 February 1985</span></td></tr></tbody></table></div>"},"extension":[{"url":"http://hl7.org/fhir/us/core/StructureDefinition/us-core-race","extension":[{"url":"ombCategory","valueCoding":{"system":"urn:oid:2.16.840.1.113883.6.238","code":"1002-5","display":"American Indian or Alaska Native","userSelected":true}},{"url":"text","valueString":"American Indian or Alaska Native"}]},{"url":"http://hl7.org/fhir/us/core/StructureDefinition/us-core-ethnicity","extension":[{"url":"ombCategory","valueCoding":{"system":"urn:oid:2.16.840.1.113883.6.238","code":"2135-2","display":"Hispanic or Latino","userSelected":true}},{"url":"text","valueString":"Hispanic or Latino"}]}],"identifier":[{"type":{"coding":[{"system":"http://terminology.hl7.org/CodeSystem/v2-0203","code":"MR"}]},"system":"https://bonnie-fhir.healthit.gov/","value":"63487c2f0968f80122540199"}],"active":true,"name":[{"use":"usual","family":"DENPass","given":["2EncWin42weeksEGAeq38onBothEncounters"]}],"gender":"female","birthDate":"1997-02-14"},"request":{"method":"PUT","url":"Patient/64bbffd3-e7b5-4cfb-8e7d-6705b46ce964"}},{"fullUrl":"https://madie.cms.gov/Observation/5d4060afb848462dd07670d0","resource":{"resourceType":"Observation","id":"26312f69-f88e-4826-b87e-1e8104960f2d","meta":{"profile":["http://hl7.org/fhir/us/qicore/StructureDefinition/qicore-observation"]},"status":"final","category":[{"coding":[{"system":"http://terminology.hl7.org/CodeSystem/observation-category","code":"exam","display":"exam","userSelected":true}]}],"code":{"coding":[{"system":"http://loinc.org","code":"11884-4"}]},"subject":{"reference":"Patient/64bbffd3-e7b5-4cfb-8e7d-6705b46ce964"},"effectiveDateTime":"2025-02-01T09:15:00.000+00:00","valueQuantity":{"value":38.0,"system":"http://unitsofmeasure.org","code":"wk"}},"request":{"method":"PUT","url":"Observation/26312f69-f88e-4826-b87e-1e8104960f2d"}},{"fullUrl":"https://madie.cms.gov/Observation/5d4060afb848462dd07670d3","resource":{"resourceType":"Observation","id":"d198cdaf-1464-44d0-9cee-ab190b26b7bd","meta":{"profile":["http://hl7.org/fhir/us/qicore/StructureDefinition/qicore-observation"]},"status":"final","category":[{"coding":[{"system":"http://terminology.hl7.org/CodeSystem/observation-category","code":"exam","display":"exam","userSelected":true}]}],"code":{"coding":[{"system":"http://loinc.org","code":"11884-4"}]},"subject":{"reference":"Patient/64bbffd3-e7b5-4cfb-8e7d-6705b46ce964"},"effectiveDateTime":"2025-11-10T08:00:00.000+00:00","valueQuantity":{"value":38.0,"system":"http://unitsofmeasure.org","code":"wk"}},"request":{"method":"PUT","url":"Observation/d198cdaf-1464-44d0-9cee-ab190b26b7bd"}},{"fullUrl":"https://madie.cms.gov/Observation/5e611b58eadaae0000c2ba91","resource":{"resourceType":"Observation","id":"f4f5c1da-2f89-4d22-9078-cf22f4d4d44d","meta":{"profile":["http://hl7.org/fhir/us/qicore/StructureDefinition/qicore-observation"]},"status":"final","category":[{"coding":[{"system":"http://terminology.hl7.org/CodeSystem/observation-category","code":"exam","display":"exam","userSelected":true}]}],"code":{"coding":[{"system":"http://loinc.org","code":"93857-1"}]},"subject":{"reference":"Patient/64bbffd3-e7b5-4cfb-8e7d-6705b46ce964"},"effectiveDateTime":"2025-02-01T19:00:00.000+00:00","valueDateTime":"2025-02-01T19:00:00+00:00"},"request":{"method":"PUT","url":"Observation/f4f5c1da-2f89-4d22-9078-cf22f4d4d44d"}},{"fullUrl":"https://madie.cms.gov/Observation/5e611b93eadaae0000c2bb86","resource":{"resourceType":"Observation","id":"ba82101c-c1e2-4f1a-9fd5-d12134712424","meta":{"profile":["http://hl7.org/fhir/us/qicore/StructureDefinition/qicore-observation"]},"status":"final","category":[{"coding":[{"system":"http://terminology.hl7.org/CodeSystem/observation-category","code":"exam","display":"exam","userSelected":true}]}],"code":{"coding":[{"system":"http://loinc.org","code":"93857-1"}]},"subject":{"reference":"Patient/64bbffd3-e7b5-4cfb-8e7d-6705b46ce964"},"effectiveDateTime":"2025-11-10T08:00:00.000+00:00","valueDateTime":"2025-11-10T08:00:00+00:00"},"request":{"method":"PUT","url":"Observation/ba82101c-c1e2-4f1a-9fd5-d12134712424"}},{"fullUrl":"https://madie.cms.gov/Observation/5e713a01196c820000976152","resource":{"resourceType":"Observation","id":"cb040984-f03d-45e9-9169-6fcce263f74f","meta":{"profile":["http://hl7.org/fhir/us/qicore/StructureDefinition/qicore-observation"]},"status":"final","category":[{"coding":[{"system":"http://terminology.hl7.org/CodeSystem/observation-category","code":"exam","display":"exam","userSelected":true}]}],"code":{"coding":[{"system":"http://loinc.org","code":"11639-2"}]},"subject":{"reference":"Patient/64bbffd3-e7b5-4cfb-8e7d-6705b46ce964"},"effectiveDateTime":"2025-01-31T08:00:00.000+00:00","valueInteger":0},"request":{"method":"PUT","url":"Observation/cb040984-f03d-45e9-9169-6fcce263f74f"}},{"fullUrl":"https://madie.cms.gov/Observation/5e713a25196c820000976168","resource":{"resourceType":"Observation","id":"034529e5-5ac5-4e9d-b3b9-ba2d2319fc1b","meta":{"profile":["http://hl7.org/fhir/us/qicore/StructureDefinition/qicore-observation"]},"status":"final","category":[{"coding":[{"system":"http://terminology.hl7.org/CodeSystem/observation-category","code":"exam","display":"exam","userSelected":true}]}],"code":{"coding":[{"system":"http://loinc.org","code":"11637-6"}]},"subject":{"reference":"Patient/64bbffd3-e7b5-4cfb-8e7d-6705b46ce964"},"effectiveDateTime":"2025-01-31T08:00:00.000+00:00","valueInteger":0},"request":{"method":"PUT","url":"Observation/034529e5-5ac5-4e9d-b3b9-ba2d2319fc1b"}},{"fullUrl":"https://madie.cms.gov/Observation/5e713afd196c8200009761ce","resource":{"resourceType":"Observation","id":"67c4840b-f1cc-4523-96bd-0804eab21656","meta":{"profile":["http://hl7.org/fhir/us/qicore/StructureDefinition/qicore-observation"]},"status":"final","category":[{"coding":[{"system":"http://terminology.hl7.org/CodeSystem/observation-category","code":"exam","display":"exam","userSelected":true}]}],"code":{"coding":[{"system":"http://loinc.org","code":"11639-2"}]},"subject":{"reference":"Patient/64bbffd3-e7b5-4cfb-8e7d-6705b46ce964"},"effectiveDateTime":"2025-11-09T08:00:00.000+00:00","valueInteger":1},"request":{"method":"PUT","url":"Observation/67c4840b-f1cc-4523-96bd-0804eab21656"}},{"fullUrl":"https://madie.cms.gov/Observation/5e713b02196c8200009761e4","resource":{"resourceType":"Observation","id":"1c353146-f4fa-4dfa-b948-e7623553dbb1","meta":{"profile":["http://hl7.org/fhir/us/qicore/StructureDefinition/qicore-observation"]},"status":"final","category":[{"coding":[{"system":"http://terminology.hl7.org/CodeSystem/observation-category","code":"exam","display":"exam","userSelected":true}]}],"code":{"coding":[{"system":"http://loinc.org","code":"11637-6"}]},"subject":{"reference":"Patient/64bbffd3-e7b5-4cfb-8e7d-6705b46ce964"},"effectiveDateTime":"2025-11-09T08:00:00.000+00:00","valueInteger":1},"request":{"method":"PUT","url":"Observation/1c353146-f4fa-4dfa-b948-e7623553dbb1"}},{"fullUrl":"https://madie.cms.gov/Encounter/5d4060afb848462dd07670ce","resource":{"resourceType":"Encounter","id":"e77b507c-dc25-43cc-a55a-9f7a460b98ea","meta":{"profile":["http://hl7.org/fhir/us/qicore/StructureDefinition/qicore-encounter"]},"status":"finished","class":{"system":"http://terminology.hl7.org/CodeSystem/v3-ActCode","code":"IMP","display":"inpatient encounter"},"type":[{"coding":[{"system":"http://snomed.info/sct","code":"183452005"}]}],"subject":{"reference":"Patient/64bbffd3-e7b5-4cfb-8e7d-6705b46ce964"},"period":{"start":"2025-02-01T08:00:00.000Z","end":"2025-02-05T08:15:00.000Z"},"length":{"value":4.0,"unit":"days"},"diagnosis":[{"condition":{"reference":"Condition/delivery-of-singleton-f83c"},"use":{"coding":[{"system":"http://snomed.info/sct","code":"169826009","display":"Delivery of Singleton"}]}},{"condition":{"reference":"Condition/delivery-of-singleton-9a7d"}}]},"request":{"method":"PUT","url":"Encounter/e77b507c-dc25-43cc-a55a-9f7a460b98ea"}},{"fullUrl":"https://madie.cms.gov/Encounter/5d4060afb848462dd07670d5","resource":{"resourceType":"Encounter","id":"137c2ff4-430d-4858-a8c2-9f022c497f81","meta":{"profile":["http://hl7.org/fhir/us/qicore/StructureDefinition/qicore-encounter"]},"status":"finished","class":{"system":"http://terminology.hl7.org/CodeSystem/v3-ActCode","code":"IMP","display":"inpatient encounter"},"type":[{"coding":[{"system":"http://snomed.info/sct","code":"183452005"}]}],"subject":{"reference":"Patient/64bbffd3-e7b5-4cfb-8e7d-6705b46ce964"},"period":{"start":"2025-11-10T08:00:00.000Z","end":"2025-11-15T08:15:00.000Z"},"length":{"value":5.0,"unit":"days"},"diagnosis":[{"condition":{"reference":"Condition/delivery-of-singleton-f83c"},"use":{"coding":[{"system":"http://snomed.info/sct","code":"169826009","display":"Delivery of Singleton"}]}}]},"request":{"method":"PUT","url":"Encounter/137c2ff4-430d-4858-a8c2-9f022c497f81"}},{"fullUrl":"https://madie.cms.gov/Coverage/5f5f9e4f1c76ba674bb0336d","resource":{"resourceType":"Coverage","id":"68095816-86f4-4b4f-91de-1ac8addb44d4","status":"active","beneficiary":{"reference":"Patient/64bbffd3-e7b5-4cfb-8e7d-6705b46ce964"},"period":{"start":"1985-02-14T08:00:00.000Z"},"payor":[{"reference":"Organization/77e4d06f-5e3c-436a-a598-80cefcca5028"}]},"request":{"method":"PUT","url":"Coverage/68095816-86f4-4b4f-91de-1ac8addb44d4"}},{"fullUrl":"https://madie.cms.gov/Procedure/5d4060afb848462dd07670cf","resource":{"resourceType":"Procedure","id":"82666778-d2bc-4824-b89c-eac8b3b9a203","meta":{"profile":["http://hl7.org/fhir/us/qicore/StructureDefinition/qicore-procedure"]},"extension":[{"url":"http://hl7.org/fhir/us/qicore/StructureDefinition/qicore-recorded","valueDateTime":"2013-04-05T09:35:00-04:00"}],"status":"completed","code":{"coding":[{"system":"http://snomed.info/sct","code":"10745001"},{"system":"http://www.cms.gov/Medicare/Coding/ICD10","code":"10D00Z0"},{"system":"http://www.icd10data.com/icd10pcs","code":"10D00Z0","userSelected":true}]},"subject":{"reference":"Patient/64bbffd3-e7b5-4cfb-8e7d-6705b46ce964"},"performedPeriod":{"start":"2025-02-01T08:00:00.000Z","end":"2025-02-05T08:15:00.000Z"}},"request":{"method":"PUT","url":"Procedure/82666778-d2bc-4824-b89c-eac8b3b9a203"}},{"fullUrl":"https://madie.cms.gov/Procedure/5d4060afb848462dd07670d6","resource":{"resourceType":"Procedure","id":"d698395d-34b2-43be-a976-da44fdb54271","meta":{"profile":["http://hl7.org/fhir/us/qicore/StructureDefinition/qicore-procedure"]},"extension":[{"url":"http://hl7.org/fhir/us/qicore/StructureDefinition/qicore-recorded","valueDateTime":"2013-04-05T09:35:00-04:00"}],"status":"completed","code":{"coding":[{"system":"http://snomed.info/sct","code":"10745001"},{"system":"http://www.cms.gov/Medicare/Coding/ICD10","code":"10D00Z0"},{"system":"http://www.icd10data.com/icd10pcs","code":"10D00Z0","userSelected":true}]},"subject":{"reference":"Patient/64bbffd3-e7b5-4cfb-8e7d-6705b46ce964"},"performedPeriod":{"start":"2025-11-10T08:00:00.000Z","end":"2025-11-15T08:15:00.000Z"}},"request":{"method":"PUT","url":"Procedure/d698395d-34b2-43be-a976-da44fdb54271"}},{"fullUrl":"https://madie.cms.gov/Condition/delivery-of-singleton-9a7d","resource":{"resourceType":"Condition","id":"9e86079d-2205-46c4-808a-d489eefc3d54","meta":{"profile":["http://hl7.org/fhir/us/qicore/StructureDefinition/qicore-condition"]},"category":[{"coding":[{"system":"http://terminology.hl7.org/CodeSystem/condition-category","code":"encounter-diagnosis","display":"Encounter Diagnosis"}]}],"code":{"coding":[{"system":"http://snomed.info/sct","version":"2022-09","code":"169826009","display":"Single live birth (finding)","userSelected":true}]},"subject":{"reference":"Patient/64bbffd3-e7b5-4cfb-8e7d-6705b46ce964"},"recordedDate":"2025-10-21T08:00:00.000+00:00"},"request":{"method":"PUT","url":"Condition/9e86079d-2205-46c4-808a-d489eefc3d54"}},{"fullUrl":"https://madie.cms.gov/Organization/123456","resource":{"resourceType":"Organization","id":"77e4d06f-5e3c-436a-a598-80cefcca5028","meta":{"profile":["http://hl7.org/fhir/us/qicore/StructureDefinition/qicore-organization"]},"identifier":[{"use":"temp","system":"urn:oid:2.16.840.1.113883.4.4","value":"21-3259825"}],"active":true,"type":[{"coding":[{"system":"http://terminology.hl7.org/CodeSystem/organization-type","code":"pay","display":"Payer"}]}],"name":"Blue Cross Blue Shield of Texas","telecom":[{"system":"phone","value":"(+1) 972-766-6900"}],"address":[{"use":"billing","type":"postal","line":["P.O. Box 660044"],"city":"Dallas","state":"TX","postalCode":"75266-0044","country":"USA"}]},"request":{"method":"PUT","url":"Organization/77e4d06f-5e3c-436a-a598-80cefcca5028"}},{"fullUrl":"https://madie.cms.gov/Practitioner/practitioner-123456","resource":{"resourceType":"Practitioner","id":"a287b574-51af-4e07-af50-035aca0c89ac","identifier":[{"system":"http://hl7.org/fhir/sid/us-npi","value":"123456"}],"name":[{"family":"Evil","prefix":["Dr"]}]},"request":{"method":"PUT","url":"Practitioner/a287b574-51af-4e07-af50-035aca0c89ac"}},{"fullUrl":"https://madie.cms.gov/MeasureReport/85651c47-f829-40f6-9648-09edb5be07ad","resource":{"resourceType":"MeasureReport","id":"85651c47-f829-40f6-9648-09edb5be07ad","meta":{"profile":["http://hl7.org/fhir/us/cqfmeasures/StructureDefinition/test-case-cqfm"]},"contained":[{"resourceType":"Parameters","id":"c91778c2-1aae-4b07-bc48-619122ed6a9c-parameters","parameter":[{"name":"subject","valueString":"64bbffd3-e7b5-4cfb-8e7d-6705b46ce964"}]}],"extension":[{"url":"http://hl7.org/fhir/us/cqfmeasures/StructureDefinition/cqfm-inputParameters","valueReference":{"reference":"#c91778c2-1aae-4b07-bc48-619122ed6a9c-parameters"}},{"url":"http://hl7.org/fhir/us/cqfmeasures/StructureDefinition/cqfm-testCaseDescription","valueMarkdown":"\"Pregnancy 1 delivery documented 2/1/2012, Preterm & Term Births=0,EGA=38\nPregnancy 2  delivery documented 11/10/2012, Preterm & Term Births=1 & EGA=38.  Fails denom."}],"modifierExtension":[{"url":"http://hl7.org/fhir/us/cqfmeasures/StructureDefinition/cqfm-isTestCase","valueBoolean":true}],"status":"complete","type":"individual","measure":"https://madie.cms.gov/Measure/CesareanBirthFHIR","period":{"start":"2025-01-01","end":"2025-12-31"},"group":[{"population":[{"code":{"coding":[{"system":"http://terminology.hl7.org/CodeSystem/measure-population","code":"initial-population","display":"Initial Population"}]},"count":2},{"code":{"coding":[{"system":"http://terminology.hl7.org/CodeSystem/measure-population","code":"denominator","display":"Denominator"}]},"count":1},{"code":{"coding":[{"system":"http://terminology.hl7.org/CodeSystem/measure-population","code":"denominator-exclusion","display":"Denominator Exclusion"}]},"count":0},{"code":{"coding":[{"system":"http://terminology.hl7.org/CodeSystem/measure-population","code":"numerator","display":"Numerator"}]},"count":1}]}]},"request":{"method":"PUT","url":"MeasureReport/85651c47-f829-40f6-9648-09edb5be07ad"}}]}