{"resourceType":"Bundle","id":"tests-e5271b0a-fc73-4edb-a855-828959e04e37-bundle","type":"transaction","entry":[{"fullUrl":"https://madie.cms.gov/Patient/e5271b0a-fc73-4edb-a855-828959e04e37","resource":{"resourceType":"Patient","id":"e5271b0a-fc73-4edb-a855-828959e04e37","meta":{"profile":["http://hl7.org/fhir/us/qicore/StructureDefinition/qicore-patient"]},"text":{"status":"generated","div":"<div xmlns=\"http://www.w3.org/1999/xhtml\"><div class=\"hapiHeaderText\">AssessPreTerm1 <b>DENFAIL </b></div><table class=\"hapiPropertyTable\"><tbody><tr><td>Identifier</td><td>f15d9136a3bc08952ca0f089f657bacdb16a6343586e5ae123eb3e7fb58cd71d</td></tr><tr><td>Date of birth</td><td><span>14 February 1985</span></td></tr></tbody></table></div>"},"extension":[{"url":"http://hl7.org/fhir/us/core/StructureDefinition/us-core-race","extension":[{"url":"ombCategory","valueCoding":{"system":"urn:oid:2.16.840.1.113883.6.238","code":"1002-5","display":"American Indian or Alaska Native","userSelected":true}},{"url":"text","valueString":"American Indian or Alaska Native"}]},{"url":"http://hl7.org/fhir/us/core/StructureDefinition/us-core-ethnicity","extension":[{"url":"ombCategory","valueCoding":{"system":"urn:oid:2.16.840.1.113883.6.238","code":"2135-2","display":"Hispanic or Latino","userSelected":true}},{"url":"text","valueString":"Hispanic or Latino"}]}],"identifier":[{"type":{"coding":[{"system":"http://terminology.hl7.org/CodeSystem/v2-0203","code":"MR"}]},"system":"https://bonnie-fhir.healthit.gov/","value":"63487c2d0968f80122540151"}],"active":true,"name":[{"use":"usual","family":"DENFAIL","given":["AssessPreTerm1 "]}],"gender":"female","birthDate":"1997-02-14"},"request":{"method":"PUT","url":"Patient/e5271b0a-fc73-4edb-a855-828959e04e37"}},{"fullUrl":"https://madie.cms.gov/Observation/5d014eb2b84846087238065b","resource":{"resourceType":"Observation","id":"029480da-a2b9-47bf-af0a-5dbda5045a67","meta":{"profile":["http://hl7.org/fhir/us/qicore/StructureDefinition/qicore-observation"]},"status":"final","category":[{"coding":[{"system":"http://terminology.hl7.org/CodeSystem/observation-category","code":"exam","display":"exam","userSelected":true}]}],"code":{"coding":[{"system":"http://loinc.org","code":"11637-6"}]},"subject":{"reference":"Patient/e5271b0a-fc73-4edb-a855-828959e04e37"},"effectiveDateTime":"2024-09-19T09:00:00.000+00:00","valueInteger":1},"request":{"method":"PUT","url":"Observation/029480da-a2b9-47bf-af0a-5dbda5045a67"}},{"fullUrl":"https://madie.cms.gov/Observation/5d014eb2b84846087238065d","resource":{"resourceType":"Observation","id":"526f4b1a-78c7-4abf-815d-b45afb4487a6","meta":{"profile":["http://hl7.org/fhir/us/qicore/StructureDefinition/qicore-observation"]},"status":"final","category":[{"coding":[{"system":"http://terminology.hl7.org/CodeSystem/observation-category","code":"exam","display":"exam","userSelected":true}]}],"code":{"coding":[{"system":"http://loinc.org","code":"11639-2"}]},"subject":{"reference":"Patient/e5271b0a-fc73-4edb-a855-828959e04e37"},"effectiveDateTime":"2024-09-19T09:00:00.000+00:00","valueInteger":0},"request":{"method":"PUT","url":"Observation/526f4b1a-78c7-4abf-815d-b45afb4487a6"}},{"fullUrl":"https://madie.cms.gov/Observation/5d014eb2b848460872380660","resource":{"resourceType":"Observation","id":"5c60f32c-20be-4ba8-811e-8a30582875dc","meta":{"profile":["http://hl7.org/fhir/us/qicore/StructureDefinition/qicore-observation"]},"status":"final","category":[{"coding":[{"system":"http://terminology.hl7.org/CodeSystem/observation-category","code":"exam","display":"exam","userSelected":true}]}],"code":{"coding":[{"system":"http://loinc.org","code":"11884-4"}]},"subject":{"reference":"Patient/e5271b0a-fc73-4edb-a855-828959e04e37"},"effectiveDateTime":"2025-06-08T20:00:00.000+00:00","valueQuantity":{"value":37.0,"system":"http://unitsofmeasure.org","code":"weeks"}},"request":{"method":"PUT","url":"Observation/5c60f32c-20be-4ba8-811e-8a30582875dc"}},{"fullUrl":"https://madie.cms.gov/Observation/5e696bf97ffec7000032202d","resource":{"resourceType":"Observation","id":"c10e10f1-7f9a-46ba-9617-21094df4ee39","meta":{"profile":["http://hl7.org/fhir/us/qicore/StructureDefinition/qicore-observation"]},"status":"final","category":[{"coding":[{"system":"http://terminology.hl7.org/CodeSystem/observation-category","code":"exam","display":"exam","userSelected":true}]}],"code":{"coding":[{"system":"http://loinc.org","code":"93857-1"}]},"subject":{"reference":"Patient/e5271b0a-fc73-4edb-a855-828959e04e37"},"effectiveDateTime":"2025-06-08T20:00:00.000+00:00","valueDateTime":"2025-06-08T20:00:00+00:00"},"request":{"method":"PUT","url":"Observation/c10e10f1-7f9a-46ba-9617-21094df4ee39"}},{"fullUrl":"https://madie.cms.gov/Encounter/5d014eb2b848460872380659","resource":{"resourceType":"Encounter","id":"14fd74e2-26e6-4f65-b8e6-725cb706f994","meta":{"profile":["http://hl7.org/fhir/us/qicore/StructureDefinition/qicore-encounter"]},"status":"finished","class":{"system":"http://terminology.hl7.org/CodeSystem/v3-ActCode","code":"IMP","display":"inpatient encounter"},"type":[{"coding":[{"system":"http://snomed.info/sct","code":"8715000"}]}],"subject":{"reference":"Patient/e5271b0a-fc73-4edb-a855-828959e04e37"},"period":{"start":"2025-06-08T08:00:00.000Z","end":"2025-06-10T08:15:00.000Z"},"length":{"value":2.0,"unit":"days"},"diagnosis":[{"condition":{"reference":"Condition/delivery-of-singleton-f83c"},"use":{"coding":[{"system":"http://snomed.info/sct","code":"169826009","display":"Delivery of Singleton"}]}},{"condition":{"reference":"Condition/delivery-of-singleton-4b14"}}]},"request":{"method":"PUT","url":"Encounter/14fd74e2-26e6-4f65-b8e6-725cb706f994"}},{"fullUrl":"https://madie.cms.gov/Procedure/5d014eb2b84846087238065a","resource":{"resourceType":"Procedure","id":"08b68b2d-c2c7-4a60-9112-e68194c1acdc","meta":{"profile":["http://hl7.org/fhir/us/qicore/StructureDefinition/qicore-procedure"]},"extension":[{"url":"http://hl7.org/fhir/us/qicore/StructureDefinition/qicore-recorded","valueDateTime":"2013-04-05T09:35:00-04:00"}],"status":"completed","code":{"coding":[{"system":"http://www.cms.gov/Medicare/Coding/ICD10","code":"10D00Z0"},{"system":"http://snomed.info/sct","code":"4504004"},{"system":"http://www.icd10data.com/icd10pcs","code":"10D00Z0","userSelected":true}]},"subject":{"reference":"Patient/e5271b0a-fc73-4edb-a855-828959e04e37"},"performedPeriod":{"start":"2025-06-08T20:00:00.000Z","end":"2025-06-08T20:15:00.000Z"}},"request":{"method":"PUT","url":"Procedure/08b68b2d-c2c7-4a60-9112-e68194c1acdc"}},{"fullUrl":"https://madie.cms.gov/Condition/delivery-of-singleton-4b14","resource":{"resourceType":"Condition","id":"5dd80000-1507-467e-9e5b-1ce63f049917","meta":{"profile":["http://hl7.org/fhir/us/qicore/StructureDefinition/qicore-condition"]},"category":[{"coding":[{"system":"http://terminology.hl7.org/CodeSystem/condition-category","code":"encounter-diagnosis","display":"Encounter Diagnosis"}]}],"code":{"coding":[{"system":"http://snomed.info/sct","version":"2022-09","code":"169826009","display":"Single live birth (finding)","userSelected":true}]},"subject":{"reference":"Patient/e5271b0a-fc73-4edb-a855-828959e04e37"},"recordedDate":"2025-10-21T08:00:00.000+00:00"},"request":{"method":"PUT","url":"Condition/5dd80000-1507-467e-9e5b-1ce63f049917"}},{"fullUrl":"https://madie.cms.gov/Coverage/1","resource":{"resourceType":"Coverage","id":"ae816d3b-7d04-4a4d-926a-b9832e47ecb6","meta":{"profile":["http://hl7.org/fhir/us/qicore/StructureDefinition/qicore-coverage"]},"status":"active","beneficiary":{"reference":"Patient/e5271b0a-fc73-4edb-a855-828959e04e37"},"payor":[{"reference":"Organization/4d7da20f-8773-4347-8f6b-80adcdcee1f4"}]},"request":{"method":"PUT","url":"Coverage/ae816d3b-7d04-4a4d-926a-b9832e47ecb6"}},{"fullUrl":"https://madie.cms.gov/Organization/123456","resource":{"resourceType":"Organization","id":"4d7da20f-8773-4347-8f6b-80adcdcee1f4","meta":{"profile":["http://hl7.org/fhir/us/qicore/StructureDefinition/qicore-organization"]},"identifier":[{"use":"temp","system":"urn:oid:2.16.840.1.113883.4.4","value":"21-3259825"}],"active":true,"type":[{"coding":[{"system":"http://terminology.hl7.org/CodeSystem/organization-type","code":"pay","display":"Payer"}]}],"name":"Blue Cross Blue Shield of Texas","telecom":[{"system":"phone","value":"(+1) 972-766-6900"}],"address":[{"use":"billing","type":"postal","line":["P.O. Box 660044"],"city":"Dallas","state":"TX","postalCode":"75266-0044","country":"USA"}]},"request":{"method":"PUT","url":"Organization/4d7da20f-8773-4347-8f6b-80adcdcee1f4"}},{"fullUrl":"https://madie.cms.gov/Practitioner/practitioner-123456","resource":{"resourceType":"Practitioner","id":"f129fd5d-ac73-4838-a1d0-91a3d34244f7","identifier":[{"system":"http://hl7.org/fhir/sid/us-npi","value":"123456"}],"name":[{"family":"Evil","prefix":["Dr"]}]},"request":{"method":"PUT","url":"Practitioner/f129fd5d-ac73-4838-a1d0-91a3d34244f7"}},{"fullUrl":"https://madie.cms.gov/MeasureReport/b8b1b7b5-d75a-4946-913d-076ef1a305d6","resource":{"resourceType":"MeasureReport","id":"b8b1b7b5-d75a-4946-913d-076ef1a305d6","meta":{"profile":["http://hl7.org/fhir/us/cqfmeasures/StructureDefinition/test-case-cqfm"]},"contained":[{"resourceType":"Parameters","id":"191baae9-d787-4133-a646-5ead710cce30-parameters","parameter":[{"name":"subject","valueString":"e5271b0a-fc73-4edb-a855-828959e04e37"}]}],"extension":[{"url":"http://hl7.org/fhir/us/cqfmeasures/StructureDefinition/cqfm-inputParameters","valueReference":{"reference":"#191baae9-d787-4133-a646-5ead710cce30-parameters"}},{"url":"http://hl7.org/fhir/us/cqfmeasures/StructureDefinition/cqfm-testCaseDescription","valueMarkdown":"\"Preterm Births=1, Rel date/time < 42weeks prior to Asse delivery  FAILS\nTerm Newborn=0, Rel date/time < 42weeks prior to Asse delivery\"\n"}],"modifierExtension":[{"url":"http://hl7.org/fhir/us/cqfmeasures/StructureDefinition/cqfm-isTestCase","valueBoolean":true}],"status":"complete","type":"individual","measure":"https://madie.cms.gov/Measure/CesareanBirthFHIR","period":{"start":"2025-01-01","end":"2025-12-31"},"group":[{"population":[{"code":{"coding":[{"system":"http://terminology.hl7.org/CodeSystem/measure-population","code":"initial-population","display":"Initial Population"}]},"count":1},{"code":{"coding":[{"system":"http://terminology.hl7.org/CodeSystem/measure-population","code":"denominator","display":"Denominator"}]},"count":0},{"code":{"coding":[{"system":"http://terminology.hl7.org/CodeSystem/measure-population","code":"denominator-exclusion","display":"Denominator Exclusion"}]},"count":0},{"code":{"coding":[{"system":"http://terminology.hl7.org/CodeSystem/measure-population","code":"numerator","display":"Numerator"}]},"count":0}]}]},"request":{"method":"PUT","url":"MeasureReport/b8b1b7b5-d75a-4946-913d-076ef1a305d6"}}]}