{"resourceType":"Bundle","id":"tests-655df7e2-45d9-4dab-b218-863126c06ec7-bundle","type":"transaction","entry":[{"fullUrl":"https://madie.cms.gov/Patient/655df7e2-45d9-4dab-b218-863126c06ec7","resource":{"resourceType":"Patient","id":"655df7e2-45d9-4dab-b218-863126c06ec7","meta":{"profile":["http://hl7.org/fhir/us/qicore/StructureDefinition/qicore-patient"]},"text":{"status":"generated","div":"<div xmlns=\"http://www.w3.org/1999/xhtml\"><div class=\"hapiHeaderText\">AgeEQ8 <b>IPPASS </b></div><table class=\"hapiPropertyTable\"><tbody><tr><td>Identifier</td><td>d130de5f4e42b38bd935fc8ebcd660c0e5f442917fd322d307794dfacd0563d2</td></tr><tr><td>Date of birth</td><td><span>14 February 2004</span></td></tr></tbody></table></div>"},"extension":[{"url":"http://hl7.org/fhir/us/core/StructureDefinition/us-core-race","extension":[{"url":"ombCategory","valueCoding":{"system":"urn:oid:2.16.840.1.113883.6.238","code":"1002-5","display":"American Indian or Alaska Native","userSelected":true}},{"url":"text","valueString":"American Indian or Alaska Native"}]},{"url":"http://hl7.org/fhir/us/core/StructureDefinition/us-core-ethnicity","extension":[{"url":"ombCategory","valueCoding":{"system":"urn:oid:2.16.840.1.113883.6.238","code":"2135-2","display":"Hispanic or Latino","userSelected":true}},{"url":"text","valueString":"Hispanic or Latino"}]}],"identifier":[{"type":{"coding":[{"system":"http://terminology.hl7.org/CodeSystem/v2-0203","code":"MR"}]},"system":"https://bonnie-fhir.healthit.gov/","value":"63487c2d0968f80122540149"}],"active":true,"name":[{"use":"usual","family":"IPPass","given":["AgeEQ8"]}],"gender":"female","birthDate":"1940-02-14"},"request":{"method":"PUT","url":"Patient/655df7e2-45d9-4dab-b218-863126c06ec7"}},{"fullUrl":"https://madie.cms.gov/Encounter/5d014eb1b8484608723804ec","resource":{"resourceType":"Encounter","id":"b8d7cb30-0e0c-44e7-b122-9a4a1611d3b5","meta":{"profile":["http://hl7.org/fhir/us/qicore/StructureDefinition/qicore-encounter"]},"status":"finished","class":{"system":"http://terminology.hl7.org/CodeSystem/v3-ActCode","code":"IMP","display":"inpatient encounter"},"type":[{"coding":[{"system":"http://snomed.info/sct","code":"8715000"}]}],"subject":{"reference":"Patient/655df7e2-45d9-4dab-b218-863126c06ec7"},"period":{"start":"2025-11-28T08:00:00.000Z","end":"2025-11-30T08:15:00.000Z"},"diagnosis":[{"condition":{"reference":"Condition/Condition-2"},"use":{"coding":[{"system":"http://snomed.info/sct","code":"169826009","display":"Delivery of Singleton"}]}}]},"request":{"method":"PUT","url":"Encounter/b8d7cb30-0e0c-44e7-b122-9a4a1611d3b5"}},{"fullUrl":"https://madie.cms.gov/Procedure/delivery-procedures-5a3e","resource":{"resourceType":"Procedure","id":"ecd9710d-d469-4244-84f5-5bd7ee0eb3b2","meta":{"profile":["http://hl7.org/fhir/us/qicore/StructureDefinition/qicore-procedure"]},"extension":[{"url":"http://hl7.org/fhir/us/qicore/StructureDefinition/qicore-recorded","valueDateTime":"2013-04-05T09:35:00-04:00"}],"status":"completed","code":{"coding":[{"system":"http://snomed.info/sct","version":"2022-09","code":"10745001","display":"Delivery of transverse presentation (procedure)","userSelected":true}]},"subject":{"reference":"Patient/655df7e2-45d9-4dab-b218-863126c06ec7"},"performedDateTime":"2025-11-28T20:00:00.000+00:00"},"request":{"method":"PUT","url":"Procedure/ecd9710d-d469-4244-84f5-5bd7ee0eb3b2"}},{"fullUrl":"https://madie.cms.gov/Coverage/payer-fa8c","resource":{"resourceType":"Coverage","id":"209ab0e6-94b3-41ed-b91f-69316cb31780","status":"active","type":{"coding":[{"system":"http://www.nlm.nih.gov/research/umls/sop","version":"9.2","code":"1","display":"MEDICARE","userSelected":true}]},"beneficiary":{"reference":"Patient/655df7e2-45d9-4dab-b218-863126c06ec7"},"period":{"start":"2025-11-28T08:00:00.000Z","end":"2025-11-30T08:15:00.000Z"},"payor":[{"reference":"Organization/80573fa1-cf83-4e9a-8f21-86a018689678"}]},"request":{"method":"PUT","url":"Coverage/209ab0e6-94b3-41ed-b91f-69316cb31780"}},{"fullUrl":"https://madie.cms.gov/Organization/123456","resource":{"resourceType":"Organization","id":"80573fa1-cf83-4e9a-8f21-86a018689678","meta":{"profile":["http://hl7.org/fhir/us/qicore/StructureDefinition/qicore-organization"]},"identifier":[{"use":"temp","system":"urn:oid:2.16.840.1.113883.4.4","value":"21-3259825"}],"active":true,"type":[{"coding":[{"system":"http://terminology.hl7.org/CodeSystem/organization-type","code":"pay","display":"Payer"}]}],"name":"Blue Cross Blue Shield of Texas","telecom":[{"system":"phone","value":"(+1) 972-766-6900"}],"address":[{"use":"billing","type":"postal","line":["P.O. Box 660044"],"city":"Dallas","state":"TX","postalCode":"75266-0044","country":"USA"}]},"request":{"method":"PUT","url":"Organization/80573fa1-cf83-4e9a-8f21-86a018689678"}},{"fullUrl":"https://madie.cms.gov/Practitioner/practitioner-123456","resource":{"resourceType":"Practitioner","id":"75e9c85c-d607-4f2a-9493-1e1400e34c0f","identifier":[{"system":"http://hl7.org/fhir/sid/us-npi","value":"123456"}],"name":[{"family":"Evil","prefix":["Dr"]}]},"request":{"method":"PUT","url":"Practitioner/75e9c85c-d607-4f2a-9493-1e1400e34c0f"}},{"fullUrl":"https://madie.cms.gov/MeasureReport/a27e7d51-acdf-4de1-8ba7-44e770795bb2","resource":{"resourceType":"MeasureReport","id":"a27e7d51-acdf-4de1-8ba7-44e770795bb2","meta":{"profile":["http://hl7.org/fhir/us/cqfmeasures/StructureDefinition/test-case-cqfm"]},"contained":[{"resourceType":"Parameters","id":"5e3a3f7f-093f-4294-bdda-c2d9fc999c7b-parameters","parameter":[{"name":"subject","valueString":"655df7e2-45d9-4dab-b218-863126c06ec7"}]}],"extension":[{"url":"http://hl7.org/fhir/us/cqfmeasures/StructureDefinition/cqfm-inputParameters","valueReference":{"reference":"#5e3a3f7f-093f-4294-bdda-c2d9fc999c7b-parameters"}},{"url":"http://hl7.org/fhir/us/cqfmeasures/StructureDefinition/cqfm-testCaseDescription","valueMarkdown":"Pt >65 years of age .  This  is an intentional fail \n"}],"modifierExtension":[{"url":"http://hl7.org/fhir/us/cqfmeasures/StructureDefinition/cqfm-isTestCase","valueBoolean":true}],"status":"complete","type":"individual","measure":"https://madie.cms.gov/Measure/CesareanBirthFHIR","period":{"start":"2025-01-01","end":"2025-12-31"},"group":[{"population":[{"code":{"coding":[{"system":"http://terminology.hl7.org/CodeSystem/measure-population","code":"initial-population","display":"Initial Population"}]},"count":0},{"code":{"coding":[{"system":"http://terminology.hl7.org/CodeSystem/measure-population","code":"denominator","display":"Denominator"}]},"count":0},{"code":{"coding":[{"system":"http://terminology.hl7.org/CodeSystem/measure-population","code":"denominator-exclusion","display":"Denominator Exclusion"}]},"count":0},{"code":{"coding":[{"system":"http://terminology.hl7.org/CodeSystem/measure-population","code":"numerator","display":"Numerator"}]},"count":0}]}]},"request":{"method":"PUT","url":"MeasureReport/a27e7d51-acdf-4de1-8ba7-44e770795bb2"}}]}