{"resourceType":"Bundle","id":"tests-f75e88bd-763c-45ee-9926-da176be47cd9-bundle","type":"transaction","entry":[{"fullUrl":"https://madie.cms.gov/Patient/f75e88bd-763c-45ee-9926-da176be47cd9","resource":{"resourceType":"Patient","id":"f75e88bd-763c-45ee-9926-da176be47cd9","meta":{"profile":["http://hl7.org/fhir/us/qicore/StructureDefinition/qicore-patient"]},"text":{"status":"generated","div":"<div xmlns=\"http://www.w3.org/1999/xhtml\"><div class=\"hapiHeaderText\">EGABadUnit <b>DENFAIL </b></div><table class=\"hapiPropertyTable\"><tbody><tr><td>Identifier</td><td>73d161bbd72a0b8d656073de21758ea0022c984462702bb844daf97a7291f479</td></tr><tr><td>Date of birth</td><td><span>14 February 1985</span></td></tr></tbody></table></div>"},"extension":[{"url":"http://hl7.org/fhir/us/core/StructureDefinition/us-core-race","extension":[{"url":"ombCategory","valueCoding":{"system":"urn:oid:2.16.840.1.113883.6.238","code":"1002-5","display":"American Indian or Alaska Native","userSelected":true}},{"url":"text","valueString":"American Indian or Alaska Native"}]},{"url":"http://hl7.org/fhir/us/core/StructureDefinition/us-core-ethnicity","extension":[{"url":"ombCategory","valueCoding":{"system":"urn:oid:2.16.840.1.113883.6.238","code":"2135-2","display":"Hispanic or Latino","userSelected":true}},{"url":"text","valueString":"Hispanic or Latino"}]}],"identifier":[{"type":{"coding":[{"system":"http://terminology.hl7.org/CodeSystem/v2-0203","code":"MR"}]},"system":"https://bonnie-fhir.healthit.gov/","value":"63487c2f0968f801225401a2"}],"active":true,"name":[{"use":"usual","family":"DENFail","given":["EGABadUnit"]}],"gender":"female","birthDate":"1997-02-14"},"request":{"method":"PUT","url":"Patient/f75e88bd-763c-45ee-9926-da176be47cd9"}},{"fullUrl":"https://madie.cms.gov/Observation/5d014eb2b84846087238059c","resource":{"resourceType":"Observation","id":"b0e46fd3-16c3-4d8d-831f-e26d9f5379f4","meta":{"profile":["http://hl7.org/fhir/us/qicore/StructureDefinition/qicore-observation"]},"status":"final","category":[{"coding":[{"system":"http://terminology.hl7.org/CodeSystem/observation-category","code":"exam","display":"exam","userSelected":true}]}],"code":{"coding":[{"system":"http://loinc.org","code":"11996-6"}]},"subject":{"reference":"Patient/f75e88bd-763c-45ee-9926-da176be47cd9"},"effectiveDateTime":"2025-06-08T08:00:00.000+00:00","valueInteger":1},"request":{"method":"PUT","url":"Observation/b0e46fd3-16c3-4d8d-831f-e26d9f5379f4"}},{"fullUrl":"https://madie.cms.gov/Observation/5d014eb2b84846087238059e","resource":{"resourceType":"Observation","id":"4afa66b3-c8d2-442f-a85a-9b0f736adc1c","meta":{"profile":["http://hl7.org/fhir/us/qicore/StructureDefinition/qicore-observation"]},"status":"final","category":[{"coding":[{"system":"http://terminology.hl7.org/CodeSystem/observation-category","code":"exam","display":"exam","userSelected":true}]}],"code":{"coding":[{"system":"http://loinc.org","code":"11884-4"}]},"subject":{"reference":"Patient/f75e88bd-763c-45ee-9926-da176be47cd9"},"effectiveDateTime":"2025-06-08T09:15:00.000+00:00","valueQuantity":{"value":37.0,"system":"http://unitsofmeasure.org","code":"cm"}},"request":{"method":"PUT","url":"Observation/4afa66b3-c8d2-442f-a85a-9b0f736adc1c"}},{"fullUrl":"https://madie.cms.gov/Observation/5e6938707ffec7000031e98a","resource":{"resourceType":"Observation","id":"222b573f-2cd9-48a7-8ca8-91eae0b8bb39","meta":{"profile":["http://hl7.org/fhir/us/qicore/StructureDefinition/qicore-observation"]},"status":"final","category":[{"coding":[{"system":"http://terminology.hl7.org/CodeSystem/observation-category","code":"exam","display":"exam","userSelected":true}]}],"code":{"coding":[{"system":"http://loinc.org","code":"93857-1"}]},"subject":{"reference":"Patient/f75e88bd-763c-45ee-9926-da176be47cd9"},"effectiveDateTime":"2025-06-08T09:15:00.000+00:00","valueDateTime":"2025-06-08T09:15:00+00:00"},"request":{"method":"PUT","url":"Observation/222b573f-2cd9-48a7-8ca8-91eae0b8bb39"}},{"fullUrl":"https://madie.cms.gov/Encounter/5d014eb2b84846087238059a","resource":{"resourceType":"Encounter","id":"5d73a8f6-6f44-479f-9788-86426e7193dc","meta":{"profile":["http://hl7.org/fhir/us/qicore/StructureDefinition/qicore-encounter"]},"status":"finished","class":{"system":"http://terminology.hl7.org/CodeSystem/v3-ActCode","code":"IMP","display":"inpatient encounter"},"type":[{"coding":[{"system":"http://snomed.info/sct","code":"183452005"}]}],"subject":{"reference":"Patient/f75e88bd-763c-45ee-9926-da176be47cd9"},"period":{"start":"2025-06-08T08:00:00.000Z","end":"2025-06-10T08:15:00.000Z"},"length":{"value":2.0,"unit":"days"},"diagnosis":[{"condition":{"reference":"Condition/delivery-of-singleton-f83c"},"use":{"coding":[{"system":"http://snomed.info/sct","code":"169826009","display":"Delivery of Singleton"}]}},{"condition":{"reference":"Condition/delivery-of-singleton-4b2b"}}]},"request":{"method":"PUT","url":"Encounter/5d73a8f6-6f44-479f-9788-86426e7193dc"}},{"fullUrl":"https://madie.cms.gov/Procedure/5d014eb2b84846087238059b","resource":{"resourceType":"Procedure","id":"7f25b10d-5ff8-472e-8b4d-6d659b2ba418","meta":{"profile":["http://hl7.org/fhir/us/qicore/StructureDefinition/qicore-procedure"]},"extension":[{"url":"http://hl7.org/fhir/us/qicore/StructureDefinition/qicore-recorded","valueDateTime":"2013-04-05T09:35:00-04:00"}],"status":"completed","code":{"coding":[{"system":"http://www.cms.gov/Medicare/Coding/ICD10","code":"10D00Z0"},{"system":"http://www.icd10data.com/icd10pcs","code":"10D00Z0","userSelected":true}]},"subject":{"reference":"Patient/f75e88bd-763c-45ee-9926-da176be47cd9"},"performedPeriod":{"start":"2025-06-08T08:00:00.000Z","end":"2025-06-08T09:15:00.000Z"}},"request":{"method":"PUT","url":"Procedure/7f25b10d-5ff8-472e-8b4d-6d659b2ba418"}},{"fullUrl":"https://madie.cms.gov/Condition/delivery-of-singleton-4b2b","resource":{"resourceType":"Condition","id":"d6cd17c7-3a24-4ba6-bab2-c484d8998362","meta":{"profile":["http://hl7.org/fhir/us/qicore/StructureDefinition/qicore-condition"]},"category":[{"coding":[{"system":"http://terminology.hl7.org/CodeSystem/condition-category","code":"encounter-diagnosis","display":"Encounter Diagnosis"}]}],"code":{"coding":[{"system":"http://snomed.info/sct","version":"2022-09","code":"169826009","display":"Single live birth (finding)","userSelected":true}]},"subject":{"reference":"Patient/f75e88bd-763c-45ee-9926-da176be47cd9"},"recordedDate":"2025-10-21T08:00:00.000+00:00"},"request":{"method":"PUT","url":"Condition/d6cd17c7-3a24-4ba6-bab2-c484d8998362"}},{"fullUrl":"https://madie.cms.gov/Coverage/1","resource":{"resourceType":"Coverage","id":"ada8d613-36d0-4f4c-b67d-4fb0f18a2ad9","meta":{"profile":["http://hl7.org/fhir/us/qicore/StructureDefinition/qicore-coverage"]},"status":"active","beneficiary":{"reference":"Patient/f75e88bd-763c-45ee-9926-da176be47cd9"},"payor":[{"reference":"Organization/a6c3e6fa-301e-4714-9d04-3dde9a7e7c49"}]},"request":{"method":"PUT","url":"Coverage/ada8d613-36d0-4f4c-b67d-4fb0f18a2ad9"}},{"fullUrl":"https://madie.cms.gov/Organization/123456","resource":{"resourceType":"Organization","id":"a6c3e6fa-301e-4714-9d04-3dde9a7e7c49","meta":{"profile":["http://hl7.org/fhir/us/qicore/StructureDefinition/qicore-organization"]},"identifier":[{"use":"temp","system":"urn:oid:2.16.840.1.113883.4.4","value":"21-3259825"}],"active":true,"type":[{"coding":[{"system":"http://terminology.hl7.org/CodeSystem/organization-type","code":"pay","display":"Payer"}]}],"name":"Blue Cross Blue Shield of Texas","telecom":[{"system":"phone","value":"(+1) 972-766-6900"}],"address":[{"use":"billing","type":"postal","line":["P.O. Box 660044"],"city":"Dallas","state":"TX","postalCode":"75266-0044","country":"USA"}]},"request":{"method":"PUT","url":"Organization/a6c3e6fa-301e-4714-9d04-3dde9a7e7c49"}},{"fullUrl":"https://madie.cms.gov/Practitioner/practitioner-123456","resource":{"resourceType":"Practitioner","id":"8ab82ca3-7301-40a3-9d65-45f4b67e8d8f","identifier":[{"system":"http://hl7.org/fhir/sid/us-npi","value":"123456"}],"name":[{"family":"Evil","prefix":["Dr"]}]},"request":{"method":"PUT","url":"Practitioner/8ab82ca3-7301-40a3-9d65-45f4b67e8d8f"}},{"fullUrl":"https://madie.cms.gov/MeasureReport/8c59b0b9-e097-47f5-a80b-4e467aa7dfd9","resource":{"resourceType":"MeasureReport","id":"8c59b0b9-e097-47f5-a80b-4e467aa7dfd9","meta":{"profile":["http://hl7.org/fhir/us/cqfmeasures/StructureDefinition/test-case-cqfm"]},"contained":[{"resourceType":"Parameters","id":"edcc38cc-de30-4017-878d-3331371a9c5e-parameters","parameter":[{"name":"subject","valueString":"f75e88bd-763c-45ee-9926-da176be47cd9"}]}],"extension":[{"url":"http://hl7.org/fhir/us/cqfmeasures/StructureDefinition/cqfm-inputParameters","valueReference":{"reference":"#edcc38cc-de30-4017-878d-3331371a9c5e-parameters"}},{"url":"http://hl7.org/fhir/us/cqfmeasures/StructureDefinition/cqfm-testCaseDescription","valueMarkdown":"Passes: IP, Fails DENOM  Pt is 27 years of age,  encounter dx of delivery of singleton, gravida, EGA @ 37 but the units are bad (not wk or weeks)\n"}],"modifierExtension":[{"url":"http://hl7.org/fhir/us/cqfmeasures/StructureDefinition/cqfm-isTestCase","valueBoolean":true}],"status":"complete","type":"individual","measure":"https://madie.cms.gov/Measure/CesareanBirthFHIR","period":{"start":"2025-01-01","end":"2025-12-31"},"group":[{"population":[{"code":{"coding":[{"system":"http://terminology.hl7.org/CodeSystem/measure-population","code":"initial-population","display":"Initial Population"}]},"count":1},{"code":{"coding":[{"system":"http://terminology.hl7.org/CodeSystem/measure-population","code":"denominator","display":"Denominator"}]},"count":0},{"code":{"coding":[{"system":"http://terminology.hl7.org/CodeSystem/measure-population","code":"denominator-exclusion","display":"Denominator Exclusion"}]},"count":0},{"code":{"coding":[{"system":"http://terminology.hl7.org/CodeSystem/measure-population","code":"numerator","display":"Numerator"}]},"count":0}]}]},"request":{"method":"PUT","url":"MeasureReport/8c59b0b9-e097-47f5-a80b-4e467aa7dfd9"}}]}