{"resourceType":"Bundle","id":"tests-9453e96c-c06a-469b-ab8f-e2cc32dc684c-bundle","type":"transaction","entry":[{"fullUrl":"https://madie.cms.gov/Patient/9453e96c-c06a-469b-ab8f-e2cc32dc684c","resource":{"resourceType":"Patient","id":"9453e96c-c06a-469b-ab8f-e2cc32dc684c","meta":{"profile":["http://hl7.org/fhir/us/qicore/StructureDefinition/qicore-patient"]},"text":{"status":"generated","div":"<div xmlns=\"http://www.w3.org/1999/xhtml\"><div class=\"hapiHeaderText\">AssessPreTerm0RelDtTime1HourAfterDeliv <b>DENFAIL </b></div><table class=\"hapiPropertyTable\"><tbody><tr><td>Identifier</td><td>84b8753708c54db876aad59c3b5dceaad455214447efdaf1a626473420ae0ee9</td></tr><tr><td>Date of birth</td><td><span>14 February 1985</span></td></tr></tbody></table></div>"},"extension":[{"url":"http://hl7.org/fhir/us/core/StructureDefinition/us-core-race","extension":[{"url":"ombCategory","valueCoding":{"system":"urn:oid:2.16.840.1.113883.6.238","code":"1002-5","display":"American Indian or Alaska Native","userSelected":true}},{"url":"text","valueString":"American Indian or Alaska Native"}]},{"url":"http://hl7.org/fhir/us/core/StructureDefinition/us-core-ethnicity","extension":[{"url":"ombCategory","valueCoding":{"system":"urn:oid:2.16.840.1.113883.6.238","code":"2135-2","display":"Hispanic or Latino","userSelected":true}},{"url":"text","valueString":"Hispanic or Latino"}]}],"identifier":[{"type":{"coding":[{"system":"http://terminology.hl7.org/CodeSystem/v2-0203","code":"MR"}]},"system":"https://bonnie-fhir.healthit.gov/","value":"63487c2e0968f80122540185"}],"active":true,"name":[{"use":"usual","family":"DENFail","given":["AssessPreTerm0RelDtTime1HourAfterDeliv"]}],"gender":"female","birthDate":"1997-02-14"},"request":{"method":"PUT","url":"Patient/9453e96c-c06a-469b-ab8f-e2cc32dc684c"}},{"fullUrl":"https://madie.cms.gov/Observation/5d014eb1b8484608723804b4","resource":{"resourceType":"Observation","id":"c6bd3bd7-c1fd-4fe6-865c-f6a77ca90825","meta":{"profile":["http://hl7.org/fhir/us/qicore/StructureDefinition/qicore-observation"]},"status":"final","category":[{"coding":[{"system":"http://terminology.hl7.org/CodeSystem/observation-category","code":"exam","display":"exam","userSelected":true}]}],"code":{"coding":[{"system":"http://loinc.org","code":"11639-2"}]},"subject":{"reference":"Patient/9453e96c-c06a-469b-ab8f-e2cc32dc684c"},"effectiveDateTime":"2024-09-19T09:00:00.000+00:00","valueInteger":0},"request":{"method":"PUT","url":"Observation/c6bd3bd7-c1fd-4fe6-865c-f6a77ca90825"}},{"fullUrl":"https://madie.cms.gov/Observation/5d014eb1b8484608723804b7","resource":{"resourceType":"Observation","id":"0423db71-128d-4c76-bc81-d4a8cdd5f0a3","meta":{"profile":["http://hl7.org/fhir/us/qicore/StructureDefinition/qicore-observation"]},"status":"final","category":[{"coding":[{"system":"http://terminology.hl7.org/CodeSystem/observation-category","code":"exam","display":"exam","userSelected":true}]}],"code":{"coding":[{"system":"http://loinc.org","code":"11884-4"}]},"subject":{"reference":"Patient/9453e96c-c06a-469b-ab8f-e2cc32dc684c"},"effectiveDateTime":"2025-06-08T20:00:00.000+00:00","valueQuantity":{"value":37.0,"system":"http://unitsofmeasure.org","code":"weeks"}},"request":{"method":"PUT","url":"Observation/0423db71-128d-4c76-bc81-d4a8cdd5f0a3"}},{"fullUrl":"https://madie.cms.gov/Observation/5d014eb1b8484608723804b9","resource":{"resourceType":"Observation","id":"52a67480-1b15-4b3e-ad8f-53f9684e1aa5","meta":{"profile":["http://hl7.org/fhir/us/qicore/StructureDefinition/qicore-observation"]},"status":"final","category":[{"coding":[{"system":"http://terminology.hl7.org/CodeSystem/observation-category","code":"exam","display":"exam","userSelected":true}]}],"code":{"coding":[{"system":"http://loinc.org","code":"11637-6"}]},"subject":{"reference":"Patient/9453e96c-c06a-469b-ab8f-e2cc32dc684c"},"effectiveDateTime":"2025-06-08T21:00:00.000+00:00","valueInteger":0},"request":{"method":"PUT","url":"Observation/52a67480-1b15-4b3e-ad8f-53f9684e1aa5"}},{"fullUrl":"https://madie.cms.gov/Observation/5e696ab07ffec70000321dbb","resource":{"resourceType":"Observation","id":"b0a513ae-6b56-4ad5-9957-8e543faef25e","meta":{"profile":["http://hl7.org/fhir/us/qicore/StructureDefinition/qicore-observation"]},"status":"final","category":[{"coding":[{"system":"http://terminology.hl7.org/CodeSystem/observation-category","code":"exam","display":"exam","userSelected":true}]}],"code":{"coding":[{"system":"http://loinc.org","code":"93857-1"}]},"subject":{"reference":"Patient/9453e96c-c06a-469b-ab8f-e2cc32dc684c"},"effectiveDateTime":"2025-06-08T20:00:00.000+00:00","valueDateTime":"2025-06-08T20:00:00+00:00"},"request":{"method":"PUT","url":"Observation/b0a513ae-6b56-4ad5-9957-8e543faef25e"}},{"fullUrl":"https://madie.cms.gov/Encounter/5d014eb1b8484608723804b2","resource":{"resourceType":"Encounter","id":"8a421caa-27b9-48eb-8199-c0bf6524f0f0","meta":{"profile":["http://hl7.org/fhir/us/qicore/StructureDefinition/qicore-encounter"]},"status":"finished","class":{"system":"http://terminology.hl7.org/CodeSystem/v3-ActCode","code":"IMP","display":"inpatient encounter"},"type":[{"coding":[{"system":"http://snomed.info/sct","code":"8715000"}]}],"subject":{"reference":"Patient/9453e96c-c06a-469b-ab8f-e2cc32dc684c"},"period":{"start":"2025-06-08T08:00:00.000Z","end":"2025-06-10T08:15:00.000Z"},"length":{"value":2.0,"unit":"days"},"diagnosis":[{"condition":{"reference":"Condition/delivery-of-singleton-f83c"},"use":{"coding":[{"system":"http://snomed.info/sct","code":"169826009","display":"Delivery of Singleton"}]}},{"condition":{"reference":"Condition/delivery-of-singleton-4b11"}}]},"request":{"method":"PUT","url":"Encounter/8a421caa-27b9-48eb-8199-c0bf6524f0f0"}},{"fullUrl":"https://madie.cms.gov/Procedure/5d014eb1b8484608723804b3","resource":{"resourceType":"Procedure","id":"bfb6c918-053b-48a9-85ac-3a1e34d2aacd","meta":{"profile":["http://hl7.org/fhir/us/qicore/StructureDefinition/qicore-procedure"]},"extension":[{"url":"http://hl7.org/fhir/us/qicore/StructureDefinition/qicore-recorded","valueDateTime":"2013-04-05T09:35:00-04:00"}],"status":"completed","code":{"coding":[{"system":"http://www.cms.gov/Medicare/Coding/ICD10","code":"10D00Z0"},{"system":"http://snomed.info/sct","code":"4504004"},{"system":"http://www.icd10data.com/icd10pcs","code":"10D00Z0","userSelected":true}]},"subject":{"reference":"Patient/9453e96c-c06a-469b-ab8f-e2cc32dc684c"},"performedPeriod":{"start":"2025-06-08T20:00:00.000Z","end":"2025-06-08T20:15:00.000Z"}},"request":{"method":"PUT","url":"Procedure/bfb6c918-053b-48a9-85ac-3a1e34d2aacd"}},{"fullUrl":"https://madie.cms.gov/Condition/delivery-of-singleton-4b11","resource":{"resourceType":"Condition","id":"f42068c4-4c7a-43e7-a643-51df51b785d8","meta":{"profile":["http://hl7.org/fhir/us/qicore/StructureDefinition/qicore-condition"]},"category":[{"coding":[{"system":"http://terminology.hl7.org/CodeSystem/condition-category","code":"encounter-diagnosis","display":"Encounter Diagnosis"}]}],"code":{"coding":[{"system":"http://snomed.info/sct","version":"2022-09","code":"169826009","display":"Single live birth (finding)","userSelected":true}]},"subject":{"reference":"Patient/9453e96c-c06a-469b-ab8f-e2cc32dc684c"},"recordedDate":"2025-10-21T08:00:00.000+00:00"},"request":{"method":"PUT","url":"Condition/f42068c4-4c7a-43e7-a643-51df51b785d8"}},{"fullUrl":"https://madie.cms.gov/Coverage/1","resource":{"resourceType":"Coverage","id":"efb402f9-ac0b-41a0-806b-7b90f62913ea","meta":{"profile":["http://hl7.org/fhir/us/qicore/StructureDefinition/qicore-coverage"]},"status":"active","beneficiary":{"reference":"Patient/9453e96c-c06a-469b-ab8f-e2cc32dc684c"},"payor":[{"reference":"Organization/41c75c00-82d9-4ab2-98f6-cfaf7fc3381d"}]},"request":{"method":"PUT","url":"Coverage/efb402f9-ac0b-41a0-806b-7b90f62913ea"}},{"fullUrl":"https://madie.cms.gov/Organization/123456","resource":{"resourceType":"Organization","id":"41c75c00-82d9-4ab2-98f6-cfaf7fc3381d","meta":{"profile":["http://hl7.org/fhir/us/qicore/StructureDefinition/qicore-organization"]},"identifier":[{"use":"temp","system":"urn:oid:2.16.840.1.113883.4.4","value":"21-3259825"}],"active":true,"type":[{"coding":[{"system":"http://terminology.hl7.org/CodeSystem/organization-type","code":"pay","display":"Payer"}]}],"name":"Blue Cross Blue Shield of Texas","telecom":[{"system":"phone","value":"(+1) 972-766-6900"}],"address":[{"use":"billing","type":"postal","line":["P.O. Box 660044"],"city":"Dallas","state":"TX","postalCode":"75266-0044","country":"USA"}]},"request":{"method":"PUT","url":"Organization/41c75c00-82d9-4ab2-98f6-cfaf7fc3381d"}},{"fullUrl":"https://madie.cms.gov/Practitioner/practitioner-123456","resource":{"resourceType":"Practitioner","id":"cc49076a-8ea5-4d5f-86c4-080fe45f1015","identifier":[{"system":"http://hl7.org/fhir/sid/us-npi","value":"123456"}],"name":[{"family":"Evil","prefix":["Dr"]}]},"request":{"method":"PUT","url":"Practitioner/cc49076a-8ea5-4d5f-86c4-080fe45f1015"}},{"fullUrl":"https://madie.cms.gov/MeasureReport/6cfa72bd-50c8-404e-84a4-82e959f4b093","resource":{"resourceType":"MeasureReport","id":"6cfa72bd-50c8-404e-84a4-82e959f4b093","meta":{"profile":["http://hl7.org/fhir/us/cqfmeasures/StructureDefinition/test-case-cqfm"]},"contained":[{"resourceType":"Parameters","id":"80adb902-3508-4c14-a25d-b569312b067e-parameters","parameter":[{"name":"subject","valueString":"9453e96c-c06a-469b-ab8f-e2cc32dc684c"}]}],"extension":[{"url":"http://hl7.org/fhir/us/cqfmeasures/StructureDefinition/cqfm-inputParameters","valueReference":{"reference":"#80adb902-3508-4c14-a25d-b569312b067e-parameters"}},{"url":"http://hl7.org/fhir/us/cqfmeasures/StructureDefinition/cqfm-testCaseDescription","valueMarkdown":"\"Term Newborn=0,  <42wks B4 Asse delivery.\nPreterm=0, rel date/time 1 hour after delivery Datetime.\nwith note of timing logic needed to constrain the rel date/time time to no later than the time of Asse delivery time, DENOM will Fail\n\"\n"}],"modifierExtension":[{"url":"http://hl7.org/fhir/us/cqfmeasures/StructureDefinition/cqfm-isTestCase","valueBoolean":true}],"status":"complete","type":"individual","measure":"https://madie.cms.gov/Measure/CesareanBirthFHIR","period":{"start":"2025-01-01","end":"2025-12-31"},"group":[{"population":[{"code":{"coding":[{"system":"http://terminology.hl7.org/CodeSystem/measure-population","code":"initial-population","display":"Initial Population"}]},"count":1},{"code":{"coding":[{"system":"http://terminology.hl7.org/CodeSystem/measure-population","code":"denominator","display":"Denominator"}]},"count":0},{"code":{"coding":[{"system":"http://terminology.hl7.org/CodeSystem/measure-population","code":"denominator-exclusion","display":"Denominator Exclusion"}]},"count":0},{"code":{"coding":[{"system":"http://terminology.hl7.org/CodeSystem/measure-population","code":"numerator","display":"Numerator"}]},"count":0}]}]},"request":{"method":"PUT","url":"MeasureReport/6cfa72bd-50c8-404e-84a4-82e959f4b093"}}]}