{"resourceType":"Bundle","id":"tests-36c39312-74f4-4e86-9ef8-0c7e191000eb-bundle","type":"transaction","entry":[{"fullUrl":"https://madie.cms.gov/Patient/36c39312-74f4-4e86-9ef8-0c7e191000eb","resource":{"resourceType":"Patient","id":"36c39312-74f4-4e86-9ef8-0c7e191000eb","meta":{"profile":["http://hl7.org/fhir/us/qicore/StructureDefinition/qicore-patient"]},"text":{"status":"generated","div":"<div xmlns=\"http://www.w3.org/1999/xhtml\"><div class=\"hapiHeaderText\">AssessG1RelDateTime42wks1MinB4TimeOfDeliv <b>DENFAIL </b></div><table class=\"hapiPropertyTable\"><tbody><tr><td>Identifier</td><td>0f2eb4e282584341b7686ff02bcd96001425e71741a668fc2710a83bd8038817</td></tr><tr><td>Date of birth</td><td><span>14 February 1985</span></td></tr></tbody></table></div>"},"extension":[{"url":"http://hl7.org/fhir/us/core/StructureDefinition/us-core-race","extension":[{"url":"ombCategory","valueCoding":{"system":"urn:oid:2.16.840.1.113883.6.238","code":"1002-5","display":"American Indian or Alaska Native","userSelected":true}},{"url":"text","valueString":"American Indian or Alaska Native"}]},{"url":"http://hl7.org/fhir/us/core/StructureDefinition/us-core-ethnicity","extension":[{"url":"ombCategory","valueCoding":{"system":"urn:oid:2.16.840.1.113883.6.238","code":"2135-2","display":"Hispanic or Latino","userSelected":true}},{"url":"text","valueString":"Hispanic or Latino"}]}],"identifier":[{"type":{"coding":[{"system":"http://terminology.hl7.org/CodeSystem/v2-0203","code":"MR"}]},"system":"https://bonnie-fhir.healthit.gov/","value":"63487c2e0968f8012254016d"}],"active":true,"name":[{"use":"usual","family":"DENFail","given":["AssessG1RelDateTime42wks1MinB4TimeOfDeliv"]}],"gender":"female","birthDate":"1997-02-14"},"request":{"method":"PUT","url":"Patient/36c39312-74f4-4e86-9ef8-0c7e191000eb"}},{"fullUrl":"https://madie.cms.gov/Observation/5d014eb2b848460872380580","resource":{"resourceType":"Observation","id":"9aa43b48-4d98-4ec8-a845-2e35934d1b6b","meta":{"profile":["http://hl7.org/fhir/us/qicore/StructureDefinition/qicore-observation"]},"status":"final","category":[{"coding":[{"system":"http://terminology.hl7.org/CodeSystem/observation-category","code":"exam","display":"exam","userSelected":true}]}],"code":{"coding":[{"system":"http://loinc.org","code":"11996-6"}]},"subject":{"reference":"Patient/36c39312-74f4-4e86-9ef8-0c7e191000eb"},"effectiveDateTime":"2025-06-25T18:59:00.000+00:00","valueInteger":1},"request":{"method":"PUT","url":"Observation/9aa43b48-4d98-4ec8-a845-2e35934d1b6b"}},{"fullUrl":"https://madie.cms.gov/Observation/5d014eb2b848460872380582","resource":{"resourceType":"Observation","id":"bdc58b77-c42e-4e4f-b221-0eb0243e7243","meta":{"profile":["http://hl7.org/fhir/us/qicore/StructureDefinition/qicore-observation"]},"status":"final","category":[{"coding":[{"system":"http://terminology.hl7.org/CodeSystem/observation-category","code":"exam","display":"exam","userSelected":true}]}],"code":{"coding":[{"system":"http://loinc.org","code":"11884-4"}]},"subject":{"reference":"Patient/36c39312-74f4-4e86-9ef8-0c7e191000eb"},"effectiveDateTime":"2025-06-08T09:15:00.000+00:00","valueQuantity":{"value":38.0,"system":"http://unitsofmeasure.org","code":"weeks"}},"request":{"method":"PUT","url":"Observation/bdc58b77-c42e-4e4f-b221-0eb0243e7243"}},{"fullUrl":"https://madie.cms.gov/Observation/5e694d537ffec70000320338","resource":{"resourceType":"Observation","id":"7e65e911-b150-48bf-ac9a-493bc6f5ce6e","meta":{"profile":["http://hl7.org/fhir/us/qicore/StructureDefinition/qicore-observation"]},"status":"final","category":[{"coding":[{"system":"http://terminology.hl7.org/CodeSystem/observation-category","code":"exam","display":"exam","userSelected":true}]}],"code":{"coding":[{"system":"http://loinc.org","code":"93857-1"}]},"subject":{"reference":"Patient/36c39312-74f4-4e86-9ef8-0c7e191000eb"},"effectiveDateTime":"2025-06-08T19:00:00.000+00:00","valueDateTime":"2025-06-08T19:00:00+00:00"},"request":{"method":"PUT","url":"Observation/7e65e911-b150-48bf-ac9a-493bc6f5ce6e"}},{"fullUrl":"https://madie.cms.gov/Encounter/5d014eb2b84846087238057e","resource":{"resourceType":"Encounter","id":"a19273b9-64c2-40a0-a677-6768257ce9cb","meta":{"profile":["http://hl7.org/fhir/us/qicore/StructureDefinition/qicore-encounter"]},"status":"finished","class":{"system":"http://terminology.hl7.org/CodeSystem/v3-ActCode","code":"IMP","display":"inpatient encounter"},"type":[{"coding":[{"system":"http://snomed.info/sct","code":"183452005"}]}],"subject":{"reference":"Patient/36c39312-74f4-4e86-9ef8-0c7e191000eb"},"period":{"start":"2025-06-08T08:00:00.000Z","end":"2025-06-10T08:15:00.000Z"},"length":{"value":2.0,"unit":"days"},"diagnosis":[{"condition":{"reference":"Condition/delivery-of-singleton-f83c"},"use":{"coding":[{"system":"http://snomed.info/sct","code":"169826009","display":"Delivery of Singleton"}]}}]},"request":{"method":"PUT","url":"Encounter/a19273b9-64c2-40a0-a677-6768257ce9cb"}},{"fullUrl":"https://madie.cms.gov/Procedure/5d014eb2b84846087238057f","resource":{"resourceType":"Procedure","id":"af54782a-0ab0-42e9-a367-e7d3dd2cc719","meta":{"profile":["http://hl7.org/fhir/us/qicore/StructureDefinition/qicore-procedure"]},"extension":[{"url":"http://hl7.org/fhir/us/qicore/StructureDefinition/qicore-recorded","valueDateTime":"2013-04-05T09:35:00-04:00"}],"status":"completed","code":{"coding":[{"system":"http://www.cms.gov/Medicare/Coding/ICD10","code":"10D07Z3"},{"system":"http://www.icd10data.com/icd10pcs","code":"10D07Z3","userSelected":true}]},"subject":{"reference":"Patient/36c39312-74f4-4e86-9ef8-0c7e191000eb"},"performedPeriod":{"start":"2025-06-08T08:10:00.000Z","end":"2025-06-08T09:14:00.000Z"}},"request":{"method":"PUT","url":"Procedure/af54782a-0ab0-42e9-a367-e7d3dd2cc719"}},{"fullUrl":"https://madie.cms.gov/Coverage/1","resource":{"resourceType":"Coverage","id":"b1695cc4-71a7-44da-80dd-8aa4892c9f16","meta":{"profile":["http://hl7.org/fhir/us/qicore/StructureDefinition/qicore-coverage"]},"status":"active","beneficiary":{"reference":"Patient/36c39312-74f4-4e86-9ef8-0c7e191000eb"},"payor":[{"reference":"Organization/80573fa1-cf83-4e9a-8f21-86a018689678"}]},"request":{"method":"PUT","url":"Coverage/b1695cc4-71a7-44da-80dd-8aa4892c9f16"}},{"fullUrl":"https://madie.cms.gov/Organization/123456","resource":{"resourceType":"Organization","id":"80573fa1-cf83-4e9a-8f21-86a018689678","meta":{"profile":["http://hl7.org/fhir/us/qicore/StructureDefinition/qicore-organization"]},"identifier":[{"use":"temp","system":"urn:oid:2.16.840.1.113883.4.4","value":"21-3259825"}],"active":true,"type":[{"coding":[{"system":"http://terminology.hl7.org/CodeSystem/organization-type","code":"pay","display":"Payer"}]}],"name":"Blue Cross Blue Shield of Texas","telecom":[{"system":"phone","value":"(+1) 972-766-6900"}],"address":[{"use":"billing","type":"postal","line":["P.O. Box 660044"],"city":"Dallas","state":"TX","postalCode":"75266-0044","country":"USA"}]},"request":{"method":"PUT","url":"Organization/80573fa1-cf83-4e9a-8f21-86a018689678"}},{"fullUrl":"https://madie.cms.gov/Condition/delivery-of-singleton-f83c","resource":{"resourceType":"Condition","id":"cbae1c5e-7c92-4ed7-9607-c9c50d00f352","meta":{"profile":["http://hl7.org/fhir/us/qicore/StructureDefinition/qicore-condition"]},"category":[{"coding":[{"system":"http://terminology.hl7.org/CodeSystem/condition-category","code":"encounter-diagnosis","display":"Encounter Diagnosis"}]}],"code":{"coding":[{"system":"http://snomed.info/sct","code":"169826009","display":"Single live birth (finding)"}]},"subject":{"reference":"Patient/36c39312-74f4-4e86-9ef8-0c7e191000eb"}},"request":{"method":"PUT","url":"Condition/cbae1c5e-7c92-4ed7-9607-c9c50d00f352"}},{"fullUrl":"https://madie.cms.gov/Practitioner/practitioner-123456","resource":{"resourceType":"Practitioner","id":"b27a304d-9c25-40c9-982e-5a0f2b49e4f6","identifier":[{"system":"http://hl7.org/fhir/sid/us-npi","value":"123456"}],"name":[{"family":"Evil","prefix":["Dr"]}]},"request":{"method":"PUT","url":"Practitioner/b27a304d-9c25-40c9-982e-5a0f2b49e4f6"}},{"fullUrl":"https://madie.cms.gov/MeasureReport/9c064805-d41f-4209-9ed4-2d67b7e79a6c","resource":{"resourceType":"MeasureReport","id":"9c064805-d41f-4209-9ed4-2d67b7e79a6c","meta":{"profile":["http://hl7.org/fhir/us/cqfmeasures/StructureDefinition/test-case-cqfm"]},"contained":[{"resourceType":"Parameters","id":"65d95cc1-a14d-49af-bd8c-0106b2129955-parameters","parameter":[{"name":"subject","valueString":"36c39312-74f4-4e86-9ef8-0c7e191000eb"}]}],"extension":[{"url":"http://hl7.org/fhir/us/cqfmeasures/StructureDefinition/cqfm-inputParameters","valueReference":{"reference":"#65d95cc1-a14d-49af-bd8c-0106b2129955-parameters"}},{"url":"http://hl7.org/fhir/us/cqfmeasures/StructureDefinition/cqfm-testCaseDescription","valueMarkdown":"Tests that Assess Gravida Rel  Date/Time is no more than 42 weeks before the Time of Delivery  Date/Time.  This case is 42 weeks and 1 min.\n"}],"modifierExtension":[{"url":"http://hl7.org/fhir/us/cqfmeasures/StructureDefinition/cqfm-isTestCase","valueBoolean":true}],"status":"complete","type":"individual","measure":"https://madie.cms.gov/Measure/CesareanBirthFHIR","period":{"start":"2025-01-01","end":"2025-12-31"},"group":[{"population":[{"code":{"coding":[{"system":"http://terminology.hl7.org/CodeSystem/measure-population","code":"initial-population","display":"Initial Population"}]},"count":1},{"code":{"coding":[{"system":"http://terminology.hl7.org/CodeSystem/measure-population","code":"denominator","display":"Denominator"}]},"count":0},{"code":{"coding":[{"system":"http://terminology.hl7.org/CodeSystem/measure-population","code":"denominator-exclusion","display":"Denominator Exclusion"}]},"count":0},{"code":{"coding":[{"system":"http://terminology.hl7.org/CodeSystem/measure-population","code":"numerator","display":"Numerator"}]},"count":0}]}]},"request":{"method":"PUT","url":"MeasureReport/9c064805-d41f-4209-9ed4-2d67b7e79a6c"}}]}