{"resourceType":"Bundle","id":"tests-ef3e4256-a321-4ce0-812b-ec7e7158085a-bundle","type":"transaction","entry":[{"fullUrl":"https://madie.cms.gov/Patient/ef3e4256-a321-4ce0-812b-ec7e7158085a","resource":{"resourceType":"Patient","id":"ef3e4256-a321-4ce0-812b-ec7e7158085a","meta":{"profile":["http://hl7.org/fhir/us/qicore/StructureDefinition/qicore-patient"]},"text":{"status":"generated","div":"<div xmlns=\"http://www.w3.org/1999/xhtml\"><div class=\"hapiHeaderText\">EGAGT37weeks <b>DENPASS </b></div><table class=\"hapiPropertyTable\"><tbody><tr><td>Identifier</td><td>3d63596528a6709b3c477184d2beceba721ef15e438ac396acce60f49e6f846c</td></tr><tr><td>Date of birth</td><td><span>14 February 1985</span></td></tr></tbody></table></div>"},"extension":[{"url":"http://hl7.org/fhir/us/core/StructureDefinition/us-core-race","extension":[{"url":"ombCategory","valueCoding":{"system":"urn:oid:2.16.840.1.113883.6.238","code":"1002-5","display":"American Indian or Alaska Native","userSelected":true}},{"url":"text","valueString":"American Indian or Alaska Native"}]},{"url":"http://hl7.org/fhir/us/core/StructureDefinition/us-core-ethnicity","extension":[{"url":"ombCategory","valueCoding":{"system":"urn:oid:2.16.840.1.113883.6.238","code":"2135-2","display":"Hispanic or Latino","userSelected":true}},{"url":"text","valueString":"Hispanic or Latino"}]}],"identifier":[{"type":{"coding":[{"system":"http://terminology.hl7.org/CodeSystem/v2-0203","code":"MR"}]},"system":"https://bonnie-fhir.healthit.gov/","value":"63487c2e0968f8012254016f"}],"active":true,"name":[{"use":"usual","family":"DENPass","given":["EGAGT37weeks "]}],"gender":"female","birthDate":"1997-02-14"},"request":{"method":"PUT","url":"Patient/ef3e4256-a321-4ce0-812b-ec7e7158085a"}},{"fullUrl":"https://madie.cms.gov/Observation/5d014eb2b848460872380595","resource":{"resourceType":"Observation","id":"5a90c0d2-26bb-43b2-8e55-365ad757f55f","meta":{"profile":["http://hl7.org/fhir/us/qicore/StructureDefinition/qicore-observation"]},"status":"final","category":[{"coding":[{"system":"http://terminology.hl7.org/CodeSystem/observation-category","code":"exam","display":"exam","userSelected":true}]}],"code":{"coding":[{"system":"http://loinc.org","code":"11996-6"}]},"subject":{"reference":"Patient/ef3e4256-a321-4ce0-812b-ec7e7158085a"},"effectiveDateTime":"2025-06-08T08:00:00.000+00:00","valueInteger":1},"request":{"method":"PUT","url":"Observation/5a90c0d2-26bb-43b2-8e55-365ad757f55f"}},{"fullUrl":"https://madie.cms.gov/Observation/5d014eb2b848460872380597","resource":{"resourceType":"Observation","id":"b61bdf2a-edbb-4601-b5c7-c9febe9be5c7","meta":{"profile":["http://hl7.org/fhir/us/qicore/StructureDefinition/qicore-observation"]},"status":"final","category":[{"coding":[{"system":"http://terminology.hl7.org/CodeSystem/observation-category","code":"exam","display":"exam","userSelected":true}]}],"code":{"coding":[{"system":"http://loinc.org","code":"11884-4"}]},"subject":{"reference":"Patient/ef3e4256-a321-4ce0-812b-ec7e7158085a"},"effectiveDateTime":"2025-06-08T09:15:00.000+00:00","valueQuantity":{"value":38.0,"system":"http://unitsofmeasure.org","code":"weeks"}},"request":{"method":"PUT","url":"Observation/b61bdf2a-edbb-4601-b5c7-c9febe9be5c7"}},{"fullUrl":"https://madie.cms.gov/Observation/5e6938d87ffec7000031eaa0","resource":{"resourceType":"Observation","id":"259da764-64da-4c01-978b-11f2100699bf","meta":{"profile":["http://hl7.org/fhir/us/qicore/StructureDefinition/qicore-observation"]},"status":"final","category":[{"coding":[{"system":"http://terminology.hl7.org/CodeSystem/observation-category","code":"exam","display":"exam","userSelected":true}]}],"code":{"coding":[{"system":"http://loinc.org","code":"93857-1"}]},"subject":{"reference":"Patient/ef3e4256-a321-4ce0-812b-ec7e7158085a"},"effectiveDateTime":"2025-06-08T09:15:00.000+00:00","valueDateTime":"2025-06-08T09:15:00+00:00"},"request":{"method":"PUT","url":"Observation/259da764-64da-4c01-978b-11f2100699bf"}},{"fullUrl":"https://madie.cms.gov/Encounter/5d014eb2b848460872380593","resource":{"resourceType":"Encounter","id":"e5867941-1e3e-4f01-96ba-c5043fb3c89b","meta":{"profile":["http://hl7.org/fhir/us/qicore/StructureDefinition/qicore-encounter"]},"status":"finished","class":{"system":"http://terminology.hl7.org/CodeSystem/v3-ActCode","code":"IMP","display":"inpatient encounter"},"type":[{"coding":[{"system":"http://snomed.info/sct","code":"183452005"}]}],"subject":{"reference":"Patient/ef3e4256-a321-4ce0-812b-ec7e7158085a"},"period":{"start":"2025-06-08T08:00:00.000Z","end":"2025-06-10T08:15:00.000Z"},"length":{"value":2.0,"unit":"days"},"diagnosis":[{"condition":{"reference":"Condition/delivery-of-singleton-f83c"},"use":{"coding":[{"system":"http://snomed.info/sct","code":"169826009","display":"Delivery of Singleton"}]}},{"condition":{"reference":"Condition/abnormal-presentation-9a7c"},"use":{"coding":[{"system":"http://snomed.info/sct","code":"18559007","display":"Frank breech presentation (finding)"}]}},{"condition":{"reference":"Condition/delivery-of-singleton-7771"}},{"condition":{"reference":"Condition/abnormal-presentation-9a7c"}}]},"request":{"method":"PUT","url":"Encounter/e5867941-1e3e-4f01-96ba-c5043fb3c89b"}},{"fullUrl":"https://madie.cms.gov/Coverage/5f5f9e491c76ba674bb032ec","resource":{"resourceType":"Coverage","id":"7efd071a-0be5-45fa-a144-1f8e4d816d26","status":"active","beneficiary":{"reference":"Patient/ef3e4256-a321-4ce0-812b-ec7e7158085a"},"period":{"start":"1985-02-14T08:00:00.000Z"},"payor":[{"reference":"Organization/9e9b3f13-a353-4173-b29b-947d6f1f2031"}]},"request":{"method":"PUT","url":"Coverage/7efd071a-0be5-45fa-a144-1f8e4d816d26"}},{"fullUrl":"https://madie.cms.gov/Procedure/5d014eb2b848460872380594","resource":{"resourceType":"Procedure","id":"d06787c6-0687-435b-9b3e-db743e465f71","meta":{"profile":["http://hl7.org/fhir/us/qicore/StructureDefinition/qicore-procedure"]},"extension":[{"url":"http://hl7.org/fhir/us/qicore/StructureDefinition/qicore-recorded","valueDateTime":"2013-04-05T09:35:00-04:00"}],"status":"completed","code":{"coding":[{"system":"http://www.cms.gov/Medicare/Coding/ICD10","code":"10D00Z0"},{"system":"http://www.icd10data.com/icd10pcs","code":"10D07Z3","userSelected":true}]},"subject":{"reference":"Patient/ef3e4256-a321-4ce0-812b-ec7e7158085a"},"performedPeriod":{"start":"2025-06-08T08:00:00.000Z","end":"2025-06-08T09:15:00.000Z"}},"request":{"method":"PUT","url":"Procedure/d06787c6-0687-435b-9b3e-db743e465f71"}},{"fullUrl":"https://madie.cms.gov/Condition/delivery-of-singleton-7771","resource":{"resourceType":"Condition","id":"c4c6b0a9-4400-49eb-a664-c9463065d9d2","meta":{"profile":["http://hl7.org/fhir/us/qicore/StructureDefinition/qicore-condition"]},"category":[{"coding":[{"system":"http://terminology.hl7.org/CodeSystem/condition-category","code":"encounter-diagnosis","display":"Encounter Diagnosis"}]}],"code":{"coding":[{"system":"http://snomed.info/sct","version":"2022-09","code":"169826009","display":"Single live birth (finding)","userSelected":true}]},"subject":{"reference":"Patient/ef3e4256-a321-4ce0-812b-ec7e7158085a"},"recordedDate":"2025-10-20T08:00:00.000+00:00"},"request":{"method":"PUT","url":"Condition/c4c6b0a9-4400-49eb-a664-c9463065d9d2"}},{"fullUrl":"https://madie.cms.gov/Condition/abnormal-presentation-9a7c","resource":{"resourceType":"Condition","id":"cdc9ab14-61cc-4748-99d8-2404e97fa4f4","meta":{"profile":["http://hl7.org/fhir/us/qicore/StructureDefinition/qicore-condition"]},"category":[{"coding":[{"system":"http://terminology.hl7.org/CodeSystem/condition-category","code":"encounter-diagnosis","display":"Encounter Diagnosis"}]}],"code":{"coding":[{"system":"http://snomed.info/sct","version":"2022-09","code":"18559007","display":"Frank breech presentation (finding)","userSelected":true}]},"subject":{"reference":"Patient/ef3e4256-a321-4ce0-812b-ec7e7158085a"},"recordedDate":"2025-10-21T08:00:00.000+00:00"},"request":{"method":"PUT","url":"Condition/cdc9ab14-61cc-4748-99d8-2404e97fa4f4"}},{"fullUrl":"https://madie.cms.gov/Organization/123456","resource":{"resourceType":"Organization","id":"9e9b3f13-a353-4173-b29b-947d6f1f2031","meta":{"profile":["http://hl7.org/fhir/us/qicore/StructureDefinition/qicore-organization"]},"identifier":[{"use":"temp","system":"urn:oid:2.16.840.1.113883.4.4","value":"21-3259825"}],"active":true,"type":[{"coding":[{"system":"http://terminology.hl7.org/CodeSystem/organization-type","code":"pay","display":"Payer"}]}],"name":"Blue Cross Blue Shield of Texas","telecom":[{"system":"phone","value":"(+1) 972-766-6900"}],"address":[{"use":"billing","type":"postal","line":["P.O. Box 660044"],"city":"Dallas","state":"TX","postalCode":"75266-0044","country":"USA"}]},"request":{"method":"PUT","url":"Organization/9e9b3f13-a353-4173-b29b-947d6f1f2031"}},{"fullUrl":"https://madie.cms.gov/Practitioner/practitioner-123456","resource":{"resourceType":"Practitioner","id":"8e629280-be28-4daf-a181-3ca93d4f1fc0","identifier":[{"system":"http://hl7.org/fhir/sid/us-npi","value":"123456"}],"name":[{"family":"Evil","prefix":["Dr"]}]},"request":{"method":"PUT","url":"Practitioner/8e629280-be28-4daf-a181-3ca93d4f1fc0"}},{"fullUrl":"https://madie.cms.gov/MeasureReport/e9fafa20-d9b6-4539-a3ae-a1789f0131d4","resource":{"resourceType":"MeasureReport","id":"e9fafa20-d9b6-4539-a3ae-a1789f0131d4","meta":{"profile":["http://hl7.org/fhir/us/cqfmeasures/StructureDefinition/test-case-cqfm"]},"contained":[{"resourceType":"Parameters","id":"28cd4dd8-adcf-47e4-b0c1-dd74c431b475-parameters","parameter":[{"name":"subject","valueString":"ef3e4256-a321-4ce0-812b-ec7e7158085a"}]}],"extension":[{"url":"http://hl7.org/fhir/us/cqfmeasures/StructureDefinition/cqfm-inputParameters","valueReference":{"reference":"#28cd4dd8-adcf-47e4-b0c1-dd74c431b475-parameters"}},{"url":"http://hl7.org/fhir/us/cqfmeasures/StructureDefinition/cqfm-testCaseDescription","valueMarkdown":"Passes: IP, Pt is 27 years of age,  encounter dx of delivery of singleton, gravida1, EGA38 weeks\n"}],"modifierExtension":[{"url":"http://hl7.org/fhir/us/cqfmeasures/StructureDefinition/cqfm-isTestCase","valueBoolean":true}],"status":"complete","type":"individual","measure":"https://madie.cms.gov/Measure/CesareanBirthFHIR","period":{"start":"2025-01-01","end":"2025-12-31"},"group":[{"population":[{"code":{"coding":[{"system":"http://terminology.hl7.org/CodeSystem/measure-population","code":"initial-population","display":"Initial Population"}]},"count":1},{"code":{"coding":[{"system":"http://terminology.hl7.org/CodeSystem/measure-population","code":"denominator","display":"Denominator"}]},"count":1},{"code":{"coding":[{"system":"http://terminology.hl7.org/CodeSystem/measure-population","code":"denominator-exclusion","display":"Denominator Exclusion"}]},"count":1},{"code":{"coding":[{"system":"http://terminology.hl7.org/CodeSystem/measure-population","code":"numerator","display":"Numerator"}]},"count":0}]}]},"request":{"method":"PUT","url":"MeasureReport/e9fafa20-d9b6-4539-a3ae-a1789f0131d4"}}]}