{"resourceType":"Bundle","id":"tests-8f3e1bc6-45ca-40ae-9e33-e9d97c6df55f-bundle","type":"transaction","entry":[{"fullUrl":"https://madie.cms.gov/Patient/8f3e1bc6-45ca-40ae-9e33-e9d97c6df55f","resource":{"resourceType":"Patient","id":"8f3e1bc6-45ca-40ae-9e33-e9d97c6df55f","meta":{"profile":["http://hl7.org/fhir/us/qicore/StructureDefinition/qicore-patient"]},"text":{"status":"generated","div":"<div xmlns=\"http://www.w3.org/1999/xhtml\"><div class=\"hapiHeaderText\">TermMissingResultAssessPre <b>DENFAIL </b></div><table class=\"hapiPropertyTable\"><tbody><tr><td>Identifier</td><td>f1b9e4b3392b77f1a2fea2b625f7cf28fad883bb54105146a2733314d50d6a83</td></tr><tr><td>Date of birth</td><td><span>14 February 1985</span></td></tr></tbody></table></div>"},"extension":[{"url":"http://hl7.org/fhir/us/core/StructureDefinition/us-core-race","extension":[{"url":"ombCategory","valueCoding":{"system":"urn:oid:2.16.840.1.113883.6.238","code":"1002-5","display":"American Indian or Alaska Native","userSelected":true}},{"url":"text","valueString":"American Indian or Alaska Native"}]},{"url":"http://hl7.org/fhir/us/core/StructureDefinition/us-core-ethnicity","extension":[{"url":"ombCategory","valueCoding":{"system":"urn:oid:2.16.840.1.113883.6.238","code":"2135-2","display":"Hispanic or Latino","userSelected":true}},{"url":"text","valueString":"Hispanic or Latino"}]}],"identifier":[{"type":{"coding":[{"system":"http://terminology.hl7.org/CodeSystem/v2-0203","code":"MR"}]},"system":"https://bonnie-fhir.healthit.gov/","value":"63487c2d0968f8012254015a"}],"active":true,"name":[{"use":"usual","family":"DENFail","given":["TermMissingResultAssessPre"]}],"gender":"female","birthDate":"1997-02-14"},"request":{"method":"PUT","url":"Patient/8f3e1bc6-45ca-40ae-9e33-e9d97c6df55f"}},{"fullUrl":"https://madie.cms.gov/Observation/5d014eb2b848460872380664","resource":{"resourceType":"Observation","id":"02c0b894-5460-48ff-a7e6-ec104f7371dd","meta":{"profile":["http://hl7.org/fhir/us/qicore/StructureDefinition/qicore-observation"]},"status":"final","category":[{"coding":[{"system":"http://terminology.hl7.org/CodeSystem/observation-category","code":"exam","display":"exam","userSelected":true}]}],"code":{"coding":[{"system":"http://loinc.org","code":"11637-6"}]},"subject":{"reference":"Patient/8f3e1bc6-45ca-40ae-9e33-e9d97c6df55f"},"effectiveDateTime":"2024-09-19T09:00:00.000+00:00"},"request":{"method":"PUT","url":"Observation/02c0b894-5460-48ff-a7e6-ec104f7371dd"}},{"fullUrl":"https://madie.cms.gov/Observation/5d014eb2b848460872380665","resource":{"resourceType":"Observation","id":"975cf3a7-776c-4a5d-bb12-6233f11c4037","meta":{"profile":["http://hl7.org/fhir/us/qicore/StructureDefinition/qicore-observation"]},"status":"final","category":[{"coding":[{"system":"http://terminology.hl7.org/CodeSystem/observation-category","code":"exam","display":"exam","userSelected":true}]}],"code":{"coding":[{"system":"http://loinc.org","code":"11639-2"}]},"subject":{"reference":"Patient/8f3e1bc6-45ca-40ae-9e33-e9d97c6df55f"},"effectiveDateTime":"2024-09-19T09:00:00.000+00:00","valueInteger":0},"request":{"method":"PUT","url":"Observation/975cf3a7-776c-4a5d-bb12-6233f11c4037"}},{"fullUrl":"https://madie.cms.gov/Observation/5d014eb2b848460872380668","resource":{"resourceType":"Observation","id":"78db9981-7038-43c2-9004-dc5ab3b46bb0","meta":{"profile":["http://hl7.org/fhir/us/qicore/StructureDefinition/qicore-observation"]},"status":"final","category":[{"coding":[{"system":"http://terminology.hl7.org/CodeSystem/observation-category","code":"exam","display":"exam","userSelected":true}]}],"code":{"coding":[{"system":"http://loinc.org","code":"11884-4"}]},"subject":{"reference":"Patient/8f3e1bc6-45ca-40ae-9e33-e9d97c6df55f"},"effectiveDateTime":"2025-06-08T20:00:00.000+00:00","valueQuantity":{"value":37.0,"system":"http://unitsofmeasure.org","code":"weeks"}},"request":{"method":"PUT","url":"Observation/78db9981-7038-43c2-9004-dc5ab3b46bb0"}},{"fullUrl":"https://madie.cms.gov/Observation/5e696dc27ffec7000032238b","resource":{"resourceType":"Observation","id":"e88f97d4-66fe-47da-8767-42ee6ca8dfdf","meta":{"profile":["http://hl7.org/fhir/us/qicore/StructureDefinition/qicore-observation"]},"status":"final","category":[{"coding":[{"system":"http://terminology.hl7.org/CodeSystem/observation-category","code":"exam","display":"exam","userSelected":true}]}],"code":{"coding":[{"system":"http://loinc.org","code":"93857-1"}]},"subject":{"reference":"Patient/8f3e1bc6-45ca-40ae-9e33-e9d97c6df55f"},"effectiveDateTime":"2025-06-08T20:00:00.000+00:00","valueDateTime":"2025-06-08T20:00:00+00:00"},"request":{"method":"PUT","url":"Observation/e88f97d4-66fe-47da-8767-42ee6ca8dfdf"}},{"fullUrl":"https://madie.cms.gov/Encounter/5d014eb2b848460872380662","resource":{"resourceType":"Encounter","id":"1041fad5-0f73-4e91-9830-5a4e601992df","meta":{"profile":["http://hl7.org/fhir/us/qicore/StructureDefinition/qicore-encounter"]},"status":"finished","class":{"system":"http://terminology.hl7.org/CodeSystem/v3-ActCode","code":"IMP","display":"inpatient encounter"},"type":[{"coding":[{"system":"http://snomed.info/sct","code":"8715000"}]}],"subject":{"reference":"Patient/8f3e1bc6-45ca-40ae-9e33-e9d97c6df55f"},"period":{"start":"2025-06-08T08:00:00.000Z","end":"2025-06-10T08:15:00.000Z"},"length":{"value":2.0,"unit":"days"},"diagnosis":[{"condition":{"reference":"Condition/delivery-of-singleton-f83c"},"use":{"coding":[{"system":"http://snomed.info/sct","code":"169826009","display":"Delivery of Singleton"}]}},{"condition":{"reference":"Condition/delivery-of-singleton-4b31"}}]},"request":{"method":"PUT","url":"Encounter/1041fad5-0f73-4e91-9830-5a4e601992df"}},{"fullUrl":"https://madie.cms.gov/Procedure/5d014eb2b848460872380663","resource":{"resourceType":"Procedure","id":"8a27b98f-e1c8-47c6-abad-21b48f17bee6","meta":{"profile":["http://hl7.org/fhir/us/qicore/StructureDefinition/qicore-procedure"]},"extension":[{"url":"http://hl7.org/fhir/us/qicore/StructureDefinition/qicore-recorded","valueDateTime":"2013-04-05T09:35:00-04:00"}],"status":"completed","code":{"coding":[{"system":"http://www.cms.gov/Medicare/Coding/ICD10","code":"10D00Z0"},{"system":"http://snomed.info/sct","code":"4504004"},{"system":"http://www.icd10data.com/icd10pcs","code":"10D00Z0","userSelected":true}]},"subject":{"reference":"Patient/8f3e1bc6-45ca-40ae-9e33-e9d97c6df55f"},"performedPeriod":{"start":"2025-06-08T20:00:00.000Z","end":"2025-06-08T20:15:00.000Z"}},"request":{"method":"PUT","url":"Procedure/8a27b98f-e1c8-47c6-abad-21b48f17bee6"}},{"fullUrl":"https://madie.cms.gov/Condition/delivery-of-singleton-4b31","resource":{"resourceType":"Condition","id":"c0f323f5-b15a-4247-aa9d-a7cd538eeebf","meta":{"profile":["http://hl7.org/fhir/us/qicore/StructureDefinition/qicore-condition"]},"category":[{"coding":[{"system":"http://terminology.hl7.org/CodeSystem/condition-category","code":"encounter-diagnosis","display":"Encounter Diagnosis"}]}],"code":{"coding":[{"system":"http://snomed.info/sct","version":"2022-09","code":"169826009","display":"Single live birth (finding)","userSelected":true}]},"subject":{"reference":"Patient/8f3e1bc6-45ca-40ae-9e33-e9d97c6df55f"},"recordedDate":"2025-10-21T08:00:00.000+00:00"},"request":{"method":"PUT","url":"Condition/c0f323f5-b15a-4247-aa9d-a7cd538eeebf"}},{"fullUrl":"https://madie.cms.gov/Coverage/1","resource":{"resourceType":"Coverage","id":"6a893f1d-a5c8-4994-aff6-abdd4316bc77","meta":{"profile":["http://hl7.org/fhir/us/qicore/StructureDefinition/qicore-coverage"]},"status":"active","beneficiary":{"reference":"Patient/8f3e1bc6-45ca-40ae-9e33-e9d97c6df55f"},"payor":[{"reference":"Organization/880a275e-1cf2-4fb9-869b-f1d2173fdc2b"}]},"request":{"method":"PUT","url":"Coverage/6a893f1d-a5c8-4994-aff6-abdd4316bc77"}},{"fullUrl":"https://madie.cms.gov/Organization/123456","resource":{"resourceType":"Organization","id":"880a275e-1cf2-4fb9-869b-f1d2173fdc2b","meta":{"profile":["http://hl7.org/fhir/us/qicore/StructureDefinition/qicore-organization"]},"identifier":[{"use":"temp","system":"urn:oid:2.16.840.1.113883.4.4","value":"21-3259825"}],"active":true,"type":[{"coding":[{"system":"http://terminology.hl7.org/CodeSystem/organization-type","code":"pay","display":"Payer"}]}],"name":"Blue Cross Blue Shield of Texas","telecom":[{"system":"phone","value":"(+1) 972-766-6900"}],"address":[{"use":"billing","type":"postal","line":["P.O. Box 660044"],"city":"Dallas","state":"TX","postalCode":"75266-0044","country":"USA"}]},"request":{"method":"PUT","url":"Organization/880a275e-1cf2-4fb9-869b-f1d2173fdc2b"}},{"fullUrl":"https://madie.cms.gov/Practitioner/practitioner-123456","resource":{"resourceType":"Practitioner","id":"4cfe7bec-35e3-4843-9ace-1725f42f557a","identifier":[{"system":"http://hl7.org/fhir/sid/us-npi","value":"123456"}],"name":[{"family":"Evil","prefix":["Dr"]}]},"request":{"method":"PUT","url":"Practitioner/4cfe7bec-35e3-4843-9ace-1725f42f557a"}},{"fullUrl":"https://madie.cms.gov/MeasureReport/cc0da9eb-20f0-448f-b2c1-3a5f7f171ff4","resource":{"resourceType":"MeasureReport","id":"cc0da9eb-20f0-448f-b2c1-3a5f7f171ff4","meta":{"profile":["http://hl7.org/fhir/us/cqfmeasures/StructureDefinition/test-case-cqfm"]},"contained":[{"resourceType":"Parameters","id":"32a450dc-363e-4835-96d9-06c01c7dc091-parameters","parameter":[{"name":"subject","valueString":"8f3e1bc6-45ca-40ae-9e33-e9d97c6df55f"}]}],"extension":[{"url":"http://hl7.org/fhir/us/cqfmeasures/StructureDefinition/cqfm-inputParameters","valueReference":{"reference":"#32a450dc-363e-4835-96d9-06c01c7dc091-parameters"}},{"url":"http://hl7.org/fhir/us/cqfmeasures/StructureDefinition/cqfm-testCaseDescription","valueMarkdown":"\"Preterm Births missing result,   rel date/time < 42weeks prior to asse delivery\nTerm Newborn=0, rel date/time < 42weeks prior to Asse delivery\"\n"}],"modifierExtension":[{"url":"http://hl7.org/fhir/us/cqfmeasures/StructureDefinition/cqfm-isTestCase","valueBoolean":true}],"status":"complete","type":"individual","measure":"https://madie.cms.gov/Measure/CesareanBirthFHIR","period":{"start":"2025-01-01","end":"2025-12-31"},"group":[{"population":[{"code":{"coding":[{"system":"http://terminology.hl7.org/CodeSystem/measure-population","code":"initial-population","display":"Initial Population"}]},"count":1},{"code":{"coding":[{"system":"http://terminology.hl7.org/CodeSystem/measure-population","code":"denominator","display":"Denominator"}]},"count":0},{"code":{"coding":[{"system":"http://terminology.hl7.org/CodeSystem/measure-population","code":"denominator-exclusion","display":"Denominator Exclusion"}]},"count":0},{"code":{"coding":[{"system":"http://terminology.hl7.org/CodeSystem/measure-population","code":"numerator","display":"Numerator"}]},"count":0}]}]},"request":{"method":"PUT","url":"MeasureReport/cc0da9eb-20f0-448f-b2c1-3a5f7f171ff4"}}]}