{"resourceType":"Bundle","id":"tests-ab3b4dcb-6e65-4376-baca-4108d2b0f09d-bundle","type":"transaction","entry":[{"fullUrl":"https://madie.cms.gov/Patient/ab3b4dcb-6e65-4376-baca-4108d2b0f09d","resource":{"resourceType":"Patient","id":"ab3b4dcb-6e65-4376-baca-4108d2b0f09d","meta":{"profile":["http://hl7.org/fhir/us/qicore/StructureDefinition/qicore-patient"]},"text":{"status":"generated","div":"<div xmlns=\"http://www.w3.org/1999/xhtml\"><div class=\"hapiHeaderText\">AssessPreTermMissing <b>DENFAIL </b></div><table class=\"hapiPropertyTable\"><tbody><tr><td>Identifier</td><td>47284949010d749f32cd83413e0f01c0f1855bb8c15a9fdfe12aacdaa615e85b</td></tr><tr><td>Date of birth</td><td><span>14 February 1985</span></td></tr></tbody></table></div>"},"extension":[{"url":"http://hl7.org/fhir/us/core/StructureDefinition/us-core-race","extension":[{"url":"ombCategory","valueCoding":{"system":"urn:oid:2.16.840.1.113883.6.238","code":"1002-5","display":"American Indian or Alaska Native","userSelected":true}},{"url":"text","valueString":"American Indian or Alaska Native"}]},{"url":"http://hl7.org/fhir/us/core/StructureDefinition/us-core-ethnicity","extension":[{"url":"ombCategory","valueCoding":{"system":"urn:oid:2.16.840.1.113883.6.238","code":"2135-2","display":"Hispanic or Latino","userSelected":true}},{"url":"text","valueString":"Hispanic or Latino"}]}],"identifier":[{"type":{"coding":[{"system":"http://terminology.hl7.org/CodeSystem/v2-0203","code":"MR"}]},"system":"https://bonnie-fhir.healthit.gov/","value":"63487c2d0968f80122540159"}],"active":true,"name":[{"use":"usual","family":"DENFail","given":["AssessPreTermMissing "]}],"gender":"female","birthDate":"1997-02-14"},"request":{"method":"PUT","url":"Patient/ab3b4dcb-6e65-4376-baca-4108d2b0f09d"}},{"fullUrl":"https://madie.cms.gov/Observation/5d014eb2b84846087238060e","resource":{"resourceType":"Observation","id":"37459441-aeb4-4ee0-9ef7-c23e66114d87","meta":{"profile":["http://hl7.org/fhir/us/qicore/StructureDefinition/qicore-observation"]},"status":"final","category":[{"coding":[{"system":"http://terminology.hl7.org/CodeSystem/observation-category","code":"exam","display":"exam","userSelected":true}]}],"code":{"coding":[{"system":"http://loinc.org","code":"11639-2"}]},"subject":{"reference":"Patient/ab3b4dcb-6e65-4376-baca-4108d2b0f09d"},"effectiveDateTime":"2024-09-19T09:00:00.000+00:00","valueInteger":0},"request":{"method":"PUT","url":"Observation/37459441-aeb4-4ee0-9ef7-c23e66114d87"}},{"fullUrl":"https://madie.cms.gov/Observation/5d014eb2b848460872380611","resource":{"resourceType":"Observation","id":"3e530e95-66bb-4d4c-bd56-10f184ba312c","meta":{"profile":["http://hl7.org/fhir/us/qicore/StructureDefinition/qicore-observation"]},"status":"final","category":[{"coding":[{"system":"http://terminology.hl7.org/CodeSystem/observation-category","code":"exam","display":"exam","userSelected":true}]}],"code":{"coding":[{"system":"http://loinc.org","code":"11884-4"}]},"subject":{"reference":"Patient/ab3b4dcb-6e65-4376-baca-4108d2b0f09d"},"effectiveDateTime":"2025-06-08T20:00:00.000+00:00","valueQuantity":{"value":37.0,"system":"http://unitsofmeasure.org","code":"weeks"}},"request":{"method":"PUT","url":"Observation/3e530e95-66bb-4d4c-bd56-10f184ba312c"}},{"fullUrl":"https://madie.cms.gov/Observation/5e696d327ffec700003221aa","resource":{"resourceType":"Observation","id":"44d8d846-0828-497d-8650-d46ecfd2f9c5","meta":{"profile":["http://hl7.org/fhir/us/qicore/StructureDefinition/qicore-observation"]},"status":"final","category":[{"coding":[{"system":"http://terminology.hl7.org/CodeSystem/observation-category","code":"exam","display":"exam","userSelected":true}]}],"code":{"coding":[{"system":"http://loinc.org","code":"93857-1"}]},"subject":{"reference":"Patient/ab3b4dcb-6e65-4376-baca-4108d2b0f09d"},"effectiveDateTime":"2025-06-08T20:00:00.000+00:00","valueDateTime":"2025-06-08T20:00:00+00:00"},"request":{"method":"PUT","url":"Observation/44d8d846-0828-497d-8650-d46ecfd2f9c5"}},{"fullUrl":"https://madie.cms.gov/Encounter/5d014eb2b84846087238060c","resource":{"resourceType":"Encounter","id":"8ddfaf42-cb92-4d4f-846c-6e6d3b7eb09d","meta":{"profile":["http://hl7.org/fhir/us/qicore/StructureDefinition/qicore-encounter"]},"status":"finished","class":{"system":"http://terminology.hl7.org/CodeSystem/v3-ActCode","code":"IMP","display":"inpatient encounter"},"type":[{"coding":[{"system":"http://snomed.info/sct","code":"8715000"}]}],"subject":{"reference":"Patient/ab3b4dcb-6e65-4376-baca-4108d2b0f09d"},"period":{"start":"2025-06-08T08:00:00.000Z","end":"2025-06-10T08:15:00.000Z"},"length":{"value":2.0,"unit":"days"},"diagnosis":[{"condition":{"reference":"Condition/delivery-of-singleton-f83c"},"use":{"coding":[{"system":"http://snomed.info/sct","code":"169826009","display":"Delivery of Singleton"}]}},{"condition":{"reference":"Condition/delivery-of-singleton-4b15"}}]},"request":{"method":"PUT","url":"Encounter/8ddfaf42-cb92-4d4f-846c-6e6d3b7eb09d"}},{"fullUrl":"https://madie.cms.gov/Procedure/5d014eb2b84846087238060d","resource":{"resourceType":"Procedure","id":"9e1ccfc5-69a2-4960-9858-18faddd8d9e8","meta":{"profile":["http://hl7.org/fhir/us/qicore/StructureDefinition/qicore-procedure"]},"extension":[{"url":"http://hl7.org/fhir/us/qicore/StructureDefinition/qicore-recorded","valueDateTime":"2013-04-05T09:35:00-04:00"}],"status":"completed","code":{"coding":[{"system":"http://www.cms.gov/Medicare/Coding/ICD10","code":"10D00Z0"},{"system":"http://snomed.info/sct","code":"4504004"},{"system":"http://www.icd10data.com/icd10pcs","code":"10D00Z0","userSelected":true}]},"subject":{"reference":"Patient/ab3b4dcb-6e65-4376-baca-4108d2b0f09d"},"performedPeriod":{"start":"2025-06-08T20:00:00.000Z","end":"2025-06-08T20:15:00.000Z"}},"request":{"method":"PUT","url":"Procedure/9e1ccfc5-69a2-4960-9858-18faddd8d9e8"}},{"fullUrl":"https://madie.cms.gov/Condition/delivery-of-singleton-4b15","resource":{"resourceType":"Condition","id":"b3820db3-ddfe-4c86-8b00-13ac6e0f6d89","meta":{"profile":["http://hl7.org/fhir/us/qicore/StructureDefinition/qicore-condition"]},"category":[{"coding":[{"system":"http://terminology.hl7.org/CodeSystem/condition-category","code":"encounter-diagnosis","display":"Encounter Diagnosis"}]}],"code":{"coding":[{"system":"http://snomed.info/sct","version":"2022-09","code":"169826009","display":"Single live birth (finding)","userSelected":true}]},"subject":{"reference":"Patient/ab3b4dcb-6e65-4376-baca-4108d2b0f09d"},"recordedDate":"2025-10-21T08:00:00.000+00:00"},"request":{"method":"PUT","url":"Condition/b3820db3-ddfe-4c86-8b00-13ac6e0f6d89"}},{"fullUrl":"https://madie.cms.gov/Coverage/1","resource":{"resourceType":"Coverage","id":"657d77bf-50ee-4501-9e10-2f7a39ca5249","meta":{"profile":["http://hl7.org/fhir/us/qicore/StructureDefinition/qicore-coverage"]},"status":"active","beneficiary":{"reference":"Patient/ab3b4dcb-6e65-4376-baca-4108d2b0f09d"},"payor":[{"reference":"Organization/5224cb12-ed64-4d6d-ab28-40a64f0800f1"}]},"request":{"method":"PUT","url":"Coverage/657d77bf-50ee-4501-9e10-2f7a39ca5249"}},{"fullUrl":"https://madie.cms.gov/Organization/123456","resource":{"resourceType":"Organization","id":"5224cb12-ed64-4d6d-ab28-40a64f0800f1","meta":{"profile":["http://hl7.org/fhir/us/qicore/StructureDefinition/qicore-organization"]},"identifier":[{"use":"temp","system":"urn:oid:2.16.840.1.113883.4.4","value":"21-3259825"}],"active":true,"type":[{"coding":[{"system":"http://terminology.hl7.org/CodeSystem/organization-type","code":"pay","display":"Payer"}]}],"name":"Blue Cross Blue Shield of Texas","telecom":[{"system":"phone","value":"(+1) 972-766-6900"}],"address":[{"use":"billing","type":"postal","line":["P.O. Box 660044"],"city":"Dallas","state":"TX","postalCode":"75266-0044","country":"USA"}]},"request":{"method":"PUT","url":"Organization/5224cb12-ed64-4d6d-ab28-40a64f0800f1"}},{"fullUrl":"https://madie.cms.gov/Practitioner/practitioner-123456","resource":{"resourceType":"Practitioner","id":"4723a1d3-571d-4dae-abfa-7adb2678a85e","identifier":[{"system":"http://hl7.org/fhir/sid/us-npi","value":"123456"}],"name":[{"family":"Evil","prefix":["Dr"]}]},"request":{"method":"PUT","url":"Practitioner/4723a1d3-571d-4dae-abfa-7adb2678a85e"}},{"fullUrl":"https://madie.cms.gov/MeasureReport/a2e17ced-bc1d-482d-b59c-db021d357e43","resource":{"resourceType":"MeasureReport","id":"a2e17ced-bc1d-482d-b59c-db021d357e43","meta":{"profile":["http://hl7.org/fhir/us/cqfmeasures/StructureDefinition/test-case-cqfm"]},"contained":[{"resourceType":"Parameters","id":"8cccfb92-34a2-48a3-91d7-44b42fe1d3e2-parameters","parameter":[{"name":"subject","valueString":"ab3b4dcb-6e65-4376-baca-4108d2b0f09d"}]}],"extension":[{"url":"http://hl7.org/fhir/us/cqfmeasures/StructureDefinition/cqfm-inputParameters","valueReference":{"reference":"#8cccfb92-34a2-48a3-91d7-44b42fe1d3e2-parameters"}},{"url":"http://hl7.org/fhir/us/cqfmeasures/StructureDefinition/cqfm-testCaseDescription","valueMarkdown":"\"Preterm Births missing\nTerm Newborn=0, relevant date time < 42weeks prior to Asse delivery\"\n"}],"modifierExtension":[{"url":"http://hl7.org/fhir/us/cqfmeasures/StructureDefinition/cqfm-isTestCase","valueBoolean":true}],"status":"complete","type":"individual","measure":"https://madie.cms.gov/Measure/CesareanBirthFHIR","period":{"start":"2025-01-01","end":"2025-12-31"},"group":[{"population":[{"code":{"coding":[{"system":"http://terminology.hl7.org/CodeSystem/measure-population","code":"initial-population","display":"Initial Population"}]},"count":1},{"code":{"coding":[{"system":"http://terminology.hl7.org/CodeSystem/measure-population","code":"denominator","display":"Denominator"}]},"count":0},{"code":{"coding":[{"system":"http://terminology.hl7.org/CodeSystem/measure-population","code":"denominator-exclusion","display":"Denominator Exclusion"}]},"count":0},{"code":{"coding":[{"system":"http://terminology.hl7.org/CodeSystem/measure-population","code":"numerator","display":"Numerator"}]},"count":0}]}]},"request":{"method":"PUT","url":"MeasureReport/a2e17ced-bc1d-482d-b59c-db021d357e43"}}]}