{"resourceType":"Bundle","id":"tests-de3aa996-43b5-46d9-b8ef-f1839e38470a-bundle","type":"transaction","entry":[{"fullUrl":"https://madie.cms.gov/Patient/de3aa996-43b5-46d9-b8ef-f1839e38470a","resource":{"resourceType":"Patient","id":"de3aa996-43b5-46d9-b8ef-f1839e38470a","meta":{"profile":["http://hl7.org/fhir/us/qicore/StructureDefinition/qicore-patient"]},"text":{"status":"generated","div":"<div xmlns=\"http://www.w3.org/1999/xhtml\"><div class=\"hapiHeaderText\">AssessPreTerm0RelDate41wks6DaysB4DelivDate <b>DENPASS </b></div><table class=\"hapiPropertyTable\"><tbody><tr><td>Identifier</td><td>7960ac075aea8af54af93e2c2cf979cdfee3882ecdb2da9803e3d40be59520f6</td></tr><tr><td>Date of birth</td><td><span>14 February 1985</span></td></tr></tbody></table></div>"},"extension":[{"url":"http://hl7.org/fhir/us/core/StructureDefinition/us-core-race","extension":[{"url":"ombCategory","valueCoding":{"system":"urn:oid:2.16.840.1.113883.6.238","code":"1002-5","display":"American Indian or Alaska Native","userSelected":true}},{"url":"text","valueString":"American Indian or Alaska Native"}]},{"url":"http://hl7.org/fhir/us/core/StructureDefinition/us-core-ethnicity","extension":[{"url":"ombCategory","valueCoding":{"system":"urn:oid:2.16.840.1.113883.6.238","code":"2135-2","display":"Hispanic or Latino","userSelected":true}},{"url":"text","valueString":"Hispanic or Latino"}]}],"identifier":[{"type":{"coding":[{"system":"http://terminology.hl7.org/CodeSystem/v2-0203","code":"MR"}]},"system":"https://bonnie-fhir.healthit.gov/","value":"63487c2d0968f80122540153"}],"active":true,"name":[{"use":"usual","family":"DENPass","given":["AssessPreTerm0RelDate41wks6DaysB4DelivDate"]}],"gender":"female","birthDate":"1997-02-14"},"request":{"method":"PUT","url":"Patient/de3aa996-43b5-46d9-b8ef-f1839e38470a"}},{"fullUrl":"https://madie.cms.gov/Observation/5d014eb1b8484608723804ab","resource":{"resourceType":"Observation","id":"706b0d92-c9f0-4634-a242-5526a8085056","meta":{"profile":["http://hl7.org/fhir/us/qicore/StructureDefinition/qicore-observation"]},"status":"final","category":[{"coding":[{"system":"http://terminology.hl7.org/CodeSystem/observation-category","code":"exam","display":"exam","userSelected":true}]}],"code":{"coding":[{"system":"http://loinc.org","code":"11637-6"}]},"subject":{"reference":"Patient/de3aa996-43b5-46d9-b8ef-f1839e38470a"},"effectiveDateTime":"2024-08-20T09:00:00.000+00:00","valueInteger":0},"request":{"method":"PUT","url":"Observation/706b0d92-c9f0-4634-a242-5526a8085056"}},{"fullUrl":"https://madie.cms.gov/Observation/5d014eb1b8484608723804ad","resource":{"resourceType":"Observation","id":"0ad04bc6-bc99-435e-b9d1-2f58407ec6b0","meta":{"profile":["http://hl7.org/fhir/us/qicore/StructureDefinition/qicore-observation"]},"status":"final","category":[{"coding":[{"system":"http://terminology.hl7.org/CodeSystem/observation-category","code":"exam","display":"exam","userSelected":true}]}],"code":{"coding":[{"system":"http://loinc.org","code":"11639-2"}]},"subject":{"reference":"Patient/de3aa996-43b5-46d9-b8ef-f1839e38470a"},"effectiveDateTime":"2024-09-19T09:00:00.000+00:00","valueInteger":0},"request":{"method":"PUT","url":"Observation/0ad04bc6-bc99-435e-b9d1-2f58407ec6b0"}},{"fullUrl":"https://madie.cms.gov/Observation/5d014eb1b8484608723804af","resource":{"resourceType":"Observation","id":"6d5ba9fb-6b25-4cab-9460-46e32a2a1abc","meta":{"profile":["http://hl7.org/fhir/us/qicore/StructureDefinition/qicore-observation"]},"status":"final","category":[{"coding":[{"system":"http://terminology.hl7.org/CodeSystem/observation-category","code":"exam","display":"exam","userSelected":true}]}],"code":{"coding":[{"system":"http://loinc.org","code":"11884-4"}]},"subject":{"reference":"Patient/de3aa996-43b5-46d9-b8ef-f1839e38470a"},"effectiveDateTime":"2025-06-08T20:00:00.000+00:00","valueQuantity":{"value":37.0,"system":"http://unitsofmeasure.org","code":"weeks"}},"request":{"method":"PUT","url":"Observation/6d5ba9fb-6b25-4cab-9460-46e32a2a1abc"}},{"fullUrl":"https://madie.cms.gov/Observation/5e68ed2159d82f0000c962b3","resource":{"resourceType":"Observation","id":"1695199c-e532-45e2-8e85-bbdd00cbfc22","meta":{"profile":["http://hl7.org/fhir/us/qicore/StructureDefinition/qicore-observation"]},"status":"final","category":[{"coding":[{"system":"http://terminology.hl7.org/CodeSystem/observation-category","code":"exam","display":"exam","userSelected":true}]}],"code":{"coding":[{"system":"http://loinc.org","code":"93857-1"}]},"subject":{"reference":"Patient/de3aa996-43b5-46d9-b8ef-f1839e38470a"},"effectiveDateTime":"2025-06-08T20:00:00.000+00:00","valueDateTime":"2025-06-08T20:00:00+00:00"},"request":{"method":"PUT","url":"Observation/1695199c-e532-45e2-8e85-bbdd00cbfc22"}},{"fullUrl":"https://madie.cms.gov/Encounter/5d014eb1b8484608723804a9","resource":{"resourceType":"Encounter","id":"ff1cde59-e363-431a-a360-37d4856d90da","meta":{"profile":["http://hl7.org/fhir/us/qicore/StructureDefinition/qicore-encounter"]},"status":"finished","class":{"system":"http://terminology.hl7.org/CodeSystem/v3-ActCode","code":"IMP","display":"inpatient encounter"},"type":[{"coding":[{"system":"http://snomed.info/sct","code":"8715000"}]}],"subject":{"reference":"Patient/de3aa996-43b5-46d9-b8ef-f1839e38470a"},"period":{"start":"2025-06-08T08:00:00.000Z","end":"2025-06-10T08:15:00.000Z"},"length":{"value":2.0,"unit":"days"},"diagnosis":[{"condition":{"reference":"Condition/delivery-of-singleton-f83c"},"use":{"coding":[{"system":"http://snomed.info/sct","code":"169826009","display":"Delivery of Singleton"}]}},{"condition":{"reference":"Condition/delivery-of-singleton-9479"}}]},"request":{"method":"PUT","url":"Encounter/ff1cde59-e363-431a-a360-37d4856d90da"}},{"fullUrl":"https://madie.cms.gov/Procedure/5d014eb1b8484608723804aa","resource":{"resourceType":"Procedure","id":"c7144991-f786-4d51-87aa-8cd595054332","meta":{"profile":["http://hl7.org/fhir/us/qicore/StructureDefinition/qicore-procedure"]},"extension":[{"url":"http://hl7.org/fhir/us/qicore/StructureDefinition/qicore-recorded","valueDateTime":"2013-04-05T09:35:00-04:00"}],"status":"completed","code":{"coding":[{"system":"http://www.cms.gov/Medicare/Coding/ICD10","code":"10D00Z0"},{"system":"http://snomed.info/sct","code":"4504004"},{"system":"http://www.icd10data.com/icd10pcs","code":"10D00Z1","userSelected":true}]},"subject":{"reference":"Patient/de3aa996-43b5-46d9-b8ef-f1839e38470a"},"performedPeriod":{"start":"2025-06-08T20:00:00.000Z","end":"2025-06-08T20:15:00.000Z"}},"request":{"method":"PUT","url":"Procedure/c7144991-f786-4d51-87aa-8cd595054332"}},{"fullUrl":"https://madie.cms.gov/Condition/delivery-of-singleton-9479","resource":{"resourceType":"Condition","id":"880422f2-107f-4483-a5d5-a04a1ef8974c","meta":{"profile":["http://hl7.org/fhir/us/qicore/StructureDefinition/qicore-condition"]},"category":[{"coding":[{"system":"http://terminology.hl7.org/CodeSystem/condition-category","code":"encounter-diagnosis","display":"Encounter Diagnosis"}]}],"code":{"coding":[{"system":"http://snomed.info/sct","version":"2022-09","code":"169826009","display":"Single live birth (finding)","userSelected":true}]},"subject":{"reference":"Patient/de3aa996-43b5-46d9-b8ef-f1839e38470a"},"recordedDate":"2025-10-20T08:00:00.000+00:00"},"request":{"method":"PUT","url":"Condition/880422f2-107f-4483-a5d5-a04a1ef8974c"}},{"fullUrl":"https://madie.cms.gov/Coverage/1","resource":{"resourceType":"Coverage","id":"f906148b-c4e4-4c61-9602-a06e87343246","meta":{"profile":["http://hl7.org/fhir/us/qicore/StructureDefinition/qicore-coverage"]},"status":"active","beneficiary":{"reference":"Patient/de3aa996-43b5-46d9-b8ef-f1839e38470a"},"payor":[{"reference":"Organization/a6c3e6fa-301e-4714-9d04-3dde9a7e7c49"}]},"request":{"method":"PUT","url":"Coverage/f906148b-c4e4-4c61-9602-a06e87343246"}},{"fullUrl":"https://madie.cms.gov/Organization/123456","resource":{"resourceType":"Organization","id":"a6c3e6fa-301e-4714-9d04-3dde9a7e7c49","meta":{"profile":["http://hl7.org/fhir/us/qicore/StructureDefinition/qicore-organization"]},"identifier":[{"use":"temp","system":"urn:oid:2.16.840.1.113883.4.4","value":"21-3259825"}],"active":true,"type":[{"coding":[{"system":"http://terminology.hl7.org/CodeSystem/organization-type","code":"pay","display":"Payer"}]}],"name":"Blue Cross Blue Shield of Texas","telecom":[{"system":"phone","value":"(+1) 972-766-6900"}],"address":[{"use":"billing","type":"postal","line":["P.O. Box 660044"],"city":"Dallas","state":"TX","postalCode":"75266-0044","country":"USA"}]},"request":{"method":"PUT","url":"Organization/a6c3e6fa-301e-4714-9d04-3dde9a7e7c49"}},{"fullUrl":"https://madie.cms.gov/Practitioner/practitioner-123456","resource":{"resourceType":"Practitioner","id":"e781aacd-2e57-45b8-ac72-5c87140ab208","identifier":[{"system":"http://hl7.org/fhir/sid/us-npi","value":"123456"}],"name":[{"family":"Evil","prefix":["Dr"]}]},"request":{"method":"PUT","url":"Practitioner/e781aacd-2e57-45b8-ac72-5c87140ab208"}},{"fullUrl":"https://madie.cms.gov/MeasureReport/13cbc60e-aff3-4e31-9467-9c6ac714682a","resource":{"resourceType":"MeasureReport","id":"13cbc60e-aff3-4e31-9467-9c6ac714682a","meta":{"profile":["http://hl7.org/fhir/us/cqfmeasures/StructureDefinition/test-case-cqfm"]},"contained":[{"resourceType":"Parameters","id":"9e49a6c7-649e-4354-a013-874978163524-parameters","parameter":[{"name":"subject","valueString":"de3aa996-43b5-46d9-b8ef-f1839e38470a"}]}],"extension":[{"url":"http://hl7.org/fhir/us/cqfmeasures/StructureDefinition/cqfm-inputParameters","valueReference":{"reference":"#9e49a6c7-649e-4354-a013-874978163524-parameters"}},{"url":"http://hl7.org/fhir/us/cqfmeasures/StructureDefinition/cqfm-testCaseDescription","valueMarkdown":"Preterm Births=0, relevant date  41weeks 6 days prior to Asse delivery date\n"}],"modifierExtension":[{"url":"http://hl7.org/fhir/us/cqfmeasures/StructureDefinition/cqfm-isTestCase","valueBoolean":true}],"status":"complete","type":"individual","measure":"https://madie.cms.gov/Measure/CesareanBirthFHIR","period":{"start":"2025-01-01","end":"2025-12-31"},"group":[{"population":[{"code":{"coding":[{"system":"http://terminology.hl7.org/CodeSystem/measure-population","code":"initial-population","display":"Initial Population"}]},"count":1},{"code":{"coding":[{"system":"http://terminology.hl7.org/CodeSystem/measure-population","code":"denominator","display":"Denominator"}]},"count":1},{"code":{"coding":[{"system":"http://terminology.hl7.org/CodeSystem/measure-population","code":"denominator-exclusion","display":"Denominator Exclusion"}]},"count":0},{"code":{"coding":[{"system":"http://terminology.hl7.org/CodeSystem/measure-population","code":"numerator","display":"Numerator"}]},"count":1}]}]},"request":{"method":"PUT","url":"MeasureReport/13cbc60e-aff3-4e31-9467-9c6ac714682a"}}]}