{"resourceType":"Bundle","id":"tests-1ec8fccf-d982-4dcd-a0df-94b9c1150fd6-bundle","type":"transaction","entry":[{"fullUrl":"https://madie.cms.gov/Patient/1ec8fccf-d982-4dcd-a0df-94b9c1150fd6","resource":{"resourceType":"Patient","id":"1ec8fccf-d982-4dcd-a0df-94b9c1150fd6","meta":{"profile":["http://hl7.org/fhir/us/qicore/StructureDefinition/qicore-patient"]},"text":{"status":"generated","div":"<div xmlns=\"http://www.w3.org/1999/xhtml\"><div class=\"hapiHeaderText\">AssessPerfAbnPresRelDtTimeEQTimeOfDeliv <b>DENEXPASS </b></div><table class=\"hapiPropertyTable\"><tbody><tr><td>Identifier</td><td>026ef11ad83a8a7cf2dd9a5df623df3fb5fe5e8210cfb6bc83e410fca26c8633</td></tr><tr><td>Date of birth</td><td><span>14 February 1985</span></td></tr></tbody></table></div>"},"extension":[{"url":"http://hl7.org/fhir/us/core/StructureDefinition/us-core-race","extension":[{"url":"ombCategory","valueCoding":{"system":"urn:oid:2.16.840.1.113883.6.238","code":"1002-5","display":"American Indian or Alaska Native","userSelected":true}},{"url":"text","valueString":"American Indian or Alaska Native"}]},{"url":"http://hl7.org/fhir/us/core/StructureDefinition/us-core-ethnicity","extension":[{"url":"ombCategory","valueCoding":{"system":"urn:oid:2.16.840.1.113883.6.238","code":"2135-2","display":"Hispanic or Latino","userSelected":true}},{"url":"text","valueString":"Hispanic or Latino"}]}],"identifier":[{"type":{"coding":[{"system":"http://terminology.hl7.org/CodeSystem/v2-0203","code":"MR"}]},"system":"https://bonnie-fhir.healthit.gov/","value":"63487c2f0968f80122540195"}],"active":true,"name":[{"use":"usual","family":"DENEXPass","given":["AssessPerfAbnPresRelDtTimeEQTimeOfDeliv"]}],"gender":"female","birthDate":"1997-02-14"},"request":{"method":"PUT","url":"Patient/1ec8fccf-d982-4dcd-a0df-94b9c1150fd6"}},{"fullUrl":"https://madie.cms.gov/Observation/5d014eb3b8484608723806d1","resource":{"resourceType":"Observation","id":"efcc80c0-5b52-4fd8-8cf7-ab9d14b90e71","meta":{"profile":["http://hl7.org/fhir/us/qicore/StructureDefinition/qicore-observation"]},"status":"final","category":[{"coding":[{"system":"http://terminology.hl7.org/CodeSystem/observation-category","code":"exam","display":"exam","userSelected":true}]}],"code":{"coding":[{"system":"http://loinc.org","code":"11996-6"}]},"subject":{"reference":"Patient/1ec8fccf-d982-4dcd-a0df-94b9c1150fd6"},"effectiveDateTime":"2025-06-08T08:00:00.000+00:00","valueInteger":1},"request":{"method":"PUT","url":"Observation/efcc80c0-5b52-4fd8-8cf7-ab9d14b90e71"}},{"fullUrl":"https://madie.cms.gov/Observation/5d014eb3b8484608723806d3","resource":{"resourceType":"Observation","id":"22b251c9-441f-456f-8d5b-be60e43b699b","meta":{"profile":["http://hl7.org/fhir/us/qicore/StructureDefinition/qicore-observation"]},"status":"final","category":[{"coding":[{"system":"http://terminology.hl7.org/CodeSystem/observation-category","code":"exam","display":"exam","userSelected":true}]}],"code":{"coding":[{"system":"http://loinc.org","code":"11884-4"}]},"subject":{"reference":"Patient/1ec8fccf-d982-4dcd-a0df-94b9c1150fd6"},"effectiveDateTime":"2025-06-08T08:00:00.000+00:00","valueQuantity":{"value":43.0,"system":"http://unitsofmeasure.org","code":"weeks"}},"request":{"method":"PUT","url":"Observation/22b251c9-441f-456f-8d5b-be60e43b699b"}},{"fullUrl":"https://madie.cms.gov/Observation/5e611823eadaae0000c2b50f","resource":{"resourceType":"Observation","id":"1e19245e-2c03-4575-a5a2-ee19ff0fb208","meta":{"profile":["http://hl7.org/fhir/us/qicore/StructureDefinition/qicore-observation"]},"status":"final","category":[{"coding":[{"system":"http://terminology.hl7.org/CodeSystem/observation-category","code":"exam","display":"exam","userSelected":true}]}],"code":{"coding":[{"system":"http://loinc.org","code":"93857-1"}]},"subject":{"reference":"Patient/1ec8fccf-d982-4dcd-a0df-94b9c1150fd6"},"effectiveDateTime":"2025-06-08T20:00:00.000+00:00","valueDateTime":"2025-06-08T20:00:00.000+00:00"},"request":{"method":"PUT","url":"Observation/1e19245e-2c03-4575-a5a2-ee19ff0fb208"}},{"fullUrl":"https://madie.cms.gov/Observation/606dbf4484679a0000f3bb10","resource":{"resourceType":"Observation","id":"b82e23c0-f199-4b7b-a62d-d1ff47d7219b","meta":{"profile":["http://hl7.org/fhir/us/qicore/StructureDefinition/qicore-observation"]},"status":"final","category":[{"coding":[{"system":"http://terminology.hl7.org/CodeSystem/observation-category","code":"exam","display":"exam","userSelected":true}]}],"code":{"coding":[{"system":"http://snomed.info/sct","code":"18559007"}]},"subject":{"reference":"Patient/1ec8fccf-d982-4dcd-a0df-94b9c1150fd6"},"effectiveDateTime":"2025-06-08T20:00:00.000+00:00"},"request":{"method":"PUT","url":"Observation/b82e23c0-f199-4b7b-a62d-d1ff47d7219b"}},{"fullUrl":"https://madie.cms.gov/Encounter/5d014eb3b8484608723806ce","resource":{"resourceType":"Encounter","id":"f3257c08-8b7f-4e9f-9fc1-68cc8e210abf","meta":{"profile":["http://hl7.org/fhir/us/qicore/StructureDefinition/qicore-encounter"]},"status":"finished","class":{"system":"http://terminology.hl7.org/CodeSystem/v3-ActCode","code":"IMP","display":"inpatient encounter"},"type":[{"coding":[{"system":"http://snomed.info/sct","code":"8715000"}]}],"subject":{"reference":"Patient/1ec8fccf-d982-4dcd-a0df-94b9c1150fd6"},"period":{"start":"2025-06-08T08:00:00.000Z","end":"2025-06-10T08:15:00.000Z"},"diagnosis":[{"condition":{"reference":"Condition/delivery-of-singleton-099b"}}]},"request":{"method":"PUT","url":"Encounter/f3257c08-8b7f-4e9f-9fc1-68cc8e210abf"}},{"fullUrl":"https://madie.cms.gov/Procedure/5d014eb3b8484608723806cf","resource":{"resourceType":"Procedure","id":"c8a4badc-15a3-4ea1-b87c-ee4be0eed8b0","meta":{"profile":["http://hl7.org/fhir/us/qicore/StructureDefinition/qicore-procedure"]},"extension":[{"url":"http://hl7.org/fhir/us/qicore/StructureDefinition/qicore-recorded","valueDateTime":"2013-04-05T09:35:00-04:00"}],"status":"completed","code":{"coding":[{"system":"http://www.cms.gov/Medicare/Coding/ICD10","code":"10D00Z0"},{"system":"http://www.icd10data.com/icd10pcs","code":"10D00Z0","userSelected":true}]},"subject":{"reference":"Patient/1ec8fccf-d982-4dcd-a0df-94b9c1150fd6"},"performedDateTime":"2025-06-08T08:00:00.000+00:00"},"request":{"method":"PUT","url":"Procedure/c8a4badc-15a3-4ea1-b87c-ee4be0eed8b0"}},{"fullUrl":"https://madie.cms.gov/Condition/delivery-of-singleton-099b","resource":{"resourceType":"Condition","id":"a21fbe7d-9cae-4f67-82a7-1be6df129468","meta":{"profile":["http://hl7.org/fhir/us/qicore/StructureDefinition/qicore-condition"]},"category":[{"coding":[{"system":"http://terminology.hl7.org/CodeSystem/condition-category","code":"encounter-diagnosis","display":"Encounter Diagnosis"}]}],"code":{"coding":[{"system":"http://snomed.info/sct","version":"2022-09","code":"169826009","display":"Single live birth (finding)","userSelected":true}]},"subject":{"reference":"Patient/1ec8fccf-d982-4dcd-a0df-94b9c1150fd6"},"recordedDate":"2025-10-17T08:00:00.000+00:00"},"request":{"method":"PUT","url":"Condition/a21fbe7d-9cae-4f67-82a7-1be6df129468"}},{"fullUrl":"https://madie.cms.gov/Coverage/1","resource":{"resourceType":"Coverage","id":"e592fc13-a0b9-4679-a623-7110bfd768ff","meta":{"profile":["http://hl7.org/fhir/us/qicore/StructureDefinition/qicore-coverage"]},"status":"active","beneficiary":{"reference":"Patient/1ec8fccf-d982-4dcd-a0df-94b9c1150fd6"},"payor":[{"reference":"Organization/77e4d06f-5e3c-436a-a598-80cefcca5028"}]},"request":{"method":"PUT","url":"Coverage/e592fc13-a0b9-4679-a623-7110bfd768ff"}},{"fullUrl":"https://madie.cms.gov/Organization/123456","resource":{"resourceType":"Organization","id":"77e4d06f-5e3c-436a-a598-80cefcca5028","meta":{"profile":["http://hl7.org/fhir/us/qicore/StructureDefinition/qicore-organization"]},"identifier":[{"use":"temp","system":"urn:oid:2.16.840.1.113883.4.4","value":"21-3259825"}],"active":true,"type":[{"coding":[{"system":"http://terminology.hl7.org/CodeSystem/organization-type","code":"pay","display":"Payer"}]}],"name":"Blue Cross Blue Shield of Texas","telecom":[{"system":"phone","value":"(+1) 972-766-6900"}],"address":[{"use":"billing","type":"postal","line":["P.O. Box 660044"],"city":"Dallas","state":"TX","postalCode":"75266-0044","country":"USA"}]},"request":{"method":"PUT","url":"Organization/77e4d06f-5e3c-436a-a598-80cefcca5028"}},{"fullUrl":"https://madie.cms.gov/Practitioner/practitioner-123456","resource":{"resourceType":"Practitioner","id":"b7034cc9-6092-4362-85f6-ee24e05052c5","identifier":[{"system":"http://hl7.org/fhir/sid/us-npi","value":"123456"}],"name":[{"family":"Evil","prefix":["Dr"]}]},"request":{"method":"PUT","url":"Practitioner/b7034cc9-6092-4362-85f6-ee24e05052c5"}},{"fullUrl":"https://madie.cms.gov/MeasureReport/58c23d87-4fd8-436d-94c2-e9817b9e5388","resource":{"resourceType":"MeasureReport","id":"58c23d87-4fd8-436d-94c2-e9817b9e5388","meta":{"profile":["http://hl7.org/fhir/us/cqfmeasures/StructureDefinition/test-case-cqfm"]},"contained":[{"resourceType":"Parameters","id":"22307db2-6420-4b47-9497-720975e2061e-parameters","parameter":[{"name":"subject","valueString":"1ec8fccf-d982-4dcd-a0df-94b9c1150fd6"}]}],"extension":[{"url":"http://hl7.org/fhir/us/cqfmeasures/StructureDefinition/cqfm-inputParameters","valueReference":{"reference":"#22307db2-6420-4b47-9497-720975e2061e-parameters"}},{"url":"http://hl7.org/fhir/us/cqfmeasures/StructureDefinition/cqfm-testCaseDescription","valueMarkdown":"EGA 43 weeks; Assessment performed Abnormal presentation Relevant Dt/time equal the Date time of obstetric delivery , gravida 1, \n"}],"modifierExtension":[{"url":"http://hl7.org/fhir/us/cqfmeasures/StructureDefinition/cqfm-isTestCase","valueBoolean":true}],"status":"complete","type":"individual","measure":"https://madie.cms.gov/Measure/CesareanBirthFHIR","period":{"start":"2025-01-01","end":"2025-12-31"},"group":[{"population":[{"code":{"coding":[{"system":"http://terminology.hl7.org/CodeSystem/measure-population","code":"initial-population","display":"Initial Population"}]},"count":1},{"code":{"coding":[{"system":"http://terminology.hl7.org/CodeSystem/measure-population","code":"denominator","display":"Denominator"}]},"count":1},{"code":{"coding":[{"system":"http://terminology.hl7.org/CodeSystem/measure-population","code":"denominator-exclusion","display":"Denominator Exclusion"}]},"count":1},{"code":{"coding":[{"system":"http://terminology.hl7.org/CodeSystem/measure-population","code":"numerator","display":"Numerator"}]},"count":0}]}]},"request":{"method":"PUT","url":"MeasureReport/58c23d87-4fd8-436d-94c2-e9817b9e5388"}}]}