{"resourceType":"Bundle","id":"tests-d5827ad0-6e0a-4e2c-b2f5-c8200ddd5f1f-bundle","type":"transaction","entry":[{"fullUrl":"https://madie.cms.gov/Patient/d5827ad0-6e0a-4e2c-b2f5-c8200ddd5f1f","resource":{"resourceType":"Patient","id":"d5827ad0-6e0a-4e2c-b2f5-c8200ddd5f1f","meta":{"profile":["http://hl7.org/fhir/us/qicore/StructureDefinition/qicore-patient"]},"text":{"status":"generated","div":"<div xmlns=\"http://www.w3.org/1999/xhtml\"><div class=\"hapiHeaderText\">AssessP0RelDtTimeGTTimeOfDeliv <b>DENFAIL </b></div><table class=\"hapiPropertyTable\"><tbody><tr><td>Identifier</td><td>e81d53306e1d072e364f4cb1fe55e687c8eb216973693a9d8d3b7a70bc8067a7</td></tr><tr><td>Date of birth</td><td><span>14 February 1985</span></td></tr></tbody></table></div>"},"extension":[{"url":"http://hl7.org/fhir/us/core/StructureDefinition/us-core-race","extension":[{"url":"ombCategory","valueCoding":{"system":"urn:oid:2.16.840.1.113883.6.238","code":"1002-5","display":"American Indian or Alaska Native","userSelected":true}},{"url":"text","valueString":"American Indian or Alaska Native"}]},{"url":"http://hl7.org/fhir/us/core/StructureDefinition/us-core-ethnicity","extension":[{"url":"ombCategory","valueCoding":{"system":"urn:oid:2.16.840.1.113883.6.238","code":"2135-2","display":"Hispanic or Latino","userSelected":true}},{"url":"text","valueString":"Hispanic or Latino"}]}],"identifier":[{"type":{"coding":[{"system":"http://terminology.hl7.org/CodeSystem/v2-0203","code":"MR"}]},"system":"https://bonnie-fhir.healthit.gov/","value":"63487c2e0968f80122540169"}],"active":true,"name":[{"use":"usual","family":"DENFail","given":["AssessP0RelDtTimeGTTimeOfDeliv"]}],"gender":"female","birthDate":"1997-02-14"},"request":{"method":"PUT","url":"Patient/d5827ad0-6e0a-4e2c-b2f5-c8200ddd5f1f"}},{"fullUrl":"https://madie.cms.gov/Observation/5d014eb2b848460872380624","resource":{"resourceType":"Observation","id":"6e815cea-a1a7-40be-8660-ea0bb3314571","meta":{"profile":["http://hl7.org/fhir/us/qicore/StructureDefinition/qicore-observation"]},"status":"final","category":[{"coding":[{"system":"http://terminology.hl7.org/CodeSystem/observation-category","code":"exam","display":"exam","userSelected":true}]}],"code":{"coding":[{"system":"http://loinc.org","code":"11884-4"}]},"subject":{"reference":"Patient/d5827ad0-6e0a-4e2c-b2f5-c8200ddd5f1f"},"issued":"2025-06-08T20:00:00.000+00:00","valueQuantity":{"value":37.0,"system":"http://unitsofmeasure.org","code":"weeks"}},"request":{"method":"PUT","url":"Observation/6e815cea-a1a7-40be-8660-ea0bb3314571"}},{"fullUrl":"https://madie.cms.gov/Observation/5d014eb2b848460872380626","resource":{"resourceType":"Observation","id":"a961e782-92a3-4708-9cca-b77d16e170ec","meta":{"profile":["http://hl7.org/fhir/us/qicore/StructureDefinition/qicore-observation"]},"status":"final","category":[{"coding":[{"system":"http://terminology.hl7.org/CodeSystem/observation-category","code":"exam","display":"exam","userSelected":true}]}],"code":{"coding":[{"system":"http://loinc.org","code":"11977-6"}]},"subject":{"reference":"Patient/d5827ad0-6e0a-4e2c-b2f5-c8200ddd5f1f"},"effectiveDateTime":"2025-06-08T20:01:00.000+00:00","valueInteger":0},"request":{"method":"PUT","url":"Observation/a961e782-92a3-4708-9cca-b77d16e170ec"}},{"fullUrl":"https://madie.cms.gov/Observation/5e6960c87ffec70000321017","resource":{"resourceType":"Observation","id":"1b96e77d-31cf-4ea1-8a16-d688c0e8aa56","meta":{"profile":["http://hl7.org/fhir/us/qicore/StructureDefinition/qicore-observation"]},"status":"final","category":[{"coding":[{"system":"http://terminology.hl7.org/CodeSystem/observation-category","code":"exam","display":"exam","userSelected":true}]}],"code":{"coding":[{"system":"http://loinc.org","code":"93857-1"}]},"subject":{"reference":"Patient/d5827ad0-6e0a-4e2c-b2f5-c8200ddd5f1f"},"effectiveDateTime":"2025-06-08T20:00:00.000+00:00","valueDateTime":"2025-06-08T20:00:00+00:00"},"request":{"method":"PUT","url":"Observation/1b96e77d-31cf-4ea1-8a16-d688c0e8aa56"}},{"fullUrl":"https://madie.cms.gov/Encounter/5d014eb2b848460872380621","resource":{"resourceType":"Encounter","id":"caf61ff5-9508-44db-bb47-1de435b79faa","meta":{"profile":["http://hl7.org/fhir/us/qicore/StructureDefinition/qicore-encounter"]},"status":"finished","class":{"system":"http://terminology.hl7.org/CodeSystem/v3-ActCode","code":"IMP","display":"inpatient encounter"},"type":[{"coding":[{"system":"http://snomed.info/sct","code":"8715000"}]}],"subject":{"reference":"Patient/d5827ad0-6e0a-4e2c-b2f5-c8200ddd5f1f"},"period":{"start":"2025-06-08T08:00:00.000Z","end":"2025-06-10T08:15:00.000Z"},"length":{"value":2.0,"unit":"days"},"diagnosis":[{"condition":{"reference":"Condition/delivery-of-singleton-f83c"},"use":{"coding":[{"system":"http://snomed.info/sct","code":"169826009","display":"Delivery of Singleton"}]}},{"condition":{"reference":"Condition/delivery-of-singleton-4b0b"}}]},"request":{"method":"PUT","url":"Encounter/caf61ff5-9508-44db-bb47-1de435b79faa"}},{"fullUrl":"https://madie.cms.gov/Procedure/5d014eb2b848460872380622","resource":{"resourceType":"Procedure","id":"56dea824-269b-414e-a24a-18f2d3176a6f","meta":{"profile":["http://hl7.org/fhir/us/qicore/StructureDefinition/qicore-procedure"]},"extension":[{"url":"http://hl7.org/fhir/us/qicore/StructureDefinition/qicore-recorded","valueDateTime":"2013-04-05T09:35:00-04:00"}],"status":"completed","code":{"coding":[{"system":"http://www.cms.gov/Medicare/Coding/ICD10","code":"10D00Z0"},{"system":"http://snomed.info/sct","code":"4504004"},{"system":"http://www.icd10data.com/icd10pcs","code":"10D00Z0","userSelected":true}]},"subject":{"reference":"Patient/d5827ad0-6e0a-4e2c-b2f5-c8200ddd5f1f"},"performedPeriod":{"start":"2025-06-08T20:00:00.000Z","end":"2025-06-08T20:15:00.000Z"}},"request":{"method":"PUT","url":"Procedure/56dea824-269b-414e-a24a-18f2d3176a6f"}},{"fullUrl":"https://madie.cms.gov/Condition/delivery-of-singleton-4b0b","resource":{"resourceType":"Condition","id":"05849c6b-ba66-45b1-8f0f-6eab7c0b65ff","meta":{"profile":["http://hl7.org/fhir/us/qicore/StructureDefinition/qicore-condition"]},"category":[{"coding":[{"system":"http://terminology.hl7.org/CodeSystem/condition-category","code":"encounter-diagnosis","display":"Encounter Diagnosis"}]}],"code":{"coding":[{"system":"http://snomed.info/sct","version":"2022-09","code":"169826009","display":"Single live birth (finding)","userSelected":true}]},"subject":{"reference":"Patient/d5827ad0-6e0a-4e2c-b2f5-c8200ddd5f1f"},"recordedDate":"2025-10-21T08:00:00.000+00:00"},"request":{"method":"PUT","url":"Condition/05849c6b-ba66-45b1-8f0f-6eab7c0b65ff"}},{"fullUrl":"https://madie.cms.gov/Coverage/1","resource":{"resourceType":"Coverage","id":"a1480358-989c-4ab6-8210-c2b054e9efe3","meta":{"profile":["http://hl7.org/fhir/us/qicore/StructureDefinition/qicore-coverage"]},"status":"active","beneficiary":{"reference":"Patient/d5827ad0-6e0a-4e2c-b2f5-c8200ddd5f1f"},"payor":[{"reference":"Organization/9e9b3f13-a353-4173-b29b-947d6f1f2031"}]},"request":{"method":"PUT","url":"Coverage/a1480358-989c-4ab6-8210-c2b054e9efe3"}},{"fullUrl":"https://madie.cms.gov/Organization/123456","resource":{"resourceType":"Organization","id":"9e9b3f13-a353-4173-b29b-947d6f1f2031","meta":{"profile":["http://hl7.org/fhir/us/qicore/StructureDefinition/qicore-organization"]},"identifier":[{"use":"temp","system":"urn:oid:2.16.840.1.113883.4.4","value":"21-3259825"}],"active":true,"type":[{"coding":[{"system":"http://terminology.hl7.org/CodeSystem/organization-type","code":"pay","display":"Payer"}]}],"name":"Blue Cross Blue Shield of Texas","telecom":[{"system":"phone","value":"(+1) 972-766-6900"}],"address":[{"use":"billing","type":"postal","line":["P.O. Box 660044"],"city":"Dallas","state":"TX","postalCode":"75266-0044","country":"USA"}]},"request":{"method":"PUT","url":"Organization/9e9b3f13-a353-4173-b29b-947d6f1f2031"}},{"fullUrl":"https://madie.cms.gov/Practitioner/practitioner-123456","resource":{"resourceType":"Practitioner","id":"0bb1bfda-015e-4b83-91a5-06ded100d03b","identifier":[{"system":"http://hl7.org/fhir/sid/us-npi","value":"123456"}],"name":[{"family":"Evil","prefix":["Dr"]}]},"request":{"method":"PUT","url":"Practitioner/0bb1bfda-015e-4b83-91a5-06ded100d03b"}},{"fullUrl":"https://madie.cms.gov/MeasureReport/b1278dbe-07f0-4a76-94da-a470677d809b","resource":{"resourceType":"MeasureReport","id":"b1278dbe-07f0-4a76-94da-a470677d809b","meta":{"profile":["http://hl7.org/fhir/us/cqfmeasures/StructureDefinition/test-case-cqfm"]},"contained":[{"resourceType":"Parameters","id":"8d5abfc9-3e9f-4fd7-935a-ea583f1cd5da-parameters","parameter":[{"name":"subject","valueString":"d5827ad0-6e0a-4e2c-b2f5-c8200ddd5f1f"}]}],"extension":[{"url":"http://hl7.org/fhir/us/cqfmeasures/StructureDefinition/cqfm-inputParameters","valueReference":{"reference":"#8d5abfc9-3e9f-4fd7-935a-ea583f1cd5da-parameters"}},{"url":"http://hl7.org/fhir/us/cqfmeasures/StructureDefinition/cqfm-testCaseDescription","valueMarkdown":"Parity=0, relevant date/time after delivery date and time\n"}],"modifierExtension":[{"url":"http://hl7.org/fhir/us/cqfmeasures/StructureDefinition/cqfm-isTestCase","valueBoolean":true}],"status":"complete","type":"individual","measure":"https://madie.cms.gov/Measure/CesareanBirthFHIR","period":{"start":"2025-01-01","end":"2025-12-31"},"group":[{"population":[{"code":{"coding":[{"system":"http://terminology.hl7.org/CodeSystem/measure-population","code":"initial-population","display":"Initial Population"}]},"count":1},{"code":{"coding":[{"system":"http://terminology.hl7.org/CodeSystem/measure-population","code":"denominator","display":"Denominator"}]},"count":0},{"code":{"coding":[{"system":"http://terminology.hl7.org/CodeSystem/measure-population","code":"denominator-exclusion","display":"Denominator Exclusion"}]},"count":0},{"code":{"coding":[{"system":"http://terminology.hl7.org/CodeSystem/measure-population","code":"numerator","display":"Numerator"}]},"count":0}]}]},"request":{"method":"PUT","url":"MeasureReport/b1278dbe-07f0-4a76-94da-a470677d809b"}}]}