{"resourceType":"Bundle","id":"tests-d0a65261-add9-4696-80c1-4c210eab58bc-bundle","type":"transaction","entry":[{"fullUrl":"https://madie.cms.gov/Patient/d0a65261-add9-4696-80c1-4c210eab58bc","resource":{"resourceType":"Patient","id":"d0a65261-add9-4696-80c1-4c210eab58bc","meta":{"profile":["http://hl7.org/fhir/us/qicore/StructureDefinition/qicore-patient"]},"text":{"status":"generated","div":"<div xmlns=\"http://www.w3.org/1999/xhtml\"><div class=\"hapiHeaderText\">AssessTerm0RelDateEQ42wk1MinB4TimeOfDeliv <b>DENFAIL </b></div><table class=\"hapiPropertyTable\"><tbody><tr><td>Identifier</td><td>471dbe485040e70d089fc9c9b33b02d66b94c84eb0f888d16ec71b1a1a2ae0b0</td></tr><tr><td>Date of birth</td><td><span>14 February 1985</span></td></tr></tbody></table></div>"},"extension":[{"url":"http://hl7.org/fhir/us/core/StructureDefinition/us-core-race","extension":[{"url":"ombCategory","valueCoding":{"system":"urn:oid:2.16.840.1.113883.6.238","code":"1002-5","display":"American Indian or Alaska Native","userSelected":true}},{"url":"text","valueString":"American Indian or Alaska Native"}]},{"url":"http://hl7.org/fhir/us/core/StructureDefinition/us-core-ethnicity","extension":[{"url":"ombCategory","valueCoding":{"system":"urn:oid:2.16.840.1.113883.6.238","code":"2135-2","display":"Hispanic or Latino","userSelected":true}},{"url":"text","valueString":"Hispanic or Latino"}]}],"identifier":[{"type":{"coding":[{"system":"http://terminology.hl7.org/CodeSystem/v2-0203","code":"MR"}]},"system":"https://bonnie-fhir.healthit.gov/","value":"63487c2d0968f8012254015e"}],"active":true,"name":[{"use":"usual","family":"DENFail","given":["AssessTerm0RelDateEQ42wk1MinB4TimeOfDeliv"]}],"gender":"female","birthDate":"1997-02-14"},"request":{"method":"PUT","url":"Patient/d0a65261-add9-4696-80c1-4c210eab58bc"}},{"fullUrl":"https://madie.cms.gov/Observation/5d014eb1b8484608723804bd","resource":{"resourceType":"Observation","id":"56cc80a7-f02f-467a-b32f-0a0dadefc939","meta":{"profile":["http://hl7.org/fhir/us/qicore/StructureDefinition/qicore-observation"]},"status":"final","category":[{"coding":[{"system":"http://terminology.hl7.org/CodeSystem/observation-category","code":"exam","display":"exam","userSelected":true}]}],"code":{"coding":[{"system":"http://loinc.org","code":"11639-2"}]},"subject":{"reference":"Patient/d0a65261-add9-4696-80c1-4c210eab58bc"},"effectiveDateTime":"2024-08-14T18:59:00.000+00:00","valueInteger":0},"request":{"method":"PUT","url":"Observation/56cc80a7-f02f-467a-b32f-0a0dadefc939"}},{"fullUrl":"https://madie.cms.gov/Observation/5d014eb1b8484608723804bf","resource":{"resourceType":"Observation","id":"807c4996-b025-4a24-b6f8-fe2f0d3f7417","meta":{"profile":["http://hl7.org/fhir/us/qicore/StructureDefinition/qicore-observation"]},"status":"final","category":[{"coding":[{"system":"http://terminology.hl7.org/CodeSystem/observation-category","code":"exam","display":"exam","userSelected":true}]}],"code":{"coding":[{"system":"http://loinc.org","code":"11637-6"}]},"subject":{"reference":"Patient/d0a65261-add9-4696-80c1-4c210eab58bc"},"effectiveDateTime":"2024-08-19T19:01:00.000+00:00","valueInteger":0},"request":{"method":"PUT","url":"Observation/807c4996-b025-4a24-b6f8-fe2f0d3f7417"}},{"fullUrl":"https://madie.cms.gov/Observation/5d014eb1b8484608723804c2","resource":{"resourceType":"Observation","id":"f156388e-da58-402a-8ed7-104ba59aefb9","meta":{"profile":["http://hl7.org/fhir/us/qicore/StructureDefinition/qicore-observation"]},"status":"final","category":[{"coding":[{"system":"http://terminology.hl7.org/CodeSystem/observation-category","code":"exam","display":"exam","userSelected":true}]}],"code":{"coding":[{"system":"http://loinc.org","code":"11884-4"}]},"subject":{"reference":"Patient/d0a65261-add9-4696-80c1-4c210eab58bc"},"effectiveDateTime":"2025-06-08T19:00:00.000+00:00","valueQuantity":{"value":37.0,"system":"http://unitsofmeasure.org","code":"weeks"}},"request":{"method":"PUT","url":"Observation/f156388e-da58-402a-8ed7-104ba59aefb9"}},{"fullUrl":"https://madie.cms.gov/Observation/5e696ed27ffec70000322567","resource":{"resourceType":"Observation","id":"298e8a72-73f1-433b-8a5d-a08db1468baa","meta":{"profile":["http://hl7.org/fhir/us/qicore/StructureDefinition/qicore-observation"]},"status":"final","category":[{"coding":[{"system":"http://terminology.hl7.org/CodeSystem/observation-category","code":"exam","display":"exam","userSelected":true}]}],"code":{"coding":[{"system":"http://loinc.org","code":"93857-1"}]},"subject":{"reference":"Patient/d0a65261-add9-4696-80c1-4c210eab58bc"},"effectiveDateTime":"2025-06-08T19:00:00.000+00:00","valueDateTime":"2025-06-08T19:00:00+00:00"},"request":{"method":"PUT","url":"Observation/298e8a72-73f1-433b-8a5d-a08db1468baa"}},{"fullUrl":"https://madie.cms.gov/Encounter/5d014eb1b8484608723804bb","resource":{"resourceType":"Encounter","id":"5349110d-eece-4bd1-ba4b-047c018cdaec","meta":{"profile":["http://hl7.org/fhir/us/qicore/StructureDefinition/qicore-encounter"]},"status":"finished","class":{"system":"http://terminology.hl7.org/CodeSystem/v3-ActCode","code":"IMP","display":"inpatient encounter"},"type":[{"coding":[{"system":"http://snomed.info/sct","code":"8715000"}]}],"subject":{"reference":"Patient/d0a65261-add9-4696-80c1-4c210eab58bc"},"period":{"start":"2025-06-08T08:00:00.000Z","end":"2025-06-10T08:15:00.000Z"},"length":{"value":2.0,"unit":"days"},"diagnosis":[{"condition":{"reference":"Condition/delivery-of-singleton-f83c"},"use":{"coding":[{"system":"http://snomed.info/sct","code":"169826009","display":"Delivery of Singleton"}]}},{"condition":{"reference":"Condition/delivery-of-singleton-4b18"}}]},"request":{"method":"PUT","url":"Encounter/5349110d-eece-4bd1-ba4b-047c018cdaec"}},{"fullUrl":"https://madie.cms.gov/Procedure/5d014eb1b8484608723804bc","resource":{"resourceType":"Procedure","id":"772a6746-7b1f-49b4-aaa8-2d5dca7de971","meta":{"profile":["http://hl7.org/fhir/us/qicore/StructureDefinition/qicore-procedure"]},"extension":[{"url":"http://hl7.org/fhir/us/qicore/StructureDefinition/qicore-recorded","valueDateTime":"2013-04-05T09:35:00-04:00"}],"status":"completed","code":{"coding":[{"system":"http://www.cms.gov/Medicare/Coding/ICD10","code":"10D00Z0"},{"system":"http://snomed.info/sct","code":"4504004"},{"system":"http://www.icd10data.com/icd10pcs","code":"10D00Z0","userSelected":true}]},"subject":{"reference":"Patient/d0a65261-add9-4696-80c1-4c210eab58bc"},"performedPeriod":{"start":"2025-06-08T20:00:00.000Z","end":"2025-06-08T20:15:00.000Z"}},"request":{"method":"PUT","url":"Procedure/772a6746-7b1f-49b4-aaa8-2d5dca7de971"}},{"fullUrl":"https://madie.cms.gov/Condition/delivery-of-singleton-4b18","resource":{"resourceType":"Condition","id":"753dc719-b2de-4bf5-ba08-f6816ff353de","meta":{"profile":["http://hl7.org/fhir/us/qicore/StructureDefinition/qicore-condition"]},"category":[{"coding":[{"system":"http://terminology.hl7.org/CodeSystem/condition-category","code":"encounter-diagnosis","display":"Encounter Diagnosis"}]}],"code":{"coding":[{"system":"http://snomed.info/sct","version":"2022-09","code":"169826009","display":"Single live birth (finding)","userSelected":true}]},"subject":{"reference":"Patient/d0a65261-add9-4696-80c1-4c210eab58bc"},"recordedDate":"2025-10-21T08:00:00.000+00:00"},"request":{"method":"PUT","url":"Condition/753dc719-b2de-4bf5-ba08-f6816ff353de"}},{"fullUrl":"https://madie.cms.gov/Coverage/1","resource":{"resourceType":"Coverage","id":"91fcfc0d-7a1b-462c-9868-d5be73379040","meta":{"profile":["http://hl7.org/fhir/us/qicore/StructureDefinition/qicore-coverage"]},"status":"active","beneficiary":{"reference":"Patient/d0a65261-add9-4696-80c1-4c210eab58bc"},"payor":[{"reference":"Organization/41c75c00-82d9-4ab2-98f6-cfaf7fc3381d"}]},"request":{"method":"PUT","url":"Coverage/91fcfc0d-7a1b-462c-9868-d5be73379040"}},{"fullUrl":"https://madie.cms.gov/Organization/123456","resource":{"resourceType":"Organization","id":"41c75c00-82d9-4ab2-98f6-cfaf7fc3381d","meta":{"profile":["http://hl7.org/fhir/us/qicore/StructureDefinition/qicore-organization"]},"identifier":[{"use":"temp","system":"urn:oid:2.16.840.1.113883.4.4","value":"21-3259825"}],"active":true,"type":[{"coding":[{"system":"http://terminology.hl7.org/CodeSystem/organization-type","code":"pay","display":"Payer"}]}],"name":"Blue Cross Blue Shield of Texas","telecom":[{"system":"phone","value":"(+1) 972-766-6900"}],"address":[{"use":"billing","type":"postal","line":["P.O. Box 660044"],"city":"Dallas","state":"TX","postalCode":"75266-0044","country":"USA"}]},"request":{"method":"PUT","url":"Organization/41c75c00-82d9-4ab2-98f6-cfaf7fc3381d"}},{"fullUrl":"https://madie.cms.gov/Practitioner/practitioner-123456","resource":{"resourceType":"Practitioner","id":"32c9b079-eda1-4ca2-b977-7f95acea8b2c","identifier":[{"system":"http://hl7.org/fhir/sid/us-npi","value":"123456"}],"name":[{"family":"Evil","prefix":["Dr"]}]},"request":{"method":"PUT","url":"Practitioner/32c9b079-eda1-4ca2-b977-7f95acea8b2c"}},{"fullUrl":"https://madie.cms.gov/MeasureReport/4511d2b4-17f2-4d60-bc6c-8f663822734b","resource":{"resourceType":"MeasureReport","id":"4511d2b4-17f2-4d60-bc6c-8f663822734b","meta":{"profile":["http://hl7.org/fhir/us/cqfmeasures/StructureDefinition/test-case-cqfm"]},"contained":[{"resourceType":"Parameters","id":"c2bcb797-7096-4ca0-a449-08e5e7b3fc02-parameters","parameter":[{"name":"subject","valueString":"d0a65261-add9-4696-80c1-4c210eab58bc"}]}],"extension":[{"url":"http://hl7.org/fhir/us/cqfmeasures/StructureDefinition/cqfm-inputParameters","valueReference":{"reference":"#c2bcb797-7096-4ca0-a449-08e5e7b3fc02-parameters"}},{"url":"http://hl7.org/fhir/us/cqfmeasures/StructureDefinition/cqfm-testCaseDescription","valueMarkdown":"\"Preterm Births=0, authored < 42weeks prior to Asse delivery \nTerm Newborn=0, authored, 42weeks, 1 min prior to Asse delivery\"\n"}],"modifierExtension":[{"url":"http://hl7.org/fhir/us/cqfmeasures/StructureDefinition/cqfm-isTestCase","valueBoolean":true}],"status":"complete","type":"individual","measure":"https://madie.cms.gov/Measure/CesareanBirthFHIR","period":{"start":"2025-01-01","end":"2025-12-31"},"group":[{"population":[{"code":{"coding":[{"system":"http://terminology.hl7.org/CodeSystem/measure-population","code":"initial-population","display":"Initial Population"}]},"count":1},{"code":{"coding":[{"system":"http://terminology.hl7.org/CodeSystem/measure-population","code":"denominator","display":"Denominator"}]},"count":0},{"code":{"coding":[{"system":"http://terminology.hl7.org/CodeSystem/measure-population","code":"denominator-exclusion","display":"Denominator Exclusion"}]},"count":0},{"code":{"coding":[{"system":"http://terminology.hl7.org/CodeSystem/measure-population","code":"numerator","display":"Numerator"}]},"count":0}]}]},"request":{"method":"PUT","url":"MeasureReport/4511d2b4-17f2-4d60-bc6c-8f663822734b"}}]}