{"resourceType":"Bundle","id":"tests-cb800af9-771b-4850-a175-8e3b9ffbbfc3-bundle","type":"transaction","entry":[{"fullUrl":"https://madie.cms.gov/Patient/cb800af9-771b-4850-a175-8e3b9ffbbfc3","resource":{"resourceType":"Patient","id":"cb800af9-771b-4850-a175-8e3b9ffbbfc3","meta":{"profile":["http://hl7.org/fhir/us/qicore/StructureDefinition/qicore-patient"]},"text":{"status":"generated","div":"<div xmlns=\"http://www.w3.org/1999/xhtml\"><div class=\"hapiHeaderText\">EncInpEndsAfterMP <b>IPFAIL </b></div><table class=\"hapiPropertyTable\"><tbody><tr><td>Identifier</td><td>719f24c2b902a07360c37477b88fc86f45141869da55baa10ce27b78f5f673ff</td></tr><tr><td>Date of birth</td><td><span>28 August 1989</span></td></tr></tbody></table></div>"},"extension":[{"url":"http://hl7.org/fhir/us/core/StructureDefinition/us-core-race","extension":[{"url":"ombCategory","valueCoding":{"system":"urn:oid:2.16.840.1.113883.6.238","code":"1002-5","display":"American Indian or Alaska Native","userSelected":true}},{"url":"text","valueString":"American Indian or Alaska Native"}]},{"url":"http://hl7.org/fhir/us/core/StructureDefinition/us-core-ethnicity","extension":[{"url":"ombCategory","valueCoding":{"system":"urn:oid:2.16.840.1.113883.6.238","code":"2135-2","display":"Hispanic or Latino","userSelected":true}},{"url":"text","valueString":"Hispanic or Latino"}]}],"identifier":[{"type":{"coding":[{"system":"http://terminology.hl7.org/CodeSystem/v2-0203","code":"MR"}]},"system":"https://bonnie-fhir.healthit.gov/","value":"63487c2e0968f80122540182"}],"active":true,"name":[{"use":"usual","family":"IPFail","given":["EncInpEndsAfterMP"]}],"gender":"female","birthDate":"1989-08-28"},"request":{"method":"PUT","url":"Patient/cb800af9-771b-4850-a175-8e3b9ffbbfc3"}},{"fullUrl":"https://madie.cms.gov/Encounter/5d014eb0b848460872380446","resource":{"resourceType":"Encounter","id":"ffa99a2f-a215-4e1c-ad17-cd18ae9ca3d8","meta":{"profile":["http://hl7.org/fhir/us/qicore/StructureDefinition/qicore-encounter"]},"status":"finished","class":{"system":"http://terminology.hl7.org/CodeSystem/v3-ActCode","code":"IMP","display":"inpatient encounter"},"type":[{"coding":[{"system":"http://snomed.info/sct","code":"8715000"}]}],"subject":{"reference":"Patient/cb800af9-771b-4850-a175-8e3b9ffbbfc3"},"period":{"start":"2025-12-01T08:00:00.000+00:00","end":"2026-01-01T01:00:00.000+00:00"},"length":{"value":31.0,"unit":"days"},"diagnosis":[{"condition":{"reference":"Condition/Condition-2"},"use":{"coding":[{"system":"http://snomed.info/sct","code":"169826009","display":"Delivery of Singleton"}]}}]},"request":{"method":"PUT","url":"Encounter/ffa99a2f-a215-4e1c-ad17-cd18ae9ca3d8"}},{"fullUrl":"https://madie.cms.gov/Procedure/5e698f237ffec700003236a3","resource":{"resourceType":"Procedure","id":"bb588454-88fc-44ff-ad68-c465931bdfcb","meta":{"profile":["http://hl7.org/fhir/us/qicore/StructureDefinition/qicore-procedure"]},"extension":[{"url":"http://hl7.org/fhir/us/qicore/StructureDefinition/qicore-recorded","valueDateTime":"2013-04-05T09:35:00-04:00"}],"status":"completed","code":{"coding":[{"system":"http://snomed.info/sct","code":"10745001"}]},"subject":{"reference":"Patient/cb800af9-771b-4850-a175-8e3b9ffbbfc3"},"performedPeriod":{"start":"2025-12-01T08:00:00.000Z","end":"2026-01-01T01:00:00.000Z"}},"request":{"method":"PUT","url":"Procedure/bb588454-88fc-44ff-ad68-c465931bdfcb"}},{"fullUrl":"https://madie.cms.gov/Coverage/1","resource":{"resourceType":"Coverage","id":"624eb584-2889-481d-909b-a2c6d6769632","meta":{"profile":["http://hl7.org/fhir/us/qicore/StructureDefinition/qicore-coverage"]},"status":"active","beneficiary":{"reference":"Patient/cb800af9-771b-4850-a175-8e3b9ffbbfc3"},"payor":[{"reference":"Organization/5224cb12-ed64-4d6d-ab28-40a64f0800f1"}]},"request":{"method":"PUT","url":"Coverage/624eb584-2889-481d-909b-a2c6d6769632"}},{"fullUrl":"https://madie.cms.gov/Organization/123456","resource":{"resourceType":"Organization","id":"5224cb12-ed64-4d6d-ab28-40a64f0800f1","meta":{"profile":["http://hl7.org/fhir/us/qicore/StructureDefinition/qicore-organization"]},"identifier":[{"use":"temp","system":"urn:oid:2.16.840.1.113883.4.4","value":"21-3259825"}],"active":true,"type":[{"coding":[{"system":"http://terminology.hl7.org/CodeSystem/organization-type","code":"pay","display":"Payer"}]}],"name":"Blue Cross Blue Shield of Texas","telecom":[{"system":"phone","value":"(+1) 972-766-6900"}],"address":[{"use":"billing","type":"postal","line":["P.O. Box 660044"],"city":"Dallas","state":"TX","postalCode":"75266-0044","country":"USA"}]},"request":{"method":"PUT","url":"Organization/5224cb12-ed64-4d6d-ab28-40a64f0800f1"}},{"fullUrl":"https://madie.cms.gov/Practitioner/practitioner-123456","resource":{"resourceType":"Practitioner","id":"774529e3-10ff-4b3e-936b-a29fd7aa25a4","identifier":[{"system":"http://hl7.org/fhir/sid/us-npi","value":"123456"}],"name":[{"family":"Evil","prefix":["Dr"]}]},"request":{"method":"PUT","url":"Practitioner/774529e3-10ff-4b3e-936b-a29fd7aa25a4"}},{"fullUrl":"https://madie.cms.gov/MeasureReport/c01938a4-ce91-4e24-95fb-849a4a6eb7d5","resource":{"resourceType":"MeasureReport","id":"c01938a4-ce91-4e24-95fb-849a4a6eb7d5","meta":{"profile":["http://hl7.org/fhir/us/cqfmeasures/StructureDefinition/test-case-cqfm"]},"contained":[{"resourceType":"Parameters","id":"8a395d56-d458-41b3-a9d2-3b0701045f3f-parameters","parameter":[{"name":"subject","valueString":"cb800af9-771b-4850-a175-8e3b9ffbbfc3"}]}],"extension":[{"url":"http://hl7.org/fhir/us/cqfmeasures/StructureDefinition/cqfm-inputParameters","valueReference":{"reference":"#8a395d56-d458-41b3-a9d2-3b0701045f3f-parameters"}},{"url":"http://hl7.org/fhir/us/cqfmeasures/StructureDefinition/cqfm-testCaseDescription","valueMarkdown":"EncounterInpatient.relevantPeriod ends after \"Measurement Period\".  Fails IPP because it ends AFTER MP.\n"}],"modifierExtension":[{"url":"http://hl7.org/fhir/us/cqfmeasures/StructureDefinition/cqfm-isTestCase","valueBoolean":true}],"status":"complete","type":"individual","measure":"https://madie.cms.gov/Measure/CesareanBirthFHIR","period":{"start":"2025-01-01","end":"2025-12-31"},"group":[{"population":[{"code":{"coding":[{"system":"http://terminology.hl7.org/CodeSystem/measure-population","code":"initial-population","display":"Initial Population"}]},"count":0},{"code":{"coding":[{"system":"http://terminology.hl7.org/CodeSystem/measure-population","code":"denominator","display":"Denominator"}]},"count":0},{"code":{"coding":[{"system":"http://terminology.hl7.org/CodeSystem/measure-population","code":"denominator-exclusion","display":"Denominator Exclusion"}]},"count":0},{"code":{"coding":[{"system":"http://terminology.hl7.org/CodeSystem/measure-population","code":"numerator","display":"Numerator"}]},"count":0}]}]},"request":{"method":"PUT","url":"MeasureReport/c01938a4-ce91-4e24-95fb-849a4a6eb7d5"}}]}