{"resourceType":"Bundle","id":"tests-f78258b8-777e-41b3-888c-0f22f70bbe35-bundle","type":"transaction","entry":[{"fullUrl":"https://madie.cms.gov/Patient/f78258b8-777e-41b3-888c-0f22f70bbe35","resource":{"resourceType":"Patient","id":"f78258b8-777e-41b3-888c-0f22f70bbe35","meta":{"profile":["http://hl7.org/fhir/us/qicore/StructureDefinition/qicore-patient"]},"text":{"status":"generated","div":"<div xmlns=\"http://www.w3.org/1999/xhtml\"><div class=\"hapiHeaderText\">AssessPreTerm0Term0RelDateLT42wkB4TimeOfDeliv <b>DENPASS </b></div><table class=\"hapiPropertyTable\"><tbody><tr><td>Identifier</td><td>31dd119079cfd5a4816f532ca8b3c6d0faf1e7c5fc379938019c4901872a0135</td></tr><tr><td>Date of birth</td><td><span>14 February 1985</span></td></tr></tbody></table></div>"},"extension":[{"url":"http://hl7.org/fhir/us/core/StructureDefinition/us-core-race","extension":[{"url":"ombCategory","valueCoding":{"system":"urn:oid:2.16.840.1.113883.6.238","code":"1002-5","display":"American Indian or Alaska Native","userSelected":true}},{"url":"text","valueString":"American Indian or Alaska Native"}]},{"url":"http://hl7.org/fhir/us/core/StructureDefinition/us-core-ethnicity","extension":[{"url":"ombCategory","valueCoding":{"system":"urn:oid:2.16.840.1.113883.6.238","code":"2135-2","display":"Hispanic or Latino","userSelected":true}},{"url":"text","valueString":"Hispanic or Latino"}]}],"identifier":[{"type":{"coding":[{"system":"http://terminology.hl7.org/CodeSystem/v2-0203","code":"MR"}]},"system":"https://bonnie-fhir.healthit.gov/","value":"63487c2d0968f80122540158"}],"active":true,"name":[{"use":"usual","family":"DENPass","given":["AssessPreTerm0Term0RelDateLT42wkB4TimeOfDeliv"]}],"gender":"female","birthDate":"1997-02-14"},"request":{"method":"PUT","url":"Patient/f78258b8-777e-41b3-888c-0f22f70bbe35"}},{"fullUrl":"https://madie.cms.gov/Observation/5d014eb2b848460872380639","resource":{"resourceType":"Observation","id":"f6ff416f-6ec1-4aab-b2b4-43a396b84009","meta":{"profile":["http://hl7.org/fhir/us/qicore/StructureDefinition/qicore-observation"]},"status":"final","category":[{"coding":[{"system":"http://terminology.hl7.org/CodeSystem/observation-category","code":"exam","display":"exam","userSelected":true}]}],"code":{"coding":[{"system":"http://loinc.org","code":"11637-6"}]},"subject":{"reference":"Patient/f78258b8-777e-41b3-888c-0f22f70bbe35"},"effectiveDateTime":"2024-09-19T09:00:00.000+00:00","valueInteger":0},"request":{"method":"PUT","url":"Observation/f6ff416f-6ec1-4aab-b2b4-43a396b84009"}},{"fullUrl":"https://madie.cms.gov/Observation/5d014eb2b84846087238063b","resource":{"resourceType":"Observation","id":"efe68f8b-4b95-4ac5-94b0-2b015d88af20","meta":{"profile":["http://hl7.org/fhir/us/qicore/StructureDefinition/qicore-observation"]},"status":"final","category":[{"coding":[{"system":"http://terminology.hl7.org/CodeSystem/observation-category","code":"exam","display":"exam","userSelected":true}]}],"code":{"coding":[{"system":"http://loinc.org","code":"11639-2"}]},"subject":{"reference":"Patient/f78258b8-777e-41b3-888c-0f22f70bbe35"},"effectiveDateTime":"2024-09-19T09:00:00.000+00:00","valueInteger":0},"request":{"method":"PUT","url":"Observation/efe68f8b-4b95-4ac5-94b0-2b015d88af20"}},{"fullUrl":"https://madie.cms.gov/Observation/5d014eb2b84846087238063d","resource":{"resourceType":"Observation","id":"f4de58ad-5fc7-4b92-b460-7a4f86da8ed8","meta":{"profile":["http://hl7.org/fhir/us/qicore/StructureDefinition/qicore-observation"]},"status":"final","category":[{"coding":[{"system":"http://terminology.hl7.org/CodeSystem/observation-category","code":"exam","display":"exam","userSelected":true}]}],"code":{"coding":[{"system":"http://loinc.org","code":"11884-4"}]},"subject":{"reference":"Patient/f78258b8-777e-41b3-888c-0f22f70bbe35"},"effectiveDateTime":"2025-06-08T20:00:00.000+00:00","valueQuantity":{"value":37.0,"system":"http://unitsofmeasure.org","code":"weeks"}},"request":{"method":"PUT","url":"Observation/f4de58ad-5fc7-4b92-b460-7a4f86da8ed8"}},{"fullUrl":"https://madie.cms.gov/Observation/5e6930d07ffec7000031e055","resource":{"resourceType":"Observation","id":"569d6a44-8a76-40d9-b9c3-b8e9478621e9","meta":{"profile":["http://hl7.org/fhir/us/qicore/StructureDefinition/qicore-observation"]},"status":"final","category":[{"coding":[{"system":"http://terminology.hl7.org/CodeSystem/observation-category","code":"exam","display":"exam","userSelected":true}]}],"code":{"coding":[{"system":"http://loinc.org","code":"93857-1"}]},"subject":{"reference":"Patient/f78258b8-777e-41b3-888c-0f22f70bbe35"},"effectiveDateTime":"2025-06-08T20:00:00.000+00:00","valueDateTime":"2025-06-08T20:00:00+00:00"},"request":{"method":"PUT","url":"Observation/569d6a44-8a76-40d9-b9c3-b8e9478621e9"}},{"fullUrl":"https://madie.cms.gov/Encounter/5d014eb2b848460872380637","resource":{"resourceType":"Encounter","id":"fdb956b0-b4d0-41b6-809a-5f7ba9ac24ce","meta":{"profile":["http://hl7.org/fhir/us/qicore/StructureDefinition/qicore-encounter"]},"status":"finished","class":{"system":"http://terminology.hl7.org/CodeSystem/v3-ActCode","code":"IMP","display":"inpatient encounter"},"type":[{"coding":[{"system":"http://snomed.info/sct","code":"8715000"}]}],"subject":{"reference":"Patient/f78258b8-777e-41b3-888c-0f22f70bbe35"},"period":{"start":"2025-06-08T08:00:00.000Z","end":"2025-06-10T08:15:00.000Z"},"length":{"value":2.0,"unit":"days"},"diagnosis":[{"condition":{"reference":"Condition/delivery-of-singleton-f83c"},"use":{"coding":[{"system":"http://snomed.info/sct","code":"169826009","display":"Delivery of Singleton"}]}},{"condition":{"reference":"Condition/delivery-of-singleton-947c"}}]},"request":{"method":"PUT","url":"Encounter/fdb956b0-b4d0-41b6-809a-5f7ba9ac24ce"}},{"fullUrl":"https://madie.cms.gov/Procedure/5d014eb2b848460872380638","resource":{"resourceType":"Procedure","id":"a7584f1f-912a-4bb9-9cab-2b6a4fd92f82","meta":{"profile":["http://hl7.org/fhir/us/qicore/StructureDefinition/qicore-procedure"]},"extension":[{"url":"http://hl7.org/fhir/us/qicore/StructureDefinition/qicore-recorded","valueDateTime":"2013-04-05T09:35:00-04:00"}],"status":"completed","code":{"coding":[{"system":"http://www.cms.gov/Medicare/Coding/ICD10","code":"10D00Z0"},{"system":"http://snomed.info/sct","code":"4504004"},{"system":"http://www.icd10data.com/icd10pcs","code":"10D00Z1","userSelected":true}]},"subject":{"reference":"Patient/f78258b8-777e-41b3-888c-0f22f70bbe35"},"performedPeriod":{"start":"2025-06-08T20:00:00.000Z","end":"2025-06-08T20:15:00.000Z"}},"request":{"method":"PUT","url":"Procedure/a7584f1f-912a-4bb9-9cab-2b6a4fd92f82"}},{"fullUrl":"https://madie.cms.gov/Condition/delivery-of-singleton-947c","resource":{"resourceType":"Condition","id":"4f1cd730-dea1-4301-ae01-46913545fe8b","meta":{"profile":["http://hl7.org/fhir/us/qicore/StructureDefinition/qicore-condition"]},"category":[{"coding":[{"system":"http://terminology.hl7.org/CodeSystem/condition-category","code":"encounter-diagnosis","display":"Encounter Diagnosis"}]}],"code":{"coding":[{"system":"http://snomed.info/sct","version":"2022-09","code":"169826009","display":"Single live birth (finding)","userSelected":true}]},"subject":{"reference":"Patient/f78258b8-777e-41b3-888c-0f22f70bbe35"},"recordedDate":"2025-10-20T08:00:00.000+00:00"},"request":{"method":"PUT","url":"Condition/4f1cd730-dea1-4301-ae01-46913545fe8b"}},{"fullUrl":"https://madie.cms.gov/Coverage/1","resource":{"resourceType":"Coverage","id":"0dc0085d-d167-4dc7-b7ca-e4030b4e5ec9","meta":{"profile":["http://hl7.org/fhir/us/qicore/StructureDefinition/qicore-coverage"]},"status":"active","beneficiary":{"reference":"Patient/f78258b8-777e-41b3-888c-0f22f70bbe35"},"payor":[{"reference":"Organization/9e9b3f13-a353-4173-b29b-947d6f1f2031"}]},"request":{"method":"PUT","url":"Coverage/0dc0085d-d167-4dc7-b7ca-e4030b4e5ec9"}},{"fullUrl":"https://madie.cms.gov/Organization/123456","resource":{"resourceType":"Organization","id":"9e9b3f13-a353-4173-b29b-947d6f1f2031","meta":{"profile":["http://hl7.org/fhir/us/qicore/StructureDefinition/qicore-organization"]},"identifier":[{"use":"temp","system":"urn:oid:2.16.840.1.113883.4.4","value":"21-3259825"}],"active":true,"type":[{"coding":[{"system":"http://terminology.hl7.org/CodeSystem/organization-type","code":"pay","display":"Payer"}]}],"name":"Blue Cross Blue Shield of Texas","telecom":[{"system":"phone","value":"(+1) 972-766-6900"}],"address":[{"use":"billing","type":"postal","line":["P.O. Box 660044"],"city":"Dallas","state":"TX","postalCode":"75266-0044","country":"USA"}]},"request":{"method":"PUT","url":"Organization/9e9b3f13-a353-4173-b29b-947d6f1f2031"}},{"fullUrl":"https://madie.cms.gov/Practitioner/practitioner-123456","resource":{"resourceType":"Practitioner","id":"ccade524-3202-4b3a-aea6-d0b4ff7920af","identifier":[{"system":"http://hl7.org/fhir/sid/us-npi","value":"123456"}],"name":[{"family":"Evil","prefix":["Dr"]}]},"request":{"method":"PUT","url":"Practitioner/ccade524-3202-4b3a-aea6-d0b4ff7920af"}},{"fullUrl":"https://madie.cms.gov/MeasureReport/8d730c8d-9816-4c65-9083-6c6cad04b5d4","resource":{"resourceType":"MeasureReport","id":"8d730c8d-9816-4c65-9083-6c6cad04b5d4","meta":{"profile":["http://hl7.org/fhir/us/cqfmeasures/StructureDefinition/test-case-cqfm"]},"contained":[{"resourceType":"Parameters","id":"8c008555-34b3-4598-be6c-df8405d9417b-parameters","parameter":[{"name":"subject","valueString":"f78258b8-777e-41b3-888c-0f22f70bbe35"}]}],"extension":[{"url":"http://hl7.org/fhir/us/cqfmeasures/StructureDefinition/cqfm-inputParameters","valueReference":{"reference":"#8c008555-34b3-4598-be6c-df8405d9417b-parameters"}},{"url":"http://hl7.org/fhir/us/cqfmeasures/StructureDefinition/cqfm-testCaseDescription","valueMarkdown":"\"Preterm Births=0, Rel Dt/Time < 42weeks prior to asse delivery date/time\nTerm Newborn=0, Rel Dt/Time < 42weeks prior to asse delivery date/time\"\n"}],"modifierExtension":[{"url":"http://hl7.org/fhir/us/cqfmeasures/StructureDefinition/cqfm-isTestCase","valueBoolean":true}],"status":"complete","type":"individual","measure":"https://madie.cms.gov/Measure/CesareanBirthFHIR","period":{"start":"2025-01-01","end":"2025-12-31"},"group":[{"population":[{"code":{"coding":[{"system":"http://terminology.hl7.org/CodeSystem/measure-population","code":"initial-population","display":"Initial Population"}]},"count":1},{"code":{"coding":[{"system":"http://terminology.hl7.org/CodeSystem/measure-population","code":"denominator","display":"Denominator"}]},"count":1},{"code":{"coding":[{"system":"http://terminology.hl7.org/CodeSystem/measure-population","code":"denominator-exclusion","display":"Denominator Exclusion"}]},"count":0},{"code":{"coding":[{"system":"http://terminology.hl7.org/CodeSystem/measure-population","code":"numerator","display":"Numerator"}]},"count":1}]}]},"request":{"method":"PUT","url":"MeasureReport/8d730c8d-9816-4c65-9083-6c6cad04b5d4"}}]}