{"resourceType":"Bundle","id":"tests-9379f076-ee69-460f-9c02-d763c4891e0d-bundle","type":"transaction","entry":[{"fullUrl":"https://madie.cms.gov/Patient/9379f076-ee69-460f-9c02-d763c4891e0d","resource":{"resourceType":"Patient","id":"9379f076-ee69-460f-9c02-d763c4891e0d","meta":{"profile":["http://hl7.org/fhir/us/qicore/StructureDefinition/qicore-patient"]},"text":{"status":"generated","div":"<div xmlns=\"http://www.w3.org/1999/xhtml\"><div class=\"hapiHeaderText\">ProcDelivStartAtEncInpStart <b>IPPASS </b></div><table class=\"hapiPropertyTable\"><tbody><tr><td>Identifier</td><td>5c05b56286ceef6b3739c6d66e73a6f8be510476054eff3a61df4a6cad50439d</td></tr><tr><td>Date of birth</td><td><span>14 February 1985</span></td></tr></tbody></table></div>"},"extension":[{"url":"http://hl7.org/fhir/us/core/StructureDefinition/us-core-race","extension":[{"url":"ombCategory","valueCoding":{"system":"urn:oid:2.16.840.1.113883.6.238","code":"1002-5","display":"American Indian or Alaska Native","userSelected":true}},{"url":"text","valueString":"American Indian or Alaska Native"}]},{"url":"http://hl7.org/fhir/us/core/StructureDefinition/us-core-ethnicity","extension":[{"url":"ombCategory","valueCoding":{"system":"urn:oid:2.16.840.1.113883.6.238","code":"2135-2","display":"Hispanic or Latino","userSelected":true}},{"url":"text","valueString":"Hispanic or Latino"}]}],"identifier":[{"type":{"coding":[{"system":"http://terminology.hl7.org/CodeSystem/v2-0203","code":"MR"}]},"system":"https://bonnie-fhir.healthit.gov/","value":"63487c2d0968f8012254014e"}],"active":true,"name":[{"use":"usual","family":"IPPass","given":["ProcDelivStartAtEncInpStart"]}],"gender":"other","birthDate":"1997-02-14"},"request":{"method":"PUT","url":"Patient/9379f076-ee69-460f-9c02-d763c4891e0d"}},{"fullUrl":"https://madie.cms.gov/Encounter/5d014eb1b8484608723804fd","resource":{"resourceType":"Encounter","id":"11d2f145-7e86-48c2-9e99-71739237aea6","meta":{"profile":["http://hl7.org/fhir/us/qicore/StructureDefinition/qicore-encounter"]},"status":"finished","class":{"system":"http://terminology.hl7.org/CodeSystem/v3-ActCode","code":"IMP","display":"inpatient encounter"},"type":[{"coding":[{"system":"http://snomed.info/sct","code":"8715000"}]}],"subject":{"reference":"Patient/9379f076-ee69-460f-9c02-d763c4891e0d"},"period":{"start":"2025-11-28T08:00:00.000Z","end":"2025-11-30T08:15:00.000Z"},"diagnosis":[{"condition":{"reference":"Condition/Condition-2"},"use":{"coding":[{"system":"http://snomed.info/sct","code":"169826009","display":"Delivery of Singleton"}]}}]},"request":{"method":"PUT","url":"Encounter/11d2f145-7e86-48c2-9e99-71739237aea6"}},{"fullUrl":"https://madie.cms.gov/Coverage/5f5f9e441c76ba674bb03289","resource":{"resourceType":"Coverage","id":"3b0b6308-2b8b-434f-aacb-b8d0eec1a2d9","status":"active","beneficiary":{"reference":"Patient/9379f076-ee69-460f-9c02-d763c4891e0d"},"period":{"start":"1985-02-14T08:00:00.000Z"},"payor":[{"reference":"Organization/77e4d06f-5e3c-436a-a598-80cefcca5028"}]},"request":{"method":"PUT","url":"Coverage/3b0b6308-2b8b-434f-aacb-b8d0eec1a2d9"}},{"fullUrl":"https://madie.cms.gov/Procedure/5d014eb1b8484608723804fe","resource":{"resourceType":"Procedure","id":"e12f7520-cc37-4bc0-8c6d-918dd21af77e","meta":{"profile":["http://hl7.org/fhir/us/qicore/StructureDefinition/qicore-procedure"]},"extension":[{"url":"http://hl7.org/fhir/us/qicore/StructureDefinition/qicore-recorded","valueDateTime":"2013-04-05T09:35:00-04:00"}],"status":"completed","code":{"coding":[{"system":"http://www.cms.gov/Medicare/Coding/ICD10","code":"10D00Z0"},{"system":"http://www.icd10data.com/icd10pcs","code":"10D00Z0","userSelected":true}]},"subject":{"reference":"Patient/9379f076-ee69-460f-9c02-d763c4891e0d"},"performedPeriod":{"start":"2025-11-28T08:00:00.000Z","end":"2025-11-28T20:15:00.000Z"}},"request":{"method":"PUT","url":"Procedure/e12f7520-cc37-4bc0-8c6d-918dd21af77e"}},{"fullUrl":"https://madie.cms.gov/Organization/123456","resource":{"resourceType":"Organization","id":"77e4d06f-5e3c-436a-a598-80cefcca5028","meta":{"profile":["http://hl7.org/fhir/us/qicore/StructureDefinition/qicore-organization"]},"identifier":[{"use":"temp","system":"urn:oid:2.16.840.1.113883.4.4","value":"21-3259825"}],"active":true,"type":[{"coding":[{"system":"http://terminology.hl7.org/CodeSystem/organization-type","code":"pay","display":"Payer"}]}],"name":"Blue Cross Blue Shield of Texas","telecom":[{"system":"phone","value":"(+1) 972-766-6900"}],"address":[{"use":"billing","type":"postal","line":["P.O. Box 660044"],"city":"Dallas","state":"TX","postalCode":"75266-0044","country":"USA"}]},"request":{"method":"PUT","url":"Organization/77e4d06f-5e3c-436a-a598-80cefcca5028"}},{"fullUrl":"https://madie.cms.gov/Practitioner/practitioner-123456","resource":{"resourceType":"Practitioner","id":"2d56bc4b-da83-4ccd-835d-19da33ab5a42","identifier":[{"system":"http://hl7.org/fhir/sid/us-npi","value":"123456"}],"name":[{"family":"Evil","prefix":["Dr"]}]},"request":{"method":"PUT","url":"Practitioner/2d56bc4b-da83-4ccd-835d-19da33ab5a42"}},{"fullUrl":"https://madie.cms.gov/MeasureReport/7ca12299-a667-4728-928f-a1fed36d49bb","resource":{"resourceType":"MeasureReport","id":"7ca12299-a667-4728-928f-a1fed36d49bb","meta":{"profile":["http://hl7.org/fhir/us/cqfmeasures/StructureDefinition/test-case-cqfm"]},"contained":[{"resourceType":"Parameters","id":"e978efd8-7906-4404-bf4b-e31e540cfee0-parameters","parameter":[{"name":"subject","valueString":"9379f076-ee69-460f-9c02-d763c4891e0d"}]}],"extension":[{"url":"http://hl7.org/fhir/us/cqfmeasures/StructureDefinition/cqfm-inputParameters","valueReference":{"reference":"#e978efd8-7906-4404-bf4b-e31e540cfee0-parameters"}},{"url":"http://hl7.org/fhir/us/cqfmeasures/StructureDefinition/cqfm-testCaseDescription","valueMarkdown":"Passes IP.  Proc Deliv Start Equal To Enc Inp Start.\n"}],"modifierExtension":[{"url":"http://hl7.org/fhir/us/cqfmeasures/StructureDefinition/cqfm-isTestCase","valueBoolean":true}],"status":"complete","type":"individual","measure":"https://madie.cms.gov/Measure/CesareanBirthFHIR","period":{"start":"2025-01-01","end":"2025-12-31"},"group":[{"population":[{"code":{"coding":[{"system":"http://terminology.hl7.org/CodeSystem/measure-population","code":"initial-population","display":"Initial Population"}]},"count":1},{"code":{"coding":[{"system":"http://terminology.hl7.org/CodeSystem/measure-population","code":"denominator","display":"Denominator"}]},"count":0},{"code":{"coding":[{"system":"http://terminology.hl7.org/CodeSystem/measure-population","code":"denominator-exclusion","display":"Denominator Exclusion"}]},"count":0},{"code":{"coding":[{"system":"http://terminology.hl7.org/CodeSystem/measure-population","code":"numerator","display":"Numerator"}]},"count":0}]}]},"request":{"method":"PUT","url":"MeasureReport/7ca12299-a667-4728-928f-a1fed36d49bb"}}]}