{"resourceType":"Bundle","id":"tests-30990946-5aea-4270-afef-182cc05f05f3-bundle","type":"transaction","entry":[{"fullUrl":"https://madie.cms.gov/Patient/30990946-5aea-4270-afef-182cc05f05f3","resource":{"resourceType":"Patient","id":"30990946-5aea-4270-afef-182cc05f05f3","meta":{"profile":["http://hl7.org/fhir/us/qicore/StructureDefinition/qicore-patient"]},"text":{"status":"generated","div":"<div xmlns=\"http://www.w3.org/1999/xhtml\"><div class=\"hapiHeaderText\">EncDxPlacentaPrevia <b>DENEXPASS </b></div><table class=\"hapiPropertyTable\"><tbody><tr><td>Identifier</td><td>26ae2095ae359d33c45002ef417f38a5e4f6a61da3ea75d0332f68a4cb93137e</td></tr><tr><td>Date of birth</td><td><span>14 February 1985</span></td></tr></tbody></table></div>"},"extension":[{"url":"http://hl7.org/fhir/us/core/StructureDefinition/us-core-race","extension":[{"url":"ombCategory","valueCoding":{"system":"urn:oid:2.16.840.1.113883.6.238","code":"1002-5","display":"American Indian or Alaska Native","userSelected":true}},{"url":"text","valueString":"American Indian or Alaska Native"}]},{"url":"http://hl7.org/fhir/us/core/StructureDefinition/us-core-ethnicity","extension":[{"url":"ombCategory","valueCoding":{"system":"urn:oid:2.16.840.1.113883.6.238","code":"2135-2","display":"Hispanic or Latino","userSelected":true}},{"url":"text","valueString":"Hispanic or Latino"}]}],"identifier":[{"type":{"coding":[{"system":"http://terminology.hl7.org/CodeSystem/v2-0203","code":"MR"}]},"system":"https://bonnie-fhir.healthit.gov/","value":"63487c2e0968f8012254018b"}],"active":true,"name":[{"use":"usual","family":"DENEXPass","given":["EncDxPlacentaPrevia"]}],"gender":"female","birthDate":"1997-02-14"},"request":{"method":"PUT","url":"Patient/30990946-5aea-4270-afef-182cc05f05f3"}},{"fullUrl":"https://madie.cms.gov/Observation/5d014eb2b8484608723805ea","resource":{"resourceType":"Observation","id":"db5c9427-ec6d-4884-ba37-d2848b43b874","meta":{"profile":["http://hl7.org/fhir/us/qicore/StructureDefinition/qicore-observation"]},"status":"final","category":[{"coding":[{"system":"http://terminology.hl7.org/CodeSystem/observation-category","code":"exam","display":"exam","userSelected":true}]}],"code":{"coding":[{"system":"http://loinc.org","code":"11996-6"}]},"subject":{"reference":"Patient/30990946-5aea-4270-afef-182cc05f05f3"},"effectiveDateTime":"2025-06-08T08:00:00.000+00:00","valueInteger":1},"request":{"method":"PUT","url":"Observation/db5c9427-ec6d-4884-ba37-d2848b43b874"}},{"fullUrl":"https://madie.cms.gov/Observation/5d014eb2b8484608723805ec","resource":{"resourceType":"Observation","id":"da49fd7e-9684-44f3-8a91-f72d61e1e199","meta":{"profile":["http://hl7.org/fhir/us/qicore/StructureDefinition/qicore-observation"]},"status":"final","category":[{"coding":[{"system":"http://terminology.hl7.org/CodeSystem/observation-category","code":"exam","display":"exam","userSelected":true}]}],"code":{"coding":[{"system":"http://loinc.org","code":"11884-4"}]},"subject":{"reference":"Patient/30990946-5aea-4270-afef-182cc05f05f3"},"effectiveDateTime":"2025-06-08T08:00:00.000+00:00","valueQuantity":{"value":43.0,"system":"http://unitsofmeasure.org","code":"wk"}},"request":{"method":"PUT","url":"Observation/da49fd7e-9684-44f3-8a91-f72d61e1e199"}},{"fullUrl":"https://madie.cms.gov/Observation/5e61190beadaae0000c2b763","resource":{"resourceType":"Observation","id":"826eea8b-adbe-4dc1-8ab2-393dc917fd7a","meta":{"profile":["http://hl7.org/fhir/us/qicore/StructureDefinition/qicore-observation"]},"status":"final","category":[{"coding":[{"system":"http://terminology.hl7.org/CodeSystem/observation-category","code":"exam","display":"exam","userSelected":true}]}],"code":{"coding":[{"system":"http://loinc.org","code":"93857-1"}]},"subject":{"reference":"Patient/30990946-5aea-4270-afef-182cc05f05f3"},"effectiveDateTime":"2025-06-08T20:00:00.000+00:00","valueDateTime":"2025-06-08T20:00:00+00:00"},"request":{"method":"PUT","url":"Observation/826eea8b-adbe-4dc1-8ab2-393dc917fd7a"}},{"fullUrl":"https://madie.cms.gov/Encounter/5d014eb2b8484608723805e8","resource":{"resourceType":"Encounter","id":"6d816d22-c42f-42c8-95ff-6ae475843b81","meta":{"profile":["http://hl7.org/fhir/us/qicore/StructureDefinition/qicore-encounter"]},"status":"finished","class":{"system":"http://terminology.hl7.org/CodeSystem/v3-ActCode","code":"IMP","display":"inpatient encounter"},"type":[{"coding":[{"system":"http://snomed.info/sct","code":"8715000"}]}],"subject":{"reference":"Patient/30990946-5aea-4270-afef-182cc05f05f3"},"period":{"start":"2025-06-08T08:00:00.000Z","end":"2025-06-10T08:15:00.000Z"},"diagnosis":[{"condition":{"reference":"Condition/delivery-of-singleton-09a0"}},{"condition":{"reference":"Condition/placenta-previa-09a1"}}]},"request":{"method":"PUT","url":"Encounter/6d816d22-c42f-42c8-95ff-6ae475843b81"}},{"fullUrl":"https://madie.cms.gov/Procedure/5d014eb2b8484608723805e9","resource":{"resourceType":"Procedure","id":"d5f050ec-ca79-4231-acd3-5122cb5ab077","meta":{"profile":["http://hl7.org/fhir/us/qicore/StructureDefinition/qicore-procedure"]},"extension":[{"url":"http://hl7.org/fhir/us/qicore/StructureDefinition/qicore-recorded","valueDateTime":"2013-04-05T09:35:00-04:00"}],"status":"completed","code":{"coding":[{"system":"http://snomed.info/sct","code":"4504004"}]},"subject":{"reference":"Patient/30990946-5aea-4270-afef-182cc05f05f3"},"performedPeriod":{"start":"2025-06-08T20:00:00.000Z","end":"2025-06-18T20:00:00.000Z"}},"request":{"method":"PUT","url":"Procedure/d5f050ec-ca79-4231-acd3-5122cb5ab077"}},{"fullUrl":"https://madie.cms.gov/Condition/delivery-of-singleton-09a0","resource":{"resourceType":"Condition","id":"92147975-9181-4f9b-a0fd-863ca12966a0","meta":{"profile":["http://hl7.org/fhir/us/qicore/StructureDefinition/qicore-condition"]},"category":[{"coding":[{"system":"http://terminology.hl7.org/CodeSystem/condition-category","code":"encounter-diagnosis","display":"Encounter Diagnosis"}]}],"code":{"coding":[{"system":"http://snomed.info/sct","version":"2022-09","code":"169826009","display":"Single live birth (finding)","userSelected":true}]},"subject":{"reference":"Patient/30990946-5aea-4270-afef-182cc05f05f3"},"recordedDate":"2025-10-17T08:00:00.000+00:00"},"request":{"method":"PUT","url":"Condition/92147975-9181-4f9b-a0fd-863ca12966a0"}},{"fullUrl":"https://madie.cms.gov/Condition/placenta-previa-09a1","resource":{"resourceType":"Condition","id":"0bd940f1-24cf-4a72-be8f-a8f630d85752","meta":{"profile":["http://hl7.org/fhir/us/qicore/StructureDefinition/qicore-condition"]},"category":[{"coding":[{"system":"http://terminology.hl7.org/CodeSystem/condition-category","code":"encounter-diagnosis","display":"Encounter Diagnosis"}]}],"code":{"coding":[{"system":"http://snomed.info/sct","version":"2022-09","code":"15663008","display":"Placenta previa centralis (disorder)","userSelected":true}]},"subject":{"reference":"Patient/30990946-5aea-4270-afef-182cc05f05f3"},"recordedDate":"2025-10-17T08:00:00.000+00:00"},"request":{"method":"PUT","url":"Condition/0bd940f1-24cf-4a72-be8f-a8f630d85752"}},{"fullUrl":"https://madie.cms.gov/Coverage/1","resource":{"resourceType":"Coverage","id":"b69d425e-3821-412d-8121-7a69cf560946","meta":{"profile":["http://hl7.org/fhir/us/qicore/StructureDefinition/qicore-coverage"]},"status":"active","beneficiary":{"reference":"Patient/30990946-5aea-4270-afef-182cc05f05f3"},"payor":[{"reference":"Organization/80573fa1-cf83-4e9a-8f21-86a018689678"}]},"request":{"method":"PUT","url":"Coverage/b69d425e-3821-412d-8121-7a69cf560946"}},{"fullUrl":"https://madie.cms.gov/Organization/123456","resource":{"resourceType":"Organization","id":"80573fa1-cf83-4e9a-8f21-86a018689678","meta":{"profile":["http://hl7.org/fhir/us/qicore/StructureDefinition/qicore-organization"]},"identifier":[{"use":"temp","system":"urn:oid:2.16.840.1.113883.4.4","value":"21-3259825"}],"active":true,"type":[{"coding":[{"system":"http://terminology.hl7.org/CodeSystem/organization-type","code":"pay","display":"Payer"}]}],"name":"Blue Cross Blue Shield of Texas","telecom":[{"system":"phone","value":"(+1) 972-766-6900"}],"address":[{"use":"billing","type":"postal","line":["P.O. Box 660044"],"city":"Dallas","state":"TX","postalCode":"75266-0044","country":"USA"}]},"request":{"method":"PUT","url":"Organization/80573fa1-cf83-4e9a-8f21-86a018689678"}},{"fullUrl":"https://madie.cms.gov/Practitioner/practitioner-123456","resource":{"resourceType":"Practitioner","id":"a97af298-1e02-46ce-a6ea-67abb22391b9","identifier":[{"system":"http://hl7.org/fhir/sid/us-npi","value":"123456"}],"name":[{"family":"Evil","prefix":["Dr"]}]},"request":{"method":"PUT","url":"Practitioner/a97af298-1e02-46ce-a6ea-67abb22391b9"}},{"fullUrl":"https://madie.cms.gov/MeasureReport/14d128d9-ab81-4af1-b7f8-35875d23c194","resource":{"resourceType":"MeasureReport","id":"14d128d9-ab81-4af1-b7f8-35875d23c194","meta":{"profile":["http://hl7.org/fhir/us/cqfmeasures/StructureDefinition/test-case-cqfm"]},"contained":[{"resourceType":"Parameters","id":"2ccc9211-b273-4857-85d3-f3fc8bfc2ffe-parameters","parameter":[{"name":"subject","valueString":"30990946-5aea-4270-afef-182cc05f05f3"}]}],"extension":[{"url":"http://hl7.org/fhir/us/cqfmeasures/StructureDefinition/cqfm-inputParameters","valueReference":{"reference":"#2ccc9211-b273-4857-85d3-f3fc8bfc2ffe-parameters"}},{"url":"http://hl7.org/fhir/us/cqfmeasures/StructureDefinition/cqfm-testCaseDescription","valueMarkdown":"EGA 43 weeks; Placenta previa on encounter Attr dx, gravida 1, \n"}],"modifierExtension":[{"url":"http://hl7.org/fhir/us/cqfmeasures/StructureDefinition/cqfm-isTestCase","valueBoolean":true}],"status":"complete","type":"individual","measure":"https://madie.cms.gov/Measure/CesareanBirthFHIR","period":{"start":"2025-01-01","end":"2025-12-31"},"group":[{"population":[{"code":{"coding":[{"system":"http://terminology.hl7.org/CodeSystem/measure-population","code":"initial-population","display":"Initial Population"}]},"count":1},{"code":{"coding":[{"system":"http://terminology.hl7.org/CodeSystem/measure-population","code":"denominator","display":"Denominator"}]},"count":1},{"code":{"coding":[{"system":"http://terminology.hl7.org/CodeSystem/measure-population","code":"denominator-exclusion","display":"Denominator Exclusion"}]},"count":1},{"code":{"coding":[{"system":"http://terminology.hl7.org/CodeSystem/measure-population","code":"numerator","display":"Numerator"}]},"count":0}]}]},"request":{"method":"PUT","url":"MeasureReport/14d128d9-ab81-4af1-b7f8-35875d23c194"}}]}