{"resourceType":"Bundle","id":"tests-6a8804e3-d7cc-494e-8cb8-0befa0566c14-bundle","type":"transaction","entry":[{"fullUrl":"https://madie.cms.gov/Patient/6a8804e3-d7cc-494e-8cb8-0befa0566c14","resource":{"resourceType":"Patient","id":"6a8804e3-d7cc-494e-8cb8-0befa0566c14","meta":{"profile":["http://hl7.org/fhir/us/qicore/StructureDefinition/qicore-patient"]},"text":{"status":"generated","div":"<div xmlns=\"http://www.w3.org/1999/xhtml\"><div class=\"hapiHeaderText\">AssessP0RelDateTime42wkB4TimeOfDeliv <b>DENPASS </b></div><table class=\"hapiPropertyTable\"><tbody><tr><td>Identifier</td><td>49e75344440120387e89419ee36282f99bbbbc9526c96f4d2baf4981f8757fa2</td></tr><tr><td>Date of birth</td><td><span>14 February 1985</span></td></tr></tbody></table></div>"},"extension":[{"url":"http://hl7.org/fhir/us/core/StructureDefinition/us-core-race","extension":[{"url":"ombCategory","valueCoding":{"system":"urn:oid:2.16.840.1.113883.6.238","code":"1002-5","display":"American Indian or Alaska Native","userSelected":true}},{"url":"text","valueString":"American Indian or Alaska Native"}]},{"url":"http://hl7.org/fhir/us/core/StructureDefinition/us-core-ethnicity","extension":[{"url":"ombCategory","valueCoding":{"system":"urn:oid:2.16.840.1.113883.6.238","code":"2135-2","display":"Hispanic or Latino","userSelected":true}},{"url":"text","valueString":"Hispanic or Latino"}]}],"identifier":[{"type":{"coding":[{"system":"http://terminology.hl7.org/CodeSystem/v2-0203","code":"MR"}]},"system":"https://bonnie-fhir.healthit.gov/","value":"63487c2f0968f80122540192"}],"active":true,"name":[{"use":"usual","family":"DENPass","given":["AssessP0RelDateTime42wkB4TimeOfDeliv"]}],"gender":"female","birthDate":"1997-02-14"},"request":{"method":"PUT","url":"Patient/6a8804e3-d7cc-494e-8cb8-0befa0566c14"}},{"fullUrl":"https://madie.cms.gov/Observation/5d014eb2b84846087238062a","resource":{"resourceType":"Observation","id":"bd8d4726-211d-4b38-b23c-8b64d57abfb0","meta":{"profile":["http://hl7.org/fhir/us/qicore/StructureDefinition/qicore-observation"]},"status":"final","category":[{"coding":[{"system":"http://terminology.hl7.org/CodeSystem/observation-category","code":"exam","display":"exam","userSelected":true}]}],"code":{"coding":[{"system":"http://loinc.org","code":"11977-6"}]},"subject":{"reference":"Patient/6a8804e3-d7cc-494e-8cb8-0befa0566c14"},"effectiveDateTime":"2024-08-19T20:00:00.000+00:00","valueInteger":0},"request":{"method":"PUT","url":"Observation/bd8d4726-211d-4b38-b23c-8b64d57abfb0"}},{"fullUrl":"https://madie.cms.gov/Observation/5d014eb2b84846087238062c","resource":{"resourceType":"Observation","id":"09fe8409-b5a4-43a6-a951-de9260e06e1d","meta":{"profile":["http://hl7.org/fhir/us/qicore/StructureDefinition/qicore-observation"]},"status":"final","category":[{"coding":[{"system":"http://terminology.hl7.org/CodeSystem/observation-category","code":"exam","display":"exam","userSelected":true}]}],"code":{"coding":[{"system":"http://loinc.org","code":"11884-4"}]},"subject":{"reference":"Patient/6a8804e3-d7cc-494e-8cb8-0befa0566c14"},"effectiveDateTime":"2025-06-08T20:00:00.000+00:00","valueQuantity":{"value":37.0,"system":"http://unitsofmeasure.org","code":"weeks"}},"request":{"method":"PUT","url":"Observation/09fe8409-b5a4-43a6-a951-de9260e06e1d"}},{"fullUrl":"https://madie.cms.gov/Observation/5e68ec2d59d82f0000c96022","resource":{"resourceType":"Observation","id":"2cae45a1-2db1-4a99-9972-c0888c932b7a","meta":{"profile":["http://hl7.org/fhir/us/qicore/StructureDefinition/qicore-observation"]},"status":"final","category":[{"coding":[{"system":"http://terminology.hl7.org/CodeSystem/observation-category","code":"exam","display":"exam","userSelected":true}]}],"code":{"coding":[{"system":"http://loinc.org","code":"93857-1"}]},"subject":{"reference":"Patient/6a8804e3-d7cc-494e-8cb8-0befa0566c14"},"effectiveDateTime":"2025-06-08T20:00:00.000+00:00","valueDateTime":"2025-06-08T20:00:00+00:00"},"request":{"method":"PUT","url":"Observation/2cae45a1-2db1-4a99-9972-c0888c932b7a"}},{"fullUrl":"https://madie.cms.gov/Encounter/5d014eb2b848460872380628","resource":{"resourceType":"Encounter","id":"2179c7c5-e702-48f7-94dc-8ca1cea42568","meta":{"profile":["http://hl7.org/fhir/us/qicore/StructureDefinition/qicore-encounter"]},"status":"finished","class":{"system":"http://terminology.hl7.org/CodeSystem/v3-ActCode","code":"IMP","display":"inpatient encounter"},"type":[{"coding":[{"system":"http://snomed.info/sct","code":"8715000"}]}],"subject":{"reference":"Patient/6a8804e3-d7cc-494e-8cb8-0befa0566c14"},"period":{"start":"2025-06-08T08:00:00.000Z","end":"2025-06-10T08:15:00.000Z"},"length":{"value":2.0,"unit":"days"},"diagnosis":[{"condition":{"reference":"Condition/delivery-of-singleton-f83c"},"use":{"coding":[{"system":"http://snomed.info/sct","code":"169826009","display":"Delivery of Singleton"}]}},{"condition":{"reference":"Condition/delivery-of-singleton-3abb"}}]},"request":{"method":"PUT","url":"Encounter/2179c7c5-e702-48f7-94dc-8ca1cea42568"}},{"fullUrl":"https://madie.cms.gov/Procedure/5d014eb2b848460872380629","resource":{"resourceType":"Procedure","id":"8aa401de-7186-447e-87ff-0f93349d90b8","meta":{"profile":["http://hl7.org/fhir/us/qicore/StructureDefinition/qicore-procedure"]},"extension":[{"url":"http://hl7.org/fhir/us/qicore/StructureDefinition/qicore-recorded","valueDateTime":"2013-04-05T09:35:00-04:00"}],"status":"completed","code":{"coding":[{"system":"http://www.cms.gov/Medicare/Coding/ICD10","code":"10D00Z0"},{"system":"http://www.icd10data.com/icd10pcs","code":"10D00Z0","userSelected":true}]},"subject":{"reference":"Patient/6a8804e3-d7cc-494e-8cb8-0befa0566c14"},"performedPeriod":{"start":"2025-06-08T20:00:00.000Z","end":"2025-06-08T20:15:00.000Z"}},"request":{"method":"PUT","url":"Procedure/8aa401de-7186-447e-87ff-0f93349d90b8"}},{"fullUrl":"https://madie.cms.gov/Condition/delivery-of-singleton-3abb","resource":{"resourceType":"Condition","id":"2cb6bd3f-b9c8-47cc-b482-512479d99f7a","meta":{"profile":["http://hl7.org/fhir/us/qicore/StructureDefinition/qicore-condition"]},"category":[{"coding":[{"system":"http://terminology.hl7.org/CodeSystem/condition-category","code":"encounter-diagnosis","display":"Encounter Diagnosis"}]}],"code":{"coding":[{"system":"http://snomed.info/sct","version":"2022-09","code":"169826009","display":"Single live birth (finding)","userSelected":true}]},"subject":{"reference":"Patient/6a8804e3-d7cc-494e-8cb8-0befa0566c14"},"recordedDate":"2025-10-18T08:00:00.000+00:00"},"request":{"method":"PUT","url":"Condition/2cb6bd3f-b9c8-47cc-b482-512479d99f7a"}},{"fullUrl":"https://madie.cms.gov/Coverage/1","resource":{"resourceType":"Coverage","id":"42d5e0d6-9408-4ea4-aa3f-68e8848bf0e8","meta":{"profile":["http://hl7.org/fhir/us/qicore/StructureDefinition/qicore-coverage"]},"status":"active","beneficiary":{"reference":"Patient/6a8804e3-d7cc-494e-8cb8-0befa0566c14"},"payor":[{"reference":"Organization/024e2731-b045-43bf-80d2-684774c5b51c"}]},"request":{"method":"PUT","url":"Coverage/42d5e0d6-9408-4ea4-aa3f-68e8848bf0e8"}},{"fullUrl":"https://madie.cms.gov/Organization/123456","resource":{"resourceType":"Organization","id":"024e2731-b045-43bf-80d2-684774c5b51c","meta":{"profile":["http://hl7.org/fhir/us/qicore/StructureDefinition/qicore-organization"]},"identifier":[{"use":"temp","system":"urn:oid:2.16.840.1.113883.4.4","value":"21-3259825"}],"active":true,"type":[{"coding":[{"system":"http://terminology.hl7.org/CodeSystem/organization-type","code":"pay","display":"Payer"}]}],"name":"Blue Cross Blue Shield of Texas","telecom":[{"system":"phone","value":"(+1) 972-766-6900"}],"address":[{"use":"billing","type":"postal","line":["P.O. Box 660044"],"city":"Dallas","state":"TX","postalCode":"75266-0044","country":"USA"}]},"request":{"method":"PUT","url":"Organization/024e2731-b045-43bf-80d2-684774c5b51c"}},{"fullUrl":"https://madie.cms.gov/Practitioner/practitioner-123456","resource":{"resourceType":"Practitioner","id":"770cdb2c-6d18-4407-b8fc-b17202ad837d","identifier":[{"system":"http://hl7.org/fhir/sid/us-npi","value":"123456"}],"name":[{"family":"Evil","prefix":["Dr"]}]},"request":{"method":"PUT","url":"Practitioner/770cdb2c-6d18-4407-b8fc-b17202ad837d"}},{"fullUrl":"https://madie.cms.gov/MeasureReport/ea2a8d4f-05cd-46b0-92a8-fe780a58eb10","resource":{"resourceType":"MeasureReport","id":"ea2a8d4f-05cd-46b0-92a8-fe780a58eb10","meta":{"profile":["http://hl7.org/fhir/us/cqfmeasures/StructureDefinition/test-case-cqfm"]},"contained":[{"resourceType":"Parameters","id":"707af29b-e73f-40f3-bc84-46dba0f60b34-parameters","parameter":[{"name":"subject","valueString":"6a8804e3-d7cc-494e-8cb8-0befa0566c14"}]}],"extension":[{"url":"http://hl7.org/fhir/us/cqfmeasures/StructureDefinition/cqfm-inputParameters","valueReference":{"reference":"#707af29b-e73f-40f3-bc84-46dba0f60b34-parameters"}},{"url":"http://hl7.org/fhir/us/cqfmeasures/StructureDefinition/cqfm-testCaseDescription","valueMarkdown":"Parity=0, relevant date/time exactly 42 weeks prior to delivery date/time.  \n"}],"modifierExtension":[{"url":"http://hl7.org/fhir/us/cqfmeasures/StructureDefinition/cqfm-isTestCase","valueBoolean":true}],"status":"complete","type":"individual","measure":"https://madie.cms.gov/Measure/CesareanBirthFHIR","period":{"start":"2025-01-01","end":"2025-12-31"},"group":[{"population":[{"code":{"coding":[{"system":"http://terminology.hl7.org/CodeSystem/measure-population","code":"initial-population","display":"Initial Population"}]},"count":1},{"code":{"coding":[{"system":"http://terminology.hl7.org/CodeSystem/measure-population","code":"denominator","display":"Denominator"}]},"count":1},{"code":{"coding":[{"system":"http://terminology.hl7.org/CodeSystem/measure-population","code":"denominator-exclusion","display":"Denominator Exclusion"}]},"count":0},{"code":{"coding":[{"system":"http://terminology.hl7.org/CodeSystem/measure-population","code":"numerator","display":"Numerator"}]},"count":1}]}]},"request":{"method":"PUT","url":"MeasureReport/ea2a8d4f-05cd-46b0-92a8-fe780a58eb10"}}]}