{
  "resourceType": "Bundle",
  "id": "633b3f9e0968f80122503cbe",
  "type": "transaction",
  "entry": [ {
    "fullUrl": "https://madie.cms.gov/Patient/cf6df162-1d6f-4e12-bb7b-b0b910af62ce",
    "resource": {
      "resourceType": "Patient",
      "id": "cf6df162-1d6f-4e12-bb7b-b0b910af62ce",
      "meta": {
        "profile": [ "http://hl7.org/fhir/us/qicore/StructureDefinition/qicore-patient" ]
      },
      "text": {
        "status": "generated",
        "div": "<div xmlns=\"http://www.w3.org/1999/xhtml\"><div class=\"hapiHeaderText\">Age65OnDayOfEncStart <b>IPFAIL </b></div><table class=\"hapiPropertyTable\"><tbody><tr><td>Date of birth</td><td><span>01 February 1947</span></td></tr></tbody></table></div>"
      },
      "extension": [ {
        "url": "http://hl7.org/fhir/us/core/StructureDefinition/us-core-race",
        "extension": [ {
          "url": "ombCategory",
          "valueCoding": {
            "system": "urn:oid:2.16.840.1.113883.6.238",
            "code": "1002-5",
            "display": "American Indian or Alaska Native",
            "userSelected": true
          }
        }, {
          "url": "text",
          "valueString": "American Indian or Alaska Native"
        } ]
      }, {
        "url": "http://hl7.org/fhir/us/core/StructureDefinition/us-core-ethnicity",
        "extension": [ {
          "url": "ombCategory",
          "valueCoding": {
            "system": "urn:oid:2.16.840.1.113883.6.238",
            "code": "2135-2",
            "display": "Hispanic or Latino",
            "userSelected": true
          }
        }, {
          "url": "text",
          "valueString": "Hispanic or Latino"
        } ]
      } ],
      "identifier": [ {
        "type": {
          "coding": [ {
            "system": "http://terminology.hl7.org/CodeSystem/v2-0203",
            "code": "MR"
          } ]
        },
        "system": "https://bonnie-fhir.healthit.gov/",
        "value": "633b3f9e0968f80122503cbe"
      } ],
      "active": true,
      "name": [ {
        "use": "usual",
        "family": "IPFail",
        "given": [ "Age65OnDayOfEncStart" ]
      } ],
      "gender": "female",
      "birthDate": "1959-02-01"
    },
    "request": {
      "method": "PUT",
      "url": "Patient/cf6df162-1d6f-4e12-bb7b-b0b910af62ce"
    }
  }, {
    "fullUrl": "https://madie.cms.gov/Encounter/67454ca9-3237-416a-9f22-e1d7c238d231",
    "resource": {
      "resourceType": "Encounter",
      "id": "67454ca9-3237-416a-9f22-e1d7c238d231",
      "meta": {
        "profile": [ "http://hl7.org/fhir/us/qicore/StructureDefinition/qicore-encounter" ]
      },
      "status": "finished",
      "class": {
        "system": "http://terminology.hl7.org/CodeSystem/v3-ActCode",
        "code": "IMP",
        "display": "inpatient encounter"
      },
      "type": [ {
        "coding": [ {
          "system": "http://snomed.info/sct",
          "code": "183452005"
        } ]
      } ],
      "subject": {
        "reference": "Patient/cf6df162-1d6f-4e12-bb7b-b0b910af62ce"
      },
      "period": {
        "start": "2025-02-01T08:00:00.000Z",
        "end": "2025-02-05T08:15:00.000Z"
      },
      "diagnosis": [ {
        "condition": {
          "reference": "Condition/Condition-2"
        },
        "use": {
          "coding": [ {
            "system": "http://snomed.info/sct",
            "code": "169826009",
            "display": "Delivery of Singleton"
          } ]
        }
      } ]
    },
    "request": {
      "method": "PUT",
      "url": "Encounter/67454ca9-3237-416a-9f22-e1d7c238d231"
    }
  }, {
    "fullUrl": "https://madie.cms.gov/Coverage/52d4de59-00b8-4afb-83ae-e963aaaa221a",
    "resource": {
      "resourceType": "Coverage",
      "id": "52d4de59-00b8-4afb-83ae-e963aaaa221a",
      "status": "active",
      "beneficiary": {
        "reference": "Patient/cf6df162-1d6f-4e12-bb7b-b0b910af62ce"
      },
      "period": {
        "start": "1947-02-01T01:00:00.000Z"
      },
      "payor": [ {
        "reference": "Organization/2ee6d99c-8669-4500-89bc-a722b5c77e44"
      } ]
    },
    "request": {
      "method": "PUT",
      "url": "Coverage/52d4de59-00b8-4afb-83ae-e963aaaa221a"
    }
  }, {
    "fullUrl": "https://madie.cms.gov/Procedure/ee2a1caf-af77-4cba-b8b2-0e7b13088a27",
    "resource": {
      "resourceType": "Procedure",
      "id": "ee2a1caf-af77-4cba-b8b2-0e7b13088a27",
      "meta": {
        "profile": [ "http://hl7.org/fhir/us/qicore/StructureDefinition/qicore-procedure" ]
      },
      "extension": [ {
        "url": "http://hl7.org/fhir/us/qicore/StructureDefinition/qicore-recorded",
        "valueDateTime": "2013-04-05T09:35:00-04:00"
      } ],
      "status": "completed",
      "code": {
        "coding": [ {
          "system": "http://snomed.info/sct",
          "version": "2022-09",
          "code": "10745001",
          "display": "Delivery of transverse presentation (procedure)",
          "userSelected": true
        } ]
      },
      "subject": {
        "reference": "Patient/cf6df162-1d6f-4e12-bb7b-b0b910af62ce"
      },
      "performedPeriod": {
        "start": "2025-02-01T08:00:00.000Z",
        "end": "2025-02-05T08:15:00.000Z"
      }
    },
    "request": {
      "method": "PUT",
      "url": "Procedure/ee2a1caf-af77-4cba-b8b2-0e7b13088a27"
    }
  }, {
    "fullUrl": "https://madie.cms.gov/Organization/2ee6d99c-8669-4500-89bc-a722b5c77e44",
    "resource": {
      "resourceType": "Organization",
      "id": "2ee6d99c-8669-4500-89bc-a722b5c77e44",
      "meta": {
        "profile": [ "http://hl7.org/fhir/us/qicore/StructureDefinition/qicore-organization" ]
      },
      "identifier": [ {
        "use": "temp",
        "system": "urn:oid:2.16.840.1.113883.4.4",
        "value": "21-3259825"
      } ],
      "active": true,
      "type": [ {
        "coding": [ {
          "system": "http://terminology.hl7.org/CodeSystem/organization-type",
          "code": "pay",
          "display": "Payer"
        } ]
      } ],
      "name": "Blue Cross Blue Shield of Texas",
      "telecom": [ {
        "system": "phone",
        "value": "(+1) 972-766-6900"
      } ],
      "address": [ {
        "use": "billing",
        "type": "postal",
        "line": [ "P.O. Box 660044" ],
        "city": "Dallas",
        "state": "TX",
        "postalCode": "75266-0044",
        "country": "USA"
      } ]
    },
    "request": {
      "method": "PUT",
      "url": "Organization/2ee6d99c-8669-4500-89bc-a722b5c77e44"
    }
  }, {
    "fullUrl": "https://madie.cms.gov/Practitioner/f1ed2969-3634-4f88-b74d-06f08b857d1d",
    "resource": {
      "resourceType": "Practitioner",
      "id": "f1ed2969-3634-4f88-b74d-06f08b857d1d",
      "identifier": [ {
        "system": "http://hl7.org/fhir/sid/us-npi",
        "value": "123456"
      } ],
      "name": [ {
        "family": "Evil",
        "prefix": [ "Dr" ]
      } ]
    },
    "request": {
      "method": "PUT",
      "url": "Practitioner/f1ed2969-3634-4f88-b74d-06f08b857d1d"
    }
  }, {
    "fullUrl": "https://madie.cms.gov/MeasureReport/fc439aa8-df0d-42dc-8d3d-49ac6e75100b",
    "resource": {
      "resourceType": "MeasureReport",
      "id": "fc439aa8-df0d-42dc-8d3d-49ac6e75100b",
      "meta": {
        "profile": [ "http://hl7.org/fhir/us/cqfmeasures/StructureDefinition/test-case-cqfm" ]
      },
      "contained": [ {
        "resourceType": "Parameters",
        "id": "a662bae2-f4fc-4352-a7cc-77a955a4fd9f-parameters",
        "parameter": [ {
          "name": "subject",
          "valueString": "cf6df162-1d6f-4e12-bb7b-b0b910af62ce"
        } ]
      } ],
      "extension": [ {
        "url": "http://hl7.org/fhir/us/cqfmeasures/StructureDefinition/cqfm-inputParameters",
        "valueReference": {
          "reference": "#a662bae2-f4fc-4352-a7cc-77a955a4fd9f-parameters"
        }
      }, {
        "url": "http://hl7.org/fhir/us/cqfmeasures/StructureDefinition/cqfm-testCaseDescription",
        "valueMarkdown": "Patient turns 65 years of age on day encounter starts.\n"
      } ],
      "modifierExtension": [ {
        "url": "http://hl7.org/fhir/us/cqfmeasures/StructureDefinition/cqfm-isTestCase",
        "valueBoolean": true
      } ],
      "status": "complete",
      "type": "individual",
      "measure": "https://madie.cms.gov/Measure/CMS1028FHIRPCSevereOBComps",
      "period": {
        "start": "2025-01-01",
        "end": "2025-12-31"
      },
      "group": [ {
        "population": [ {
          "code": {
            "coding": [ {
              "system": "http://terminology.hl7.org/CodeSystem/measure-population",
              "code": "initial-population",
              "display": "Initial Population"
            } ]
          },
          "count": 0
        }, {
          "code": {
            "coding": [ {
              "system": "http://terminology.hl7.org/CodeSystem/measure-population",
              "code": "denominator",
              "display": "Denominator"
            } ]
          },
          "count": 0
        }, {
          "code": {
            "coding": [ {
              "system": "http://terminology.hl7.org/CodeSystem/measure-population",
              "code": "numerator",
              "display": "Numerator"
            } ]
          },
          "count": 0
        }, {
          "code": {
            "coding": [ {
              "system": "http://terminology.hl7.org/CodeSystem/measure-population",
              "code": "numerator-exclusion",
              "display": "Numerator Exclusion"
            } ]
          },
          "count": 0
        } ]
      } ],
      "evaluatedResource": [ {
        "reference": "Patient/cf6df162-1d6f-4e12-bb7b-b0b910af62ce"
      }, {
        "reference": "Encounter/67454ca9-3237-416a-9f22-e1d7c238d231"
      }, {
        "reference": "Coverage/52d4de59-00b8-4afb-83ae-e963aaaa221a"
      }, {
        "reference": "Procedure/ee2a1caf-af77-4cba-b8b2-0e7b13088a27"
      }, {
        "reference": "Organization/2ee6d99c-8669-4500-89bc-a722b5c77e44"
      }, {
        "reference": "Practitioner/f1ed2969-3634-4f88-b74d-06f08b857d1d"
      } ]
    },
    "request": {
      "method": "PUT",
      "url": "MeasureReport/fc439aa8-df0d-42dc-8d3d-49ac6e75100b"
    }
  } ]
}