{"resourceType":"Bundle","id":"tests-348471db-5aaa-4bf3-a280-75222f20d599-bundle","type":"transaction","entry":[{"fullUrl":"https://madie.cms.gov/Patient/348471db-5aaa-4bf3-a280-75222f20d599","resource":{"resourceType":"Patient","id":"348471db-5aaa-4bf3-a280-75222f20d599","meta":{"profile":["http://hl7.org/fhir/us/qicore/StructureDefinition/qicore-patient"]},"text":{"status":"generated","div":"<div xmlns=\"http://www.w3.org/1999/xhtml\"><div class=\"hapiHeaderText\">3Enc2WithAntithrombotic2WithExcep <b>NUMER&amp;DENEXCEPPASS- LCG </b></div><table class=\"hapiPropertyTable\"><tbody><tr><td>Identifier</td><td>be14f222c0646cc5d7ac050774528f5e42a5a6df28c00c64454006e7ac2a1af3</td></tr><tr><td>Date of birth</td><td><span>31 May 1989</span></td></tr></tbody></table></div>"},"extension":[{"url":"http://hl7.org/fhir/us/core/StructureDefinition/us-core-race","extension":[{"url":"ombCategory","valueCoding":{"system":"urn:oid:2.16.840.1.113883.6.238","code":"1002-5","display":"American Indian or Alaska Native","userSelected":true}},{"url":"text","valueString":"American Indian or Alaska Native"}]},{"url":"http://hl7.org/fhir/us/core/StructureDefinition/us-core-ethnicity","extension":[{"url":"ombCategory","valueCoding":{"system":"urn:oid:2.16.840.1.113883.6.238","code":"2135-2","display":"Hispanic or Latino","userSelected":true}},{"url":"text","valueString":"Hispanic or Latino"}]}],"identifier":[{"type":{"coding":[{"system":"http://terminology.hl7.org/CodeSystem/v2-0203","code":"MR"}]},"system":"https://bonnie-fhir.healthit.gov/","value":"6129131802c62a011f2e5ad8"}],"active":true,"name":[{"use":"usual","family":"NUMER&DENEXCEPPass- LCG","given":["3Enc2WithAntithrombotic2WithExcep"]}],"gender":"male","birthDate":"1998-05-30"},"request":{"method":"PUT","url":"Patient/348471db-5aaa-4bf3-a280-75222f20d599"}},{"fullUrl":"https://madie.cms.gov/Encounter/5c9e2f9fb8484633ef4dc0e5","resource":{"resourceType":"Encounter","id":"f42c9d8e-e189-483d-a6da-6d4056ade1ae","meta":{"profile":["http://hl7.org/fhir/us/qicore/StructureDefinition/qicore-encounter"]},"status":"finished","class":{"system":"http://terminology.hl7.org/CodeSystem/v3-ActCode","code":"IMP","display":"inpatient encounter","userSelected":true},"type":[{"coding":[{"system":"http://snomed.info/sct","code":"183452005"}]}],"subject":{"reference":"Patient/348471db-5aaa-4bf3-a280-75222f20d599"},"period":{"start":"2025-06-14T09:30:00.000+00:00","end":"2025-06-25T10:30:00.000+00:00"},"length":{"value":0,"unit":"days"},"diagnosis":[{"condition":{"reference":"Condition/ischemic-stroke-7f2d"},"use":{"coding":[{"system":"http://terminology.hl7.org/CodeSystem/diagnosis-role","code":"billing","display":"Billing"}]},"rank":1}]},"request":{"method":"PUT","url":"Encounter/f42c9d8e-e189-483d-a6da-6d4056ade1ae"}},{"fullUrl":"https://madie.cms.gov/Encounter/5c9e2f9fb8484633ef4dc0e6","resource":{"resourceType":"Encounter","id":"406355f3-9256-4804-9d9c-7c9c3f8daa7b","meta":{"profile":["http://hl7.org/fhir/us/qicore/StructureDefinition/qicore-encounter"]},"status":"finished","class":{"system":"http://terminology.hl7.org/CodeSystem/v3-ActCode","code":"IMP","display":"inpatient encounter","userSelected":true},"type":[{"coding":[{"system":"http://snomed.info/sct","code":"32485007"}]}],"subject":{"reference":"Patient/348471db-5aaa-4bf3-a280-75222f20d599"},"period":{"start":"2025-06-15T09:30:00.000+00:00","end":"2025-10-12T10:30:00.000+00:00"},"length":{"value":119,"unit":"days"},"diagnosis":[{"condition":{"reference":"Condition/ischemic-stroke-7f2f"},"use":{"coding":[{"system":"http://terminology.hl7.org/CodeSystem/diagnosis-role","code":"billing","display":"Billing"}]},"rank":1}]},"request":{"method":"PUT","url":"Encounter/406355f3-9256-4804-9d9c-7c9c3f8daa7b"}},{"fullUrl":"https://madie.cms.gov/Encounter/5e1f8a9ee6bd0c00001007bd","resource":{"resourceType":"Encounter","id":"ed4132ac-97c2-4a8f-b9a5-621ad1398358","meta":{"profile":["http://hl7.org/fhir/us/qicore/StructureDefinition/qicore-encounter"]},"status":"finished","class":{"system":"http://terminology.hl7.org/CodeSystem/v3-ActCode","code":"IMP","display":"inpatient encounter","userSelected":true},"type":[{"coding":[{"system":"http://snomed.info/sct","code":"183452005"}]}],"subject":{"reference":"Patient/348471db-5aaa-4bf3-a280-75222f20d599"},"period":{"start":"2025-01-15T11:00:00.000+00:00","end":"2025-01-20T22:15:00.000+00:00"},"diagnosis":[{"condition":{"reference":"Condition/ischemic-stroke-7f2e"},"use":{"coding":[{"system":"http://terminology.hl7.org/CodeSystem/diagnosis-role","code":"billing","display":"Billing"}]},"rank":1}]},"request":{"method":"PUT","url":"Encounter/ed4132ac-97c2-4a8f-b9a5-621ad1398358"}},{"fullUrl":"https://madie.cms.gov/Procedure/5e29ca591ec3e200001626d6","resource":{"resourceType":"Procedure","id":"0d914538-6653-44ee-a0ef-5b9d103c9f40","meta":{"profile":["http://hl7.org/fhir/us/qicore/StructureDefinition/qicore-procedure"]},"extension":[{"url":"http://hl7.org/fhir/us/qicore/StructureDefinition/qicore-recorded","valueDateTime":"2012-06-14T09:30:00+00:00"}],"status":"completed","code":{"coding":[{"system":"http://snomed.info/sct","code":"133918004"}]},"subject":{"reference":"Patient/348471db-5aaa-4bf3-a280-75222f20d599"},"performedPeriod":{"start":"2025-06-14T09:30:00.000+00:00","end":"2025-06-25T10:30:00.000+00:00"}},"request":{"method":"PUT","url":"Procedure/0d914538-6653-44ee-a0ef-5b9d103c9f40"}},{"fullUrl":"https://madie.cms.gov/MedicationRequest/5c9e2f9fb8484633ef4dc0e7","resource":{"resourceType":"MedicationRequest","id":"30b5a275-6cb0-4729-ace4-e43fdea4639c","meta":{"profile":["http://hl7.org/fhir/us/qicore/StructureDefinition/qicore-medicationrequest"]},"status":"active","intent":"order","category":[{"coding":[{"system":"http://terminology.hl7.org/CodeSystem/medicationrequest-category","code":"discharge","display":"Discharge","userSelected":true}]}],"medicationCodeableConcept":{"coding":[{"system":"http://www.nlm.nih.gov/research/umls/rxnorm","code":"1037045"}]},"subject":{"reference":"Patient/348471db-5aaa-4bf3-a280-75222f20d599"},"authoredOn":"2025-10-10T10:00:00.000+00:00","requester":{"reference":"Practitioner/example"}},"request":{"method":"PUT","url":"MedicationRequest/30b5a275-6cb0-4729-ace4-e43fdea4639c"}},{"fullUrl":"https://madie.cms.gov/MedicationRequest/5e1f89b2e6bd0c0000100733","resource":{"resourceType":"MedicationRequest","id":"4bb5ed6e-3ff5-4956-980d-45ec25339d81","meta":{"profile":["http://hl7.org/fhir/us/qicore/StructureDefinition/qicore-medicationrequest"]},"status":"active","intent":"order","category":[{"coding":[{"system":"http://terminology.hl7.org/CodeSystem/medicationrequest-category","code":"discharge","display":"Discharge","userSelected":true}]}],"medicationCodeableConcept":{"coding":[{"system":"http://www.nlm.nih.gov/research/umls/rxnorm","code":"1037045"}]},"subject":{"reference":"Patient/348471db-5aaa-4bf3-a280-75222f20d599"},"authoredOn":"2025-06-14T09:30:00.000+00:00","requester":{"reference":"Practitioner/example"}},"request":{"method":"PUT","url":"MedicationRequest/4bb5ed6e-3ff5-4956-980d-45ec25339d81"}},{"fullUrl":"https://madie.cms.gov/MedicationRequest/5e1f8b59e6bd0c0000100883","resource":{"resourceType":"MedicationRequest","id":"3ac7f8e8-d7fc-4c32-a3e6-bf1136bd266e","meta":{"profile":["http://hl7.org/fhir/us/qicore/StructureDefinition/qicore-medicationrequest"]},"status":"active","intent":"order","category":[{"coding":[{"system":"http://terminology.hl7.org/CodeSystem/medicationrequest-category","code":"discharge","display":"Discharge","userSelected":true}]}],"doNotPerform":false,"medicationCodeableConcept":{"coding":[{"system":"http://www.nlm.nih.gov/research/umls/rxnorm","code":"855812","display":"prasugrel 10 MG Oral Tablet","userSelected":true}]},"subject":{"reference":"Patient/348471db-5aaa-4bf3-a280-75222f20d599"},"authoredOn":"2025-01-15T11:00:00.000+00:00","requester":{"reference":"Practitioner/example"}},"request":{"method":"PUT","url":"MedicationRequest/3ac7f8e8-d7fc-4c32-a3e6-bf1136bd266e"}},{"fullUrl":"https://madie.cms.gov/Condition/ischemic-stroke-7f2d","resource":{"resourceType":"Condition","id":"62b051a3-1aea-4cd4-8ced-d7bac73c38d7","meta":{"profile":["http://hl7.org/fhir/us/qicore/StructureDefinition/qicore-condition"]},"clinicalStatus":{"coding":[{"system":"http://terminology.hl7.org/CodeSystem/condition-clinical","code":"active"}]},"verificationStatus":{"coding":[{"system":"http://terminology.hl7.org/CodeSystem/condition-ver-status","code":"confirmed"}]},"category":[{"coding":[{"system":"http://terminology.hl7.org/CodeSystem/condition-category","code":"encounter-diagnosis","display":"Encounter Diagnosis"}]}],"code":{"coding":[{"system":"http://snomed.info/sct","version":"2020-09","code":"111297002","display":"Nonparalytic stroke (disorder)","userSelected":true}]},"subject":{"reference":"Patient/348471db-5aaa-4bf3-a280-75222f20d599"},"recordedDate":"2025-07-15T08:00:00.000+00:00"},"request":{"method":"PUT","url":"Condition/62b051a3-1aea-4cd4-8ced-d7bac73c38d7"}},{"fullUrl":"https://madie.cms.gov/Condition/ischemic-stroke-7f2e","resource":{"resourceType":"Condition","id":"cce16b33-59f9-46e3-a145-451b3af394a4","meta":{"profile":["http://hl7.org/fhir/us/qicore/StructureDefinition/qicore-condition"]},"clinicalStatus":{"coding":[{"system":"http://terminology.hl7.org/CodeSystem/condition-clinical","code":"active"}]},"verificationStatus":{"coding":[{"system":"http://terminology.hl7.org/CodeSystem/condition-ver-status","code":"confirmed"}]},"category":[{"coding":[{"system":"http://terminology.hl7.org/CodeSystem/condition-category","code":"encounter-diagnosis","display":"Encounter Diagnosis"}]}],"code":{"coding":[{"system":"http://snomed.info/sct","version":"2020-09","code":"111297002","display":"Nonparalytic stroke (disorder)","userSelected":true}]},"subject":{"reference":"Patient/348471db-5aaa-4bf3-a280-75222f20d599"},"recordedDate":"2025-07-15T08:00:00.000+00:00"},"request":{"method":"PUT","url":"Condition/cce16b33-59f9-46e3-a145-451b3af394a4"}},{"fullUrl":"https://madie.cms.gov/Condition/ischemic-stroke-7f2f","resource":{"resourceType":"Condition","id":"ef2dfee6-1774-4166-830d-c1551ba21148","meta":{"profile":["http://hl7.org/fhir/us/qicore/StructureDefinition/qicore-condition"]},"clinicalStatus":{"coding":[{"system":"http://terminology.hl7.org/CodeSystem/condition-clinical","code":"active"}]},"verificationStatus":{"coding":[{"system":"http://terminology.hl7.org/CodeSystem/condition-ver-status","code":"confirmed"}]},"category":[{"coding":[{"system":"http://terminology.hl7.org/CodeSystem/condition-category","code":"encounter-diagnosis","display":"Encounter Diagnosis"}]}],"code":{"coding":[{"system":"http://snomed.info/sct","version":"2020-09","code":"111297002","display":"Nonparalytic stroke (disorder)","userSelected":true}]},"subject":{"reference":"Patient/348471db-5aaa-4bf3-a280-75222f20d599"},"recordedDate":"2025-07-15T08:00:00.000+00:00"},"request":{"method":"PUT","url":"Condition/ef2dfee6-1774-4166-830d-c1551ba21148"}},{"fullUrl":"https://madie.cms.gov/Coverage/1","resource":{"resourceType":"Coverage","id":"c045337e-9bff-4966-9d76-bfa84cd9b06d","meta":{"profile":["http://hl7.org/fhir/us/qicore/StructureDefinition/qicore-coverage"]},"status":"active","beneficiary":{"reference":"Patient/348471db-5aaa-4bf3-a280-75222f20d599"},"payor":[{"reference":"Organization/024e2731-b045-43bf-80d2-684774c5b51c"}]},"request":{"method":"PUT","url":"Coverage/c045337e-9bff-4966-9d76-bfa84cd9b06d"}},{"fullUrl":"https://madie.cms.gov/Organization/123456","resource":{"resourceType":"Organization","id":"024e2731-b045-43bf-80d2-684774c5b51c","meta":{"profile":["http://hl7.org/fhir/us/qicore/StructureDefinition/qicore-organization"]},"identifier":[{"use":"temp","system":"urn:oid:2.16.840.1.113883.4.4","value":"21-3259825"}],"active":true,"type":[{"coding":[{"system":"http://terminology.hl7.org/CodeSystem/organization-type","code":"pay","display":"Payer"}]}],"name":"Blue Cross Blue Shield of Texas","telecom":[{"system":"phone","value":"(+1) 972-766-6900"}],"address":[{"use":"billing","type":"postal","line":["P.O. Box 660044"],"city":"Dallas","state":"TX","postalCode":"75266-0044","country":"USA"}]},"request":{"method":"PUT","url":"Organization/024e2731-b045-43bf-80d2-684774c5b51c"}},{"fullUrl":"https://madie.cms.gov/MeasureReport/b12b28fe-f55c-4695-aee8-bc0ebd5cb5f1","resource":{"resourceType":"MeasureReport","id":"b12b28fe-f55c-4695-aee8-bc0ebd5cb5f1","meta":{"profile":["http://hl7.org/fhir/us/cqfmeasures/StructureDefinition/test-case-cqfm"]},"contained":[{"resourceType":"Parameters","id":"21b3abea-ed39-4cad-90ba-0cb30041b885-parameters","parameter":[{"name":"subject","valueString":"348471db-5aaa-4bf3-a280-75222f20d599"}]}],"extension":[{"url":"http://hl7.org/fhir/us/cqfmeasures/StructureDefinition/cqfm-inputParameters","valueReference":{"reference":"#21b3abea-ed39-4cad-90ba-0cb30041b885-parameters"}},{"url":"http://hl7.org/fhir/us/cqfmeasures/StructureDefinition/cqfm-testCaseDescription","valueMarkdown":"Patient is GT 18 with 2 Non-Elective Inpatient Encounter (LOS 120 days) with principal diagnosis of ischemic stroke ends during MP received antithrombotic during both IP encounter. \n"}],"modifierExtension":[{"url":"http://hl7.org/fhir/us/cqfmeasures/StructureDefinition/cqfm-isTestCase","valueBoolean":true}],"status":"complete","type":"individual","measure":"https://madie.cms.gov/Measure/DischargedonAntithromboticTherapyFHIR","period":{"start":"2025-01-01","end":"2025-12-31"},"group":[{"population":[{"code":{"coding":[{"system":"http://terminology.hl7.org/CodeSystem/measure-population","code":"initial-population","display":"Initial Population"}]},"count":3},{"code":{"coding":[{"system":"http://terminology.hl7.org/CodeSystem/measure-population","code":"denominator","display":"Denominator"}]},"count":3},{"code":{"coding":[{"system":"http://terminology.hl7.org/CodeSystem/measure-population","code":"denominator-exclusion","display":"Denominator Exclusion"}]},"count":1},{"code":{"coding":[{"system":"http://terminology.hl7.org/CodeSystem/measure-population","code":"numerator","display":"Numerator"}]},"count":1},{"code":{"coding":[{"system":"http://terminology.hl7.org/CodeSystem/measure-population","code":"denominator-exception","display":"Denominator Exception"}]},"count":1}]}]},"request":{"method":"PUT","url":"MeasureReport/b12b28fe-f55c-4695-aee8-bc0ebd5cb5f1"}}]}