{"resourceType":"Bundle","id":"tests-964f8143-6ff7-4b80-ad76-4dc59de2af37-bundle","type":"transaction","entry":[{"fullUrl":"https://madie.cms.gov/Patient/964f8143-6ff7-4b80-ad76-4dc59de2af37","resource":{"resourceType":"Patient","id":"964f8143-6ff7-4b80-ad76-4dc59de2af37","meta":{"profile":["http://hl7.org/fhir/us/qicore/StructureDefinition/qicore-patient"]},"text":{"status":"generated","div":"<div xmlns=\"http://www.w3.org/1999/xhtml\"><div class=\"hapiHeaderText\">CMOdurObs_ED&lt;1hrObs&gt;1hrBFEnc <b>DENEXFAIL </b></div><table class=\"hapiPropertyTable\"><tbody><tr><td>Identifier</td><td>a36fb0cf3d8cc0c3f179425073d57183763e3626e600c0e967bbfec7a918cee5</td></tr><tr><td>Date of birth</td><td><span>21 August 1994</span></td></tr></tbody></table></div>"},"extension":[{"url":"http://hl7.org/fhir/us/core/StructureDefinition/us-core-race","extension":[{"url":"ombCategory","valueCoding":{"system":"urn:oid:2.16.840.1.113883.6.238","code":"1002-5","display":"American Indian or Alaska Native","userSelected":true}},{"url":"text","valueString":"American Indian or Alaska Native"}]},{"url":"http://hl7.org/fhir/us/core/StructureDefinition/us-core-ethnicity","extension":[{"url":"ombCategory","valueCoding":{"system":"urn:oid:2.16.840.1.113883.6.238","code":"2135-2","display":"Hispanic or Latino","userSelected":true}},{"url":"text","valueString":"Hispanic or Latino"}]}],"identifier":[{"type":{"coding":[{"system":"http://terminology.hl7.org/CodeSystem/v2-0203","code":"MR"}]},"system":"https://bonnie-fhir.healthit.gov/","value":"6129134902c62a011f2e6f51"}],"active":true,"name":[{"use":"usual","family":"DENEXFail","given":["CMOdurObs_ED<1hrObs>1hrBFEnc"]}],"gender":"male","birthDate":"1994-08-21"},"request":{"method":"PUT","url":"Patient/964f8143-6ff7-4b80-ad76-4dc59de2af37"}},{"fullUrl":"https://madie.cms.gov/Encounter/5c954113b8484612c37f27eb","resource":{"resourceType":"Encounter","id":"2fe610e1-fe14-4ed8-903c-e30c48d7db97","meta":{"profile":["http://hl7.org/fhir/us/qicore/StructureDefinition/qicore-encounter"]},"status":"finished","class":{"system":"http://terminology.hl7.org/CodeSystem/v3-ActCode","code":"EMER","display":"emergency","userSelected":true},"type":[{"coding":[{"system":"http://snomed.info/sct","code":"4525004"}]}],"subject":{"reference":"Patient/964f8143-6ff7-4b80-ad76-4dc59de2af37"},"period":{"start":"2025-10-10T07:30:00.000+00:00","end":"2025-10-10T07:35:00.000+00:00"},"length":{"value":0,"unit":"days"}},"request":{"method":"PUT","url":"Encounter/2fe610e1-fe14-4ed8-903c-e30c48d7db97"}},{"fullUrl":"https://madie.cms.gov/Encounter/5c954113b8484612c37f27ec","resource":{"resourceType":"Encounter","id":"a7572d80-5e71-46f4-9bf8-dd30710ce65b","meta":{"profile":["http://hl7.org/fhir/us/qicore/StructureDefinition/qicore-encounter"]},"status":"finished","class":{"system":"http://terminology.hl7.org/CodeSystem/v3-ActCode","code":"OBSENC","display":"observation encounter","userSelected":true},"type":[{"coding":[{"system":"http://snomed.info/sct","code":"448851000124103"}]}],"subject":{"reference":"Patient/964f8143-6ff7-4b80-ad76-4dc59de2af37"},"period":{"start":"2025-10-10T07:36:00.000+00:00","end":"2025-10-10T09:00:00.000+00:00"},"length":{"value":0,"unit":"days"}},"request":{"method":"PUT","url":"Encounter/a7572d80-5e71-46f4-9bf8-dd30710ce65b"}},{"fullUrl":"https://madie.cms.gov/Encounter/5c954113b8484612c37f27ed","resource":{"resourceType":"Encounter","id":"0363f48f-3a15-41d6-b525-f4ac47e197ba","meta":{"profile":["http://hl7.org/fhir/us/qicore/StructureDefinition/qicore-encounter"]},"status":"finished","class":{"system":"http://terminology.hl7.org/CodeSystem/v3-ActCode","code":"IMP","display":"inpatient encounter","userSelected":true},"type":[{"coding":[{"system":"http://snomed.info/sct","code":"32485007"}]}],"subject":{"reference":"Patient/964f8143-6ff7-4b80-ad76-4dc59de2af37"},"period":{"start":"2025-10-10T10:01:00.000+00:00","end":"2025-10-12T10:30:00.000+00:00"},"length":{"value":2,"unit":"days"},"diagnosis":[{"condition":{"reference":"Condition/ischemic-stroke-2d37"},"use":{"coding":[{"system":"http://terminology.hl7.org/CodeSystem/diagnosis-role","code":"billing","display":"Billing"}]},"rank":1}]},"request":{"method":"PUT","url":"Encounter/0363f48f-3a15-41d6-b525-f4ac47e197ba"}},{"fullUrl":"https://madie.cms.gov/ServiceRequest/5c954113b8484612c37f27ef","resource":{"resourceType":"ServiceRequest","id":"d288280c-c62b-4351-a8ca-233f44803d54","meta":{"profile":["http://hl7.org/fhir/us/qicore/StructureDefinition/qicore-servicerequest"]},"status":"active","intent":"order","code":{"coding":[{"system":"http://snomed.info/sct","code":"133918004"}]},"subject":{"reference":"Patient/964f8143-6ff7-4b80-ad76-4dc59de2af37"},"authoredOn":"2012-10-10T08:37:00+00:00"},"request":{"method":"PUT","url":"ServiceRequest/d288280c-c62b-4351-a8ca-233f44803d54"}},{"fullUrl":"https://madie.cms.gov/Condition/ischemic-stroke-2d37","resource":{"resourceType":"Condition","id":"9489ebdf-2961-45e2-b082-a960642fa623","meta":{"profile":["http://hl7.org/fhir/us/qicore/StructureDefinition/qicore-condition"]},"clinicalStatus":{"coding":[{"system":"http://terminology.hl7.org/CodeSystem/condition-clinical","code":"active"}]},"verificationStatus":{"coding":[{"system":"http://terminology.hl7.org/CodeSystem/condition-ver-status","code":"confirmed"}]},"category":[{"coding":[{"system":"http://terminology.hl7.org/CodeSystem/condition-category","code":"encounter-diagnosis","display":"Encounter Diagnosis"}]}],"code":{"coding":[{"system":"http://snomed.info/sct","version":"2020-09","code":"111297002","display":"Nonparalytic stroke (disorder)","userSelected":true}]},"subject":{"reference":"Patient/964f8143-6ff7-4b80-ad76-4dc59de2af37"},"recordedDate":"2025-07-14T08:00:00.000+00:00"},"request":{"method":"PUT","url":"Condition/9489ebdf-2961-45e2-b082-a960642fa623"}},{"fullUrl":"https://madie.cms.gov/MeasureReport/af512c4b-b457-4e4c-bc62-e7db5eb624ce","resource":{"resourceType":"MeasureReport","id":"af512c4b-b457-4e4c-bc62-e7db5eb624ce","meta":{"profile":["http://hl7.org/fhir/us/cqfmeasures/StructureDefinition/test-case-cqfm"]},"contained":[{"resourceType":"Parameters","id":"1617af41-a8cb-42d8-8cf6-5bad218dfae0-parameters","parameter":[{"name":"subject","valueString":"964f8143-6ff7-4b80-ad76-4dc59de2af37"}]}],"extension":[{"url":"http://hl7.org/fhir/us/cqfmeasures/StructureDefinition/cqfm-inputParameters","valueReference":{"reference":"#1617af41-a8cb-42d8-8cf6-5bad218dfae0-parameters"}},{"url":"http://hl7.org/fhir/us/cqfmeasures/StructureDefinition/cqfm-testCaseDescription","valueMarkdown":"\"Patient receives CMO during observation. ED ends 1 minute before observation. Obs ends 61 min before inpatient encounter start. Testing day of operator with HospitalizationWithObservation function."}],"modifierExtension":[{"url":"http://hl7.org/fhir/us/cqfmeasures/StructureDefinition/cqfm-isTestCase","valueBoolean":true}],"status":"complete","type":"individual","measure":"https://madie.cms.gov/Measure/DischargedonAntithromboticTherapyFHIR","period":{"start":"2025-01-01","end":"2025-12-31"},"group":[{"population":[{"code":{"coding":[{"system":"http://terminology.hl7.org/CodeSystem/measure-population","code":"initial-population","display":"Initial Population"}]},"count":1},{"code":{"coding":[{"system":"http://terminology.hl7.org/CodeSystem/measure-population","code":"denominator","display":"Denominator"}]},"count":1},{"code":{"coding":[{"system":"http://terminology.hl7.org/CodeSystem/measure-population","code":"denominator-exclusion","display":"Denominator Exclusion"}]},"count":0},{"code":{"coding":[{"system":"http://terminology.hl7.org/CodeSystem/measure-population","code":"numerator","display":"Numerator"}]},"count":0},{"code":{"coding":[{"system":"http://terminology.hl7.org/CodeSystem/measure-population","code":"denominator-exception","display":"Denominator Exception"}]},"count":0}]}]},"request":{"method":"PUT","url":"MeasureReport/af512c4b-b457-4e4c-bc62-e7db5eb624ce"}}]}