{
  "resourceType": "Bundle",
  "id": "63594c7a6aee9629c82981df",
  "type": "transaction",
  "entry": [ {
    "fullUrl": "https://madie.cms.gov/Patient/f22489f6-9150-405e-ad78-1ef7baf24d0f",
    "resource": {
      "resourceType": "Patient",
      "id": "f22489f6-9150-405e-ad78-1ef7baf24d0f",
      "meta": {
        "profile": [ "http://hl7.org/fhir/us/qicore/StructureDefinition/qicore-patient" ]
      },
      "text": {
        "status": "generated",
        "div": "<div xmlns=\"http://www.w3.org/1999/xhtml\"><div class=\"hapiHeaderText\">Risk_Multiple Pregnancy<b>RISKPass </b></div><table class=\"hapiPropertyTable\"><tbody><tr><td>Date of birth</td><td><span>01 February 2004</span></td></tr></tbody></table></div>"
      },
      "extension": [ {
        "url": "http://hl7.org/fhir/us/core/StructureDefinition/us-core-race",
        "extension": [ {
          "url": "ombCategory",
          "valueCoding": {
            "system": "urn:oid:2.16.840.1.113883.6.238",
            "code": "1002-5",
            "display": "American Indian or Alaska Native",
            "userSelected": true
          }
        }, {
          "url": "text",
          "valueString": "American Indian or Alaska Native"
        } ]
      }, {
        "url": "http://hl7.org/fhir/us/core/StructureDefinition/us-core-ethnicity",
        "extension": [ {
          "url": "ombCategory",
          "valueCoding": {
            "system": "urn:oid:2.16.840.1.113883.6.238",
            "code": "2135-2",
            "display": "Hispanic or Latino",
            "userSelected": true
          }
        }, {
          "url": "text",
          "valueString": "Hispanic or Latino"
        } ]
      } ],
      "identifier": [ {
        "type": {
          "coding": [ {
            "system": "http://terminology.hl7.org/CodeSystem/v2-0203",
            "code": "MR"
          } ]
        },
        "system": "https://bonnie-fhir.healthit.gov/",
        "value": "63594c7a6aee9629c82981df"
      } ],
      "active": true,
      "name": [ {
        "use": "usual",
        "family": "RiskPass",
        "given": [ "Risk_Multiple Pregnancy" ]
      } ],
      "gender": "female",
      "birthDate": "2004-02-01"
    },
    "request": {
      "method": "PUT",
      "url": "Patient/f22489f6-9150-405e-ad78-1ef7baf24d0f"
    }
  }, {
    "fullUrl": "https://madie.cms.gov/Observation/28baa163-5286-406b-80a3-b706d0ee0b2f",
    "resource": {
      "resourceType": "Observation",
      "id": "28baa163-5286-406b-80a3-b706d0ee0b2f",
      "meta": {
        "profile": [ "http://hl7.org/fhir/us/qicore/StructureDefinition/qicore-observation" ]
      },
      "status": "final",
      "category": [ {
        "coding": [ {
          "system": "http://terminology.hl7.org/CodeSystem/observation-category",
          "code": "exam",
          "display": "exam",
          "userSelected": true
        } ]
      } ],
      "code": {
        "coding": [ {
          "system": "http://loinc.org",
          "code": "93857-1"
        } ]
      },
      "subject": {
        "reference": "Patient/f22489f6-9150-405e-ad78-1ef7baf24d0f"
      },
      "effectiveDateTime": "2025-02-01T08:00:00.000+00:00",
      "valueDateTime": "2025-02-01T08:00:00+00:00"
    },
    "request": {
      "method": "PUT",
      "url": "Observation/28baa163-5286-406b-80a3-b706d0ee0b2f"
    }
  }, {
    "fullUrl": "https://madie.cms.gov/Observation/e17b5a76-89b6-439b-b327-8b64d7cd9fe0",
    "resource": {
      "resourceType": "Observation",
      "id": "e17b5a76-89b6-439b-b327-8b64d7cd9fe0",
      "meta": {
        "profile": [ "http://hl7.org/fhir/us/qicore/StructureDefinition/qicore-observation" ]
      },
      "status": "final",
      "category": [ {
        "coding": [ {
          "system": "http://terminology.hl7.org/CodeSystem/observation-category",
          "code": "exam",
          "display": "exam",
          "userSelected": true
        } ]
      } ],
      "code": {
        "coding": [ {
          "system": "http://loinc.org",
          "code": "11778-8"
        } ]
      },
      "subject": {
        "reference": "Patient/f22489f6-9150-405e-ad78-1ef7baf24d0f"
      },
      "effectiveDateTime": "2025-02-01T08:00:00.000+00:00",
      "valueDateTime": "2025-02-01T00:00:00.000+00:00"
    },
    "request": {
      "method": "PUT",
      "url": "Observation/e17b5a76-89b6-439b-b327-8b64d7cd9fe0"
    }
  }, {
    "fullUrl": "https://madie.cms.gov/Encounter/aaaa8bd9-888a-45b7-9407-8986bf95a6c6",
    "resource": {
      "resourceType": "Encounter",
      "id": "aaaa8bd9-888a-45b7-9407-8986bf95a6c6",
      "meta": {
        "profile": [ "http://hl7.org/fhir/us/qicore/StructureDefinition/qicore-encounter" ]
      },
      "status": "finished",
      "class": {
        "system": "http://terminology.hl7.org/CodeSystem/v3-ActCode",
        "code": "IMP",
        "display": "inpatient encounter"
      },
      "type": [ {
        "coding": [ {
          "system": "http://snomed.info/sct",
          "code": "183452005"
        } ]
      } ],
      "subject": {
        "reference": "Patient/f22489f6-9150-405e-ad78-1ef7baf24d0f"
      },
      "period": {
        "start": "2025-02-01T08:00:00.000Z",
        "end": "2025-02-05T08:15:00.000Z"
      },
      "diagnosis": [ {
        "extension": [ {
          "url": "http://hl7.org/fhir/us/qicore/StructureDefinition/qicore-encounter-diagnosisPresentOnAdmission",
          "valueCodeableConcept": {
            "coding": [ {
              "system": "https://www.cms.gov/Medicare/Medicare-Fee-for-Service-Payment/HospitalAcqCond/Coding",
              "code": "Y"
            } ]
          }
        } ],
        "condition": {
          "reference": "Condition/ce804afd-add7-4cbe-9f07-905fb6b95495"
        }
      }, {
        "extension": [ {
          "url": "http://hl7.org/fhir/us/qicore/StructureDefinition/qicore-encounter-diagnosisPresentOnAdmission",
          "valueCodeableConcept": {
            "coding": [ {
              "system": "https://www.cms.gov/Medicare/Medicare-Fee-for-Service-Payment/HospitalAcqCond/Coding",
              "code": "N"
            } ]
          }
        } ],
        "condition": {
          "reference": "Condition/9ebb56a1-df92-44fd-922c-20190446a933"
        }
      } ]
    },
    "request": {
      "method": "PUT",
      "url": "Encounter/aaaa8bd9-888a-45b7-9407-8986bf95a6c6"
    }
  }, {
    "fullUrl": "https://madie.cms.gov/Procedure/f4fc35c2-0fa9-4af5-93fd-1c654373364f",
    "resource": {
      "resourceType": "Procedure",
      "id": "f4fc35c2-0fa9-4af5-93fd-1c654373364f",
      "meta": {
        "profile": [ "http://hl7.org/fhir/us/qicore/StructureDefinition/qicore-procedure" ]
      },
      "extension": [ {
        "url": "http://hl7.org/fhir/us/qicore/StructureDefinition/qicore-recorded",
        "valueDateTime": "2013-04-05T09:35:00-04:00"
      } ],
      "status": "completed",
      "code": {
        "coding": [ {
          "system": "http://snomed.info/sct",
          "code": "10745001"
        } ]
      },
      "subject": {
        "reference": "Patient/f22489f6-9150-405e-ad78-1ef7baf24d0f"
      },
      "performedDateTime": "2025-02-01T08:00:00.000+00:00"
    },
    "request": {
      "method": "PUT",
      "url": "Procedure/f4fc35c2-0fa9-4af5-93fd-1c654373364f"
    }
  }, {
    "fullUrl": "https://madie.cms.gov/Condition/9ebb56a1-df92-44fd-922c-20190446a933",
    "resource": {
      "resourceType": "Condition",
      "id": "9ebb56a1-df92-44fd-922c-20190446a933",
      "meta": {
        "profile": [ "http://hl7.org/fhir/us/qicore/StructureDefinition/qicore-condition" ]
      },
      "category": [ {
        "coding": [ {
          "system": "http://terminology.hl7.org/CodeSystem/condition-category",
          "code": "encounter-diagnosis",
          "display": "Encounter Diagnosis"
        } ]
      } ],
      "code": {
        "coding": [ {
          "system": "http://hl7.org/fhir/sid/icd-10-cm",
          "version": "2023",
          "code": "A32.7",
          "display": "Listerial sepsis",
          "userSelected": true
        } ]
      },
      "subject": {
        "reference": "Patient/f22489f6-9150-405e-ad78-1ef7baf24d0f"
      },
      "recordedDate": "2025-10-26T08:00:00.000+00:00"
    },
    "request": {
      "method": "PUT",
      "url": "Condition/9ebb56a1-df92-44fd-922c-20190446a933"
    }
  }, {
    "fullUrl": "https://madie.cms.gov/Condition/ce804afd-add7-4cbe-9f07-905fb6b95495",
    "resource": {
      "resourceType": "Condition",
      "id": "ce804afd-add7-4cbe-9f07-905fb6b95495",
      "meta": {
        "profile": [ "http://hl7.org/fhir/us/qicore/StructureDefinition/qicore-condition" ]
      },
      "category": [ {
        "coding": [ {
          "system": "http://terminology.hl7.org/CodeSystem/condition-category",
          "code": "encounter-diagnosis",
          "display": "Encounter Diagnosis"
        } ]
      } ],
      "code": {
        "coding": [ {
          "system": "http://hl7.org/fhir/sid/icd-10-cm",
          "version": "2023",
          "code": "O30.001",
          "display": "Multiple Pregnancy",
          "userSelected": true
        } ]
      },
      "subject": {
        "reference": "Patient/f22489f6-9150-405e-ad78-1ef7baf24d0f"
      },
      "recordedDate": "2025-10-26T08:00:00.000+00:00"
    },
    "request": {
      "method": "PUT",
      "url": "Condition/ce804afd-add7-4cbe-9f07-905fb6b95495"
    }
  }, {
    "fullUrl": "https://madie.cms.gov/MeasureReport/6fd3abb8-5fe2-4773-b6e0-00c9572b009c",
    "resource": {
      "resourceType": "MeasureReport",
      "id": "6fd3abb8-5fe2-4773-b6e0-00c9572b009c",
      "meta": {
        "profile": [ "http://hl7.org/fhir/us/cqfmeasures/StructureDefinition/test-case-cqfm" ]
      },
      "contained": [ {
        "resourceType": "Parameters",
        "id": "d598cd6d-6005-44d7-9ddf-fb4a6c8b99df-parameters",
        "parameter": [ {
          "name": "subject",
          "valueString": "f22489f6-9150-405e-ad78-1ef7baf24d0f"
        } ]
      } ],
      "extension": [ {
        "url": "http://hl7.org/fhir/us/cqfmeasures/StructureDefinition/cqfm-inputParameters",
        "valueReference": {
          "reference": "#d598cd6d-6005-44d7-9ddf-fb4a6c8b99df-parameters"
        }
      }, {
        "url": "http://hl7.org/fhir/us/cqfmeasures/StructureDefinition/cqfm-testCaseDescription",
        "valueMarkdown": "Risk variable of multiple pregnancy.\n\n"
      } ],
      "modifierExtension": [ {
        "url": "http://hl7.org/fhir/us/cqfmeasures/StructureDefinition/cqfm-isTestCase",
        "valueBoolean": true
      } ],
      "status": "complete",
      "type": "individual",
      "measure": "https://madie.cms.gov/Measure/CMS1028FHIRPCSevereOBComps",
      "period": {
        "start": "2025-01-01",
        "end": "2025-12-31"
      },
      "group": [ {
        "population": [ {
          "code": {
            "coding": [ {
              "system": "http://terminology.hl7.org/CodeSystem/measure-population",
              "code": "initial-population",
              "display": "Initial Population"
            } ]
          },
          "count": 1
        }, {
          "code": {
            "coding": [ {
              "system": "http://terminology.hl7.org/CodeSystem/measure-population",
              "code": "denominator",
              "display": "Denominator"
            } ]
          },
          "count": 1
        }, {
          "code": {
            "coding": [ {
              "system": "http://terminology.hl7.org/CodeSystem/measure-population",
              "code": "numerator",
              "display": "Numerator"
            } ]
          },
          "count": 1
        }, {
          "code": {
            "coding": [ {
              "system": "http://terminology.hl7.org/CodeSystem/measure-population",
              "code": "numerator-exclusion",
              "display": "Numerator Exclusion"
            } ]
          },
          "count": 0
        } ]
      }, {
        "population": [ {
          "code": {
            "coding": [ {
              "system": "http://terminology.hl7.org/CodeSystem/measure-population",
              "code": "initial-population",
              "display": "Initial Population"
            } ]
          },
          "count": 1
        }, {
          "code": {
            "coding": [ {
              "system": "http://terminology.hl7.org/CodeSystem/measure-population",
              "code": "denominator",
              "display": "Denominator"
            } ]
          },
          "count": 1
        }, {
          "code": {
            "coding": [ {
              "system": "http://terminology.hl7.org/CodeSystem/measure-population",
              "code": "numerator",
              "display": "Numerator"
            } ]
          },
          "count": 1
        }, {
          "code": {
            "coding": [ {
              "system": "http://terminology.hl7.org/CodeSystem/measure-population",
              "code": "numerator-exclusion",
              "display": "Numerator Exclusion"
            } ]
          },
          "count": 0
        } ]
      } ],
      "evaluatedResource": [ {
        "reference": "Patient/f22489f6-9150-405e-ad78-1ef7baf24d0f"
      }, {
        "reference": "Observation/28baa163-5286-406b-80a3-b706d0ee0b2f"
      }, {
        "reference": "Observation/e17b5a76-89b6-439b-b327-8b64d7cd9fe0"
      }, {
        "reference": "Encounter/aaaa8bd9-888a-45b7-9407-8986bf95a6c6"
      }, {
        "reference": "Procedure/f4fc35c2-0fa9-4af5-93fd-1c654373364f"
      }, {
        "reference": "Condition/9ebb56a1-df92-44fd-922c-20190446a933"
      }, {
        "reference": "Condition/ce804afd-add7-4cbe-9f07-905fb6b95495"
      } ]
    },
    "request": {
      "method": "PUT",
      "url": "MeasureReport/6fd3abb8-5fe2-4773-b6e0-00c9572b009c"
    }
  } ]
}