{
  "resourceType": "Bundle",
  "id": "617be79c1619a529957d62b6",
  "type": "transaction",
  "entry": [ {
    "fullUrl": "https://madie.cms.gov/Patient/245b418f-e6d6-4567-a32d-37187a90738d",
    "resource": {
      "resourceType": "Patient",
      "id": "245b418f-e6d6-4567-a32d-37187a90738d",
      "meta": {
        "profile": [ "http://hl7.org/fhir/us/qicore/StructureDefinition/qicore-patient" ]
      },
      "extension": [ {
        "url": "http://hl7.org/fhir/us/core/StructureDefinition/us-core-race",
        "extension": [ {
          "url": "ombCategory",
          "valueCoding": {
            "system": "urn:oid:2.16.840.1.113883.6.238",
            "code": "2106-3",
            "display": "White",
            "userSelected": true
          }
        }, {
          "url": "text",
          "valueString": "White"
        } ]
      }, {
        "url": "http://hl7.org/fhir/us/core/StructureDefinition/us-core-ethnicity",
        "extension": [ {
          "url": "ombCategory",
          "valueCoding": {
            "system": "urn:oid:2.16.840.1.113883.6.238",
            "code": "2186-5",
            "display": "Not Hispanic or Latino",
            "userSelected": true
          }
        }, {
          "url": "text",
          "valueString": "Not Hispanic or Latino"
        } ]
      } ],
      "identifier": [ {
        "type": {
          "coding": [ {
            "system": "http://terminology.hl7.org/CodeSystem/v2-0203",
            "code": "MR"
          } ]
        },
        "system": "https://bonnie-fhir.healthit.gov/",
        "value": "617be79c1619a529957d62b6"
      } ],
      "name": [ {
        "family": "DenExcl6Fail",
        "given": [ "MedStarts91DBeforeED" ]
      } ],
      "gender": "female",
      "birthDate": "1985-12-02"
    },
    "request": {
      "method": "PUT",
      "url": "Patient/245b418f-e6d6-4567-a32d-37187a90738d"
    }
  }, {
    "fullUrl": "https://madie.cms.gov/Encounter/24d0bace-6dc2-4056-ac20-e360c1be0ce8",
    "resource": {
      "resourceType": "Encounter",
      "id": "24d0bace-6dc2-4056-ac20-e360c1be0ce8",
      "meta": {
        "profile": [ "http://hl7.org/fhir/us/qicore/StructureDefinition/qicore-encounter" ]
      },
      "status": "finished",
      "class": {
        "system": "http://terminology.hl7.org/CodeSystem/v3-ActCode",
        "code": "EMER",
        "display": "emergency",
        "userSelected": true
      },
      "type": [ {
        "coding": [ {
          "system": "http://snomed.info/sct",
          "version": "2020-09",
          "code": "4525004",
          "display": "Emergency department patient visit (procedure)",
          "userSelected": true
        } ]
      } ],
      "subject": {
        "reference": "Patient/245b418f-e6d6-4567-a32d-37187a90738d"
      },
      "period": {
        "start": "2026-10-09T08:05:00.000+00:00",
        "end": "2026-10-10T07:15:00.000+00:00"
      },
      "reasonCode": [ {
        "coding": [ {
          "system": "http://hl7.org/fhir/sid/icd-10-cm",
          "version": "2021",
          "code": "I21.02",
          "display": "ST elevation (STEMI) myocardial infarction involving left anterior descending coronary artery",
          "userSelected": true
        } ]
      } ]
    },
    "request": {
      "method": "PUT",
      "url": "Encounter/24d0bace-6dc2-4056-ac20-e360c1be0ce8"
    }
  }, {
    "fullUrl": "https://madie.cms.gov/MedicationRequest/bdf65f5f-7fd6-46d3-b8d2-6eeefcebe1f6",
    "resource": {
      "resourceType": "MedicationRequest",
      "id": "bdf65f5f-7fd6-46d3-b8d2-6eeefcebe1f6",
      "meta": {
        "profile": [ "http://hl7.org/fhir/us/qicore/StructureDefinition/qicore-medicationrequest" ]
      },
      "status": "active",
      "intent": "order",
      "category": [ {
        "coding": [ {
          "system": "http://terminology.hl7.org/CodeSystem/medicationrequest-category",
          "code": "inpatient",
          "display": "Inpatient",
          "userSelected": true
        } ]
      } ],
      "medicationCodeableConcept": {
        "coding": [ {
          "system": "http://www.nlm.nih.gov/research/umls/rxnorm",
          "version": "2021-01",
          "code": "1114202",
          "display": "rivaroxaban 10 MG Oral Tablet [Xarelto]",
          "userSelected": true
        } ]
      },
      "subject": {
        "reference": "Patient/245b418f-e6d6-4567-a32d-37187a90738d"
      },
      "authoredOn": "2026-07-11T08:00:00.000+00:00",
      "requester": {
        "reference": "Practitioner/acbd89c8-ee7d-44c9-b72b-c7a0683e8664"
      }
    },
    "request": {
      "method": "PUT",
      "url": "MedicationRequest/bdf65f5f-7fd6-46d3-b8d2-6eeefcebe1f6"
    }
  }, {
    "fullUrl": "https://madie.cms.gov/Practitioner/acbd89c8-ee7d-44c9-b72b-c7a0683e8664",
    "resource": {
      "resourceType": "Practitioner",
      "id": "acbd89c8-ee7d-44c9-b72b-c7a0683e8664",
      "meta": {
        "profile": [ "http://hl7.org/fhir/us/qicore/StructureDefinition/qicore-practitioner" ]
      },
      "identifier": [ {
        "system": "http://hl7.org/fhir/sid/us-npi",
        "value": "123456"
      } ],
      "name": [ {
        "family": "Evil",
        "prefix": [ "Dr" ]
      } ]
    },
    "request": {
      "method": "PUT",
      "url": "Practitioner/acbd89c8-ee7d-44c9-b72b-c7a0683e8664"
    }
  }, {
    "fullUrl": "https://madie.cms.gov/MeasureReport/f47185bf-5365-43ca-afa1-37f629238294",
    "resource": {
      "resourceType": "MeasureReport",
      "id": "f47185bf-5365-43ca-afa1-37f629238294",
      "meta": {
        "profile": [ "http://hl7.org/fhir/us/cqfmeasures/StructureDefinition/test-case-cqfm" ]
      },
      "contained": [ {
        "resourceType": "Parameters",
        "id": "3cd6f385-6d8e-48a2-af14-1050b22a5460-parameters",
        "parameter": [ {
          "name": "subject",
          "valueString": "245b418f-e6d6-4567-a32d-37187a90738d"
        } ]
      } ],
      "extension": [ {
        "url": "http://hl7.org/fhir/us/cqfmeasures/StructureDefinition/cqfm-inputParameters",
        "valueReference": {
          "reference": "#3cd6f385-6d8e-48a2-af14-1050b22a5460-parameters"
        }
      }, {
        "url": "http://hl7.org/fhir/us/cqfmeasures/StructureDefinition/cqfm-testCaseDescription",
        "valueMarkdown": "Patient has anticoagulant medication starts 91D before ED"
      } ],
      "modifierExtension": [ {
        "url": "http://hl7.org/fhir/us/cqfmeasures/StructureDefinition/cqfm-isTestCase",
        "valueBoolean": true
      } ],
      "status": "complete",
      "type": "individual",
      "measure": "https://madie.cms.gov/Measure/CMS996FHIRAptTxforSTEMI",
      "period": {
        "start": "2026-01-01",
        "end": "2026-12-31"
      },
      "group": [ {
        "population": [ {
          "code": {
            "coding": [ {
              "system": "http://terminology.hl7.org/CodeSystem/measure-population",
              "code": "initial-population",
              "display": "Initial Population"
            } ]
          },
          "count": 1
        }, {
          "code": {
            "coding": [ {
              "system": "http://terminology.hl7.org/CodeSystem/measure-population",
              "code": "denominator",
              "display": "Denominator"
            } ]
          },
          "count": 1
        }, {
          "code": {
            "coding": [ {
              "system": "http://terminology.hl7.org/CodeSystem/measure-population",
              "code": "denominator-exclusion",
              "display": "Denominator Exclusion"
            } ]
          },
          "count": 0
        }, {
          "code": {
            "coding": [ {
              "system": "http://terminology.hl7.org/CodeSystem/measure-population",
              "code": "numerator",
              "display": "Numerator"
            } ]
          },
          "count": 0
        }, {
          "code": {
            "coding": [ {
              "system": "http://terminology.hl7.org/CodeSystem/measure-population",
              "code": "denominator-exception",
              "display": "Denominator Exception"
            } ]
          },
          "count": 0
        } ]
      } ],
      "evaluatedResource": [ {
        "reference": "Patient/245b418f-e6d6-4567-a32d-37187a90738d"
      }, {
        "reference": "Encounter/24d0bace-6dc2-4056-ac20-e360c1be0ce8"
      }, {
        "reference": "MedicationRequest/bdf65f5f-7fd6-46d3-b8d2-6eeefcebe1f6"
      }, {
        "reference": "Practitioner/acbd89c8-ee7d-44c9-b72b-c7a0683e8664"
      } ]
    },
    "request": {
      "method": "PUT",
      "url": "MeasureReport/f47185bf-5365-43ca-afa1-37f629238294"
    }
  } ]
}