{
  "resourceType": "Bundle",
  "id": "633b3f9f0968f80122503cdb",
  "type": "transaction",
  "entry": [ {
    "fullUrl": "https://madie.cms.gov/Patient/a9eb9ba7-8e08-483a-89fc-ac693f243189",
    "resource": {
      "resourceType": "Patient",
      "id": "a9eb9ba7-8e08-483a-89fc-ac693f243189",
      "meta": {
        "profile": [ "http://hl7.org/fhir/us/qicore/StructureDefinition/qicore-patient" ]
      },
      "text": {
        "status": "generated",
        "div": "<div xmlns=\"http://www.w3.org/1999/xhtml\"><div class=\"hapiHeaderText\">SMMProcedure1MinB4MidnightDayOfEDVist <b>NUMFail </b></div><table class=\"hapiPropertyTable\"><tbody><tr><td>Date of birth</td><td><span>01 February 2004</span></td></tr></tbody></table></div>"
      },
      "extension": [ {
        "url": "http://hl7.org/fhir/us/core/StructureDefinition/us-core-race",
        "extension": [ {
          "url": "ombCategory",
          "valueCoding": {
            "system": "urn:oid:2.16.840.1.113883.6.238",
            "code": "1002-5",
            "display": "American Indian or Alaska Native",
            "userSelected": true
          }
        }, {
          "url": "text",
          "valueString": "American Indian or Alaska Native"
        } ]
      }, {
        "url": "http://hl7.org/fhir/us/core/StructureDefinition/us-core-ethnicity",
        "extension": [ {
          "url": "ombCategory",
          "valueCoding": {
            "system": "urn:oid:2.16.840.1.113883.6.238",
            "code": "2135-2",
            "display": "Hispanic or Latino",
            "userSelected": true
          }
        }, {
          "url": "text",
          "valueString": "Hispanic or Latino"
        } ]
      } ],
      "identifier": [ {
        "type": {
          "coding": [ {
            "system": "http://terminology.hl7.org/CodeSystem/v2-0203",
            "code": "MR"
          } ]
        },
        "system": "https://bonnie-fhir.healthit.gov/",
        "value": "633b3f9f0968f80122503cdb"
      } ],
      "active": true,
      "name": [ {
        "use": "usual",
        "family": "NUMPass",
        "given": [ "SMMProcedure1MinB4MidnightDayOfEDVist" ]
      } ],
      "gender": "female",
      "birthDate": "2004-02-01"
    },
    "request": {
      "method": "PUT",
      "url": "Patient/a9eb9ba7-8e08-483a-89fc-ac693f243189"
    }
  }, {
    "fullUrl": "https://madie.cms.gov/Observation/f2fde101-65e9-49d3-bba3-e120890f3d32",
    "resource": {
      "resourceType": "Observation",
      "id": "f2fde101-65e9-49d3-bba3-e120890f3d32",
      "meta": {
        "profile": [ "http://hl7.org/fhir/us/qicore/StructureDefinition/qicore-observation" ]
      },
      "status": "final",
      "category": [ {
        "coding": [ {
          "system": "http://terminology.hl7.org/CodeSystem/observation-category",
          "code": "exam",
          "display": "exam",
          "userSelected": true
        } ]
      } ],
      "code": {
        "coding": [ {
          "system": "http://loinc.org",
          "code": "93857-1"
        } ]
      },
      "subject": {
        "reference": "Patient/a9eb9ba7-8e08-483a-89fc-ac693f243189"
      },
      "effectiveDateTime": "2025-02-01T08:00:00.000+00:00",
      "valueDateTime": "2025-02-01T08:00:00+00:00"
    },
    "request": {
      "method": "PUT",
      "url": "Observation/f2fde101-65e9-49d3-bba3-e120890f3d32"
    }
  }, {
    "fullUrl": "https://madie.cms.gov/Observation/664f8723-bb74-47f3-9879-3da3f6402c38",
    "resource": {
      "resourceType": "Observation",
      "id": "664f8723-bb74-47f3-9879-3da3f6402c38",
      "meta": {
        "profile": [ "http://hl7.org/fhir/us/qicore/StructureDefinition/qicore-observation" ]
      },
      "status": "final",
      "category": [ {
        "coding": [ {
          "system": "http://terminology.hl7.org/CodeSystem/observation-category",
          "code": "exam",
          "display": "exam",
          "userSelected": true
        } ]
      } ],
      "code": {
        "coding": [ {
          "system": "http://loinc.org",
          "code": "11884-4"
        } ]
      },
      "subject": {
        "reference": "Patient/a9eb9ba7-8e08-483a-89fc-ac693f243189"
      },
      "effectiveDateTime": "2025-02-01T08:00:00.000+00:00",
      "valueQuantity": {
        "value": 20,
        "system": "http://unitsofmeasure.org",
        "code": "wk"
      }
    },
    "request": {
      "method": "PUT",
      "url": "Observation/664f8723-bb74-47f3-9879-3da3f6402c38"
    }
  }, {
    "fullUrl": "https://madie.cms.gov/Observation/d5acfe02-c1cb-4bf0-9f73-e48891f949da",
    "resource": {
      "resourceType": "Observation",
      "id": "d5acfe02-c1cb-4bf0-9f73-e48891f949da",
      "meta": {
        "profile": [ "http://hl7.org/fhir/us/qicore/StructureDefinition/qicore-observation" ]
      },
      "status": "final",
      "category": [ {
        "coding": [ {
          "system": "http://terminology.hl7.org/CodeSystem/observation-category",
          "code": "exam",
          "display": "exam",
          "userSelected": true
        } ]
      } ],
      "code": {
        "coding": [ {
          "system": "http://loinc.org",
          "code": "11884-4"
        } ]
      },
      "subject": {
        "reference": "Patient/a9eb9ba7-8e08-483a-89fc-ac693f243189"
      },
      "effectiveDateTime": "2025-02-01T08:01:00.000+00:00"
    },
    "request": {
      "method": "PUT",
      "url": "Observation/d5acfe02-c1cb-4bf0-9f73-e48891f949da"
    }
  }, {
    "fullUrl": "https://madie.cms.gov/Encounter/032d8092-0e49-47a6-abdf-6b102164a302",
    "resource": {
      "resourceType": "Encounter",
      "id": "032d8092-0e49-47a6-abdf-6b102164a302",
      "meta": {
        "profile": [ "http://hl7.org/fhir/us/qicore/StructureDefinition/qicore-encounter" ]
      },
      "status": "finished",
      "class": {
        "system": "http://terminology.hl7.org/CodeSystem/v3-ActCode",
        "code": "IMP",
        "display": "inpatient encounter"
      },
      "type": [ {
        "coding": [ {
          "system": "http://snomed.info/sct",
          "code": "183452005"
        } ]
      } ],
      "subject": {
        "reference": "Patient/a9eb9ba7-8e08-483a-89fc-ac693f243189"
      },
      "period": {
        "start": "2025-02-01T00:10:00.000Z",
        "end": "2025-02-05T08:15:00.000Z"
      }
    },
    "request": {
      "method": "PUT",
      "url": "Encounter/032d8092-0e49-47a6-abdf-6b102164a302"
    }
  }, {
    "fullUrl": "https://madie.cms.gov/Encounter/032d8092-0e49-47a6-abdf-6b102164a3022",
    "resource": {
      "resourceType": "Encounter",
      "id": "032d8092-0e49-47a6-abdf-6b102164a3022",
      "meta": {
        "profile": [ "http://hl7.org/fhir/us/qicore/StructureDefinition/qicore-encounter" ]
      },
      "status": "finished",
      "class": {
        "system": "http://terminology.hl7.org/CodeSystem/v3-ActCode",
        "code": "IMP",
        "display": "inpatient encounter"
      },
      "type": [ {
        "coding": [ {
          "system": "http://snomed.info/sct",
          "code": "4525004"
        } ]
      } ],
      "subject": {
        "reference": "Patient/a9eb9ba7-8e08-483a-89fc-ac693f243189"
      },
      "period": {
        "start": "2025-01-31T08:00:00.000Z",
        "end": "2025-01-31T23:59:00.000Z"
      }
    },
    "request": {
      "method": "PUT",
      "url": "Encounter/032d8092-0e49-47a6-abdf-6b102164a3022"
    }
  }, {
    "fullUrl": "https://madie.cms.gov/Coverage/2edfa1d4-1c43-4124-9b49-30179f94eea0",
    "resource": {
      "resourceType": "Coverage",
      "id": "2edfa1d4-1c43-4124-9b49-30179f94eea0",
      "status": "active",
      "beneficiary": {
        "reference": "Patient/a9eb9ba7-8e08-483a-89fc-ac693f243189"
      },
      "period": {
        "start": "2004-02-01T08:00:00.000Z"
      },
      "payor": [ {
        "reference": "Organization/f28bb150-2ba4-4422-a0a6-daf22a04a84d"
      } ]
    },
    "request": {
      "method": "PUT",
      "url": "Coverage/2edfa1d4-1c43-4124-9b49-30179f94eea0"
    }
  }, {
    "fullUrl": "https://madie.cms.gov/Procedure/8d468f7a-69b9-476b-ad36-ee80853ba5fd",
    "resource": {
      "resourceType": "Procedure",
      "id": "8d468f7a-69b9-476b-ad36-ee80853ba5fd",
      "meta": {
        "profile": [ "http://hl7.org/fhir/us/qicore/StructureDefinition/qicore-procedure" ]
      },
      "extension": [ {
        "url": "http://hl7.org/fhir/us/qicore/StructureDefinition/qicore-recorded",
        "valueDateTime": "2013-04-05T09:35:00-04:00"
      } ],
      "status": "completed",
      "code": {
        "coding": [ {
          "system": "http://snomed.info/sct",
          "code": "10745001"
        } ]
      },
      "subject": {
        "reference": "Patient/a9eb9ba7-8e08-483a-89fc-ac693f243189"
      },
      "performedPeriod": {
        "start": "2025-02-01T08:00:00.000Z",
        "end": "2025-02-05T08:15:00.000Z"
      }
    },
    "request": {
      "method": "PUT",
      "url": "Procedure/8d468f7a-69b9-476b-ad36-ee80853ba5fd"
    }
  }, {
    "fullUrl": "https://madie.cms.gov/Procedure/79e6b6b7-bc06-4b41-ac98-15f878b693ee",
    "resource": {
      "resourceType": "Procedure",
      "id": "79e6b6b7-bc06-4b41-ac98-15f878b693ee",
      "meta": {
        "profile": [ "http://hl7.org/fhir/us/qicore/StructureDefinition/qicore-procedure" ]
      },
      "extension": [ {
        "url": "http://hl7.org/fhir/us/qicore/StructureDefinition/qicore-recorded",
        "valueDateTime": "2025-02-01T00:01:00-04:00"
      } ],
      "status": "completed",
      "code": {
        "coding": [ {
          "system": "http://snomed.info/sct",
          "code": "11050006"
        } ]
      },
      "subject": {
        "reference": "Patient/a9eb9ba7-8e08-483a-89fc-ac693f243189"
      },
      "performedPeriod": {
        "start": "2025-01-30T23:59:00.000Z",
        "end": "2025-02-01T11:59:00.000Z"
      }
    },
    "request": {
      "method": "PUT",
      "url": "Procedure/79e6b6b7-bc06-4b41-ac98-15f878b693ee"
    }
  }, {
    "fullUrl": "https://madie.cms.gov/Organization/f28bb150-2ba4-4422-a0a6-daf22a04a84d",
    "resource": {
      "resourceType": "Organization",
      "id": "f28bb150-2ba4-4422-a0a6-daf22a04a84d",
      "meta": {
        "profile": [ "http://hl7.org/fhir/us/qicore/StructureDefinition/qicore-organization" ]
      },
      "identifier": [ {
        "use": "temp",
        "system": "urn:oid:2.16.840.1.113883.4.4",
        "value": "21-3259825"
      } ],
      "active": true,
      "type": [ {
        "coding": [ {
          "system": "http://terminology.hl7.org/CodeSystem/organization-type",
          "code": "pay",
          "display": "Payer"
        } ]
      } ],
      "name": "Blue Cross Blue Shield of Texas",
      "telecom": [ {
        "system": "phone",
        "value": "(+1) 972-766-6900"
      } ],
      "address": [ {
        "use": "billing",
        "type": "postal",
        "line": [ "P.O. Box 660044" ],
        "city": "Dallas",
        "state": "TX",
        "postalCode": "75266-0044",
        "country": "USA"
      } ]
    },
    "request": {
      "method": "PUT",
      "url": "Organization/f28bb150-2ba4-4422-a0a6-daf22a04a84d"
    }
  }, {
    "fullUrl": "https://madie.cms.gov/Practitioner/206bd1d2-14d6-4d4e-afbc-907b2452d0ca",
    "resource": {
      "resourceType": "Practitioner",
      "id": "206bd1d2-14d6-4d4e-afbc-907b2452d0ca",
      "identifier": [ {
        "system": "http://hl7.org/fhir/sid/us-npi",
        "value": "123456"
      } ],
      "name": [ {
        "family": "Evil",
        "prefix": [ "Dr" ]
      } ]
    },
    "request": {
      "method": "PUT",
      "url": "Practitioner/206bd1d2-14d6-4d4e-afbc-907b2452d0ca"
    }
  }, {
    "fullUrl": "https://madie.cms.gov/MeasureReport/9b1dc740-d36b-4b09-b9ed-4f7dba4d73f3",
    "resource": {
      "resourceType": "MeasureReport",
      "id": "9b1dc740-d36b-4b09-b9ed-4f7dba4d73f3",
      "meta": {
        "profile": [ "http://hl7.org/fhir/us/cqfmeasures/StructureDefinition/test-case-cqfm" ]
      },
      "contained": [ {
        "resourceType": "Parameters",
        "id": "23cc70a4-011a-4a5c-b405-f55167d80c1c-parameters",
        "parameter": [ {
          "name": "subject",
          "valueString": "a9eb9ba7-8e08-483a-89fc-ac693f243189"
        } ]
      } ],
      "extension": [ {
        "url": "http://hl7.org/fhir/us/cqfmeasures/StructureDefinition/cqfm-inputParameters",
        "valueReference": {
          "reference": "#23cc70a4-011a-4a5c-b405-f55167d80c1c-parameters"
        }
      }, {
        "url": "http://hl7.org/fhir/us/cqfmeasures/StructureDefinition/cqfm-testCaseDescription",
        "valueMarkdown": "Patient had a SMM Procedure.  Relevant date time 1 minute before midnight day of ED Visit.  Testing Day Of operator\n"
      } ],
      "modifierExtension": [ {
        "url": "http://hl7.org/fhir/us/cqfmeasures/StructureDefinition/cqfm-isTestCase",
        "valueBoolean": true
      } ],
      "status": "complete",
      "type": "individual",
      "measure": "https://madie.cms.gov/Measure/CMS1028FHIRPCSevereOBComps",
      "period": {
        "start": "2025-01-01",
        "end": "2025-12-31"
      },
      "group": [ {
        "population": [ {
          "code": {
            "coding": [ {
              "system": "http://terminology.hl7.org/CodeSystem/measure-population",
              "code": "initial-population",
              "display": "Initial Population"
            } ]
          },
          "count": 1
        }, {
          "code": {
            "coding": [ {
              "system": "http://terminology.hl7.org/CodeSystem/measure-population",
              "code": "denominator",
              "display": "Denominator"
            } ]
          },
          "count": 1
        }, {
          "code": {
            "coding": [ {
              "system": "http://terminology.hl7.org/CodeSystem/measure-population",
              "code": "numerator",
              "display": "Numerator"
            } ]
          },
          "count": 0
        }, {
          "code": {
            "coding": [ {
              "system": "http://terminology.hl7.org/CodeSystem/measure-population",
              "code": "numerator-exclusion",
              "display": "Numerator Exclusion"
            } ]
          },
          "count": 0
        } ]
      }, {
        "population": [ {
          "code": {
            "coding": [ {
              "system": "http://terminology.hl7.org/CodeSystem/measure-population",
              "code": "initial-population",
              "display": "Initial Population"
            } ]
          },
          "count": 1
        }, {
          "code": {
            "coding": [ {
              "system": "http://terminology.hl7.org/CodeSystem/measure-population",
              "code": "denominator",
              "display": "Denominator"
            } ]
          },
          "count": 1
        }, {
          "code": {
            "coding": [ {
              "system": "http://terminology.hl7.org/CodeSystem/measure-population",
              "code": "numerator",
              "display": "Numerator"
            } ]
          },
          "count": 0
        }, {
          "code": {
            "coding": [ {
              "system": "http://terminology.hl7.org/CodeSystem/measure-population",
              "code": "numerator-exclusion",
              "display": "Numerator Exclusion"
            } ]
          },
          "count": 0
        } ]
      } ],
      "evaluatedResource": [ {
        "reference": "Patient/a9eb9ba7-8e08-483a-89fc-ac693f243189"
      }, {
        "reference": "Observation/f2fde101-65e9-49d3-bba3-e120890f3d32"
      }, {
        "reference": "Observation/664f8723-bb74-47f3-9879-3da3f6402c38"
      }, {
        "reference": "Observation/d5acfe02-c1cb-4bf0-9f73-e48891f949da"
      }, {
        "reference": "Encounter/032d8092-0e49-47a6-abdf-6b102164a302"
      }, {
        "reference": "Encounter/032d8092-0e49-47a6-abdf-6b102164a3022"
      }, {
        "reference": "Coverage/2edfa1d4-1c43-4124-9b49-30179f94eea0"
      }, {
        "reference": "Procedure/8d468f7a-69b9-476b-ad36-ee80853ba5fd"
      }, {
        "reference": "Procedure/79e6b6b7-bc06-4b41-ac98-15f878b693ee"
      }, {
        "reference": "Organization/f28bb150-2ba4-4422-a0a6-daf22a04a84d"
      }, {
        "reference": "Practitioner/206bd1d2-14d6-4d4e-afbc-907b2452d0ca"
      } ]
    },
    "request": {
      "method": "PUT",
      "url": "MeasureReport/9b1dc740-d36b-4b09-b9ed-4f7dba4d73f3"
    }
  } ]
}