{
  "resourceType": "Bundle",
  "id": "63598dd9c35f1c19df09adbd",
  "type": "transaction",
  "entry": [ {
    "fullUrl": "https://madie.cms.gov/Patient/e0c0397d-6e84-4b88-a18d-b09a3b71fd4b",
    "resource": {
      "resourceType": "Patient",
      "id": "e0c0397d-6e84-4b88-a18d-b09a3b71fd4b",
      "meta": {
        "profile": [ "http://hl7.org/fhir/us/qicore/StructureDefinition/qicore-patient" ]
      },
      "text": {
        "status": "generated",
        "div": "<div xmlns=\"http://www.w3.org/1999/xhtml\"><div class=\"hapiHeaderText\">RISKHRRelDtTimeEQDelStartless1Min <b>RISKPass </b></div><table class=\"hapiPropertyTable\"><tbody><tr><td>Date of birth</td><td><span>01 February 2004</span></td></tr></tbody></table></div>"
      },
      "extension": [ {
        "url": "http://hl7.org/fhir/us/core/StructureDefinition/us-core-race",
        "extension": [ {
          "url": "ombCategory",
          "valueCoding": {
            "system": "urn:oid:2.16.840.1.113883.6.238",
            "code": "1002-5",
            "display": "American Indian or Alaska Native",
            "userSelected": true
          }
        }, {
          "url": "text",
          "valueString": "American Indian or Alaska Native"
        } ]
      }, {
        "url": "http://hl7.org/fhir/us/core/StructureDefinition/us-core-ethnicity",
        "extension": [ {
          "url": "ombCategory",
          "valueCoding": {
            "system": "urn:oid:2.16.840.1.113883.6.238",
            "code": "2135-2",
            "display": "Hispanic or Latino",
            "userSelected": true
          }
        }, {
          "url": "text",
          "valueString": "Hispanic or Latino"
        } ]
      } ],
      "identifier": [ {
        "type": {
          "coding": [ {
            "system": "http://terminology.hl7.org/CodeSystem/v2-0203",
            "code": "MR"
          } ]
        },
        "system": "https://bonnie-fhir.healthit.gov/",
        "value": "63598dd9c35f1c19df09adbd"
      } ],
      "active": true,
      "name": [ {
        "use": "usual",
        "family": "RiskPass",
        "given": [ "RISKHRRelDtTimeEQDelStartless1Min" ]
      } ],
      "gender": "female",
      "birthDate": "2004-02-01"
    },
    "request": {
      "method": "PUT",
      "url": "Patient/e0c0397d-6e84-4b88-a18d-b09a3b71fd4b"
    }
  }, {
    "fullUrl": "https://madie.cms.gov/Observation/d989b1df-e472-407c-bf4d-092c344f09fb",
    "resource": {
      "resourceType": "Observation",
      "id": "d989b1df-e472-407c-bf4d-092c344f09fb",
      "meta": {
        "profile": [ "http://hl7.org/fhir/us/qicore/StructureDefinition/qicore-observation" ]
      },
      "status": "final",
      "category": [ {
        "coding": [ {
          "system": "http://terminology.hl7.org/CodeSystem/observation-category",
          "code": "exam",
          "display": "exam",
          "userSelected": true
        } ]
      } ],
      "code": {
        "coding": [ {
          "system": "http://loinc.org",
          "code": "93857-1"
        } ]
      },
      "subject": {
        "reference": "Patient/e0c0397d-6e84-4b88-a18d-b09a3b71fd4b"
      },
      "effectiveDateTime": "2025-02-01T08:00:00.000+00:00",
      "valueDateTime": "2025-02-01T08:00:00+00:00"
    },
    "request": {
      "method": "PUT",
      "url": "Observation/d989b1df-e472-407c-bf4d-092c344f09fb"
    }
  }, {
    "fullUrl": "https://madie.cms.gov/Observation/8fc932ff-fae9-4563-b859-264d2d25c9be",
    "resource": {
      "resourceType": "Observation",
      "id": "8fc932ff-fae9-4563-b859-264d2d25c9be",
      "meta": {
        "profile": [ "http://hl7.org/fhir/us/qicore/StructureDefinition/qicore-observation" ]
      },
      "status": "final",
      "category": [ {
        "coding": [ {
          "system": "http://terminology.hl7.org/CodeSystem/observation-category",
          "code": "exam",
          "display": "exam",
          "userSelected": true
        } ]
      } ],
      "code": {
        "coding": [ {
          "system": "http://loinc.org",
          "code": "11884-4"
        } ]
      },
      "subject": {
        "reference": "Patient/e0c0397d-6e84-4b88-a18d-b09a3b71fd4b"
      },
      "effectiveDateTime": "2025-02-01T08:00:00.000+00:00",
      "valueQuantity": {
        "value": 21,
        "system": "http://unitsofmeasure.org",
        "code": "wk"
      }
    },
    "request": {
      "method": "PUT",
      "url": "Observation/8fc932ff-fae9-4563-b859-264d2d25c9be"
    }
  }, {
    "fullUrl": "https://madie.cms.gov/Encounter/b7a5380f-1562-4828-8593-cc26688f7406",
    "resource": {
      "resourceType": "Encounter",
      "id": "b7a5380f-1562-4828-8593-cc26688f7406",
      "meta": {
        "profile": [ "http://hl7.org/fhir/us/qicore/StructureDefinition/qicore-encounter" ]
      },
      "status": "finished",
      "class": {
        "system": "http://terminology.hl7.org/CodeSystem/v3-ActCode",
        "code": "IMP",
        "display": "inpatient encounter"
      },
      "type": [ {
        "coding": [ {
          "system": "http://snomed.info/sct",
          "code": "183452005"
        } ]
      } ],
      "subject": {
        "reference": "Patient/e0c0397d-6e84-4b88-a18d-b09a3b71fd4b"
      },
      "period": {
        "start": "2025-02-01T08:00:00.000+00:00",
        "end": "2025-02-05T08:15:00.000+00:00"
      }
    },
    "request": {
      "method": "PUT",
      "url": "Encounter/b7a5380f-1562-4828-8593-cc26688f7406"
    }
  }, {
    "fullUrl": "https://madie.cms.gov/Encounter/ade81e13-d5e7-4ec1-9db4-b5a641ad202b",
    "resource": {
      "resourceType": "Encounter",
      "id": "ade81e13-d5e7-4ec1-9db4-b5a641ad202b",
      "meta": {
        "profile": [ "http://hl7.org/fhir/us/qicore/StructureDefinition/qicore-encounter" ]
      },
      "status": "finished",
      "class": {
        "system": "http://terminology.hl7.org/CodeSystem/v3-ActCode",
        "code": "EMER",
        "display": "emergency"
      },
      "type": [ {
        "coding": [ {
          "system": "http://snomed.info/sct",
          "code": "4525004"
        } ]
      } ],
      "subject": {
        "reference": "Patient/e0c0397d-6e84-4b88-a18d-b09a3b71fd4b"
      },
      "period": {
        "start": "2025-02-01T07:00:00.000+00:00",
        "end": "2025-02-01T07:59:00.000+00:00"
      }
    },
    "request": {
      "method": "PUT",
      "url": "Encounter/ade81e13-d5e7-4ec1-9db4-b5a641ad202b"
    }
  }, {
    "fullUrl": "https://madie.cms.gov/Procedure/370e1424-0485-4a84-b187-37509541ca3a",
    "resource": {
      "resourceType": "Procedure",
      "id": "370e1424-0485-4a84-b187-37509541ca3a",
      "meta": {
        "profile": [ "http://hl7.org/fhir/us/qicore/StructureDefinition/qicore-procedure" ]
      },
      "extension": [ {
        "url": "http://hl7.org/fhir/us/qicore/StructureDefinition/qicore-recorded",
        "valueDateTime": "2025-02-04T09:35:00-04:00"
      } ],
      "status": "completed",
      "code": {
        "coding": [ {
          "system": "http://snomed.info/sct",
          "code": "10745001"
        } ]
      },
      "subject": {
        "reference": "Patient/e0c0397d-6e84-4b88-a18d-b09a3b71fd4b"
      },
      "performedPeriod": {
        "start": "2025-02-01T08:00:00.000+00:00",
        "end": "2025-02-05T08:15:00.000+00:00"
      }
    },
    "request": {
      "method": "PUT",
      "url": "Procedure/370e1424-0485-4a84-b187-37509541ca3a"
    }
  }, {
    "fullUrl": "https://madie.cms.gov/Observation/9f31153b-2783-4a96-a6d9-a990abb6828f",
    "resource": {
      "resourceType": "Observation",
      "id": "9f31153b-2783-4a96-a6d9-a990abb6828f",
      "meta": {
        "profile": [ "http://hl7.org/fhir/StructureDefinition/heartrate" ]
      },
      "status": "final",
      "category": [ {
        "coding": [ {
          "system": "http://terminology.hl7.org/CodeSystem/observation-category",
          "code": "vital-signs",
          "display": "vital-signs",
          "userSelected": true
        } ]
      } ],
      "code": {
        "coding": [ {
          "system": "http://loinc.org",
          "version": "2.73",
          "code": "8867-4",
          "display": "Heart Rate"
        } ]
      },
      "subject": {
        "reference": "Patient/e0c0397d-6e84-4b88-a18d-b09a3b71fd4b"
      },
      "effectiveDateTime": "2025-02-01T07:59:00.000+00:00",
      "valueQuantity": {
        "value": 85,
        "unit": "/min",
        "system": "http://unitsofmeasure.org",
        "code": "/min"
      }
    },
    "request": {
      "method": "PUT",
      "url": "Observation/9f31153b-2783-4a96-a6d9-a990abb6828f"
    }
  }, {
    "fullUrl": "https://madie.cms.gov/MeasureReport/32cdb9d6-5a2f-492f-b0cc-0d934ee167d5",
    "resource": {
      "resourceType": "MeasureReport",
      "id": "32cdb9d6-5a2f-492f-b0cc-0d934ee167d5",
      "meta": {
        "profile": [ "http://hl7.org/fhir/us/cqfmeasures/StructureDefinition/test-case-cqfm" ]
      },
      "contained": [ {
        "resourceType": "Parameters",
        "id": "601aa820-f3db-4676-99bc-ac30eb8a092e-parameters",
        "parameter": [ {
          "name": "subject",
          "valueString": "e0c0397d-6e84-4b88-a18d-b09a3b71fd4b"
        } ]
      } ],
      "extension": [ {
        "url": "http://hl7.org/fhir/us/cqfmeasures/StructureDefinition/cqfm-inputParameters",
        "valueReference": {
          "reference": "#601aa820-f3db-4676-99bc-ac30eb8a092e-parameters"
        }
      }, {
        "url": "http://hl7.org/fhir/us/cqfmeasures/StructureDefinition/cqfm-testCaseDescription",
        "valueMarkdown": "Patient with heart rate relevant date/time = delivery date/time minus 1 minute\n"
      } ],
      "modifierExtension": [ {
        "url": "http://hl7.org/fhir/us/cqfmeasures/StructureDefinition/cqfm-isTestCase",
        "valueBoolean": true
      } ],
      "status": "complete",
      "type": "individual",
      "measure": "https://madie.cms.gov/Measure/CMS1028FHIRPCSevereOBComps",
      "period": {
        "start": "2025-01-01",
        "end": "2025-12-31"
      },
      "group": [ {
        "population": [ {
          "code": {
            "coding": [ {
              "system": "http://terminology.hl7.org/CodeSystem/measure-population",
              "code": "initial-population",
              "display": "Initial Population"
            } ]
          },
          "count": 1
        }, {
          "code": {
            "coding": [ {
              "system": "http://terminology.hl7.org/CodeSystem/measure-population",
              "code": "denominator",
              "display": "Denominator"
            } ]
          },
          "count": 1
        }, {
          "code": {
            "coding": [ {
              "system": "http://terminology.hl7.org/CodeSystem/measure-population",
              "code": "numerator",
              "display": "Numerator"
            } ]
          },
          "count": 0
        }, {
          "code": {
            "coding": [ {
              "system": "http://terminology.hl7.org/CodeSystem/measure-population",
              "code": "numerator-exclusion",
              "display": "Numerator Exclusion"
            } ]
          },
          "count": 0
        } ]
      }, {
        "population": [ {
          "code": {
            "coding": [ {
              "system": "http://terminology.hl7.org/CodeSystem/measure-population",
              "code": "initial-population",
              "display": "Initial Population"
            } ]
          },
          "count": 1
        }, {
          "code": {
            "coding": [ {
              "system": "http://terminology.hl7.org/CodeSystem/measure-population",
              "code": "denominator",
              "display": "Denominator"
            } ]
          },
          "count": 1
        }, {
          "code": {
            "coding": [ {
              "system": "http://terminology.hl7.org/CodeSystem/measure-population",
              "code": "numerator",
              "display": "Numerator"
            } ]
          },
          "count": 0
        }, {
          "code": {
            "coding": [ {
              "system": "http://terminology.hl7.org/CodeSystem/measure-population",
              "code": "numerator-exclusion",
              "display": "Numerator Exclusion"
            } ]
          },
          "count": 0
        } ]
      } ],
      "evaluatedResource": [ {
        "reference": "Patient/e0c0397d-6e84-4b88-a18d-b09a3b71fd4b"
      }, {
        "reference": "Observation/d989b1df-e472-407c-bf4d-092c344f09fb"
      }, {
        "reference": "Observation/8fc932ff-fae9-4563-b859-264d2d25c9be"
      }, {
        "reference": "Encounter/b7a5380f-1562-4828-8593-cc26688f7406"
      }, {
        "reference": "Encounter/ade81e13-d5e7-4ec1-9db4-b5a641ad202b"
      }, {
        "reference": "Procedure/370e1424-0485-4a84-b187-37509541ca3a"
      }, {
        "reference": "Observation/9f31153b-2783-4a96-a6d9-a990abb6828f"
      } ]
    },
    "request": {
      "method": "PUT",
      "url": "MeasureReport/32cdb9d6-5a2f-492f-b0cc-0d934ee167d5"
    }
  } ]
}