{
  "resourceType": "Bundle",
  "id": "6356dca654e383debade75aa",
  "type": "transaction",
  "entry": [ {
    "fullUrl": "https://madie.cms.gov/Patient/e3df2e40-9fb8-4400-805e-7c504c8f88c2",
    "resource": {
      "resourceType": "Patient",
      "id": "e3df2e40-9fb8-4400-805e-7c504c8f88c2",
      "meta": {
        "profile": [ "http://hl7.org/fhir/us/qicore/StructureDefinition/qicore-patient" ]
      },
      "text": {
        "status": "generated",
        "div": "<div xmlns=\"http://www.w3.org/1999/xhtml\"><div class=\"hapiHeaderText\">1ENCMeets1EncDoesNotMeet <b>NUMPASS </b></div><table class=\"hapiPropertyTable\"><tbody><tr><td>Date of birth</td><td><span>01 February 2004</span></td></tr></tbody></table></div>"
      },
      "extension": [ {
        "url": "http://hl7.org/fhir/us/core/StructureDefinition/us-core-race",
        "extension": [ {
          "url": "ombCategory",
          "valueCoding": {
            "system": "urn:oid:2.16.840.1.113883.6.238",
            "code": "1002-5",
            "display": "American Indian or Alaska Native",
            "userSelected": true
          }
        }, {
          "url": "text",
          "valueString": "American Indian or Alaska Native"
        } ]
      }, {
        "url": "http://hl7.org/fhir/us/core/StructureDefinition/us-core-ethnicity",
        "extension": [ {
          "url": "ombCategory",
          "valueCoding": {
            "system": "urn:oid:2.16.840.1.113883.6.238",
            "code": "2135-2",
            "display": "Hispanic or Latino",
            "userSelected": true
          }
        }, {
          "url": "text",
          "valueString": "Hispanic or Latino"
        } ]
      } ],
      "identifier": [ {
        "type": {
          "coding": [ {
            "system": "http://terminology.hl7.org/CodeSystem/v2-0203",
            "code": "MR"
          } ]
        },
        "system": "https://bonnie-fhir.healthit.gov/",
        "value": "6356dca654e383debade75aa"
      } ],
      "active": true,
      "name": [ {
        "use": "usual",
        "family": "NUMPass",
        "given": [ "1ENCMeets1EncDoesNotMeet" ]
      } ],
      "gender": "female",
      "birthDate": "2004-02-01"
    },
    "request": {
      "method": "PUT",
      "url": "Patient/e3df2e40-9fb8-4400-805e-7c504c8f88c2"
    }
  }, {
    "fullUrl": "https://madie.cms.gov/Observation/f908fd0f-5a7e-4fc0-a3e6-9d3380f3dbe5",
    "resource": {
      "resourceType": "Observation",
      "id": "f908fd0f-5a7e-4fc0-a3e6-9d3380f3dbe5",
      "meta": {
        "profile": [ "http://hl7.org/fhir/us/qicore/StructureDefinition/qicore-observation" ]
      },
      "status": "final",
      "category": [ {
        "coding": [ {
          "system": "http://terminology.hl7.org/CodeSystem/observation-category",
          "code": "exam",
          "display": "exam",
          "userSelected": true
        } ]
      } ],
      "code": {
        "coding": [ {
          "system": "http://loinc.org",
          "code": "93857-1"
        } ]
      },
      "subject": {
        "reference": "Patient/e3df2e40-9fb8-4400-805e-7c504c8f88c2"
      },
      "effectiveDateTime": "2025-02-01T08:00:00.000+00:00",
      "valueDateTime": "2025-02-01T08:00:00+00:00"
    },
    "request": {
      "method": "PUT",
      "url": "Observation/f908fd0f-5a7e-4fc0-a3e6-9d3380f3dbe5"
    }
  }, {
    "fullUrl": "https://madie.cms.gov/Observation/7fcec10b-d418-4f1f-aa64-488d21aeef56",
    "resource": {
      "resourceType": "Observation",
      "id": "7fcec10b-d418-4f1f-aa64-488d21aeef56",
      "meta": {
        "profile": [ "http://hl7.org/fhir/us/qicore/StructureDefinition/qicore-observation" ]
      },
      "status": "final",
      "category": [ {
        "coding": [ {
          "system": "http://terminology.hl7.org/CodeSystem/observation-category",
          "code": "exam",
          "display": "exam",
          "userSelected": true
        } ]
      } ],
      "code": {
        "coding": [ {
          "system": "http://loinc.org",
          "code": "93857-1"
        } ]
      },
      "subject": {
        "reference": "Patient/e3df2e40-9fb8-4400-805e-7c504c8f88c2"
      },
      "effectiveDateTime": "2025-11-10T08:00:00.000+00:00",
      "valueDateTime": "2025-11-10T08:00:00+00:00"
    },
    "request": {
      "method": "PUT",
      "url": "Observation/7fcec10b-d418-4f1f-aa64-488d21aeef56"
    }
  }, {
    "fullUrl": "https://madie.cms.gov/Observation/df2a427d-ca96-4ecf-be79-3ce68306d65b",
    "resource": {
      "resourceType": "Observation",
      "id": "df2a427d-ca96-4ecf-be79-3ce68306d65b",
      "meta": {
        "profile": [ "http://hl7.org/fhir/us/qicore/StructureDefinition/qicore-observation" ]
      },
      "status": "final",
      "category": [ {
        "coding": [ {
          "system": "http://terminology.hl7.org/CodeSystem/observation-category",
          "code": "exam",
          "display": "exam",
          "userSelected": true
        } ]
      } ],
      "code": {
        "coding": [ {
          "system": "http://loinc.org",
          "code": "11884-4"
        } ]
      },
      "subject": {
        "reference": "Patient/e3df2e40-9fb8-4400-805e-7c504c8f88c2"
      },
      "effectiveDateTime": "2025-02-01T08:00:00.000+00:00",
      "valueQuantity": {
        "value": 21,
        "system": "http://unitsofmeasure.org",
        "code": "wk"
      }
    },
    "request": {
      "method": "PUT",
      "url": "Observation/df2a427d-ca96-4ecf-be79-3ce68306d65b"
    }
  }, {
    "fullUrl": "https://madie.cms.gov/Observation/1ad6d56c-13b6-462b-b6eb-c47a85ad4015",
    "resource": {
      "resourceType": "Observation",
      "id": "1ad6d56c-13b6-462b-b6eb-c47a85ad4015",
      "meta": {
        "profile": [ "http://hl7.org/fhir/us/qicore/StructureDefinition/qicore-observation" ]
      },
      "status": "final",
      "category": [ {
        "coding": [ {
          "system": "http://terminology.hl7.org/CodeSystem/observation-category",
          "code": "exam",
          "display": "exam",
          "userSelected": true
        } ]
      } ],
      "code": {
        "coding": [ {
          "system": "http://loinc.org",
          "code": "11884-4"
        } ]
      },
      "subject": {
        "reference": "Patient/e3df2e40-9fb8-4400-805e-7c504c8f88c2"
      },
      "effectiveDateTime": "2025-11-10T08:00:00.000+00:00",
      "valueQuantity": {
        "value": 23,
        "system": "http://unitsofmeasure.org",
        "code": "wk"
      }
    },
    "request": {
      "method": "PUT",
      "url": "Observation/1ad6d56c-13b6-462b-b6eb-c47a85ad4015"
    }
  }, {
    "fullUrl": "https://madie.cms.gov/Encounter/6df7f4dd-29fd-41b3-9aea-bc1857e49498",
    "resource": {
      "resourceType": "Encounter",
      "id": "6df7f4dd-29fd-41b3-9aea-bc1857e49498",
      "meta": {
        "profile": [ "http://hl7.org/fhir/us/qicore/StructureDefinition/qicore-encounter" ]
      },
      "status": "finished",
      "class": {
        "system": "http://terminology.hl7.org/CodeSystem/v3-ActCode",
        "code": "IMP",
        "display": "inpatient encounter"
      },
      "type": [ {
        "coding": [ {
          "system": "http://snomed.info/sct",
          "code": "183452005"
        } ]
      } ],
      "subject": {
        "reference": "Patient/e3df2e40-9fb8-4400-805e-7c504c8f88c2"
      },
      "period": {
        "start": "2025-02-01T08:00:00.000Z",
        "end": "2025-02-05T08:15:00.000Z"
      }
    },
    "request": {
      "method": "PUT",
      "url": "Encounter/6df7f4dd-29fd-41b3-9aea-bc1857e49498"
    }
  }, {
    "fullUrl": "https://madie.cms.gov/Encounter/3590288f-6581-4a11-aa7a-7f383f2af927",
    "resource": {
      "resourceType": "Encounter",
      "id": "3590288f-6581-4a11-aa7a-7f383f2af927",
      "meta": {
        "profile": [ "http://hl7.org/fhir/us/qicore/StructureDefinition/qicore-encounter" ]
      },
      "status": "finished",
      "class": {
        "system": "http://terminology.hl7.org/CodeSystem/v3-ActCode",
        "code": "IMP",
        "display": "inpatient encounter"
      },
      "type": [ {
        "coding": [ {
          "system": "http://snomed.info/sct",
          "code": "183452005"
        } ]
      } ],
      "subject": {
        "reference": "Patient/e3df2e40-9fb8-4400-805e-7c504c8f88c2"
      },
      "period": {
        "start": "2025-11-10T08:00:00.000Z",
        "end": "2025-11-15T08:15:00.000Z"
      },
      "diagnosis": [ {
        "extension": [ {
          "url": "http://hl7.org/fhir/us/qicore/StructureDefinition/qicore-encounter-diagnosisPresentOnAdmission",
          "valueCodeableConcept": {
            "coding": [ {
              "system": "https://www.cms.gov/Medicare/Medicare-Fee-for-Service-Payment/HospitalAcqCond/Coding",
              "code": "N"
            } ]
          }
        } ],
        "condition": {
          "reference": "Condition/16656275-1c73-47ad-820b-7bb9423f0bb4"
        }
      } ]
    },
    "request": {
      "method": "PUT",
      "url": "Encounter/3590288f-6581-4a11-aa7a-7f383f2af927"
    }
  }, {
    "fullUrl": "https://madie.cms.gov/Procedure/435a23b9-2ab5-4078-a5bb-404c0b9a03fd",
    "resource": {
      "resourceType": "Procedure",
      "id": "435a23b9-2ab5-4078-a5bb-404c0b9a03fd",
      "meta": {
        "profile": [ "http://hl7.org/fhir/us/qicore/StructureDefinition/qicore-procedure" ]
      },
      "extension": [ {
        "url": "http://hl7.org/fhir/us/qicore/StructureDefinition/qicore-recorded",
        "valueDateTime": "2013-04-05T09:35:00-04:00"
      } ],
      "status": "completed",
      "code": {
        "coding": [ {
          "system": "http://snomed.info/sct",
          "code": "10745001"
        } ]
      },
      "subject": {
        "reference": "Patient/e3df2e40-9fb8-4400-805e-7c504c8f88c2"
      },
      "performedPeriod": {
        "start": "2025-02-01T08:00:00.000Z",
        "end": "2025-02-05T08:15:00.000Z"
      }
    },
    "request": {
      "method": "PUT",
      "url": "Procedure/435a23b9-2ab5-4078-a5bb-404c0b9a03fd"
    }
  }, {
    "fullUrl": "https://madie.cms.gov/Procedure/435a23b9-2ab5-4078-a5bb-404c0b9a03fd2",
    "resource": {
      "resourceType": "Procedure",
      "id": "435a23b9-2ab5-4078-a5bb-404c0b9a03fd2",
      "meta": {
        "profile": [ "http://hl7.org/fhir/us/qicore/StructureDefinition/qicore-procedure" ]
      },
      "extension": [ {
        "url": "http://hl7.org/fhir/us/qicore/StructureDefinition/qicore-recorded",
        "valueDateTime": "2013-04-05T09:35:00-04:00"
      } ],
      "status": "completed",
      "code": {
        "coding": [ {
          "system": "http://snomed.info/sct",
          "code": "10745001"
        } ]
      },
      "subject": {
        "reference": "Patient/e3df2e40-9fb8-4400-805e-7c504c8f88c2"
      },
      "performedPeriod": {
        "start": "2025-11-10T08:00:00.000Z",
        "end": "2025-11-10T08:15:00.000Z"
      }
    },
    "request": {
      "method": "PUT",
      "url": "Procedure/435a23b9-2ab5-4078-a5bb-404c0b9a03fd2"
    }
  }, {
    "fullUrl": "https://madie.cms.gov/Condition/16656275-1c73-47ad-820b-7bb9423f0bb4",
    "resource": {
      "resourceType": "Condition",
      "id": "16656275-1c73-47ad-820b-7bb9423f0bb4",
      "meta": {
        "profile": [ "http://hl7.org/fhir/us/qicore/StructureDefinition/qicore-condition" ]
      },
      "category": [ {
        "coding": [ {
          "system": "http://terminology.hl7.org/CodeSystem/condition-category",
          "code": "encounter-diagnosis",
          "display": "Encounter Diagnosis"
        } ]
      } ],
      "code": {
        "coding": [ {
          "system": "http://hl7.org/fhir/sid/icd-10-cm",
          "version": "2023",
          "code": "A32.7",
          "display": "Listerial sepsis",
          "userSelected": true
        } ]
      },
      "subject": {
        "reference": "Patient/e3df2e40-9fb8-4400-805e-7c504c8f88c2"
      },
      "recordedDate": "2025-10-26T08:00:00.000+00:00"
    },
    "request": {
      "method": "PUT",
      "url": "Condition/16656275-1c73-47ad-820b-7bb9423f0bb4"
    }
  }, {
    "fullUrl": "https://madie.cms.gov/Coverage/ddb6abb9-3493-49a9-a00c-713396774e97",
    "resource": {
      "resourceType": "Coverage",
      "id": "ddb6abb9-3493-49a9-a00c-713396774e97",
      "meta": {
        "profile": [ "http://hl7.org/fhir/us/qicore/StructureDefinition/qicore-coverage" ]
      },
      "status": "active",
      "beneficiary": {
        "reference": "Patient/e3df2e40-9fb8-4400-805e-7c504c8f88c2"
      },
      "payor": [ {
        "reference": "Organization/f6c1957b-d874-4abd-a4c9-028f704dc1f6"
      } ]
    },
    "request": {
      "method": "PUT",
      "url": "Coverage/ddb6abb9-3493-49a9-a00c-713396774e97"
    }
  }, {
    "fullUrl": "https://madie.cms.gov/Organization/f6c1957b-d874-4abd-a4c9-028f704dc1f6",
    "resource": {
      "resourceType": "Organization",
      "id": "f6c1957b-d874-4abd-a4c9-028f704dc1f6",
      "meta": {
        "profile": [ "http://hl7.org/fhir/us/qicore/StructureDefinition/qicore-organization" ]
      },
      "identifier": [ {
        "use": "temp",
        "system": "urn:oid:2.16.840.1.113883.4.4",
        "value": "21-3259825"
      } ],
      "active": true,
      "type": [ {
        "coding": [ {
          "system": "http://terminology.hl7.org/CodeSystem/organization-type",
          "code": "pay",
          "display": "Payer"
        } ]
      } ],
      "name": "Blue Cross Blue Shield of Texas",
      "telecom": [ {
        "system": "phone",
        "value": "(+1) 972-766-6900"
      } ],
      "address": [ {
        "use": "billing",
        "type": "postal",
        "line": [ "P.O. Box 660044" ],
        "city": "Dallas",
        "state": "TX",
        "postalCode": "75266-0044",
        "country": "USA"
      } ]
    },
    "request": {
      "method": "PUT",
      "url": "Organization/f6c1957b-d874-4abd-a4c9-028f704dc1f6"
    }
  }, {
    "fullUrl": "https://madie.cms.gov/Practitioner/ae8a1ac8-b8d4-4ff0-a53b-f9e54b885e93",
    "resource": {
      "resourceType": "Practitioner",
      "id": "ae8a1ac8-b8d4-4ff0-a53b-f9e54b885e93",
      "identifier": [ {
        "system": "http://hl7.org/fhir/sid/us-npi",
        "value": "123456"
      } ],
      "name": [ {
        "family": "Evil",
        "prefix": [ "Dr" ]
      } ]
    },
    "request": {
      "method": "PUT",
      "url": "Practitioner/ae8a1ac8-b8d4-4ff0-a53b-f9e54b885e93"
    }
  }, {
    "fullUrl": "https://madie.cms.gov/MeasureReport/de435590-f0cd-40f4-9d1b-68fa5f0980e5",
    "resource": {
      "resourceType": "MeasureReport",
      "id": "de435590-f0cd-40f4-9d1b-68fa5f0980e5",
      "meta": {
        "profile": [ "http://hl7.org/fhir/us/cqfmeasures/StructureDefinition/test-case-cqfm" ]
      },
      "contained": [ {
        "resourceType": "Parameters",
        "id": "207c165b-66a8-4f8c-b43a-e45f5b5a49cf-parameters",
        "parameter": [ {
          "name": "subject",
          "valueString": "e3df2e40-9fb8-4400-805e-7c504c8f88c2"
        } ]
      } ],
      "extension": [ {
        "url": "http://hl7.org/fhir/us/cqfmeasures/StructureDefinition/cqfm-inputParameters",
        "valueReference": {
          "reference": "#207c165b-66a8-4f8c-b43a-e45f5b5a49cf-parameters"
        }
      }, {
        "url": "http://hl7.org/fhir/us/cqfmeasures/StructureDefinition/cqfm-testCaseDescription",
        "valueMarkdown": "No complications on 1st encounter.\nSepsis on second encounter\n"
      } ],
      "modifierExtension": [ {
        "url": "http://hl7.org/fhir/us/cqfmeasures/StructureDefinition/cqfm-isTestCase",
        "valueBoolean": true
      } ],
      "status": "complete",
      "type": "individual",
      "measure": "https://madie.cms.gov/Measure/CMS1028FHIRPCSevereOBComps",
      "period": {
        "start": "2025-01-01",
        "end": "2025-12-31"
      },
      "group": [ {
        "population": [ {
          "code": {
            "coding": [ {
              "system": "http://terminology.hl7.org/CodeSystem/measure-population",
              "code": "initial-population",
              "display": "Initial Population"
            } ]
          },
          "count": 2
        }, {
          "code": {
            "coding": [ {
              "system": "http://terminology.hl7.org/CodeSystem/measure-population",
              "code": "denominator",
              "display": "Denominator"
            } ]
          },
          "count": 2
        }, {
          "code": {
            "coding": [ {
              "system": "http://terminology.hl7.org/CodeSystem/measure-population",
              "code": "numerator",
              "display": "Numerator"
            } ]
          },
          "count": 1
        }, {
          "code": {
            "coding": [ {
              "system": "http://terminology.hl7.org/CodeSystem/measure-population",
              "code": "numerator-exclusion",
              "display": "Numerator Exclusion"
            } ]
          },
          "count": 0
        } ]
      }, {
        "population": [ {
          "code": {
            "coding": [ {
              "system": "http://terminology.hl7.org/CodeSystem/measure-population",
              "code": "initial-population",
              "display": "Initial Population"
            } ]
          },
          "count": 2
        }, {
          "code": {
            "coding": [ {
              "system": "http://terminology.hl7.org/CodeSystem/measure-population",
              "code": "denominator",
              "display": "Denominator"
            } ]
          },
          "count": 2
        }, {
          "code": {
            "coding": [ {
              "system": "http://terminology.hl7.org/CodeSystem/measure-population",
              "code": "numerator",
              "display": "Numerator"
            } ]
          },
          "count": 1
        }, {
          "code": {
            "coding": [ {
              "system": "http://terminology.hl7.org/CodeSystem/measure-population",
              "code": "numerator-exclusion",
              "display": "Numerator Exclusion"
            } ]
          },
          "count": 0
        } ]
      } ],
      "evaluatedResource": [ {
        "reference": "Patient/e3df2e40-9fb8-4400-805e-7c504c8f88c2"
      }, {
        "reference": "Observation/f908fd0f-5a7e-4fc0-a3e6-9d3380f3dbe5"
      }, {
        "reference": "Observation/7fcec10b-d418-4f1f-aa64-488d21aeef56"
      }, {
        "reference": "Observation/df2a427d-ca96-4ecf-be79-3ce68306d65b"
      }, {
        "reference": "Observation/1ad6d56c-13b6-462b-b6eb-c47a85ad4015"
      }, {
        "reference": "Encounter/6df7f4dd-29fd-41b3-9aea-bc1857e49498"
      }, {
        "reference": "Encounter/3590288f-6581-4a11-aa7a-7f383f2af927"
      }, {
        "reference": "Procedure/435a23b9-2ab5-4078-a5bb-404c0b9a03fd"
      }, {
        "reference": "Procedure/435a23b9-2ab5-4078-a5bb-404c0b9a03fd2"
      }, {
        "reference": "Condition/16656275-1c73-47ad-820b-7bb9423f0bb4"
      }, {
        "reference": "Coverage/ddb6abb9-3493-49a9-a00c-713396774e97"
      }, {
        "reference": "Organization/f6c1957b-d874-4abd-a4c9-028f704dc1f6"
      }, {
        "reference": "Practitioner/ae8a1ac8-b8d4-4ff0-a53b-f9e54b885e93"
      } ]
    },
    "request": {
      "method": "PUT",
      "url": "MeasureReport/de435590-f0cd-40f4-9d1b-68fa5f0980e5"
    }
  } ]
}