{
  "resourceType": "Bundle",
  "id": "NUMERPass-MajorInjuryPOAandModInjNPOA",
  "type": "transaction",
  "entry": [ {
    "fullUrl": "https://madie.cms.gov/Encounter/be49dc80-3b78-4312-9004-28b5caf321cd",
    "resource": {
      "resourceType": "Encounter",
      "id": "be49dc80-3b78-4312-9004-28b5caf321cd",
      "meta": {
        "profile": [ "http://hl7.org/fhir/us/qicore/StructureDefinition/qicore-encounter" ]
      },
      "status": "finished",
      "class": {
        "system": "http://terminology.hl7.org/CodeSystem/v3-ActCode",
        "code": "IMP",
        "display": "inpatient encounter"
      },
      "type": [ {
        "coding": [ {
          "system": "http://snomed.info/sct",
          "code": "183452005"
        } ]
      } ],
      "subject": {
        "reference": "Patient/e6383b7c-aa91-42f7-8dc8-693a8c7dcaf3"
      },
      "period": {
        "start": "2026-11-09T11:00:00+00:00",
        "end": "2026-11-13T08:15:00+00:00"
      },
      "diagnosis": [ {
        "extension": [ {
          "url": "http://hl7.org/fhir/us/qicore/StructureDefinition/qicore-encounter-diagnosisPresentOnAdmission",
          "valueCodeableConcept": {
            "coding": [ {
              "system": "https://www.cms.gov/Medicare/Medicare-Fee-for-Service-Payment/HospitalAcqCond/Coding",
              "code": "N"
            } ]
          }
        } ],
        "condition": {
          "reference": "Condition/MajorInjuryPOAandModInjNPOA-1"
        }
      }, {
        "extension": [ {
          "url": "http://hl7.org/fhir/us/qicore/StructureDefinition/qicore-encounter-diagnosisPresentOnAdmission",
          "valueCodeableConcept": {
            "coding": [ {
              "system": "https://www.cms.gov/Medicare/Medicare-Fee-for-Service-Payment/HospitalAcqCond/Coding",
              "code": "W"
            } ]
          }
        } ],
        "condition": {
          "reference": "Condition/NUMERPass-MajorInjuryPOAandModInjNPOA-2"
        }
      }, {
        "extension": [ {
          "url": "http://hl7.org/fhir/us/qicore/StructureDefinition/qicore-encounter-diagnosisPresentOnAdmission",
          "valueCodeableConcept": {
            "coding": [ {
              "system": "https://www.cms.gov/Medicare/Medicare-Fee-for-Service-Payment/HospitalAcqCond/Coding",
              "code": "N"
            } ]
          }
        } ],
        "condition": {
          "reference": "Condition/NUMERPass-MajorInjuryPOAandModInjNPOA-3"
        }
      } ]
    },
    "request": {
      "method": "PUT",
      "url": "Encounter/be49dc80-3b78-4312-9004-28b5caf321cd"
    }
  }, {
    "fullUrl": "https://madie.cms.gov/Encounter/f63cda5d-a249-4511-bdad-a1e54f195524",
    "resource": {
      "resourceType": "Encounter",
      "id": "f63cda5d-a249-4511-bdad-a1e54f195524",
      "meta": {
        "profile": [ "http://hl7.org/fhir/us/qicore/StructureDefinition/qicore-encounter" ]
      },
      "status": "finished",
      "class": {
        "system": "http://terminology.hl7.org/CodeSystem/v3-ActCode",
        "code": "IMP",
        "display": "inpatient encounter"
      },
      "type": [ {
        "coding": [ {
          "system": "http://snomed.info/sct",
          "code": "4525004"
        } ]
      } ],
      "subject": {
        "reference": "Patient/e6383b7c-aa91-42f7-8dc8-693a8c7dcaf3"
      },
      "period": {
        "start": "2026-11-09T08:00:00+00:00",
        "end": "2026-11-09T10:15:00+00:00"
      }
    },
    "request": {
      "method": "PUT",
      "url": "Encounter/f63cda5d-a249-4511-bdad-a1e54f195524"
    }
  }, {
    "fullUrl": "https://madie.cms.gov/Condition/3681c61a-3442-4fa5-a660-0d7c0e75e666",
    "resource": {
      "resourceType": "Condition",
      "id": "3681c61a-3442-4fa5-a660-0d7c0e75e666",
      "meta": {
        "profile": [ "http://hl7.org/fhir/us/qicore/StructureDefinition/qicore-condition" ]
      },
      "clinicalStatus": {
        "coding": [ {
          "system": "http://terminology.hl7.org/CodeSystem/condition-clinical",
          "code": "active"
        } ]
      },
      "verificationStatus": {
        "coding": [ {
          "system": "http://terminology.hl7.org/CodeSystem/condition-ver-status",
          "code": "confirmed"
        } ]
      },
      "category": [ {
        "coding": [ {
          "system": "http://terminology.hl7.org/CodeSystem/condition-category",
          "code": "encounter-diagnosis",
          "display": "Encounter Diagnosis"
        } ]
      } ],
      "code": {
        "coding": [ {
          "system": "http://hl7.org/fhir/sid/icd-10-cm",
          "code": "S01.00XA"
        } ]
      },
      "subject": {
        "reference": "Patient/e6383b7c-aa91-42f7-8dc8-693a8c7dcaf3"
      },
      "encounter": {
        "reference": "Encounter/be49dc80-3b78-4312-9004-28b5caf321cd"
      }
    },
    "request": {
      "method": "PUT",
      "url": "Condition/3681c61a-3442-4fa5-a660-0d7c0e75e666"
    }
  }, {
    "fullUrl": "https://madie.cms.gov/Condition/f54d0219-f592-44bb-8bcd-48e137a699fa",
    "resource": {
      "resourceType": "Condition",
      "id": "f54d0219-f592-44bb-8bcd-48e137a699fa",
      "meta": {
        "profile": [ "http://hl7.org/fhir/us/qicore/StructureDefinition/qicore-condition" ]
      },
      "clinicalStatus": {
        "coding": [ {
          "system": "http://terminology.hl7.org/CodeSystem/condition-clinical",
          "code": "active"
        } ]
      },
      "verificationStatus": {
        "coding": [ {
          "system": "http://terminology.hl7.org/CodeSystem/condition-ver-status",
          "code": "confirmed"
        } ]
      },
      "category": [ {
        "coding": [ {
          "system": "http://terminology.hl7.org/CodeSystem/condition-category",
          "code": "encounter-diagnosis",
          "display": "Encounter Diagnosis"
        } ]
      } ],
      "code": {
        "coding": [ {
          "system": "http://hl7.org/fhir/sid/icd-10-cm",
          "code": "M80.061A"
        } ]
      },
      "subject": {
        "reference": "Patient/e6383b7c-aa91-42f7-8dc8-693a8c7dcaf3"
      },
      "encounter": {
        "reference": "Encounter/be49dc80-3b78-4312-9004-28b5caf321cd"
      }
    },
    "request": {
      "method": "PUT",
      "url": "Condition/f54d0219-f592-44bb-8bcd-48e137a699fa"
    }
  }, {
    "fullUrl": "https://madie.cms.gov/Condition/f1b2a52f-9d5c-4ad0-a3c0-d0a9ce4aa149",
    "resource": {
      "resourceType": "Condition",
      "id": "f1b2a52f-9d5c-4ad0-a3c0-d0a9ce4aa149",
      "meta": {
        "profile": [ "http://hl7.org/fhir/us/qicore/StructureDefinition/qicore-condition" ]
      },
      "clinicalStatus": {
        "coding": [ {
          "system": "http://terminology.hl7.org/CodeSystem/condition-clinical",
          "code": "active"
        } ]
      },
      "verificationStatus": {
        "coding": [ {
          "system": "http://terminology.hl7.org/CodeSystem/condition-ver-status",
          "code": "confirmed"
        } ]
      },
      "category": [ {
        "coding": [ {
          "system": "http://terminology.hl7.org/CodeSystem/condition-category",
          "code": "encounter-diagnosis",
          "display": "Encounter Diagnosis"
        } ]
      } ],
      "code": {
        "coding": [ {
          "system": "http://hl7.org/fhir/sid/icd-10-cm",
          "code": "W01.0XXA"
        } ]
      },
      "subject": {
        "reference": "Patient/e6383b7c-aa91-42f7-8dc8-693a8c7dcaf3"
      },
      "encounter": {
        "reference": "Encounter/be49dc80-3b78-4312-9004-28b5caf321cd"
      }
    },
    "request": {
      "method": "PUT",
      "url": "Condition/f1b2a52f-9d5c-4ad0-a3c0-d0a9ce4aa149"
    }
  }, {
    "fullUrl": "https://madie.cms.gov/Patient/e6383b7c-aa91-42f7-8dc8-693a8c7dcaf3",
    "resource": {
      "resourceType": "Patient",
      "id": "e6383b7c-aa91-42f7-8dc8-693a8c7dcaf3",
      "meta": {
        "profile": [ "http://hl7.org/fhir/us/qicore/StructureDefinition/qicore-patient" ]
      },
      "extension": [ {
        "url": "http://hl7.org/fhir/us/core/StructureDefinition/us-core-race",
        "extension": [ {
          "url": "ombCategory",
          "valueCoding": {
            "system": "urn:oid:2.16.840.1.113883.6.238",
            "code": "2028-9",
            "display": "Asian",
            "userSelected": true
          }
        }, {
          "url": "text",
          "valueString": "Asian"
        } ]
      }, {
        "url": "http://hl7.org/fhir/us/core/StructureDefinition/us-core-ethnicity",
        "extension": [ {
          "url": "ombCategory",
          "valueCoding": {
            "system": "urn:oid:2.16.840.1.113883.6.238",
            "code": "2186-5",
            "display": "Not Hispanic or Latino",
            "userSelected": true
          }
        }, {
          "url": "text",
          "valueString": "Not Hispanic or Latino"
        } ]
      } ],
      "identifier": [ {
        "type": {
          "coding": [ {
            "system": "http://terminology.hl7.org/CodeSystem/v2-0203",
            "code": "MR"
          } ]
        },
        "system": "https://bonnie-fhir.healthit.gov/",
        "value": "61152a3b98086b7a79cbd7c1"
      } ],
      "active": true,
      "name": [ {
        "use": "usual",
        "family": "NUMERPass",
        "given": [ "MajorInjuryPOAandModInjNPOA" ]
      } ],
      "gender": "male",
      "birthDate": "2000-09-09"
    },
    "request": {
      "method": "PUT",
      "url": "Patient/e6383b7c-aa91-42f7-8dc8-693a8c7dcaf3"
    }
  }, {
    "fullUrl": "https://madie.cms.gov/MeasureReport/ac85a92d-7ecd-4c18-b6a4-f252d47e3b93",
    "resource": {
      "resourceType": "MeasureReport",
      "id": "ac85a92d-7ecd-4c18-b6a4-f252d47e3b93",
      "meta": {
        "profile": [ "http://hl7.org/fhir/us/cqfmeasures/StructureDefinition/test-case-cqfm" ]
      },
      "contained": [ {
        "resourceType": "Parameters",
        "id": "73aa560f-a9a5-47a5-a349-4e14d78a9076-parameters",
        "parameter": [ {
          "name": "subject",
          "valueString": "e6383b7c-aa91-42f7-8dc8-693a8c7dcaf3"
        } ]
      } ],
      "extension": [ {
        "url": "http://hl7.org/fhir/us/cqfmeasures/StructureDefinition/cqfm-inputParameters",
        "valueReference": {
          "reference": "#73aa560f-a9a5-47a5-a349-4e14d78a9076-parameters"
        }
      }, {
        "url": "http://hl7.org/fhir/us/cqfmeasures/StructureDefinition/cqfm-testCaseDescription",
        "valueMarkdown": "Encounter diag includes a major injury POA and another mod injury NPOA. Also includes a fall NPOA. Meets Numerator because having an injury POA should not remove them from potential of another injury NPOA from a fall NPOA that occurs during the enc."
      } ],
      "modifierExtension": [ {
        "url": "http://hl7.org/fhir/us/cqfmeasures/StructureDefinition/cqfm-isTestCase",
        "valueBoolean": true
      } ],
      "status": "complete",
      "type": "individual",
      "measure": "https://madie.cms.gov/Measure/FallsWithInjuryFHIR",
      "period": {
        "start": "2026-01-01",
        "end": "2026-12-31"
      },
      "group": [ {
        "population": [ {
          "code": {
            "coding": [ {
              "system": "http://terminology.hl7.org/CodeSystem/measure-population",
              "code": "initial-population",
              "display": "Initial Population"
            } ]
          },
          "count": 1
        }, {
          "code": {
            "coding": [ {
              "system": "http://terminology.hl7.org/CodeSystem/measure-population",
              "code": "denominator",
              "display": "Denominator"
            } ]
          },
          "count": 1
        }, {
          "code": {
            "coding": [ {
              "system": "http://terminology.hl7.org/CodeSystem/measure-population",
              "code": "denominator-exclusion",
              "display": "Denominator Exclusion"
            } ]
          },
          "count": 0
        }, {
          "code": {
            "coding": [ {
              "system": "http://terminology.hl7.org/CodeSystem/measure-population",
              "code": "numerator",
              "display": "Numerator"
            } ]
          },
          "count": 0
        }, {
          "code": {
            "coding": [ {
              "system": "http://terminology.hl7.org/CodeSystem/measure-population",
              "code": "numerator-exclusion",
              "display": "Numerator Exclusion"
            } ]
          },
          "count": 0
        }, {
          "code": {
            "coding": [ {
              "system": "http://terminology.hl7.org/CodeSystem/measure-population",
              "code": "denominator-observation",
              "display": "DenominatorObservation"
            } ]
          },
          "count": 4
        } ]
      } ],
      "evaluatedResource": [ {
        "reference": "Encounter/be49dc80-3b78-4312-9004-28b5caf321cd"
      }, {
        "reference": "Encounter/f63cda5d-a249-4511-bdad-a1e54f195524"
      }, {
        "reference": "Condition/3681c61a-3442-4fa5-a660-0d7c0e75e666"
      }, {
        "reference": "Condition/f54d0219-f592-44bb-8bcd-48e137a699fa"
      }, {
        "reference": "Condition/f1b2a52f-9d5c-4ad0-a3c0-d0a9ce4aa149"
      }, {
        "reference": "Patient/e6383b7c-aa91-42f7-8dc8-693a8c7dcaf3"
      } ]
    },
    "request": {
      "method": "PUT",
      "url": "MeasureReport/ac85a92d-7ecd-4c18-b6a4-f252d47e3b93"
    }
  } ]
}