{
  "resourceType": "Bundle",
  "id": "denomfail-missingresults",
  "type": "transaction",
  "entry": [ {
    "fullUrl": "https://madie.cms.gov/Patient/07f3be61-8e8b-4f95-94a3-4ca0b7969f79",
    "resource": {
      "resourceType": "Patient",
      "id": "07f3be61-8e8b-4f95-94a3-4ca0b7969f79",
      "meta": {
        "profile": [ "http://hl7.org/fhir/us/core/StructureDefinition/us-core-patient", "http://hl7.org/fhir/us/qicore/StructureDefinition/qicore-patient" ]
      },
      "extension": [ {
        "url": "http://hl7.org/fhir/us/core/StructureDefinition/us-core-race",
        "extension": [ {
          "url": "ombCategory",
          "valueCoding": {
            "system": "urn:oid:2.16.840.1.113883.6.238",
            "code": "2028-9",
            "display": "Asian"
          }
        }, {
          "url": "text",
          "valueString": "Asian"
        } ]
      }, {
        "url": "http://hl7.org/fhir/us/core/StructureDefinition/us-core-ethnicity",
        "extension": [ {
          "url": "ombCategory",
          "valueCoding": {
            "system": "urn:oid:2.16.840.1.113883.6.238",
            "code": "2135-2",
            "display": "Hispanic or Latino"
          }
        }, {
          "url": "text",
          "valueString": "Hispanic or Latino"
        } ]
      } ],
      "identifier": [ {
        "system": "http://hospital.smarthealthit.org",
        "value": "999999995"
      } ],
      "name": [ {
        "family": "MissingResults",
        "given": [ "DENOMFail" ]
      } ],
      "gender": "female",
      "birthDate": "1986-06-12"
    },
    "request": {
      "method": "PUT",
      "url": "Patient/07f3be61-8e8b-4f95-94a3-4ca0b7969f79"
    }
  }, {
    "fullUrl": "https://madie.cms.gov/Encounter/denomfail-missingresults-1",
    "resource": {
      "resourceType": "Encounter",
      "id": "denomfail-missingresults-1",
      "meta": {
        "profile": [ "http://hl7.org/fhir/us/qicore/StructureDefinition/qicore-encounter" ]
      },
      "status": "finished",
      "class": {
        "system": "http://terminology.hl7.org/CodeSystem/v3-ActCode",
        "code": "IMP",
        "display": "inpatient encounter"
      },
      "type": [ {
        "coding": [ {
          "system": "http://snomed.info/sct",
          "code": "183452005",
          "display": "Emergency hospital admission"
        } ]
      } ],
      "subject": {
        "reference": "Patient/07f3be61-8e8b-4f95-94a3-4ca0b7969f79"
      },
      "period": {
        "start": "2025-03-01T00:00:00.000Z",
        "end": "2025-03-03T01:00:00.000Z"
      }
    },
    "request": {
      "method": "PUT",
      "url": "Encounter/denomfail-missingresults-1"
    }
  }, {
    "fullUrl": "https://madie.cms.gov/Observation/denomfail-missingresults-2",
    "resource": {
      "resourceType": "Observation",
      "id": "denomfail-missingresults-2",
      "meta": {
        "profile": [ "http://hl7.org/fhir/us/qicore/StructureDefinition/qicore-observation" ]
      },
      "status": "final",
      "category": [ {
        "coding": [ {
          "system": "http://terminology.hl7.org/CodeSystem/observation-category",
          "code": "imaging",
          "display": "Imaging"
        } ]
      } ],
      "code": {
        "coding": [ {
          "system": "http://loinc.org",
          "code": "96914-7",
          "display": "CT dose and image quality category"
        } ],
        "text": "CT dose and image quality category"
      },
      "subject": {
        "reference": "Patient/07f3be61-8e8b-4f95-94a3-4ca0b7969f79"
      },
      "encounter": {
        "reference": "Encounter/denomfail-missingresults-1"
      },
      "effectiveDateTime": "2025-03-02T00:00:00.000Z",
      "valueCodeableConcept": {
        "coding": [ {
          "system": "http://alaracare.com",
          "code": "ABDOPEL RT",
          "display": "Abdomen or Pelvis Routine Dose"
        } ]
      }
    },
    "request": {
      "method": "PUT",
      "url": "Observation/denomfail-missingresults-2"
    }
  }, {
    "fullUrl": "https://madie.cms.gov/MeasureReport/b0642d85-24b2-4806-9bef-41b58452052a",
    "resource": {
      "resourceType": "MeasureReport",
      "id": "b0642d85-24b2-4806-9bef-41b58452052a",
      "meta": {
        "profile": [ "http://hl7.org/fhir/us/cqfmeasures/StructureDefinition/test-case-cqfm" ]
      },
      "contained": [ {
        "resourceType": "Parameters",
        "id": "87fc864a-6420-44bb-a093-6bc3764f52e4-parameters",
        "parameter": [ {
          "name": "subject",
          "valueString": "07f3be61-8e8b-4f95-94a3-4ca0b7969f79"
        } ]
      } ],
      "extension": [ {
        "url": "http://hl7.org/fhir/us/cqfmeasures/StructureDefinition/cqfm-inputParameters",
        "valueReference": {
          "reference": "#87fc864a-6420-44bb-a093-6bc3764f52e4-parameters"
        }
      }, {
        "url": "http://hl7.org/fhir/us/cqfmeasures/StructureDefinition/cqfm-testCaseDescription",
        "valueMarkdown": "Patient has a valid scan type but the noise and dose values are missing so should not meet DENOM"
      } ],
      "modifierExtension": [ {
        "url": "http://hl7.org/fhir/us/cqfmeasures/StructureDefinition/cqfm-isTestCase",
        "valueBoolean": true
      } ],
      "status": "complete",
      "type": "individual",
      "measure": "https://madie.cms.gov/Measure/AlaraCTIQRFHIR",
      "period": {
        "start": "2025-01-01",
        "end": "2025-12-31"
      },
      "group": [ {
        "population": [ {
          "code": {
            "coding": [ {
              "system": "http://terminology.hl7.org/CodeSystem/measure-population",
              "code": "initial-population",
              "display": "Initial Population"
            } ]
          },
          "count": 1
        }, {
          "code": {
            "coding": [ {
              "system": "http://terminology.hl7.org/CodeSystem/measure-population",
              "code": "denominator",
              "display": "Denominator"
            } ]
          },
          "count": 0
        }, {
          "code": {
            "coding": [ {
              "system": "http://terminology.hl7.org/CodeSystem/measure-population",
              "code": "denominator-exclusion",
              "display": "Denominator Exclusion"
            } ]
          },
          "count": 0
        }, {
          "code": {
            "coding": [ {
              "system": "http://terminology.hl7.org/CodeSystem/measure-population",
              "code": "numerator",
              "display": "Numerator"
            } ]
          },
          "count": 0
        } ]
      } ],
      "evaluatedResource": [ {
        "reference": "Patient/07f3be61-8e8b-4f95-94a3-4ca0b7969f79"
      }, {
        "reference": "Encounter/denomfail-missingresults-1"
      }, {
        "reference": "Observation/denomfail-missingresults-2"
      } ]
    },
    "request": {
      "method": "PUT",
      "url": "MeasureReport/b0642d85-24b2-4806-9bef-41b58452052a"
    }
  } ]
}