{"resourceType":"Bundle","id":"tests-356705b1-d6dd-44fd-916e-209c55981b0a-bundle","type":"transaction","entry":[{"fullUrl":"https://madie.cms.gov/Patient/356705b1-d6dd-44fd-916e-209c55981b0a","resource":{"resourceType":"Patient","id":"356705b1-d6dd-44fd-916e-209c55981b0a","meta":{"profile":["http://hl7.org/fhir/us/qicore/StructureDefinition/qicore-patient"]},"extension":[{"url":"http://hl7.org/fhir/us/core/StructureDefinition/us-core-race","extension":[{"url":"ombCategory","valueCoding":{"system":"urn:oid:2.16.840.1.113883.6.238","code":"2106-3","display":"White","userSelected":true}},{"url":"text","valueString":"White"}]},{"url":"http://hl7.org/fhir/us/core/StructureDefinition/us-core-ethnicity","extension":[{"url":"ombCategory","valueCoding":{"system":"urn:oid:2.16.840.1.113883.6.238","code":"2135-2","display":"Hispanic or Latino","userSelected":true}},{"url":"text","valueString":"Hispanic or Latino"}]}],"identifier":[{"type":{"coding":[{"system":"http://terminology.hl7.org/CodeSystem/v2-0203","code":"MR"}]},"system":"https://GoodHealthCare.com/","value":"63f628d8d289cd498bb84238"}],"name":[{"family":"DENOMPass","given":["FundusExam1MinAfterEncStart"]}],"gender":"female","birthDate":"1965-05-01"},"request":{"method":"PUT","url":"Patient/356705b1-d6dd-44fd-916e-209c55981b0a"}},{"fullUrl":"https://madie.cms.gov/Encounter/9087ae330","resource":{"resourceType":"Encounter","id":"84ac3d48-2de3-41df-9a0a-783ec7c18070","meta":{"profile":["http://hl7.org/fhir/us/qicore/StructureDefinition/qicore-encounter"]},"status":"finished","class":{"system":"http://terminology.hl7.org/CodeSystem/v3-ActCode","code":"AMB","display":"ambulatory","userSelected":true},"type":[{"coding":[{"system":"http://snomed.info/sct","version":"http://snomed.info/sct/731000124108/version/20230301","code":"207195004","display":"History and physical examination with evaluation and management of nursing facility patient (procedure)"}]}],"subject":{"reference":"Patient/356705b1-d6dd-44fd-916e-209c55981b0a"},"period":{"start":"2025-03-09T08:00:00.000+00:00","end":"2025-03-09T08:15:00.000+00:00"}},"request":{"method":"PUT","url":"Encounter/84ac3d48-2de3-41df-9a0a-783ec7c18070"}},{"fullUrl":"https://madie.cms.gov/Condition/diabetic-retinopathy-de23","resource":{"resourceType":"Condition","id":"7bf27466-6b8b-47a2-b9ae-9d167f865103","meta":{"profile":["http://hl7.org/fhir/us/qicore/StructureDefinition/qicore-condition"]},"clinicalStatus":{"coding":[{"system":"http://terminology.hl7.org/CodeSystem/condition-clinical","code":"active","display":"active","userSelected":true}]},"category":[{"coding":[{"system":"http://terminology.hl7.org/CodeSystem/condition-ver-status","code":"confirmed","display":"confirmed","userSelected":true}]}],"code":{"coding":[{"system":"http://snomed.info/sct","version":"http://snomed.info/sct/731000124108/version/20230301","code":"193350004","display":"Advanced maculopathy due to diabetes mellitus (disorder)"}]},"subject":{"reference":"Patient/356705b1-d6dd-44fd-916e-209c55981b0a"},"onsetDateTime":"2025-01-09T08:00:00.000+00:00"},"request":{"method":"PUT","url":"Condition/7bf27466-6b8b-47a2-b9ae-9d167f865103"}},{"fullUrl":"https://madie.cms.gov/Observation/macular-exam-de24","resource":{"resourceType":"Observation","id":"92238211-02c8-4719-859d-bfecf9815432","meta":{"profile":["http://hl7.org/fhir/us/qicore/StructureDefinition/qicore-observation"]},"status":"final","category":[{"coding":[{"system":"http://terminology.hl7.org/CodeSystem/condition-ver-status","code":"confirmed","display":"confirmed","userSelected":true}]}],"code":{"coding":[{"system":"http://loinc.org","version":"2.73","code":"32451-7","display":"Physical findings of Macula","userSelected":true}]},"subject":{"reference":"Patient/356705b1-d6dd-44fd-916e-209c55981b0a"},"effectiveDateTime":"2025-03-09T08:01:00.000+00:00","issued":"2025-03-09T08:01:00.000+00:00","valueBoolean":true},"request":{"method":"PUT","url":"Observation/92238211-02c8-4719-859d-bfecf9815432"}},{"fullUrl":"https://madie.cms.gov/Communication/level-of-severity-of-retinopathy-findings-de25","resource":{"resourceType":"Communication","id":"51ae20bc-f333-4b27-9bdf-75e113c27288","meta":{"profile":["http://hl7.org/fhir/us/qicore/StructureDefinition/qicore-communication"]},"status":"not-done","statusReason":{"coding":[{"system":"http://snomed.info/sct","code":"182890002","display":"Patient requests alternative treatment (finding)","userSelected":true}]},"category":[{"coding":[{"system":"http://snomed.info/sct","version":"http://snomed.info/sct/731000124108/version/202303","code":"312903003","display":"Mild nonproliferative retinopathy due to diabetes mellitus (disorder)","userSelected":true}]}],"sent":"2025-03-09T08:03:00.000+00:00"},"request":{"method":"PUT","url":"Communication/51ae20bc-f333-4b27-9bdf-75e113c27288"}},{"fullUrl":"https://madie.cms.gov/Communication/macular-edema-findings-present-01af","resource":{"resourceType":"Communication","id":"f453b60a-184a-41ee-a28c-9a23ad711ade","meta":{"profile":["http://hl7.org/fhir/us/qicore/StructureDefinition/qicore-communication"]},"status":"not-done","statusReason":{"coding":[{"system":"http://snomed.info/sct","code":"105480006","display":"Refusal of treatment by patient (situation)","userSelected":true}]},"category":[{"coding":[{"system":"http://snomed.info/sct","version":"http://snomed.info/sct/731000124108/version/202303","code":"193350004","display":"Advanced maculopathy due to diabetes mellitus (disorder)","userSelected":true}]}],"sent":"2023-03-09T08:00:00.000+00:00"},"request":{"method":"PUT","url":"Communication/f453b60a-184a-41ee-a28c-9a23ad711ade"}},{"fullUrl":"https://madie.cms.gov/Coverage/10009","resource":{"resourceType":"Coverage","id":"363f54fc-2671-42bf-b5c6-c619610679a7","meta":{"profile":["http://hl7.org/fhir/us/qicore/StructureDefinition/qicore-coverage"]},"status":"active","beneficiary":{"reference":"Patient/356705b1-d6dd-44fd-916e-209c55981b0a"},"payor":[{"reference":"Organization/5ad6ea38-07e9-4482-9e1b-c09eee595be9"}]},"request":{"method":"PUT","url":"Coverage/363f54fc-2671-42bf-b5c6-c619610679a7"}},{"fullUrl":"https://madie.cms.gov/Organization/123456","resource":{"resourceType":"Organization","id":"5ad6ea38-07e9-4482-9e1b-c09eee595be9","meta":{"profile":["http://hl7.org/fhir/us/qicore/StructureDefinition/qicore-organization"]},"identifier":[{"use":"temp","system":"urn:oid:2.16.840.1.113883.4.4","value":"21-3259825"}],"active":true,"type":[{"coding":[{"system":"http://terminology.hl7.org/CodeSystem/organization-type","code":"pay","display":"Payer"}]}],"name":"Blue Cross Blue Shield of Texas","telecom":[{"system":"phone","value":"(+1) 972-766-6900"}],"address":[{"use":"billing","type":"postal","line":["P.O. Box 660044"],"city":"Dallas","state":"TX","postalCode":"75266-0044","country":"USA"}]},"request":{"method":"PUT","url":"Organization/5ad6ea38-07e9-4482-9e1b-c09eee595be9"}},{"fullUrl":"https://madie.cms.gov/Practitioner/practitioner-123456","resource":{"resourceType":"Practitioner","id":"3a780201-042e-4214-8c62-58a93066fd5d","meta":{"profile":["http://hl7.org/fhir/us/qicore/StructureDefinition/qicore-practitioner"]},"identifier":[{"system":"http://hl7.org/fhir/sid/us-npi","value":"123456"}],"name":[{"family":"Evil","prefix":["Dr"]}]},"request":{"method":"PUT","url":"Practitioner/3a780201-042e-4214-8c62-58a93066fd5d"}},{"fullUrl":"https://madie.cms.gov/MeasureReport/bf533434-04cf-4ac3-af97-e76c3bf3fcbc","resource":{"resourceType":"MeasureReport","id":"bf533434-04cf-4ac3-af97-e76c3bf3fcbc","meta":{"profile":["http://hl7.org/fhir/us/cqfmeasures/StructureDefinition/test-case-cqfm"]},"contained":[{"resourceType":"Parameters","id":"3be17d48-cb20-4b8f-8fae-67f9d20db5d7-parameters","parameter":[{"name":"subject","valueString":"356705b1-d6dd-44fd-916e-209c55981b0a"}]}],"extension":[{"url":"http://hl7.org/fhir/us/cqfmeasures/StructureDefinition/cqfm-inputParameters","valueReference":{"reference":"#3be17d48-cb20-4b8f-8fae-67f9d20db5d7-parameters"}},{"url":"http://hl7.org/fhir/us/cqfmeasures/StructureDefinition/cqfm-testCaseDescription","valueMarkdown":"Fundus Exam is Performed 1 minute After Start of Encounter (Edge)"}],"modifierExtension":[{"url":"http://hl7.org/fhir/us/cqfmeasures/StructureDefinition/cqfm-isTestCase","valueBoolean":true}],"status":"complete","type":"individual","measure":"https://madie.cms.gov/Measure/DRCommunicationWithPhysicianManagingDiabetesFHIR","period":{"start":"2025-01-01","end":"2025-12-31"},"group":[{"population":[{"code":{"coding":[{"system":"http://terminology.hl7.org/CodeSystem/measure-population","code":"initial-population","display":"Initial Population"}]},"count":1},{"code":{"coding":[{"system":"http://terminology.hl7.org/CodeSystem/measure-population","code":"denominator","display":"Denominator"}]},"count":1},{"code":{"coding":[{"system":"http://terminology.hl7.org/CodeSystem/measure-population","code":"numerator","display":"Numerator"}]},"count":0},{"code":{"coding":[{"system":"http://terminology.hl7.org/CodeSystem/measure-population","code":"denominator-exception","display":"Denominator Exception"}]},"count":0}]}]},"request":{"method":"PUT","url":"MeasureReport/bf533434-04cf-4ac3-af97-e76c3bf3fcbc"}}]}