{"resourceType":"Bundle","id":"tests-15b275f0-8540-4c32-8ab6-29e535dcea64-bundle","type":"transaction","entry":[{"fullUrl":"https://madie.cms.gov/Patient/15b275f0-8540-4c32-8ab6-29e535dcea64","resource":{"resourceType":"Patient","id":"15b275f0-8540-4c32-8ab6-29e535dcea64","meta":{"profile":["http://hl7.org/fhir/us/qicore/StructureDefinition/qicore-patient"]},"extension":[{"url":"http://hl7.org/fhir/us/core/StructureDefinition/us-core-race","extension":[{"url":"ombCategory","valueCoding":{"system":"urn:oid:2.16.840.1.113883.6.238","code":"2106-3","display":"White"}},{"url":"text","valueString":"White"}]},{"url":"http://hl7.org/fhir/us/core/StructureDefinition/us-core-ethnicity","extension":[{"url":"ombCategory","valueCoding":{"system":"urn:oid:2.16.840.1.113883.6.238","code":"2186-5","display":"Not Hispanic or Latino","userSelected":true}},{"url":"text","valueString":"Not Hispanic or Latino"}]}],"identifier":[{"type":{"coding":[{"system":"http://terminology.hl7.org/CodeSystem/v2-0203","code":"MR"}]},"system":"https://smarthealth.healthit.gov/","value":"61168b8798086b77ef9c5ec7"}],"active":true,"name":[{"use":"usual","family":"NUMERFail","given":["NumerFailCommDone1HrB4EncEdge"]}],"gender":"female","birthDate":"1921-03-24"},"request":{"method":"PUT","url":"Patient/15b275f0-8540-4c32-8ab6-29e535dcea64"}},{"fullUrl":"https://madie.cms.gov/Communication/5e441276fcdbff00005e4d27","resource":{"resourceType":"Communication","id":"d68555bf-315b-4302-ac0e-9157d7271a0a","meta":{"profile":["http://hl7.org/fhir/us/qicore/StructureDefinition/qicore-communication"]},"extension":[{"url":"http://hl7.org/fhir/us/qicore/StructureDefinition/qicore-recorded","valueDateTime":"2012-02-12T08:00:00+00:00"}],"status":"completed","subject":{"reference":"Patient/15b275f0-8540-4c32-8ab6-29e535dcea64"},"encounter":{"reference":"Encounter/f147b342-64df-449f-90f8-05d88b91fbd1"},"reasonCode":[{"coding":[{"system":"http://snomed.info/sct","version":"http://snomed.info/sct/731000124108/version/202303","code":"428341000124108"}]}]},"request":{"method":"PUT","url":"Communication/d68555bf-315b-4302-ac0e-9157d7271a0a"}},{"fullUrl":"https://madie.cms.gov/Condition/5c9a42e9b84846238385008b","resource":{"resourceType":"Condition","id":"4791ea28-3da4-425e-b671-377a52ca0a8d","meta":{"profile":["http://hl7.org/fhir/us/qicore/StructureDefinition/qicore-condition"]},"clinicalStatus":{"coding":[{"system":"http://terminology.hl7.org/CodeSystem/condition-clinical","code":"active","display":"active","userSelected":true}]},"category":[{"coding":[{"system":"http://terminology.hl7.org/CodeSystem/condition-category","code":"problem-list-item","display":"Problem List Item"}]}],"code":{"coding":[{"system":"http://snomed.info/sct","version":"http://snomed.info/sct/731000124108/version/202303","code":"314014002"}]},"subject":{"reference":"Patient/15b275f0-8540-4c32-8ab6-29e535dcea64"},"onsetDateTime":"2025-12-16T13:30:00+00:00"},"request":{"method":"PUT","url":"Condition/4791ea28-3da4-425e-b671-377a52ca0a8d"}},{"fullUrl":"https://madie.cms.gov/Observation/5c9a42e9b84846238385008d","resource":{"resourceType":"Observation","id":"3f0e424a-a0ee-44a8-9d1b-bb0f698e15d0","meta":{"profile":["http://hl7.org/fhir/us/qicore/StructureDefinition/qicore-observation"]},"status":"final","category":[{"coding":[{"system":"http://snomed.info/sct","version":"http://snomed.info/sct/731000124108/version/202303","code":"113024001","display":"Assessment and interpretation of higher cerebral function, cognitive testing (procedure)","userSelected":true}]}],"code":{"coding":[{"system":"http://loinc.org","version":"2.73","code":"32451-7"}]},"subject":{"reference":"Patient/15b275f0-8540-4c32-8ab6-29e535dcea64"},"effectiveDateTime":"2025-12-16T14:33:00.000+00:00","valueBoolean":true},"request":{"method":"PUT","url":"Observation/3f0e424a-a0ee-44a8-9d1b-bb0f698e15d0"}},{"fullUrl":"https://madie.cms.gov/Encounter/5c9a42e9b84846238385008c","resource":{"resourceType":"Encounter","id":"f147b342-64df-449f-90f8-05d88b91fbd1","meta":{"profile":["http://hl7.org/fhir/us/qicore/StructureDefinition/qicore-encounter"]},"status":"finished","class":{"system":"http://terminology.hl7.org/CodeSystem/v3-ActCode","code":"AMB"},"type":[{"coding":[{"system":"http://www.ama-assn.org/go/cpt","version":"2023","code":"99205"}]}],"subject":{"reference":"Patient/15b275f0-8540-4c32-8ab6-29e535dcea64"},"period":{"start":"2025-12-16T14:30:00+00:00","end":"2025-12-16T15:30:00+00:00"}},"request":{"method":"PUT","url":"Encounter/f147b342-64df-449f-90f8-05d88b91fbd1"}},{"fullUrl":"https://madie.cms.gov/Coverage/1000009","resource":{"resourceType":"Coverage","id":"8264519a-5ef9-42f7-bd58-afe9a78c773f","meta":{"profile":["http://hl7.org/fhir/us/qicore/StructureDefinition/qicore-coverage"]},"status":"active","beneficiary":{"reference":"Patient/15b275f0-8540-4c32-8ab6-29e535dcea64"},"payor":[{"reference":"Organization/e75793c9-fdf6-463a-8c1d-4ee44320dc25"}]},"request":{"method":"PUT","url":"Coverage/8264519a-5ef9-42f7-bd58-afe9a78c773f"}},{"fullUrl":"https://madie.cms.gov/Organization/123456","resource":{"resourceType":"Organization","id":"e75793c9-fdf6-463a-8c1d-4ee44320dc25","meta":{"profile":["http://hl7.org/fhir/us/qicore/StructureDefinition/qicore-organization"]},"identifier":[{"use":"temp","system":"urn:oid:2.16.840.1.113883.4.4","value":"21-3259825"}],"active":true,"type":[{"coding":[{"system":"http://terminology.hl7.org/CodeSystem/organization-type","code":"pay","display":"Payer"}]}],"name":"Blue Cross Blue Shield of Texas","telecom":[{"system":"phone","value":"(+1) 972-777-6900"}],"address":[{"use":"billing","type":"postal","line":["P.O. Box 660044"],"city":"Dallas","state":"TX","postalCode":"75266-0044","country":"USA"}]},"request":{"method":"PUT","url":"Organization/e75793c9-fdf6-463a-8c1d-4ee44320dc25"}},{"fullUrl":"https://madie.cms.gov/MeasureReport/263a9818-2a90-4097-b0d5-680561fc9a69","resource":{"resourceType":"MeasureReport","id":"263a9818-2a90-4097-b0d5-680561fc9a69","meta":{"profile":["http://hl7.org/fhir/us/cqfmeasures/StructureDefinition/test-case-cqfm"]},"contained":[{"resourceType":"Parameters","id":"e48561b1-0487-4553-b5f7-753004e74d9f-parameters","parameter":[{"name":"subject","valueString":"15b275f0-8540-4c32-8ab6-29e535dcea64"}]}],"extension":[{"url":"http://hl7.org/fhir/us/cqfmeasures/StructureDefinition/cqfm-inputParameters","valueReference":{"reference":"#e48561b1-0487-4553-b5f7-753004e74d9f-parameters"}},{"url":"http://hl7.org/fhir/us/cqfmeasures/StructureDefinition/cqfm-testCaseDescription","valueMarkdown":"Patient with communications done 1hr before start of encounter."}],"modifierExtension":[{"url":"http://hl7.org/fhir/us/cqfmeasures/StructureDefinition/cqfm-isTestCase","valueBoolean":true}],"status":"complete","type":"individual","measure":"https://madie.cms.gov/Measure/DRCommunicationWithPhysicianManagingDiabetesFHIR","period":{"start":"2025-01-01","end":"2025-12-31"},"group":[{"population":[{"code":{"coding":[{"system":"http://terminology.hl7.org/CodeSystem/measure-population","code":"initial-population","display":"Initial Population"}]},"count":1},{"code":{"coding":[{"system":"http://terminology.hl7.org/CodeSystem/measure-population","code":"denominator","display":"Denominator"}]},"count":1},{"code":{"coding":[{"system":"http://terminology.hl7.org/CodeSystem/measure-population","code":"numerator","display":"Numerator"}]},"count":0},{"code":{"coding":[{"system":"http://terminology.hl7.org/CodeSystem/measure-population","code":"denominator-exception","display":"Denominator Exception"}]},"count":0}]}]},"request":{"method":"PUT","url":"MeasureReport/263a9818-2a90-4097-b0d5-680561fc9a69"}}]}