{"resourceType":"Bundle","id":"tests-380d6e3a-1fc1-474c-a8f3-8e6ba4f0dd42-bundle","type":"transaction","entry":[{"fullUrl":"https://madie.cms.gov/Patient/380d6e3a-1fc1-474c-a8f3-8e6ba4f0dd42","resource":{"resourceType":"Patient","id":"380d6e3a-1fc1-474c-a8f3-8e6ba4f0dd42","meta":{"profile":["http://hl7.org/fhir/us/qicore/StructureDefinition/qicore-patient"]},"extension":[{"url":"http://hl7.org/fhir/us/core/StructureDefinition/us-core-race","extension":[{"url":"ombCategory","valueCoding":{"system":"urn:oid:2.16.840.1.113883.6.238","code":"2106-3","display":"White"}},{"url":"detailed","valueCoding":{"system":"urn:oid:2.16.840.1.113883.6.238","code":"2036-2","display":"Filipino"}},{"url":"text","valueString":"White"}]},{"url":"http://hl7.org/fhir/us/core/StructureDefinition/us-core-ethnicity","extension":[{"url":"ombCategory","valueCoding":{"system":"urn:oid:2.16.840.1.113883.6.238","code":"2186-5","display":"Not Hispanic or Latino","userSelected":true}},{"url":"detailed","valueCoding":{"system":"urn:oid:2.16.840.1.113883.6.238","code":"1586-7","display":"Shoshone"}},{"url":"text","valueString":"Not Hispanic or Latino"}]}],"identifier":[{"type":{"coding":[{"system":"http://terminology.hl7.org/CodeSystem/v2-0203","code":"MR"}]},"system":"https://bonnie-fhir.healthit.gov/","value":"61168b8798086b77ef9c5ed7"}],"active":true,"name":[{"use":"usual","family":"NUMERPass","given":["CommEdemaAbsentAftEnc"]}],"gender":"female","birthDate":"1921-03-24"},"request":{"method":"PUT","url":"Patient/380d6e3a-1fc1-474c-a8f3-8e6ba4f0dd42"}},{"fullUrl":"https://madie.cms.gov/Communication/5cf6a766b8484632a744b2d6","resource":{"resourceType":"Communication","id":"7c3f6da5-0c4b-482d-82c1-377c44387d2b","meta":{"profile":["http://hl7.org/fhir/us/qicore/StructureDefinition/qicore-communication"]},"extension":[{"url":"http://hl7.org/fhir/us/qicore/StructureDefinition/qicore-recorded","valueDateTime":"2012-12-17T10:00:00+00:00"}],"status":"completed","category":[{"coding":[{"system":"http://snomed.info/sct","version":"http://snomed.info/sct/731000124108/version/202303","code":"312903003","display":"Mild nonproliferative retinopathy due to diabetes mellitus (disorder)","userSelected":true}]}],"subject":{"reference":"Patient/380d6e3a-1fc1-474c-a8f3-8e6ba4f0dd42"},"sent":"2025-12-17T08:00:00.000+00:00","reasonCode":[{"coding":[{"system":"http://snomed.info/sct","code":"312903003"}]}]},"request":{"method":"PUT","url":"Communication/7c3f6da5-0c4b-482d-82c1-377c44387d2b"}},{"fullUrl":"https://madie.cms.gov/Condition/5cf6a766b8484632a744b2d2","resource":{"resourceType":"Condition","id":"16bcada8-0aa3-406d-b30d-220d3cc82c59","meta":{"profile":["http://hl7.org/fhir/us/qicore/StructureDefinition/qicore-condition"]},"clinicalStatus":{"coding":[{"system":"http://terminology.hl7.org/CodeSystem/condition-clinical","code":"active","display":"active","userSelected":true}]},"category":[{"coding":[{"system":"http://terminology.hl7.org/CodeSystem/condition-category","code":"problem-list-item","display":"Problem List Item"}]}],"code":{"coding":[{"system":"http://snomed.info/sct","version":"http://snomed.info/sct/731000124108/version/202303","code":"314014002"}]},"subject":{"reference":"Patient/380d6e3a-1fc1-474c-a8f3-8e6ba4f0dd42"},"onsetDateTime":"2019-05-10T08:00:00.000+00:00"},"request":{"method":"PUT","url":"Condition/16bcada8-0aa3-406d-b30d-220d3cc82c59"}},{"fullUrl":"https://madie.cms.gov/Observation/5cf6a766b8484632a744b2d4","resource":{"resourceType":"Observation","id":"703a4cb7-9d37-4e33-9a89-4e0dddc177f9","meta":{"profile":["http://hl7.org/fhir/us/qicore/StructureDefinition/qicore-observation"]},"status":"final","category":[{"coding":[{"system":"http://terminology.hl7.org/CodeSystem/observation-category","code":"vital-signs","display":"Vital Signs"}]}],"code":{"coding":[{"system":"http://loinc.org","version":"2.73","code":"32451-7"}]},"subject":{"reference":"Patient/380d6e3a-1fc1-474c-a8f3-8e6ba4f0dd42"},"effectiveDateTime":"2025-06-16T14:45:00.000+00:00","valueBoolean":true},"request":{"method":"PUT","url":"Observation/703a4cb7-9d37-4e33-9a89-4e0dddc177f9"}},{"fullUrl":"https://madie.cms.gov/Encounter/5e4445ed99bc0600000ca757","resource":{"resourceType":"Encounter","id":"f770be47-666a-46c1-a1e8-09a1640b536c","meta":{"profile":["http://hl7.org/fhir/us/qicore/StructureDefinition/qicore-encounter"]},"status":"finished","class":{"system":"http://terminology.hl7.org/CodeSystem/v3-ActCode","code":"AMB"},"type":[{"coding":[{"system":"http://snomed.info/sct","version":"http://snomed.info/sct/731000124108/version/202303","code":"359960003"}]}],"subject":{"reference":"Patient/380d6e3a-1fc1-474c-a8f3-8e6ba4f0dd42"},"period":{"start":"2025-06-16T14:30:00.000+00:00","end":"2025-06-16T15:30:00.000+00:00"}},"request":{"method":"PUT","url":"Encounter/f770be47-666a-46c1-a1e8-09a1640b536c"}},{"fullUrl":"https://madie.cms.gov/Communication/5cf6a4fcb8484632a744b1cb","resource":{"resourceType":"Communication","id":"33f116f4-3b45-43af-b1d7-48a3e95dab15","meta":{"profile":["http://hl7.org/fhir/us/qicore/StructureDefinition/qicore-communication"]},"extension":[{"url":"http://hl7.org/fhir/us/qicore/StructureDefinition/qicore-recorded","valueDateTime":"2025-12-21T16:15:00+00:00"}],"status":"completed","category":[{"coding":[{"system":"http://snomed.info/sct","version":"http://snomed.info/sct/731000124108/version/202303","code":"193350004","display":"Advanced maculopathy due to diabetes mellitus (disorder)","userSelected":true}]}],"subject":{"reference":"Patient/380d6e3a-1fc1-474c-a8f3-8e6ba4f0dd42"},"sent":"2025-12-21T08:00:00.000+00:00","reasonCode":[{"coding":[{"system":"http://snomed.info/sct","version":"http://snomed.info/sct/731000124108/version/202303","code":"428341000124108"}]}]},"request":{"method":"PUT","url":"Communication/33f116f4-3b45-43af-b1d7-48a3e95dab15"}},{"fullUrl":"https://madie.cms.gov/Coverage/6846813516441","resource":{"resourceType":"Coverage","id":"f29a1853-4ad8-4899-ab68-9e32c3b01a56","meta":{"profile":["http://hl7.org/fhir/us/qicore/StructureDefinition/qicore-coverage"]},"identifier":[{"system":"http://benefitsinc.com/certificate","value":"12345"}],"status":"active","type":{"coding":[{"system":"https://nahdo.org/sopt","version":"9.2","code":"59","display":"Other Private Insurance"}]},"beneficiary":{"reference":"Patient/380d6e3a-1fc1-474c-a8f3-8e6ba4f0dd42"},"dependent":"0","relationship":{"coding":[{"system":"http://terminology.hl7.org/CodeSystem/subscriber-relationship","code":"self"}]},"period":{"start":"2015-05-23","end":"2030-05-23"},"payor":[{"reference":"Organization/4d7da20f-8773-4347-8f6b-80adcdcee1f4"}],"order":9},"request":{"method":"PUT","url":"Coverage/f29a1853-4ad8-4899-ab68-9e32c3b01a56"}},{"fullUrl":"https://madie.cms.gov/Organization/4654531645616","resource":{"resourceType":"Organization","id":"4d7da20f-8773-4347-8f6b-80adcdcee1f4","meta":{"profile":["http://hl7.org/fhir/us/qicore/StructureDefinition/qicore-organization"]},"identifier":[{"use":"temp","system":"http://terminology.hl7.org/NamingSystem/USEIN","value":"48915164351354"}],"active":true,"type":[{"coding":[{"system":"http://terminology.hl7.org/CodeSystem/organization-type","code":"team","display":"Organizational team"}]}],"name":"Good Healthcare, LLC","telecom":[{"system":"phone","value":"(+1) 901-683-7777"},{"system":"fax","value":"(+1) 901-683-6622"},{"system":"email","value":"BetterYourHealth@GoodHealthcare.com"}],"address":[{"line":["3651 Wentrow Blvd, Suite 227"],"city":"Germantown","state":"TN","postalCode":"38138","country":"USA"}]},"request":{"method":"PUT","url":"Organization/4d7da20f-8773-4347-8f6b-80adcdcee1f4"}},{"fullUrl":"https://madie.cms.gov/MeasureReport/925b76d6-2d6f-4846-bd41-3cb633b8dfad","resource":{"resourceType":"MeasureReport","id":"925b76d6-2d6f-4846-bd41-3cb633b8dfad","meta":{"profile":["http://hl7.org/fhir/us/cqfmeasures/StructureDefinition/test-case-cqfm"]},"contained":[{"resourceType":"Parameters","id":"7bbeb5b6-fc01-45e2-8c06-767dd9c4a1e6-parameters","parameter":[{"name":"subject","valueString":"380d6e3a-1fc1-474c-a8f3-8e6ba4f0dd42"}]}],"extension":[{"url":"http://hl7.org/fhir/us/cqfmeasures/StructureDefinition/cqfm-inputParameters","valueReference":{"reference":"#7bbeb5b6-fc01-45e2-8c06-767dd9c4a1e6-parameters"}},{"url":"http://hl7.org/fhir/us/cqfmeasures/StructureDefinition/cqfm-testCaseDescription","valueMarkdown":"Communication of Edema Absent is performed as required and will pass Numerator Criteria"}],"modifierExtension":[{"url":"http://hl7.org/fhir/us/cqfmeasures/StructureDefinition/cqfm-isTestCase","valueBoolean":true}],"status":"complete","type":"individual","measure":"https://madie.cms.gov/Measure/DRCommunicationWithPhysicianManagingDiabetesFHIR","period":{"start":"2025-01-01","end":"2025-12-31"},"group":[{"population":[{"code":{"coding":[{"system":"http://terminology.hl7.org/CodeSystem/measure-population","code":"initial-population","display":"Initial Population"}]},"count":1},{"code":{"coding":[{"system":"http://terminology.hl7.org/CodeSystem/measure-population","code":"denominator","display":"Denominator"}]},"count":1},{"code":{"coding":[{"system":"http://terminology.hl7.org/CodeSystem/measure-population","code":"numerator","display":"Numerator"}]},"count":1},{"code":{"coding":[{"system":"http://terminology.hl7.org/CodeSystem/measure-population","code":"denominator-exception","display":"Denominator Exception"}]},"count":0}]}]},"request":{"method":"PUT","url":"MeasureReport/925b76d6-2d6f-4846-bd41-3cb633b8dfad"}}]}