{"resourceType":"Bundle","id":"tests-569ebc6b-4bc4-4b1e-9e40-c3942190d446-bundle","type":"transaction","entry":[{"fullUrl":"https://madie.cms.gov/Patient/569ebc6b-4bc4-4b1e-9e40-c3942190d446","resource":{"resourceType":"Patient","id":"569ebc6b-4bc4-4b1e-9e40-c3942190d446","meta":{"profile":["http://hl7.org/fhir/us/qicore/StructureDefinition/qicore-patient"]},"text":{"status":"generated","div":"<div xmlns=\"http://www.w3.org/1999/xhtml\"><div class=\"hapiHeaderText\">LT24beforeAndLT2after <b>WBCPASS </b></div><table class=\"hapiPropertyTable\"><tbody><tr><td>Identifier</td><td>02a3c13b70ccf5a73b893e80582952bdd83e9cabbf053902bb5eb341874dc5ec</td></tr><tr><td>Date of birth</td><td><span>15 June 1956</span></td></tr></tbody></table></div>"},"extension":[{"url":"http://hl7.org/fhir/us/core/StructureDefinition/us-core-race","extension":[{"url":"ombCategory","valueCoding":{"system":"urn:oid:2.16.840.1.113883.6.238","code":"1002-5","display":"American Indian or Alaska Native","userSelected":true}},{"url":"text","valueString":"American Indian or Alaska Native"}]},{"url":"http://hl7.org/fhir/us/core/StructureDefinition/us-core-ethnicity","extension":[{"url":"ombCategory","valueCoding":{"system":"urn:oid:2.16.840.1.113883.6.238","code":"2186-5","display":"Not Hispanic or Latino","userSelected":true}},{"url":"text","valueString":"Not Hispanic or Latino"}]}],"identifier":[{"type":{"coding":[{"system":"http://terminology.hl7.org/CodeSystem/v2-0203","code":"MR"}]},"system":"https://bonnie-fhir.healthit.gov/","value":"63ec096accb3770120fe9fa2"}],"active":true,"name":[{"use":"usual","family":"AllLabsPass","given":["ObsIPEncountersWithLabsDuringTimeframe"]}],"gender":"male","birthDate":"1961-07-01"},"request":{"method":"PUT","url":"Patient/569ebc6b-4bc4-4b1e-9e40-c3942190d446"}},{"fullUrl":"https://madie.cms.gov/Encounter/f87bf13b-a472-45ae-9857-55b40ead14c9","resource":{"resourceType":"Encounter","id":"f87bf13b-a472-45ae-9857-55b40ead14c9","meta":{"profile":["http://hl7.org/fhir/us/qicore/StructureDefinition/qicore-encounter"]},"status":"finished","class":{"system":"http://terminology.hl7.org/CodeSystem/v3-ActCode","code":"OBSENC","display":"observation encounter","userSelected":true},"type":[{"coding":[{"system":"http://snomed.info/sct","code":"448951000124107","display":"Admission to observation unit (procedure)"}]}],"subject":{"reference":"Patient/569ebc6b-4bc4-4b1e-9e40-c3942190d446"},"period":{"start":"2026-07-01T08:00:00.000+00:00","end":"2026-07-02T07:15:00.000+00:00"},"length":{"value":1,"unit":"days"}},"request":{"method":"PUT","url":"Encounter/f87bf13b-a472-45ae-9857-55b40ead14c9"}},{"fullUrl":"https://madie.cms.gov/Encounter/481c7495-f167-4683-9b96-c8e530c45b02","resource":{"resourceType":"Encounter","id":"481c7495-f167-4683-9b96-c8e530c45b02","meta":{"profile":["http://hl7.org/fhir/us/qicore/StructureDefinition/qicore-encounter"]},"status":"finished","class":{"system":"http://terminology.hl7.org/CodeSystem/v3-ActCode","code":"IMP","display":"inpatient encounter","userSelected":true},"type":[{"coding":[{"system":"http://snomed.info/sct","code":"183452005"}]}],"subject":{"reference":"Patient/569ebc6b-4bc4-4b1e-9e40-c3942190d446"},"period":{"start":"2026-07-02T07:15:00.000+00:00","end":"2026-07-05T23:59:00.000+00:00"},"length":{"value":3,"unit":"days"}},"request":{"method":"PUT","url":"Encounter/481c7495-f167-4683-9b96-c8e530c45b02"}},{"fullUrl":"https://madie.cms.gov/Observation/c9bcda1a-b3bc-41f8-99b2-777653459c02","resource":{"resourceType":"Observation","id":"c9bcda1a-b3bc-41f8-99b2-777653459c02","meta":{"profile":["http://hl7.org/fhir/us/core/StructureDefinition/us-core-observation-lab"]},"status":"final","category":[{"coding":[{"system":"http://terminology.hl7.org/CodeSystem/observation-category","code":"laboratory","display":"laboratory","userSelected":true}]}],"code":{"coding":[{"system":"http://loinc.org","code":"14627-4","display":"Bicarbonate [Moles/volume] in Venous blood"}]},"subject":{"reference":"Patient/569ebc6b-4bc4-4b1e-9e40-c3942190d446"},"effectiveDateTime":"2026-07-01T08:00:00.000+00:00","issued":"2026-07-01T08:00:00.000+00:00","valueQuantity":{"value":25,"unit":"mmol/L","system":"http://unitsofmeasure.org","code":"mg/dL"}},"request":{"method":"PUT","url":"Observation/c9bcda1a-b3bc-41f8-99b2-777653459c02"}},{"fullUrl":"https://madie.cms.gov/Observation/8c58e434-104b-4aa9-9eb9-7391bbb4afb8","resource":{"resourceType":"Observation","id":"8c58e434-104b-4aa9-9eb9-7391bbb4afb8","meta":{"profile":["http://hl7.org/fhir/us/core/StructureDefinition/us-core-observation-lab"]},"status":"final","category":[{"coding":[{"system":"http://terminology.hl7.org/CodeSystem/observation-category","code":"laboratory","display":"laboratory","userSelected":true}]}],"code":{"coding":[{"system":"http://loinc.org","code":"14682-9","display":"Creatinine [Moles/volume] in Serum or Plasma","userSelected":true}]},"subject":{"reference":"Patient/569ebc6b-4bc4-4b1e-9e40-c3942190d446"},"issued":"2026-07-01T10:00:00.000+00:00","valueQuantity":{"value":2,"unit":"mg/dL","system":"http://unitsofmeasure.org","code":"mg/dL"}},"request":{"method":"PUT","url":"Observation/8c58e434-104b-4aa9-9eb9-7391bbb4afb8"}},{"fullUrl":"https://madie.cms.gov/Observation/2a099ad1-9353-4329-9f80-2cd96879ca35","resource":{"resourceType":"Observation","id":"2a099ad1-9353-4329-9f80-2cd96879ca35","meta":{"profile":["http://hl7.org/fhir/us/core/StructureDefinition/us-core-observation-lab"]},"status":"final","category":[{"coding":[{"system":"http://terminology.hl7.org/CodeSystem/observation-category","code":"laboratory","display":"laboratory","userSelected":true}]}],"code":{"coding":[{"system":"http://loinc.org","code":"20570-8","display":"Hematocrit [Volume Fraction] of Blood"}]},"subject":{"reference":"Patient/569ebc6b-4bc4-4b1e-9e40-c3942190d446"},"effectiveDateTime":"2026-07-02T07:15:00.000+00:00","issued":"2026-07-02T07:15:00.000+00:00","valueQuantity":{"value":50,"unit":"%","system":"http://unitsofmeasure.org","code":"%"}},"request":{"method":"PUT","url":"Observation/2a099ad1-9353-4329-9f80-2cd96879ca35"}},{"fullUrl":"https://madie.cms.gov/Observation/2f156cf5-3e5d-4d6f-87d1-9814653add57","resource":{"resourceType":"Observation","id":"2f156cf5-3e5d-4d6f-87d1-9814653add57","meta":{"profile":["http://hl7.org/fhir/us/core/StructureDefinition/us-core-observation-lab"]},"status":"final","category":[{"coding":[{"system":"http://terminology.hl7.org/CodeSystem/observation-category","code":"laboratory","display":"laboratory","userSelected":true}]}],"code":{"coding":[{"system":"http://loinc.org","code":"26464-8","display":"Leukocytes [#/volume] in Blood"}]},"subject":{"reference":"Patient/569ebc6b-4bc4-4b1e-9e40-c3942190d446"},"issued":"2026-07-03T07:15:00.000+00:00","valueQuantity":{"value":5000,"unit":"uL","system":"http://unitsofmeasure.org","code":"uL"}},"request":{"method":"PUT","url":"Observation/2f156cf5-3e5d-4d6f-87d1-9814653add57"}},{"fullUrl":"https://madie.cms.gov/Observation/5742699e-c39c-4a53-ba33-97942c33fb84","resource":{"resourceType":"Observation","id":"5742699e-c39c-4a53-ba33-97942c33fb84","meta":{"profile":["http://hl7.org/fhir/us/core/StructureDefinition/us-core-observation-lab"]},"status":"final","category":[{"coding":[{"system":"http://terminology.hl7.org/CodeSystem/observation-category","code":"laboratory","display":"laboratory","userSelected":true}]}],"code":{"coding":[{"system":"http://loinc.org","code":"13056-7","display":"Platelets [#/volume] in Plasma by Automated count"}]},"subject":{"reference":"Patient/569ebc6b-4bc4-4b1e-9e40-c3942190d446"},"effectiveDateTime":"2026-07-03T07:15:00.000+00:00","issued":"2026-07-03T07:15:00.000+00:00","valueQuantity":{"value":150000,"unit":"/uL","system":"http://unitsofmeasure.org","code":"/uL"}},"request":{"method":"PUT","url":"Observation/5742699e-c39c-4a53-ba33-97942c33fb84"}},{"fullUrl":"https://madie.cms.gov/Observation/45799687-e965-4583-9b53-898c377a6885","resource":{"resourceType":"Observation","id":"45799687-e965-4583-9b53-898c377a6885","meta":{"profile":["http://hl7.org/fhir/us/core/StructureDefinition/us-core-observation-lab"]},"status":"final","category":[{"coding":[{"system":"http://terminology.hl7.org/CodeSystem/observation-category","code":"laboratory","display":"laboratory","userSelected":true}]}],"code":{"coding":[{"system":"http://loinc.org","code":"2947-0","display":"Sodium [Moles/volume] in Blood"}]},"subject":{"reference":"Patient/569ebc6b-4bc4-4b1e-9e40-c3942190d446"},"effectiveDateTime":"2025-07-03T07:15:00.000+00:00","issued":"2026-07-03T07:15:00.000+00:00","valueQuantity":{"value":5,"unit":"meq/L","system":"http://unitsofmeasure.org","code":"meq/L"}},"request":{"method":"PUT","url":"Observation/45799687-e965-4583-9b53-898c377a6885"}},{"fullUrl":"https://madie.cms.gov/Coverage/a526ea2c-325b-4726-a1a8-66427945e220","resource":{"resourceType":"Coverage","id":"a526ea2c-325b-4726-a1a8-66427945e220","meta":{"profile":["http://hl7.org/fhir/us/qicore/StructureDefinition/qicore-coverage"]},"status":"active","type":{"coding":[{"system":"https://nahdo.org/sopt","version":"9.2","code":"1","display":"MEDICARE","userSelected":true}]},"beneficiary":{"reference":"Patient/569ebc6b-4bc4-4b1e-9e40-c3942190d446"},"period":{"start":"2026-01-01T00:00:00+00:00"},"payor":[{"reference":"Organization/18ca435c-cae6-4c34-8033-af717477f9fc"}]},"request":{"method":"PUT","url":"Coverage/a526ea2c-325b-4726-a1a8-66427945e220"}},{"fullUrl":"https://madie.cms.gov/Organization/fabbd273-6ea7-4a70-852f-189748376f92","resource":{"resourceType":"Organization","id":"18ca435c-cae6-4c34-8033-af717477f9fc","meta":{"profile":["http://hl7.org/fhir/us/qicore/StructureDefinition/qicore-organization"]},"identifier":[{"use":"temp","system":"urn:oid:2.16.840.1.113883.4.4","value":"21-3259825"}],"active":true,"type":[{"coding":[{"system":"http://terminology.hl7.org/CodeSystem/organization-type","code":"pay","display":"Payer"}]}],"name":"Blue Cross Blue Shield of Texas","telecom":[{"system":"phone","value":"(+1) 972-766-6900"}],"address":[{"use":"billing","type":"postal","line":["P.O. Box 660044"],"city":"Dallas","state":"TX","postalCode":"75266-0044","country":"USA"}]},"request":{"method":"PUT","url":"Organization/18ca435c-cae6-4c34-8033-af717477f9fc"}},{"fullUrl":"https://madie.cms.gov/Practitioner/8e380068-8924-4114-9d5c-0ae3aec97d40","resource":{"resourceType":"Practitioner","id":"8e380068-8924-4114-9d5c-0ae3aec97d40","meta":{"profile":["http://hl7.org/fhir/us/qicore/StructureDefinition/qicore-practitioner"]},"identifier":[{"system":"http://hl7.org/fhir/sid/us-npi","value":"123456"}],"name":[{"family":"Evil","prefix":["Dr"]}]},"request":{"method":"PUT","url":"Practitioner/8e380068-8924-4114-9d5c-0ae3aec97d40"}},{"fullUrl":"https://madie.cms.gov/MeasureReport/f6c00b4d-adca-4c7e-afbc-9787db701ff2","resource":{"resourceType":"MeasureReport","id":"f6c00b4d-adca-4c7e-afbc-9787db701ff2","meta":{"profile":["http://hl7.org/fhir/us/cqfmeasures/StructureDefinition/test-case-cqfm"]},"contained":[{"resourceType":"Parameters","id":"f4a6870a-b3b3-4b03-93dd-7f441e678bb2-parameters","parameter":[{"name":"subject","valueString":"569ebc6b-4bc4-4b1e-9e40-c3942190d446"}]}],"extension":[{"url":"http://hl7.org/fhir/us/cqfmeasures/StructureDefinition/cqfm-inputParameters","valueReference":{"reference":"#f4a6870a-b3b3-4b03-93dd-7f441e678bb2-parameters"}},{"url":"http://hl7.org/fhir/us/cqfmeasures/StructureDefinition/cqfm-testCaseDescription","valueMarkdown":"Patient has Medicare and is age 65 start of Observation enc: bicarbonate lab performed at start of Obs enc; creatinine @ 2 hrs after start;  Inpatient enc: hematocrit @ admission; WBC, platelets, and sodium 24 hrs after admit; "}],"modifierExtension":[{"url":"http://hl7.org/fhir/us/cqfmeasures/StructureDefinition/cqfm-isTestCase","valueBoolean":true}],"status":"complete","type":"individual","measure":"https://madie.cms.gov/Measure/CMSFHIR529HybridHospitalWideReadmission","period":{"start":"2026-07-01","end":"2027-06-30"},"group":[{"population":[{"code":{"coding":[{"system":"http://terminology.hl7.org/CodeSystem/measure-population","code":"initial-population","display":"Initial Population"}]},"count":1}]}]},"request":{"method":"PUT","url":"MeasureReport/f6c00b4d-adca-4c7e-afbc-9787db701ff2"}}]}