{"resourceType":"Bundle","id":"tests-60b3c46c-421e-401a-874b-a9deada38081-bundle","type":"transaction","entry":[{"fullUrl":"https://madie.cms.gov/Patient/60b3c46c-421e-401a-874b-a9deada38081","resource":{"resourceType":"Patient","id":"60b3c46c-421e-401a-874b-a9deada38081","meta":{"profile":["http://hl7.org/fhir/us/qicore/StructureDefinition/qicore-patient"]},"text":{"status":"generated","div":"<div xmlns=\"http://www.w3.org/1999/xhtml\"><div class=\"hapiHeaderText\">LT2after <b>SODIUMPASS </b></div><table class=\"hapiPropertyTable\"><tbody><tr><td>Identifier</td><td>d4e3b34860364263302d53f5aee51bce780068433d224144226a0193b20c9a22</td></tr><tr><td>Date of birth</td><td><span>21 June 1947</span></td></tr></tbody></table></div>"},"extension":[{"url":"http://hl7.org/fhir/us/core/StructureDefinition/us-core-race","extension":[{"url":"ombCategory","valueCoding":{"system":"urn:oid:2.16.840.1.113883.6.238","code":"1002-5","display":"American Indian or Alaska Native","userSelected":true}},{"url":"text","valueString":"American Indian or Alaska Native"}]},{"url":"http://hl7.org/fhir/us/core/StructureDefinition/us-core-ethnicity","extension":[{"url":"ombCategory","valueCoding":{"system":"urn:oid:2.16.840.1.113883.6.238","code":"2186-5","display":"Not Hispanic or Latino","userSelected":true}},{"url":"text","valueString":"Not Hispanic or Latino"}]}],"identifier":[{"type":{"coding":[{"system":"http://terminology.hl7.org/CodeSystem/v2-0203","code":"MR"}]},"system":"https://bonnie-fhir.healthit.gov/","value":"63ec09a2ccb3770120fea7fb"}],"active":true,"name":[{"use":"usual","family":"SodiumPass","given":["24HrsAfterStartOfEnc"]}],"gender":"male","birthDate":"1933-06-28"},"request":{"method":"PUT","url":"Patient/60b3c46c-421e-401a-874b-a9deada38081"}},{"fullUrl":"https://madie.cms.gov/Encounter/2abb48ff-5c96-40ca-8c0c-09e0546192f0","resource":{"resourceType":"Encounter","id":"2abb48ff-5c96-40ca-8c0c-09e0546192f0","meta":{"profile":["http://hl7.org/fhir/us/qicore/StructureDefinition/qicore-encounter"]},"status":"finished","class":{"system":"http://terminology.hl7.org/CodeSystem/v3-ActCode","code":"NONAC","display":"Nonacute","userSelected":true},"type":[{"coding":[{"system":"http://snomed.info/sct","code":"183452005"}]}],"subject":{"reference":"Patient/60b3c46c-421e-401a-874b-a9deada38081"},"period":{"start":"2027-06-28T08:00:00.000+00:00","end":"2027-06-30T08:15:00.000+00:00"}},"request":{"method":"PUT","url":"Encounter/2abb48ff-5c96-40ca-8c0c-09e0546192f0"}},{"fullUrl":"https://madie.cms.gov/Coverage/f39e4560-c2c2-411e-a7c5-85c6ce5de0f0","resource":{"resourceType":"Coverage","id":"f39e4560-c2c2-411e-a7c5-85c6ce5de0f0","meta":{"profile":["http://hl7.org/fhir/us/qicore/StructureDefinition/qicore-coverage"]},"status":"active","type":{"coding":[{"system":"https://nahdo.org/sopt","version":"1.0.1","code":"1","display":"Medicare payer","userSelected":true}]},"beneficiary":{"reference":"Patient/60b3c46c-421e-401a-874b-a9deada38081"},"period":{"start":"2025-01-01T06:00:00.000Z","end":"2027-01-01T11:06:01.000Z"},"payor":[{"reference":"Organization/18ca435c-cae6-4c34-8033-af717477f9fc"}]},"request":{"method":"PUT","url":"Coverage/f39e4560-c2c2-411e-a7c5-85c6ce5de0f0"}},{"fullUrl":"https://madie.cms.gov/Observation/c0a0a2fe-ed78-437e-bc15-f17ef30535b2","resource":{"resourceType":"Observation","id":"c0a0a2fe-ed78-437e-bc15-f17ef30535b2","meta":{"profile":["http://hl7.org/fhir/us/core/StructureDefinition/us-core-observation-lab"]},"status":"final","category":[{"coding":[{"system":"http://terminology.hl7.org/CodeSystem/observation-category","code":"laboratory","display":"laboratory","userSelected":true}]}],"code":{"coding":[{"system":"http://loinc.org","code":"2947-0","display":"Sodium [Moles/volume] in Blood"}]},"subject":{"reference":"Patient/60b3c46c-421e-401a-874b-a9deada38081"},"effectiveDateTime":"2027-06-29T08:00:00.000+00:00","issued":"2027-06-29T07:59:00.000+00:00","valueQuantity":{"value":5.0,"unit":"meq/L","system":"http://unitsofmeasure.org","code":"meq/L"}},"request":{"method":"PUT","url":"Observation/c0a0a2fe-ed78-437e-bc15-f17ef30535b2"}},{"fullUrl":"https://madie.cms.gov/Organization/c6ba1e6a-23fb-4829-8462-0119af17f1b6","resource":{"resourceType":"Organization","id":"18ca435c-cae6-4c34-8033-af717477f9fc","meta":{"profile":["http://hl7.org/fhir/us/qicore/StructureDefinition/qicore-organization"]},"identifier":[{"use":"temp","system":"urn:oid:2.16.840.1.113883.4.4","value":"21-3259825"}],"active":true,"type":[{"coding":[{"system":"http://terminology.hl7.org/CodeSystem/organization-type","code":"pay","display":"Payer"}]}],"name":"Blue Cross Blue Shield of Texas","telecom":[{"system":"phone","value":"(+1) 972-766-6900"}],"address":[{"use":"billing","type":"postal","line":["P.O. Box 660044"],"city":"Dallas","state":"TX","postalCode":"75266-0044","country":"USA"}]},"request":{"method":"PUT","url":"Organization/18ca435c-cae6-4c34-8033-af717477f9fc"}},{"fullUrl":"https://madie.cms.gov/Practitioner/d3ba44a5-524a-4650-af10-e2e3b17e1e7c","resource":{"resourceType":"Practitioner","id":"d3ba44a5-524a-4650-af10-e2e3b17e1e7c","meta":{"profile":["http://hl7.org/fhir/us/qicore/StructureDefinition/qicore-practitioner"]},"identifier":[{"system":"http://hl7.org/fhir/sid/us-npi","value":"123456"}],"name":[{"family":"Evil","prefix":["Dr"]}]},"request":{"method":"PUT","url":"Practitioner/d3ba44a5-524a-4650-af10-e2e3b17e1e7c"}},{"fullUrl":"https://madie.cms.gov/MeasureReport/dfa1c19f-6a33-444d-bd8c-9427cce1208d","resource":{"resourceType":"MeasureReport","id":"dfa1c19f-6a33-444d-bd8c-9427cce1208d","meta":{"profile":["http://hl7.org/fhir/us/cqfmeasures/StructureDefinition/test-case-cqfm"]},"contained":[{"resourceType":"Parameters","id":"35c58160-b36d-47d7-8ff6-dc6d6279ef5c-parameters","parameter":[{"name":"subject","valueString":"60b3c46c-421e-401a-874b-a9deada38081"}]}],"extension":[{"url":"http://hl7.org/fhir/us/cqfmeasures/StructureDefinition/cqfm-inputParameters","valueReference":{"reference":"#35c58160-b36d-47d7-8ff6-dc6d6279ef5c-parameters"}},{"url":"http://hl7.org/fhir/us/cqfmeasures/StructureDefinition/cqfm-testCaseDescription","valueMarkdown":"Enc, last day of MP (6/30), age 94 first day of enc.  Sodium lab @ 24 hours after start of inpatient encounter. "}],"modifierExtension":[{"url":"http://hl7.org/fhir/us/cqfmeasures/StructureDefinition/cqfm-isTestCase","valueBoolean":true}],"status":"complete","type":"individual","measure":"https://madie.cms.gov/Measure/CMSFHIR529HybridHospitalWideReadmission","period":{"start":"2026-07-01","end":"2027-06-30"},"group":[{"population":[{"code":{"coding":[{"system":"http://terminology.hl7.org/CodeSystem/measure-population","code":"initial-population","display":"Initial Population"}]},"count":1}]}]},"request":{"method":"PUT","url":"MeasureReport/dfa1c19f-6a33-444d-bd8c-9427cce1208d"}}]}