{"resourceType":"Bundle","id":"tests-ba176ab1-4250-447d-9357-1d1d04c85781-bundle","type":"transaction","entry":[{"fullUrl":"https://madie.cms.gov/Patient/ba176ab1-4250-447d-9357-1d1d04c85781","resource":{"resourceType":"Patient","id":"ba176ab1-4250-447d-9357-1d1d04c85781","meta":{"profile":["http://hl7.org/fhir/us/qicore/StructureDefinition/qicore-patient"]},"text":{"status":"generated","div":"<div xmlns=\"http://www.w3.org/1999/xhtml\"><div class=\"hapiHeaderText\">LTE24before <b>BICARBPASS </b></div><table class=\"hapiPropertyTable\"><tbody><tr><td>Identifier</td><td>d69abbc179641b9cd673a4a9152886e8e63bc2e0e7b27e1a51505ef2a774679e</td></tr><tr><td>Date of birth</td><td><span>15 June 1956</span></td></tr></tbody></table></div>"},"extension":[{"url":"http://hl7.org/fhir/us/core/StructureDefinition/us-core-race","extension":[{"url":"ombCategory","valueCoding":{"system":"urn:oid:2.16.840.1.113883.6.238","code":"1002-5","display":"American Indian or Alaska Native","userSelected":true}},{"url":"text","valueString":"American Indian or Alaska Native"}]},{"url":"http://hl7.org/fhir/us/core/StructureDefinition/us-core-ethnicity","extension":[{"url":"ombCategory","valueCoding":{"system":"urn:oid:2.16.840.1.113883.6.238","code":"2186-5","display":"Not Hispanic or Latino","userSelected":true}},{"url":"text","valueString":"Not Hispanic or Latino"}]}],"identifier":[{"type":{"coding":[{"system":"http://terminology.hl7.org/CodeSystem/v2-0203","code":"MR"}]},"system":"https://bonnie-fhir.healthit.gov/","value":"63f3a249ccb3770120ffe6eb"}],"active":true,"name":[{"use":"usual","family":"BicarbonatePass","given":["24HourAfterStartOfAdmit"]}],"gender":"male","birthDate":"1961-07-01"},"request":{"method":"PUT","url":"Patient/ba176ab1-4250-447d-9357-1d1d04c85781"}},{"fullUrl":"https://madie.cms.gov/Encounter/bad564cc-80eb-4866-aae5-2794b6c03ed8","resource":{"resourceType":"Encounter","id":"bad564cc-80eb-4866-aae5-2794b6c03ed8","meta":{"profile":["http://hl7.org/fhir/us/qicore/StructureDefinition/qicore-encounter"]},"status":"finished","class":{"system":"http://terminology.hl7.org/CodeSystem/v3-ActCode","code":"IMP","display":"inpatient encounter","userSelected":true},"type":[{"coding":[{"system":"http://snomed.info/sct","code":"183452005"}]}],"subject":{"reference":"Patient/ba176ab1-4250-447d-9357-1d1d04c85781"},"period":{"start":"2026-07-01T08:00:00.000+00:00","end":"2026-07-03T08:15:00.000+00:00"}},"request":{"method":"PUT","url":"Encounter/bad564cc-80eb-4866-aae5-2794b6c03ed8"}},{"fullUrl":"https://madie.cms.gov/Coverage/2597918e-ae4d-46ae-95b9-42e699c7d7e0","resource":{"resourceType":"Coverage","id":"2597918e-ae4d-46ae-95b9-42e699c7d7e0","meta":{"profile":["http://hl7.org/fhir/us/qicore/StructureDefinition/qicore-coverage"]},"status":"active","type":{"coding":[{"system":"https://nahdo.org/sopt","version":"1.0.1","code":"1","display":"Medicare payer","userSelected":true}]},"beneficiary":{"reference":"Patient/ba176ab1-4250-447d-9357-1d1d04c85781"},"period":{"start":"2026-01-01T08:00:00.000+00:00","end":"2026-12-31T08:15:00.000+00:00"},"payor":[{"reference":"Organization/4da248b0-6e59-49b7-b80e-338aa21d299f"}]},"request":{"method":"PUT","url":"Coverage/2597918e-ae4d-46ae-95b9-42e699c7d7e0"}},{"fullUrl":"https://madie.cms.gov/Observation/d991035b-bd81-4a84-b237-e4f5afb16337","resource":{"resourceType":"Observation","id":"d991035b-bd81-4a84-b237-e4f5afb16337","meta":{"profile":["http://hl7.org/fhir/us/core/StructureDefinition/us-core-observation-lab"]},"status":"final","category":[{"coding":[{"system":"http://terminology.hl7.org/CodeSystem/observation-category","code":"laboratory","display":"laboratory","userSelected":true}]}],"code":{"coding":[{"system":"http://loinc.org","code":"14627-4","display":"Bicarbonate [Moles/volume] in Venous blood"}]},"subject":{"reference":"Patient/ba176ab1-4250-447d-9357-1d1d04c85781"},"effectiveDateTime":"2026-07-02T08:00:00.000+00:00","issued":"2026-07-02T08:00:00.000+00:00","valueQuantity":{"value":25,"unit":"mmol/L","system":"http://unitsofmeasure.org","code":"mg/dL"}},"request":{"method":"PUT","url":"Observation/d991035b-bd81-4a84-b237-e4f5afb16337"}},{"fullUrl":"https://madie.cms.gov/Organization/0280ec20-f1c0-4061-a604-6a7b9d0a60ad","resource":{"resourceType":"Organization","id":"4da248b0-6e59-49b7-b80e-338aa21d299f","meta":{"profile":["http://hl7.org/fhir/us/qicore/StructureDefinition/qicore-organization"]},"identifier":[{"use":"temp","system":"urn:oid:2.16.840.1.113883.4.4","value":"21-3259825"}],"active":true,"type":[{"coding":[{"system":"http://terminology.hl7.org/CodeSystem/organization-type","code":"pay","display":"Payer"}]}],"name":"Blue Cross Blue Shield of Texas","telecom":[{"system":"phone","value":"(+1) 972-766-6900"}],"address":[{"use":"billing","type":"postal","line":["P.O. Box 660044"],"city":"Dallas","state":"TX","postalCode":"75266-0044","country":"USA"}]},"request":{"method":"PUT","url":"Organization/4da248b0-6e59-49b7-b80e-338aa21d299f"}},{"fullUrl":"https://madie.cms.gov/Practitioner/b2e98a2c-4ed9-418c-88ac-0a2dc01af1c8","resource":{"resourceType":"Practitioner","id":"b2e98a2c-4ed9-418c-88ac-0a2dc01af1c8","meta":{"profile":["http://hl7.org/fhir/us/qicore/StructureDefinition/qicore-practitioner"]},"identifier":[{"system":"http://hl7.org/fhir/sid/us-npi","value":"123456"}],"name":[{"family":"Evil","prefix":["Dr"]}]},"request":{"method":"PUT","url":"Practitioner/b2e98a2c-4ed9-418c-88ac-0a2dc01af1c8"}},{"fullUrl":"https://madie.cms.gov/MeasureReport/ace271a7-749b-4b68-ab57-e73a7a43d23f","resource":{"resourceType":"MeasureReport","id":"ace271a7-749b-4b68-ab57-e73a7a43d23f","meta":{"profile":["http://hl7.org/fhir/us/cqfmeasures/StructureDefinition/test-case-cqfm"]},"contained":[{"resourceType":"Parameters","id":"d9a84ad9-31a8-47e3-8fcb-324042513492-parameters","parameter":[{"name":"subject","valueString":"ba176ab1-4250-447d-9357-1d1d04c85781"}]}],"extension":[{"url":"http://hl7.org/fhir/us/cqfmeasures/StructureDefinition/cqfm-inputParameters","valueReference":{"reference":"#d9a84ad9-31a8-47e3-8fcb-324042513492-parameters"}},{"url":"http://hl7.org/fhir/us/cqfmeasures/StructureDefinition/cqfm-testCaseDescription","valueMarkdown":"Enc starts first day of MP, age 65 today, has Medicare, bicarbonate 25 mmol/L"}],"modifierExtension":[{"url":"http://hl7.org/fhir/us/cqfmeasures/StructureDefinition/cqfm-isTestCase","valueBoolean":true}],"status":"complete","type":"individual","measure":"https://madie.cms.gov/Measure/CMSFHIR529HybridHospitalWideReadmission","period":{"start":"2026-07-01","end":"2027-06-30"},"group":[{"population":[{"code":{"coding":[{"system":"http://terminology.hl7.org/CodeSystem/measure-population","code":"initial-population","display":"Initial Population"}]},"count":1}]}]},"request":{"method":"PUT","url":"MeasureReport/ace271a7-749b-4b68-ab57-e73a7a43d23f"}}]}