{"resourceType":"Bundle","id":"tests-dcf6613c-e366-43a9-9de9-9319e03a2981-bundle","type":"transaction","entry":[{"fullUrl":"https://madie.cms.gov/Patient/dcf6613c-e366-43a9-9de9-9319e03a2981","resource":{"resourceType":"Patient","id":"dcf6613c-e366-43a9-9de9-9319e03a2981","meta":{"profile":["http://hl7.org/fhir/us/qicore/StructureDefinition/qicore-patient"]},"text":{"status":"generated","div":"<div xmlns=\"http://www.w3.org/1999/xhtml\"><div class=\"hapiHeaderText\">GT2after_relevantPeriod <b>TEMPFAIL </b></div><table class=\"hapiPropertyTable\"><tbody><tr><td>Identifier</td><td>cf7574e0b0359d44c480900ab191162d228d27f86315407c0dffcae5d072e7d9</td></tr><tr><td>Date of birth</td><td><span>15 June 1956</span></td></tr></tbody></table></div>"},"extension":[{"url":"http://hl7.org/fhir/us/core/StructureDefinition/us-core-race","extension":[{"url":"ombCategory","valueCoding":{"system":"urn:oid:2.16.840.1.113883.6.238","code":"1002-5","display":"American Indian or Alaska Native","userSelected":true}},{"url":"text","valueString":"American Indian or Alaska Native"}]},{"url":"http://hl7.org/fhir/us/core/StructureDefinition/us-core-ethnicity","extension":[{"url":"ombCategory","valueCoding":{"system":"urn:oid:2.16.840.1.113883.6.238","code":"2186-5","display":"Not Hispanic or Latino","userSelected":true}},{"url":"text","valueString":"Not Hispanic or Latino"}]}],"identifier":[{"type":{"coding":[{"system":"http://terminology.hl7.org/CodeSystem/v2-0203","code":"MR"}]},"system":"https://bonnie-fhir.healthit.gov/","value":"63ec0965ccb3770120fe9b07"}],"active":true,"name":[{"use":"usual","family":"TemperatureFail","given":["24Hrs1MinBeforeStartOfInpatient"]}],"gender":"male","birthDate":"1961-06-29"},"request":{"method":"PUT","url":"Patient/dcf6613c-e366-43a9-9de9-9319e03a2981"}},{"fullUrl":"https://madie.cms.gov/Encounter/b41cf82e-d96f-4b0a-a0ed-ca1a3dcc7d62","resource":{"resourceType":"Encounter","id":"b41cf82e-d96f-4b0a-a0ed-ca1a3dcc7d62","meta":{"profile":["http://hl7.org/fhir/us/qicore/StructureDefinition/qicore-encounter"]},"status":"finished","class":{"system":"http://terminology.hl7.org/CodeSystem/v3-ActCode","code":"NONAC","display":"Nonacute","userSelected":true},"type":[{"coding":[{"system":"http://snomed.info/sct","code":"183452005","display":"Emergency hospital admission (procedure)"}]}],"subject":{"reference":"Patient/dcf6613c-e366-43a9-9de9-9319e03a2981"},"period":{"start":"2027-06-30T00:00:00.000+00:00","end":"2027-06-30T23:59:00.000+00:00"},"length":{"value":1,"unit":"days"}},"request":{"method":"PUT","url":"Encounter/b41cf82e-d96f-4b0a-a0ed-ca1a3dcc7d62"}},{"fullUrl":"https://madie.cms.gov/Coverage/d223dc63-651d-42a3-a181-858cf050cf98","resource":{"resourceType":"Coverage","id":"d223dc63-651d-42a3-a181-858cf050cf98","meta":{"profile":["http://hl7.org/fhir/us/qicore/StructureDefinition/qicore-coverage"]},"status":"active","type":{"coding":[{"system":"https://nahdo.org/sopt","version":"1.0.1","code":"1","display":"Medicare payer","userSelected":true}]},"beneficiary":{"reference":"Patient/dcf6613c-e366-43a9-9de9-9319e03a2981"},"payor":[{"reference":"Organization/f4907415-83c5-4eae-ab0b-cb63a840880d"}]},"request":{"method":"PUT","url":"Coverage/d223dc63-651d-42a3-a181-858cf050cf98"}},{"fullUrl":"https://madie.cms.gov/Observation/ccbf115a-9365-4cad-a27a-e67e7a882247","resource":{"resourceType":"Observation","id":"ccbf115a-9365-4cad-a27a-e67e7a882247","meta":{"profile":["http://hl7.org/fhir/StructureDefinition/bodytemp"]},"status":"final","category":[{"coding":[{"system":"http://terminology.hl7.org/CodeSystem/observation-category","code":"vital-signs","display":"Vital Signs","userSelected":true}]}],"code":{"coding":[{"system":"http://loinc.org","code":"8310-5","display":"Body temperature"}]},"subject":{"reference":"Patient/dcf6613c-e366-43a9-9de9-9319e03a2981"},"effectiveDateTime":"2027-06-28T23:59:00.000+00:00","valueQuantity":{"value":98.6,"unit":"[degF]","system":"http://unitsofmeasure.org","code":"[degF]"}},"request":{"method":"PUT","url":"Observation/ccbf115a-9365-4cad-a27a-e67e7a882247"}},{"fullUrl":"https://madie.cms.gov/Organization/90191abb-41f6-4ad1-a804-5e6a62d6de39","resource":{"resourceType":"Organization","id":"f4907415-83c5-4eae-ab0b-cb63a840880d","meta":{"profile":["http://hl7.org/fhir/us/qicore/StructureDefinition/qicore-organization"]},"identifier":[{"use":"temp","system":"urn:oid:2.16.840.1.113883.4.4","value":"21-3259825"}],"active":true,"type":[{"coding":[{"system":"http://terminology.hl7.org/CodeSystem/organization-type","code":"pay","display":"Payer"}]}],"name":"Blue Cross Blue Shield of Texas","telecom":[{"system":"phone","value":"(+1) 972-766-6900"}],"address":[{"use":"billing","type":"postal","line":["P.O. Box 660044"],"city":"Dallas","state":"TX","postalCode":"75266-0044","country":"USA"}]},"request":{"method":"PUT","url":"Organization/f4907415-83c5-4eae-ab0b-cb63a840880d"}},{"fullUrl":"https://madie.cms.gov/Practitioner/925ec906-e931-46bc-9d79-61fa0123d6a5","resource":{"resourceType":"Practitioner","id":"925ec906-e931-46bc-9d79-61fa0123d6a5","meta":{"profile":["http://hl7.org/fhir/us/qicore/StructureDefinition/qicore-practitioner"]},"identifier":[{"system":"http://hl7.org/fhir/sid/us-npi","value":"123456"}],"name":[{"family":"Evil","prefix":["Dr"]}]},"request":{"method":"PUT","url":"Practitioner/925ec906-e931-46bc-9d79-61fa0123d6a5"}},{"fullUrl":"https://madie.cms.gov/MeasureReport/abb0c286-97d8-4bd2-8cb8-bb8803ee8245","resource":{"resourceType":"MeasureReport","id":"abb0c286-97d8-4bd2-8cb8-bb8803ee8245","meta":{"profile":["http://hl7.org/fhir/us/cqfmeasures/StructureDefinition/test-case-cqfm"]},"contained":[{"resourceType":"Parameters","id":"668c4a1d-3a99-4d2e-b7fd-9543ff1593d3-parameters","parameter":[{"name":"subject","valueString":"dcf6613c-e366-43a9-9de9-9319e03a2981"}]}],"extension":[{"url":"http://hl7.org/fhir/us/cqfmeasures/StructureDefinition/cqfm-inputParameters","valueReference":{"reference":"#668c4a1d-3a99-4d2e-b7fd-9543ff1593d3-parameters"}},{"url":"http://hl7.org/fhir/us/cqfmeasures/StructureDefinition/cqfm-testCaseDescription","valueMarkdown":"Enc last day of MP (6/30, next year), has Medicare, temperature taken 24 hrs 1 min before start of inpatient admission."}],"modifierExtension":[{"url":"http://hl7.org/fhir/us/cqfmeasures/StructureDefinition/cqfm-isTestCase","valueBoolean":true}],"status":"complete","type":"individual","measure":"https://madie.cms.gov/Measure/CMSFHIR529HybridHospitalWideReadmission","period":{"start":"2026-07-01","end":"2027-06-30"},"group":[{"population":[{"code":{"coding":[{"system":"http://terminology.hl7.org/CodeSystem/measure-population","code":"initial-population","display":"Initial Population"}]},"count":1}]}]},"request":{"method":"PUT","url":"MeasureReport/abb0c286-97d8-4bd2-8cb8-bb8803ee8245"}}]}