{"resourceType":"Bundle","id":"tests-db75d7a3-abea-44ad-86af-8abacca3b9b7-bundle","type":"transaction","entry":[{"fullUrl":"https://madie.cms.gov/Patient/db75d7a3-abea-44ad-86af-8abacca3b9b7","resource":{"resourceType":"Patient","id":"db75d7a3-abea-44ad-86af-8abacca3b9b7","meta":{"profile":["http://hl7.org/fhir/us/qicore/StructureDefinition/qicore-patient"]},"text":{"status":"generated","div":"<div xmlns=\"http://www.w3.org/1999/xhtml\"><div class=\"hapiHeaderText\">LTE24before <b>CREATPASS </b></div><table class=\"hapiPropertyTable\"><tbody><tr><td>Identifier</td><td>f7053d5904ff43c96857e3f606716bbc2f99b5ab9c0c40826e6d339080f2947c</td></tr><tr><td>Date of birth</td><td><span>15 June 1956</span></td></tr></tbody></table></div>"},"extension":[{"url":"http://hl7.org/fhir/us/core/StructureDefinition/us-core-race","extension":[{"url":"ombCategory","valueCoding":{"system":"urn:oid:2.16.840.1.113883.6.238","code":"2076-8","display":"Native Hawaiian or Other Pacific Islander","userSelected":true}},{"url":"text","valueString":"Native Hawaiian or Other Pacific Islander"}]},{"url":"http://hl7.org/fhir/us/core/StructureDefinition/us-core-ethnicity","extension":[{"url":"ombCategory","valueCoding":{"system":"urn:oid:2.16.840.1.113883.6.238","code":"2186-5","display":"Not Hispanic or Latino","userSelected":true}},{"url":"text","valueString":"Not Hispanic or Latino"}]}],"identifier":[{"type":{"coding":[{"system":"http://terminology.hl7.org/CodeSystem/v2-0203","code":"MR"}]},"system":"https://bonnie-fhir.healthit.gov/","value":"63ec096cccb3770120fea178"}],"active":true,"name":[{"use":"usual","family":"CreatininePass","given":["PerformedX4DuringEnc"]}],"gender":"female","birthDate":"1961-07-01"},"request":{"method":"PUT","url":"Patient/db75d7a3-abea-44ad-86af-8abacca3b9b7"}},{"fullUrl":"https://madie.cms.gov/Encounter/7ab94624-02a1-4001-a24b-e42cbc579b1e","resource":{"resourceType":"Encounter","id":"7ab94624-02a1-4001-a24b-e42cbc579b1e","meta":{"profile":["http://hl7.org/fhir/us/qicore/StructureDefinition/qicore-encounter"]},"status":"finished","class":{"system":"http://terminology.hl7.org/CodeSystem/v3-ActCode","code":"ACUTE","display":"Acute","userSelected":true},"type":[{"coding":[{"system":"http://snomed.info/sct","code":"183452005"}]}],"subject":{"reference":"Patient/db75d7a3-abea-44ad-86af-8abacca3b9b7"},"period":{"start":"2026-07-01T08:00:00.000+00:00","end":"2026-07-05T08:15:00.000+00:00"},"length":{"value":4,"unit":"days"}},"request":{"method":"PUT","url":"Encounter/7ab94624-02a1-4001-a24b-e42cbc579b1e"}},{"fullUrl":"https://madie.cms.gov/Coverage/ad135d5b-0d4f-474b-bfcf-b42b12b05719","resource":{"resourceType":"Coverage","id":"ad135d5b-0d4f-474b-bfcf-b42b12b05719","meta":{"profile":["http://hl7.org/fhir/us/qicore/StructureDefinition/qicore-coverage"]},"status":"active","type":{"coding":[{"system":"https://nahdo.org/sopt","version":"1.0.1","code":"1","display":"Medicare payer","userSelected":true}]},"beneficiary":{"reference":"Patient/db75d7a3-abea-44ad-86af-8abacca3b9b7"},"payor":[{"reference":"Organization/80e3e0d1-b2aa-43a6-b1d2-00bfa3164a0f"}]},"request":{"method":"PUT","url":"Coverage/ad135d5b-0d4f-474b-bfcf-b42b12b05719"}},{"fullUrl":"https://madie.cms.gov/Observation/42b4b1ee-c004-4e28-be75-498b8f0e52ad","resource":{"resourceType":"Observation","id":"42b4b1ee-c004-4e28-be75-498b8f0e52ad","meta":{"profile":["http://hl7.org/fhir/us/core/StructureDefinition/us-core-observation-lab"]},"status":"final","category":[{"coding":[{"system":"http://terminology.hl7.org/CodeSystem/observation-category","code":"laboratory","display":"laboratory","userSelected":true}]}],"code":{"coding":[{"system":"http://loinc.org","version":"2.69","code":"14682-9","display":"Creatinine [Moles/volume] in Serum or Plasma","userSelected":true}]},"subject":{"reference":"Patient/db75d7a3-abea-44ad-86af-8abacca3b9b7"},"issued":"2026-07-01T08:01:00.000+00:00","valueQuantity":{"value":1,"unit":"mg/dL","system":"http://unitsofmeasure.org","code":"mg/dL"}},"request":{"method":"PUT","url":"Observation/42b4b1ee-c004-4e28-be75-498b8f0e52ad"}},{"fullUrl":"https://madie.cms.gov/Observation/0bbb5f6b-00d1-48f0-8871-b6e4543bee5c","resource":{"resourceType":"Observation","id":"0bbb5f6b-00d1-48f0-8871-b6e4543bee5c","meta":{"profile":["http://hl7.org/fhir/us/core/StructureDefinition/us-core-observation-lab"]},"status":"final","category":[{"coding":[{"system":"http://terminology.hl7.org/CodeSystem/observation-category","code":"laboratory","display":"laboratory","userSelected":true}]}],"code":{"coding":[{"system":"http://loinc.org","code":"14682-9","display":"Creatinine [Moles/volume] in Serum or Plasma","userSelected":true}]},"subject":{"reference":"Patient/db75d7a3-abea-44ad-86af-8abacca3b9b7"},"effectiveDateTime":"2026-07-02T08:01:00.000+00:00","issued":"2026-07-02T08:00:00.000+00:00","valueQuantity":{"value":2,"unit":"mg/dL","system":"http://unitsofmeasure.org","code":"mg/dL"}},"request":{"method":"PUT","url":"Observation/0bbb5f6b-00d1-48f0-8871-b6e4543bee5c"}},{"fullUrl":"https://madie.cms.gov/Observation/750db4a8-2948-4677-95b1-31f6c1fe9b2a","resource":{"resourceType":"Observation","id":"750db4a8-2948-4677-95b1-31f6c1fe9b2a","meta":{"profile":["http://hl7.org/fhir/us/core/StructureDefinition/us-core-observation-lab"]},"status":"final","category":[{"coding":[{"system":"http://terminology.hl7.org/CodeSystem/observation-category","code":"laboratory","display":"laboratory","userSelected":true}]}],"code":{"coding":[{"system":"http://loinc.org","code":"14682-9","display":"Creatinine [Moles/volume] in Serum or Plasma","userSelected":true}]},"subject":{"reference":"Patient/db75d7a3-abea-44ad-86af-8abacca3b9b7"},"issued":"2026-07-03T20:00:00.000+00:00","valueQuantity":{"value":3,"unit":"mg/dL","system":"http://unitsofmeasure.org","code":"mg/dL"}},"request":{"method":"PUT","url":"Observation/750db4a8-2948-4677-95b1-31f6c1fe9b2a"}},{"fullUrl":"https://madie.cms.gov/Observation/78e28a2a-9fd4-490f-b931-60a6dd0e6259","resource":{"resourceType":"Observation","id":"78e28a2a-9fd4-490f-b931-60a6dd0e6259","meta":{"profile":["http://hl7.org/fhir/us/core/StructureDefinition/us-core-observation-lab"]},"status":"final","category":[{"coding":[{"system":"http://terminology.hl7.org/CodeSystem/observation-category","code":"laboratory","display":"laboratory","userSelected":true}]}],"code":{"coding":[{"system":"http://loinc.org","code":"14682-9","display":"Creatinine [Moles/volume] in Serum or Plasma","userSelected":true}]},"subject":{"reference":"Patient/db75d7a3-abea-44ad-86af-8abacca3b9b7"},"issued":"2026-07-04T08:00:00.000+00:00","valueQuantity":{"value":4,"unit":"mg/dL","system":"http://unitsofmeasure.org","code":"mg/dL"}},"request":{"method":"PUT","url":"Observation/78e28a2a-9fd4-490f-b931-60a6dd0e6259"}},{"fullUrl":"https://madie.cms.gov/Organization/1120d3e4-dace-409c-95e8-d567ce1ad21b","resource":{"resourceType":"Organization","id":"80e3e0d1-b2aa-43a6-b1d2-00bfa3164a0f","meta":{"profile":["http://hl7.org/fhir/us/qicore/StructureDefinition/qicore-organization"]},"identifier":[{"use":"temp","system":"urn:oid:2.16.840.1.113883.4.4","value":"21-3259825"}],"active":true,"type":[{"coding":[{"system":"http://terminology.hl7.org/CodeSystem/organization-type","code":"pay","display":"Payer"}]}],"name":"Blue Cross Blue Shield of Texas","telecom":[{"system":"phone","value":"(+1) 972-766-6900"}],"address":[{"use":"billing","type":"postal","line":["P.O. Box 660044"],"city":"Dallas","state":"TX","postalCode":"75266-0044","country":"USA"}]},"request":{"method":"PUT","url":"Organization/80e3e0d1-b2aa-43a6-b1d2-00bfa3164a0f"}},{"fullUrl":"https://madie.cms.gov/Practitioner/919c35e5-1907-4b15-beba-f8455f8f57c2","resource":{"resourceType":"Practitioner","id":"919c35e5-1907-4b15-beba-f8455f8f57c2","meta":{"profile":["http://hl7.org/fhir/us/qicore/StructureDefinition/qicore-practitioner"]},"identifier":[{"system":"http://hl7.org/fhir/sid/us-npi","value":"123456"}],"name":[{"family":"Evil","prefix":["Dr"]}]},"request":{"method":"PUT","url":"Practitioner/919c35e5-1907-4b15-beba-f8455f8f57c2"}},{"fullUrl":"https://madie.cms.gov/MeasureReport/e5fe092d-55db-4fdb-bb9d-d30644891f97","resource":{"resourceType":"MeasureReport","id":"e5fe092d-55db-4fdb-bb9d-d30644891f97","meta":{"profile":["http://hl7.org/fhir/us/cqfmeasures/StructureDefinition/test-case-cqfm"]},"contained":[{"resourceType":"Parameters","id":"2847ca68-7767-440e-86ac-1ef2e301eded-parameters","parameter":[{"name":"subject","valueString":"db75d7a3-abea-44ad-86af-8abacca3b9b7"}]}],"extension":[{"url":"http://hl7.org/fhir/us/cqfmeasures/StructureDefinition/cqfm-inputParameters","valueReference":{"reference":"#2847ca68-7767-440e-86ac-1ef2e301eded-parameters"}},{"url":"http://hl7.org/fhir/us/cqfmeasures/StructureDefinition/cqfm-testCaseDescription","valueMarkdown":"Enc starts first day of MP (7/1) lasts for 4 days; patient has Medicare, age 65 today,  Creatinine 1 minute after admission and again at 24 hrs , 36, and 48  hrs after admission, only the first one is included. "}],"modifierExtension":[{"url":"http://hl7.org/fhir/us/cqfmeasures/StructureDefinition/cqfm-isTestCase","valueBoolean":true}],"status":"complete","type":"individual","measure":"https://madie.cms.gov/Measure/CMSFHIR529HybridHospitalWideReadmission","period":{"start":"2026-07-01","end":"2027-06-30"},"group":[{"population":[{"code":{"coding":[{"system":"http://terminology.hl7.org/CodeSystem/measure-population","code":"initial-population","display":"Initial Population"}]},"count":1}]}]},"request":{"method":"PUT","url":"MeasureReport/e5fe092d-55db-4fdb-bb9d-d30644891f97"}}]}