{"resourceType":"Bundle","id":"tests-9892a740-f233-42b2-9dea-e211b29ba8f0-bundle","type":"transaction","entry":[{"fullUrl":"https://madie.cms.gov/Patient/9892a740-f233-42b2-9dea-e211b29ba8f0","resource":{"resourceType":"Patient","id":"9892a740-f233-42b2-9dea-e211b29ba8f0","meta":{"profile":["http://hl7.org/fhir/us/qicore/StructureDefinition/qicore-patient"]},"text":{"status":"generated","div":"<div xmlns=\"http://www.w3.org/1999/xhtml\"><div class=\"hapiHeaderText\">HRSBP_relevantDT <b>COMBO1 </b></div><table class=\"hapiPropertyTable\"><tbody><tr><td>Identifier</td><td>647b828a576e8c34eaa21fd1cdb85d1e5f291be13e6a5c34a9fc817d4466c0f5</td></tr><tr><td>Date of birth</td><td><span>15 June 1956</span></td></tr></tbody></table></div>"},"extension":[{"url":"http://hl7.org/fhir/us/core/StructureDefinition/us-core-race","extension":[{"url":"ombCategory","valueCoding":{"system":"urn:oid:2.16.840.1.113883.6.238","code":"2028-9","display":"Asian","userSelected":true}},{"url":"text","valueString":"Asian"}]},{"url":"http://hl7.org/fhir/us/core/StructureDefinition/us-core-ethnicity","extension":[{"url":"ombCategory","valueCoding":{"system":"urn:oid:2.16.840.1.113883.6.238","code":"2135-2","display":"Hispanic or Latino","userSelected":true}},{"url":"text","valueString":"Hispanic or Latino"}]}],"identifier":[{"type":{"coding":[{"system":"http://terminology.hl7.org/CodeSystem/v2-0203","code":"MR"}]},"system":"https://bonnie-fhir.healthit.gov/","value":"63ec096cccb3770120fea1f4"}],"active":true,"name":[{"use":"usual","family":"HeartRatePassSystolicBPFail","given":["HR24HrsBP24Hrs1MinAfterAdmit"]}],"gender":"male","birthDate":"1960-06-30"},"request":{"method":"PUT","url":"Patient/9892a740-f233-42b2-9dea-e211b29ba8f0"}},{"fullUrl":"https://madie.cms.gov/Encounter/4b91b9f8-7b97-41d8-a0eb-afaf623246ed","resource":{"resourceType":"Encounter","id":"4b91b9f8-7b97-41d8-a0eb-afaf623246ed","meta":{"profile":["http://hl7.org/fhir/us/qicore/StructureDefinition/qicore-encounter"]},"status":"finished","class":{"system":"http://terminology.hl7.org/CodeSystem/v3-ActCode","code":"IMP","display":"inpatient encounter","userSelected":true},"type":[{"coding":[{"system":"http://snomed.info/sct","code":"183452005","display":"Emergency hospital admission (procedure)"}]}],"subject":{"reference":"Patient/9892a740-f233-42b2-9dea-e211b29ba8f0"},"period":{"start":"2026-07-01T10:01:00.000+00:00","end":"2026-07-03T08:15:00.000+00:00"},"length":{"value":3,"unit":"d","system":"http://unitsofmeasure.org","code":"d"}},"request":{"method":"PUT","url":"Encounter/4b91b9f8-7b97-41d8-a0eb-afaf623246ed"}},{"fullUrl":"https://madie.cms.gov/Coverage/4427087e-1169-4405-bcbb-d143d0d2e446","resource":{"resourceType":"Coverage","id":"4427087e-1169-4405-bcbb-d143d0d2e446","meta":{"profile":["http://hl7.org/fhir/us/qicore/StructureDefinition/qicore-coverage"]},"status":"active","type":{"coding":[{"system":"https://nahdo.org/sopt","version":"1.0.1","code":"1","display":"Medicare payer","userSelected":true}]},"beneficiary":{"reference":"Patient/9892a740-f233-42b2-9dea-e211b29ba8f0"},"payor":[{"reference":"Organization/80e3e0d1-b2aa-43a6-b1d2-00bfa3164a0f"}]},"request":{"method":"PUT","url":"Coverage/4427087e-1169-4405-bcbb-d143d0d2e446"}},{"fullUrl":"https://madie.cms.gov/Observation/dcb7af1f-1f43-437d-96ba-2db2f78db0c8","resource":{"resourceType":"Observation","id":"dcb7af1f-1f43-437d-96ba-2db2f78db0c8","meta":{"profile":["http://hl7.org/fhir/StructureDefinition/heartrate"]},"status":"final","category":[{"coding":[{"system":"http://terminology.hl7.org/CodeSystem/observation-category","code":"vital-signs","display":"Vital Signs","userSelected":true}]}],"code":{"coding":[{"system":"http://loinc.org","code":"8867-4","display":"Heart rate"}]},"subject":{"reference":"Patient/9892a740-f233-42b2-9dea-e211b29ba8f0"},"effectiveDateTime":"2026-07-01T10:01:00.000+00:00","valueQuantity":{"value":130,"unit":"/min","system":"http://unitsofmeasure.org","code":"/min"}},"request":{"method":"PUT","url":"Observation/dcb7af1f-1f43-437d-96ba-2db2f78db0c8"}},{"fullUrl":"https://madie.cms.gov/Observation/702aef2d-7d6b-4199-8313-01f4ad71b4c3","resource":{"resourceType":"Observation","id":"702aef2d-7d6b-4199-8313-01f4ad71b4c3","meta":{"profile":["http://hl7.org/fhir/StructureDefinition/heartrate"]},"status":"final","category":[{"coding":[{"system":"http://terminology.hl7.org/CodeSystem/observation-category","code":"vital-signs","display":"Vital Signs"}],"text":"Vital Signs"}],"code":{"coding":[{"system":"http://loinc.org","code":"8867-4","display":"Heart rate"}]},"subject":{"reference":"Patient/9892a740-f233-42b2-9dea-e211b29ba8f0"},"effectiveDateTime":"2026-07-02T10:01:00.000+00:00","valueQuantity":{"value":140,"unit":"/min","system":"http://unitsofmeasure.org","code":"/min"}},"request":{"method":"PUT","url":"Observation/702aef2d-7d6b-4199-8313-01f4ad71b4c3"}},{"fullUrl":"https://madie.cms.gov/Observation/39e727f2-43bd-421f-a3f9-411da41ead08","resource":{"resourceType":"Observation","id":"39e727f2-43bd-421f-a3f9-411da41ead08","meta":{"profile":["http://hl7.org/fhir/StructureDefinition/bp"]},"status":"final","category":[{"coding":[{"system":"http://terminology.hl7.org/CodeSystem/observation-category","code":"vital-signs","display":"Vital Signs"}],"text":"Vital Signs"}],"code":{"coding":[{"system":"http://loinc.org","code":"85354-9","display":"Blood pressure panel"}]},"subject":{"reference":"Patient/9892a740-f233-42b2-9dea-e211b29ba8f0"},"effectiveDateTime":"2026-07-01T12:02:00.000Z","component":[{"code":{"coding":[{"system":"http://loinc.org","code":"8480-6","display":"Systolic blood pressure"}]},"valueQuantity":{"value":131,"unit":"mmHg","system":"http://unitsofmeasure.org","code":"mm[Hg]"}},{"code":{"coding":[{"system":"http://loinc.org","code":"8462-4","display":"Diastolic blood pressure"}]},"valueQuantity":{"value":80,"unit":"mmHg","system":"http://unitsofmeasure.org","code":"mm[Hg]"}}]},"request":{"method":"PUT","url":"Observation/39e727f2-43bd-421f-a3f9-411da41ead08"}},{"fullUrl":"https://madie.cms.gov/Observation/702aef2d-7d6b-4199-8313-01f4ad71b4c35","resource":{"resourceType":"Observation","id":"1a8c6605-3117-4aea-b24d-06f3f1560f2c","meta":{"profile":["http://hl7.org/fhir/StructureDefinition/heartrate"]},"status":"final","category":[{"coding":[{"system":"http://terminology.hl7.org/CodeSystem/observation-category","code":"vital-signs","display":"Vital Signs"}],"text":"Vital Signs"}],"code":{"coding":[{"system":"http://loinc.org","code":"8867-4","display":"Heart rate"}]},"subject":{"reference":"Patient/9892a740-f233-42b2-9dea-e211b29ba8f0"},"effectiveDateTime":"2026-07-03T10:00:00.000+00:00","valueQuantity":{"value":136,"unit":"/min","system":"http://unitsofmeasure.org","code":"/min"}},"request":{"method":"PUT","url":"Observation/1a8c6605-3117-4aea-b24d-06f3f1560f2c"}},{"fullUrl":"https://madie.cms.gov/Observation/627f68a4-0eb7-4d27-8062-4140713de366","resource":{"resourceType":"Observation","id":"627f68a4-0eb7-4d27-8062-4140713de366","meta":{"profile":["http://hl7.org/fhir/StructureDefinition/bp"]},"status":"final","category":[{"coding":[{"system":"http://terminology.hl7.org/CodeSystem/observation-category","code":"vital-signs","display":"Vital Signs"}],"text":"Vital Signs"}],"code":{"coding":[{"system":"http://loinc.org","code":"85354-9","display":"Blood pressure panel"}]},"subject":{"reference":"Patient/9892a740-f233-42b2-9dea-e211b29ba8f0"},"effectiveDateTime":"2026-07-02T10:05:00.000Z","component":[{"code":{"coding":[{"system":"http://loinc.org","code":"8480-6","display":"Systolic blood pressure"}]},"valueQuantity":{"value":131,"unit":"mmHg","system":"http://unitsofmeasure.org","code":"mm[Hg]"}},{"code":{"coding":[{"system":"http://loinc.org","code":"8462-4","display":"Diastolic blood pressure"}]},"valueQuantity":{"value":80,"unit":"mmHg","system":"http://unitsofmeasure.org","code":"mm[Hg]"}}]},"request":{"method":"PUT","url":"Observation/627f68a4-0eb7-4d27-8062-4140713de366"}},{"fullUrl":"https://madie.cms.gov/Organization/0126a314-106c-4a5a-9efe-4861980d6dfe","resource":{"resourceType":"Organization","id":"80e3e0d1-b2aa-43a6-b1d2-00bfa3164a0f","meta":{"profile":["http://hl7.org/fhir/us/qicore/StructureDefinition/qicore-organization"]},"identifier":[{"use":"temp","system":"urn:oid:2.16.840.1.113883.4.4","value":"21-3259825"}],"active":true,"type":[{"coding":[{"system":"http://terminology.hl7.org/CodeSystem/organization-type","code":"pay","display":"Payer"}]}],"name":"Blue Cross Blue Shield of Texas","telecom":[{"system":"phone","value":"(+1) 972-766-6900"}],"address":[{"use":"billing","type":"postal","line":["P.O. Box 660044"],"city":"Dallas","state":"TX","postalCode":"75266-0044","country":"USA"}]},"request":{"method":"PUT","url":"Organization/80e3e0d1-b2aa-43a6-b1d2-00bfa3164a0f"}},{"fullUrl":"https://madie.cms.gov/Practitioner/2b9ba08d-abb4-4789-8c31-29e2d557494c","resource":{"resourceType":"Practitioner","id":"2b9ba08d-abb4-4789-8c31-29e2d557494c","meta":{"profile":["http://hl7.org/fhir/us/qicore/StructureDefinition/qicore-practitioner"]},"identifier":[{"system":"http://hl7.org/fhir/sid/us-npi","value":"123456"}],"name":[{"family":"Evil","prefix":["Dr"]}]},"request":{"method":"PUT","url":"Practitioner/2b9ba08d-abb4-4789-8c31-29e2d557494c"}},{"fullUrl":"https://madie.cms.gov/MeasureReport/79126558-aed8-45b2-a002-5a6e8909c128","resource":{"resourceType":"MeasureReport","id":"79126558-aed8-45b2-a002-5a6e8909c128","meta":{"profile":["http://hl7.org/fhir/us/cqfmeasures/StructureDefinition/test-case-cqfm"]},"contained":[{"resourceType":"Parameters","id":"f4303195-5ffe-4b8c-9cca-50c9b1253de3-parameters","parameter":[{"name":"subject","valueString":"9892a740-f233-42b2-9dea-e211b29ba8f0"}]}],"extension":[{"url":"http://hl7.org/fhir/us/cqfmeasures/StructureDefinition/cqfm-inputParameters","valueReference":{"reference":"#f4303195-5ffe-4b8c-9cca-50c9b1253de3-parameters"}},{"url":"http://hl7.org/fhir/us/cqfmeasures/StructureDefinition/cqfm-testCaseDescription","valueMarkdown":"Enc first day of MP (7/1), has Medicare, heart rate evaluated time of admit and at 24 hrs  & 36 hrs after admission; Systolic BP evaluated 2 hrs 1 min and 24 hour after admit. Only the HR is included"}],"modifierExtension":[{"url":"http://hl7.org/fhir/us/cqfmeasures/StructureDefinition/cqfm-isTestCase","valueBoolean":true}],"status":"complete","type":"individual","measure":"https://madie.cms.gov/Measure/CMSFHIR529HybridHospitalWideReadmission","period":{"start":"2026-07-01","end":"2027-06-30"},"group":[{"population":[{"code":{"coding":[{"system":"http://terminology.hl7.org/CodeSystem/measure-population","code":"initial-population","display":"Initial Population"}]},"count":1}]}]},"request":{"method":"PUT","url":"MeasureReport/79126558-aed8-45b2-a002-5a6e8909c128"}}]}