{"resourceType":"Bundle","id":"tests-d899eebd-1919-4fd6-aad4-8fb2fd07b243-bundle","type":"transaction","entry":[{"fullUrl":"https://madie.cms.gov/Patient/d899eebd-1919-4fd6-aad4-8fb2fd07b243","resource":{"resourceType":"Patient","id":"d899eebd-1919-4fd6-aad4-8fb2fd07b243","meta":{"profile":["http://hl7.org/fhir/us/qicore/StructureDefinition/qicore-patient"]},"text":{"status":"generated","div":"<div xmlns=\"http://www.w3.org/1999/xhtml\"><div class=\"hapiHeaderText\">NoEncInMP <b>IPFAIL </b></div><table class=\"hapiPropertyTable\"><tbody><tr><td>Identifier</td><td>43710ea259bfa3f092c118cedbbbfe284cbf8380fd20b162eb61108ed792cd13</td></tr><tr><td>Date of birth</td><td><span>15 June 1956</span></td></tr></tbody></table></div>"},"extension":[{"url":"http://hl7.org/fhir/us/core/StructureDefinition/us-core-race","extension":[{"url":"ombCategory","valueCoding":{"system":"urn:oid:2.16.840.1.113883.6.238","code":"2106-3","display":"White","userSelected":true}},{"url":"text","valueString":"White"}]},{"url":"http://hl7.org/fhir/us/core/StructureDefinition/us-core-ethnicity","extension":[{"url":"ombCategory","valueCoding":{"system":"urn:oid:2.16.840.1.113883.6.238","code":"2186-5","display":"Not Hispanic or Latino","userSelected":true}},{"url":"text","valueString":"Not Hispanic or Latino"}]}],"identifier":[{"type":{"coding":[{"system":"http://terminology.hl7.org/CodeSystem/v2-0203","code":"MR"}]},"system":"https://bonnie-fhir.healthit.gov/","value":"63ec096eccb3770120fea3dc"}],"active":true,"name":[{"use":"usual","family":"IPFail","given":["NoEncounter"]}],"gender":"unknown","birthDate":"1957-06-15"},"request":{"method":"PUT","url":"Patient/d899eebd-1919-4fd6-aad4-8fb2fd07b243"}},{"fullUrl":"https://madie.cms.gov/Coverage/8337c28f-16da-4f32-ab93-52c922762a34","resource":{"resourceType":"Coverage","id":"8337c28f-16da-4f32-ab93-52c922762a34","meta":{"profile":["http://hl7.org/fhir/us/qicore/StructureDefinition/qicore-coverage"]},"status":"active","type":{"coding":[{"system":"https://nahdo.org/sopt","version":"9.2","code":"1","display":"MEDICARE","userSelected":true}]},"beneficiary":{"reference":"Patient/d899eebd-1919-4fd6-aad4-8fb2fd07b243"},"payor":[{"reference":"Organization/3e899f33-84eb-4634-a770-a5a0bd7a80e7"}]},"request":{"method":"PUT","url":"Coverage/8337c28f-16da-4f32-ab93-52c922762a34"}},{"fullUrl":"https://madie.cms.gov/Organization/61c4ba32-3202-454c-949b-2bf0f7278f9c","resource":{"resourceType":"Organization","id":"3e899f33-84eb-4634-a770-a5a0bd7a80e7","meta":{"profile":["http://hl7.org/fhir/us/qicore/StructureDefinition/qicore-organization"]},"identifier":[{"use":"temp","system":"urn:oid:2.16.840.1.113883.4.4","value":"21-3259825"}],"active":true,"type":[{"coding":[{"system":"http://terminology.hl7.org/CodeSystem/organization-type","code":"pay","display":"Payer"}]}],"name":"Blue Cross Blue Shield of Texas","telecom":[{"system":"phone","value":"(+1) 972-766-6900"}],"address":[{"use":"billing","type":"postal","line":["P.O. Box 660044"],"city":"Dallas","state":"TX","postalCode":"75266-0044","country":"USA"}]},"request":{"method":"PUT","url":"Organization/3e899f33-84eb-4634-a770-a5a0bd7a80e7"}},{"fullUrl":"https://madie.cms.gov/Practitioner/c492ccf5-6d08-47e7-a286-5ca0a436f973","resource":{"resourceType":"Practitioner","id":"c492ccf5-6d08-47e7-a286-5ca0a436f973","meta":{"profile":["http://hl7.org/fhir/us/qicore/StructureDefinition/qicore-practitioner"]},"identifier":[{"system":"http://hl7.org/fhir/sid/us-npi","value":"123456"}],"name":[{"family":"Evil","prefix":["Dr"]}]},"request":{"method":"PUT","url":"Practitioner/c492ccf5-6d08-47e7-a286-5ca0a436f973"}},{"fullUrl":"https://madie.cms.gov/MeasureReport/b16d5e23-3bfd-4979-8d88-92e9f040e5cc","resource":{"resourceType":"MeasureReport","id":"b16d5e23-3bfd-4979-8d88-92e9f040e5cc","meta":{"profile":["http://hl7.org/fhir/us/cqfmeasures/StructureDefinition/test-case-cqfm"]},"contained":[{"resourceType":"Parameters","id":"cb5fcccb-0c03-434a-ac6f-ea83a8936721-parameters","parameter":[{"name":"subject","valueString":"d899eebd-1919-4fd6-aad4-8fb2fd07b243"}]}],"extension":[{"url":"http://hl7.org/fhir/us/cqfmeasures/StructureDefinition/cqfm-inputParameters","valueReference":{"reference":"#cb5fcccb-0c03-434a-ac6f-ea83a8936721-parameters"}},{"url":"http://hl7.org/fhir/us/cqfmeasures/StructureDefinition/cqfm-testCaseDescription","valueMarkdown":"No encounter but has Medicare; gender = unknown\n"}],"modifierExtension":[{"url":"http://hl7.org/fhir/us/cqfmeasures/StructureDefinition/cqfm-isTestCase","valueBoolean":true}],"status":"complete","type":"individual","measure":"https://madie.cms.gov/Measure/CMSFHIR529HybridHospitalWideReadmission","period":{"start":"2026-07-01","end":"2027-06-30"},"group":[{"population":[{"code":{"coding":[{"system":"http://terminology.hl7.org/CodeSystem/measure-population","code":"initial-population","display":"Initial Population"}]},"count":0}]}]},"request":{"method":"PUT","url":"MeasureReport/b16d5e23-3bfd-4979-8d88-92e9f040e5cc"}}]}