{"resourceType":"Bundle","id":"tests-6f22a06f-7186-4db1-9310-4f907dc49ff3-bundle","type":"transaction","entry":[{"fullUrl":"https://madie.cms.gov/Patient/6f22a06f-7186-4db1-9310-4f907dc49ff3","resource":{"resourceType":"Patient","id":"6f22a06f-7186-4db1-9310-4f907dc49ff3","meta":{"profile":["http://hl7.org/fhir/us/qicore/StructureDefinition/qicore-patient"]},"text":{"status":"generated","div":"<div xmlns=\"http://www.w3.org/1999/xhtml\"><div class=\"hapiHeaderText\">LT24beforeAndLT2after <b>WBCPASS </b></div><table class=\"hapiPropertyTable\"><tbody><tr><td>Identifier</td><td>02a3c13b70ccf5a73b893e80582952bdd83e9cabbf053902bb5eb341874dc5ec</td></tr><tr><td>Date of birth</td><td><span>15 June 1956</span></td></tr></tbody></table></div>"},"extension":[{"url":"http://hl7.org/fhir/us/core/StructureDefinition/us-core-race","extension":[{"url":"ombCategory","valueCoding":{"system":"urn:oid:2.16.840.1.113883.6.238","code":"1002-5","display":"American Indian or Alaska Native","userSelected":true}},{"url":"text","valueString":"American Indian or Alaska Native"}]},{"url":"http://hl7.org/fhir/us/core/StructureDefinition/us-core-ethnicity","extension":[{"url":"ombCategory","valueCoding":{"system":"urn:oid:2.16.840.1.113883.6.238","code":"2186-5","display":"Not Hispanic or Latino","userSelected":true}},{"url":"text","valueString":"Not Hispanic or Latino"}]}],"identifier":[{"type":{"coding":[{"system":"http://terminology.hl7.org/CodeSystem/v2-0203","code":"MR"}]},"system":"https://bonnie-fhir.healthit.gov/","value":"63ec096accb3770120fe9fa2"}],"active":true,"name":[{"use":"usual","family":"WhiteBloodCellFail","given":["24Hrs1MinBeforeAnd48HrsAfterStartOfInpatient"]}],"gender":"male","birthDate":"1962-06-28"},"request":{"method":"PUT","url":"Patient/6f22a06f-7186-4db1-9310-4f907dc49ff3"}},{"fullUrl":"https://madie.cms.gov/Encounter/73a124b8-85ea-4a79-8c31-d54c4e91fb84","resource":{"resourceType":"Encounter","id":"73a124b8-85ea-4a79-8c31-d54c4e91fb84","meta":{"profile":["http://hl7.org/fhir/us/qicore/StructureDefinition/qicore-encounter"]},"status":"finished","class":{"system":"http://terminology.hl7.org/CodeSystem/v3-ActCode","code":"IMP","display":"inpatient encounter","userSelected":true},"type":[{"coding":[{"system":"http://snomed.info/sct","code":"183452005"}]}],"subject":{"reference":"Patient/6f22a06f-7186-4db1-9310-4f907dc49ff3"},"period":{"start":"2027-06-28T08:00:00.000+00:00","end":"2027-06-30T23:59:00.000+00:00"},"length":{"value":2,"unit":"days"}},"request":{"method":"PUT","url":"Encounter/73a124b8-85ea-4a79-8c31-d54c4e91fb84"}},{"fullUrl":"https://madie.cms.gov/Coverage/d2b5bf04-8f53-4f76-8c7b-df317a003d9a","resource":{"resourceType":"Coverage","id":"d2b5bf04-8f53-4f76-8c7b-df317a003d9a","meta":{"profile":["http://hl7.org/fhir/us/qicore/StructureDefinition/qicore-coverage"]},"status":"active","type":{"coding":[{"system":"https://nahdo.org/sopt","version":"1.0.1","code":"1","display":"Medicare payer","userSelected":true}]},"beneficiary":{"reference":"Patient/6f22a06f-7186-4db1-9310-4f907dc49ff3"},"payor":[{"reference":"Organization/18ca435c-cae6-4c34-8033-af717477f9fc"}]},"request":{"method":"PUT","url":"Coverage/d2b5bf04-8f53-4f76-8c7b-df317a003d9a"}},{"fullUrl":"https://madie.cms.gov/Observation/1ad96a58-9d51-4823-a554-cf4ac77ad2db","resource":{"resourceType":"Observation","id":"1ad96a58-9d51-4823-a554-cf4ac77ad2db","meta":{"profile":["http://hl7.org/fhir/us/core/StructureDefinition/us-core-observation-lab"]},"status":"amended","category":[{"coding":[{"system":"http://terminology.hl7.org/CodeSystem/observation-category","code":"laboratory","display":"laboratory","userSelected":true}]}],"code":{"coding":[{"system":"http://loinc.org","code":"26464-8","display":"Leukocytes [#/volume] in Blood"}]},"subject":{"reference":"Patient/6f22a06f-7186-4db1-9310-4f907dc49ff3"},"issued":"2027-06-27T07:59:00.000+00:00","valueQuantity":{"value":4500,"unit":"uL","system":"http://unitsofmeasure.org","code":"uL"}},"request":{"method":"PUT","url":"Observation/1ad96a58-9d51-4823-a554-cf4ac77ad2db"}},{"fullUrl":"https://madie.cms.gov/Observation/e748d846-14d5-400a-a398-263f73737fb8","resource":{"resourceType":"Observation","id":"e748d846-14d5-400a-a398-263f73737fb8","meta":{"profile":["http://hl7.org/fhir/us/core/StructureDefinition/us-core-observation-lab"]},"status":"final","category":[{"coding":[{"system":"http://terminology.hl7.org/CodeSystem/observation-category","code":"laboratory","display":"laboratory","userSelected":true}]}],"code":{"coding":[{"system":"http://loinc.org","code":"26464-8","display":"Leukocytes [#/volume] in Blood"}]},"subject":{"reference":"Patient/6f22a06f-7186-4db1-9310-4f907dc49ff3"},"issued":"2027-06-30T08:00:00.000+00:00","valueQuantity":{"value":5000,"unit":"uL","system":"http://unitsofmeasure.org","code":"uL"}},"request":{"method":"PUT","url":"Observation/e748d846-14d5-400a-a398-263f73737fb8"}},{"fullUrl":"https://madie.cms.gov/Organization/db109a7c-e68e-4194-9ee2-d0e4a986f6e1","resource":{"resourceType":"Organization","id":"18ca435c-cae6-4c34-8033-af717477f9fc","meta":{"profile":["http://hl7.org/fhir/us/qicore/StructureDefinition/qicore-organization"]},"identifier":[{"use":"temp","system":"urn:oid:2.16.840.1.113883.4.4","value":"21-3259825"}],"active":true,"type":[{"coding":[{"system":"http://terminology.hl7.org/CodeSystem/organization-type","code":"pay","display":"Payer"}]}],"name":"Blue Cross Blue Shield of Texas","telecom":[{"system":"phone","value":"(+1) 972-766-6900"}],"address":[{"use":"billing","type":"postal","line":["P.O. Box 660044"],"city":"Dallas","state":"TX","postalCode":"75266-0044","country":"USA"}]},"request":{"method":"PUT","url":"Organization/18ca435c-cae6-4c34-8033-af717477f9fc"}},{"fullUrl":"https://madie.cms.gov/Practitioner/2cabb0bc-5992-4397-81ab-0f5699bfcf43","resource":{"resourceType":"Practitioner","id":"2cabb0bc-5992-4397-81ab-0f5699bfcf43","meta":{"profile":["http://hl7.org/fhir/us/qicore/StructureDefinition/qicore-practitioner"]},"identifier":[{"system":"http://hl7.org/fhir/sid/us-npi","value":"123456"}],"name":[{"family":"Evil","prefix":["Dr"]}]},"request":{"method":"PUT","url":"Practitioner/2cabb0bc-5992-4397-81ab-0f5699bfcf43"}},{"fullUrl":"https://madie.cms.gov/MeasureReport/7139e5c1-56fb-40f3-95e9-ff9e4abea2f3","resource":{"resourceType":"MeasureReport","id":"7139e5c1-56fb-40f3-95e9-ff9e4abea2f3","meta":{"profile":["http://hl7.org/fhir/us/cqfmeasures/StructureDefinition/test-case-cqfm"]},"contained":[{"resourceType":"Parameters","id":"c215bb9b-3d5f-43b2-987c-865a7b4cb1df-parameters","parameter":[{"name":"subject","valueString":"6f22a06f-7186-4db1-9310-4f907dc49ff3"}]}],"extension":[{"url":"http://hl7.org/fhir/us/cqfmeasures/StructureDefinition/cqfm-inputParameters","valueReference":{"reference":"#c215bb9b-3d5f-43b2-987c-865a7b4cb1df-parameters"}},{"url":"http://hl7.org/fhir/us/cqfmeasures/StructureDefinition/cqfm-testCaseDescription","valueMarkdown":"Enc ends last day of MP (6/30), turned 65 day admitted, has Medicare, first lab 24 hrs 1 min before enc., and second 48 hrs after admit- neither meet the timeframe. "}],"modifierExtension":[{"url":"http://hl7.org/fhir/us/cqfmeasures/StructureDefinition/cqfm-isTestCase","valueBoolean":true}],"status":"complete","type":"individual","measure":"https://madie.cms.gov/Measure/CMSFHIR529HybridHospitalWideReadmission","period":{"start":"2026-07-01","end":"2027-06-30"},"group":[{"population":[{"code":{"coding":[{"system":"http://terminology.hl7.org/CodeSystem/measure-population","code":"initial-population","display":"Initial Population"}]},"count":1}]}]},"request":{"method":"PUT","url":"MeasureReport/7139e5c1-56fb-40f3-95e9-ff9e4abea2f3"}}]}