{"resourceType":"Bundle","id":"tests-5c0a9a55-423a-44fd-9dd1-c5437530ba9b-bundle","type":"transaction","entry":[{"fullUrl":"https://madie.cms.gov/Patient/5c0a9a55-423a-44fd-9dd1-c5437530ba9b","resource":{"resourceType":"Patient","id":"5c0a9a55-423a-44fd-9dd1-c5437530ba9b","meta":{"profile":["http://hl7.org/fhir/us/qicore/StructureDefinition/qicore-patient"]},"text":{"status":"generated","div":"<div xmlns=\"http://www.w3.org/1999/xhtml\"><div class=\"hapiHeaderText\">HematRR02Sat <b>COMBO2 </b></div><table class=\"hapiPropertyTable\"><tbody><tr><td>Identifier</td><td>55be52bc9e1426c31d8780eb824183022ec2cc324af94b315adc5b6214830281</td></tr><tr><td>Date of birth</td><td><span>15 June 1947</span></td></tr></tbody></table></div>"},"extension":[{"url":"http://hl7.org/fhir/us/core/StructureDefinition/us-core-race","extension":[{"url":"ombCategory","valueCoding":{"system":"urn:oid:2.16.840.1.113883.6.238","code":"1002-5","display":"American Indian or Alaska Native","userSelected":true}},{"url":"text","valueString":"American Indian or Alaska Native"}]},{"url":"http://hl7.org/fhir/us/core/StructureDefinition/us-core-ethnicity","extension":[{"url":"ombCategory","valueCoding":{"system":"urn:oid:2.16.840.1.113883.6.238","code":"2186-5","display":"Not Hispanic or Latino","userSelected":true}},{"url":"text","valueString":"Not Hispanic or Latino"}]}],"identifier":[{"type":{"coding":[{"system":"http://terminology.hl7.org/CodeSystem/v2-0203","code":"MR"}]},"system":"https://bonnie-fhir.healthit.gov/","value":"63ec09a4ccb3770120fea9b8"}],"active":true,"name":[{"use":"usual","family":"HematocritRespiratoryRateO2SatPass","given":["HematocritRespRateO2SatDuringMP"]}],"gender":"male","birthDate":"1948-06-15"},"request":{"method":"PUT","url":"Patient/5c0a9a55-423a-44fd-9dd1-c5437530ba9b"}},{"fullUrl":"https://madie.cms.gov/Encounter/c7e2574c-ec5f-447e-99a2-3355781a8f6e","resource":{"resourceType":"Encounter","id":"c7e2574c-ec5f-447e-99a2-3355781a8f6e","meta":{"profile":["http://hl7.org/fhir/us/qicore/StructureDefinition/qicore-encounter"]},"status":"finished","class":{"system":"http://terminology.hl7.org/CodeSystem/v3-ActCode","code":"IMP","display":"inpatient encounter","userSelected":true},"type":[{"coding":[{"system":"http://snomed.info/sct","code":"183452005"}]}],"subject":{"reference":"Patient/5c0a9a55-423a-44fd-9dd1-c5437530ba9b"},"period":{"start":"2026-08-21T08:00:00.000+00:00","end":"2026-08-22T08:15:00.000+00:00"}},"request":{"method":"PUT","url":"Encounter/c7e2574c-ec5f-447e-99a2-3355781a8f6e"}},{"fullUrl":"https://madie.cms.gov/Encounter/e1f7026d-882d-46c0-964f-fa3cbef9a1d6","resource":{"resourceType":"Encounter","id":"e1f7026d-882d-46c0-964f-fa3cbef9a1d6","meta":{"profile":["http://hl7.org/fhir/us/qicore/StructureDefinition/qicore-encounter"]},"status":"finished","class":{"system":"http://terminology.hl7.org/CodeSystem/v3-ActCode","code":"ACUTE","display":"Acute","userSelected":true},"type":[{"coding":[{"system":"http://snomed.info/sct","code":"183452005"}]}],"subject":{"reference":"Patient/5c0a9a55-423a-44fd-9dd1-c5437530ba9b"},"period":{"start":"2026-08-16T08:00:00.000+00:00","end":"2026-08-16T08:15:00.000+00:00"}},"request":{"method":"PUT","url":"Encounter/e1f7026d-882d-46c0-964f-fa3cbef9a1d6"}},{"fullUrl":"https://madie.cms.gov/Coverage/f8f38568-63a2-4649-bfc3-4957fd4cb2c2","resource":{"resourceType":"Coverage","id":"f8f38568-63a2-4649-bfc3-4957fd4cb2c2","meta":{"profile":["http://hl7.org/fhir/us/qicore/StructureDefinition/qicore-coverage"]},"status":"active","type":{"coding":[{"system":"https://nahdo.org/sopt","version":"1.0.1","code":"1","display":"Medicare payer","userSelected":true}]},"beneficiary":{"reference":"Patient/5c0a9a55-423a-44fd-9dd1-c5437530ba9b"},"payor":[{"reference":"Organization/3778262e-e084-4bb5-9a47-1a144735f786"}]},"request":{"method":"PUT","url":"Coverage/f8f38568-63a2-4649-bfc3-4957fd4cb2c2"}},{"fullUrl":"https://madie.cms.gov/Observation/fa5886f4-938e-41a0-bb75-0bf728e851f7","resource":{"resourceType":"Observation","id":"fa5886f4-938e-41a0-bb75-0bf728e851f7","meta":{"profile":["http://hl7.org/fhir/us/core/StructureDefinition/us-core-observation-lab"]},"status":"final","category":[{"coding":[{"system":"http://terminology.hl7.org/CodeSystem/observation-category","code":"laboratory","display":"laboratory","userSelected":true}]}],"code":{"coding":[{"system":"http://loinc.org","code":"20570-8","display":"Hematocrit [Volume Fraction] of Blood"}]},"subject":{"reference":"Patient/5c0a9a55-423a-44fd-9dd1-c5437530ba9b"},"effectiveDateTime":"2026-08-21T08:00:00.000+00:00","issued":"2026-08-21T08:00:00.000Z","valueQuantity":{"value":39,"unit":"%","system":"http://unitsofmeasure.org","code":"%"}},"request":{"method":"PUT","url":"Observation/fa5886f4-938e-41a0-bb75-0bf728e851f7"}},{"fullUrl":"https://madie.cms.gov/Observation/febc8475-b780-4b39-a9f2-6f7f184c02eb","resource":{"resourceType":"Observation","id":"febc8475-b780-4b39-a9f2-6f7f184c02eb","meta":{"profile":["http://hl7.org/fhir/StructureDefinition/resprate"]},"status":"final","category":[{"coding":[{"system":"http://terminology.hl7.org/CodeSystem/observation-category","code":"vital-signs","display":"Vital Signs","userSelected":true}]}],"code":{"coding":[{"system":"http://loinc.org","code":"9279-1","display":"Respiratory rate"}]},"subject":{"reference":"Patient/5c0a9a55-423a-44fd-9dd1-c5437530ba9b"},"effectiveDateTime":"2026-08-21T08:00:00.000+00:00","valueQuantity":{"value":16.0,"unit":"/min","system":"http://unitsofmeasure.org","code":"/min"}},"request":{"method":"PUT","url":"Observation/febc8475-b780-4b39-a9f2-6f7f184c02eb"}},{"fullUrl":"https://madie.cms.gov/Observation/01dc3267-0c0b-42f1-bd7d-b6dfa9ce7419","resource":{"resourceType":"Observation","id":"01dc3267-0c0b-42f1-bd7d-b6dfa9ce7419","meta":{"profile":["http://hl7.org/fhir/StructureDefinition/oxygensat"]},"status":"final","category":[{"coding":[{"system":"http://terminology.hl7.org/CodeSystem/observation-category","code":"vital-signs","display":"Vital Signs","userSelected":true}]}],"code":{"coding":[{"system":"http://loinc.org","code":"2708-6","display":"Oxygen saturation in Arterial blood"}]},"subject":{"reference":"Patient/5c0a9a55-423a-44fd-9dd1-c5437530ba9b"},"effectiveDateTime":"2026-08-21T09:59:00.000+00:00","valueQuantity":{"value":100,"unit":"%","system":"http://unitsofmeasure.org","code":"%"}},"request":{"method":"PUT","url":"Observation/01dc3267-0c0b-42f1-bd7d-b6dfa9ce7419"}},{"fullUrl":"https://madie.cms.gov/Organization/6a524e1f-7e9a-45e2-9340-d0612bd637f1","resource":{"resourceType":"Organization","id":"3778262e-e084-4bb5-9a47-1a144735f786","meta":{"profile":["http://hl7.org/fhir/us/qicore/StructureDefinition/qicore-organization"]},"identifier":[{"use":"temp","system":"urn:oid:2.16.840.1.113883.4.4","value":"21-3259825"}],"active":true,"type":[{"coding":[{"system":"http://terminology.hl7.org/CodeSystem/organization-type","code":"pay","display":"Payer"}]}],"name":"Blue Cross Blue Shield of Texas","telecom":[{"system":"phone","value":"(+1) 972-766-6900"}],"address":[{"use":"billing","type":"postal","line":["P.O. Box 660044"],"city":"Dallas","state":"TX","postalCode":"75266-0044","country":"USA"}]},"request":{"method":"PUT","url":"Organization/3778262e-e084-4bb5-9a47-1a144735f786"}},{"fullUrl":"https://madie.cms.gov/Practitioner/a5c0639a-a9fe-41a5-b9d3-ecbb1370cafa","resource":{"resourceType":"Practitioner","id":"a5c0639a-a9fe-41a5-b9d3-ecbb1370cafa","meta":{"profile":["http://hl7.org/fhir/us/qicore/StructureDefinition/qicore-practitioner"]},"identifier":[{"system":"http://hl7.org/fhir/sid/us-npi","value":"123456"}],"name":[{"family":"Evil","prefix":["Dr"]}]},"request":{"method":"PUT","url":"Practitioner/a5c0639a-a9fe-41a5-b9d3-ecbb1370cafa"}},{"fullUrl":"https://madie.cms.gov/MeasureReport/cf27f24c-4afc-4a21-aab3-da1768e65ebe","resource":{"resourceType":"MeasureReport","id":"cf27f24c-4afc-4a21-aab3-da1768e65ebe","meta":{"profile":["http://hl7.org/fhir/us/cqfmeasures/StructureDefinition/test-case-cqfm"]},"contained":[{"resourceType":"Parameters","id":"1133d798-ca3c-42f5-9c29-4b94f41e472b-parameters","parameter":[{"name":"subject","valueString":"5c0a9a55-423a-44fd-9dd1-c5437530ba9b"}]}],"extension":[{"url":"http://hl7.org/fhir/us/cqfmeasures/StructureDefinition/cqfm-inputParameters","valueReference":{"reference":"#1133d798-ca3c-42f5-9c29-4b94f41e472b-parameters"}},{"url":"http://hl7.org/fhir/us/cqfmeasures/StructureDefinition/cqfm-testCaseDescription","valueMarkdown":"2 encounter during measurement period. Hemat exam, S02 Exam, and RR exam during timing interval. "}],"modifierExtension":[{"url":"http://hl7.org/fhir/us/cqfmeasures/StructureDefinition/cqfm-isTestCase","valueBoolean":true}],"status":"complete","type":"individual","measure":"https://madie.cms.gov/Measure/CMSFHIR529HybridHospitalWideReadmission","period":{"start":"2026-07-01","end":"2027-06-30"},"group":[{"population":[{"code":{"coding":[{"system":"http://terminology.hl7.org/CodeSystem/measure-population","code":"initial-population","display":"Initial Population"}]},"count":2}]}]},"request":{"method":"PUT","url":"MeasureReport/cf27f24c-4afc-4a21-aab3-da1768e65ebe"}}]}