{"resourceType":"Bundle","id":"tests-37526b3c-564e-4e1f-910a-3a41f06d9c24-bundle","type":"transaction","entry":[{"fullUrl":"https://madie.cms.gov/Patient/37526b3c-564e-4e1f-910a-3a41f06d9c24","resource":{"resourceType":"Patient","id":"37526b3c-564e-4e1f-910a-3a41f06d9c24","meta":{"profile":["http://hl7.org/fhir/us/qicore/StructureDefinition/qicore-patient"]},"text":{"status":"generated","div":"<div xmlns=\"http://www.w3.org/1999/xhtml\"><div class=\"hapiHeaderText\">LT24beforeAndGT2after_relevantDT <b>SBPPASS </b></div><table class=\"hapiPropertyTable\"><tbody><tr><td>Identifier</td><td>ff71e6df6fc1b78e69460d357884fa81714d2acf91ffda248ad3470e982fcab8</td></tr><tr><td>Date of birth</td><td><span>15 June 1956</span></td></tr></tbody></table></div>"},"extension":[{"url":"http://hl7.org/fhir/us/core/StructureDefinition/us-core-race","extension":[{"url":"ombCategory","valueCoding":{"system":"urn:oid:2.16.840.1.113883.6.238","code":"1002-5","display":"American Indian or Alaska Native","userSelected":true}},{"url":"text","valueString":"American Indian or Alaska Native"}]},{"url":"http://hl7.org/fhir/us/core/StructureDefinition/us-core-ethnicity","extension":[{"url":"ombCategory","valueCoding":{"system":"urn:oid:2.16.840.1.113883.6.238","code":"2186-5","display":"Not Hispanic or Latino","userSelected":true}},{"url":"text","valueString":"Not Hispanic or Latino"}]}],"identifier":[{"type":{"coding":[{"system":"http://terminology.hl7.org/CodeSystem/v2-0203","code":"MR"}]},"system":"https://bonnie-fhir.healthit.gov/","value":"63ec0968ccb3770120fe9e26"}],"active":true,"name":[{"use":"usual","family":"SystolicBPPass","given":["InED15AndHalfHrsBeforeInpatientAdmit"]}],"gender":"male","birthDate":"1957-06-15"},"request":{"method":"PUT","url":"Patient/37526b3c-564e-4e1f-910a-3a41f06d9c24"}},{"fullUrl":"https://madie.cms.gov/Encounter/1900263f-8f93-44ef-8b9e-0affb5cfe144","resource":{"resourceType":"Encounter","id":"1900263f-8f93-44ef-8b9e-0affb5cfe144","meta":{"profile":["http://hl7.org/fhir/us/qicore/StructureDefinition/qicore-encounter"]},"status":"finished","class":{"system":"http://terminology.hl7.org/CodeSystem/v3-ActCode","code":"IMP","display":"inpatient encounter","userSelected":true},"type":[{"coding":[{"system":"http://snomed.info/sct","code":"4525004","display":"Emergency department patient visit (procedure)"}]}],"subject":{"reference":"Patient/37526b3c-564e-4e1f-910a-3a41f06d9c24"},"period":{"start":"2026-07-01T00:01:00.000+00:00","end":"2026-07-01T15:00:00.000+00:00"},"length":{"value":1,"unit":"days"}},"request":{"method":"PUT","url":"Encounter/1900263f-8f93-44ef-8b9e-0affb5cfe144"}},{"fullUrl":"https://madie.cms.gov/Encounter/2cf370be-8f4e-43ca-9330-9a167e97c7c2","resource":{"resourceType":"Encounter","id":"2cf370be-8f4e-43ca-9330-9a167e97c7c2","meta":{"profile":["http://hl7.org/fhir/us/qicore/StructureDefinition/qicore-encounter"]},"status":"finished","class":{"system":"http://terminology.hl7.org/CodeSystem/v3-ActCode","code":"IMP","display":"inpatient encounter","userSelected":true},"type":[{"coding":[{"system":"http://snomed.info/sct","code":"183452005"}]}],"subject":{"reference":"Patient/37526b3c-564e-4e1f-910a-3a41f06d9c24"},"period":{"start":"2026-07-01T15:00:00.000+00:00","end":"2026-07-05T08:15:00.000+00:00"},"length":{"value":1,"unit":"days"}},"request":{"method":"PUT","url":"Encounter/2cf370be-8f4e-43ca-9330-9a167e97c7c2"}},{"fullUrl":"https://madie.cms.gov/Coverage/79f2fd3b-1318-47e8-ad94-434a38f7cb0c","resource":{"resourceType":"Coverage","id":"79f2fd3b-1318-47e8-ad94-434a38f7cb0c","meta":{"profile":["http://hl7.org/fhir/us/qicore/StructureDefinition/qicore-coverage"]},"status":"active","type":{"coding":[{"system":"https://nahdo.org/sopt","version":"1.0.1","code":"1","display":"Medicare payer","userSelected":true}]},"beneficiary":{"reference":"Patient/37526b3c-564e-4e1f-910a-3a41f06d9c24"},"payor":[{"reference":"Organization/3778262e-e084-4bb5-9a47-1a144735f786"}]},"request":{"method":"PUT","url":"Coverage/79f2fd3b-1318-47e8-ad94-434a38f7cb0c"}},{"fullUrl":"https://madie.cms.gov/Observation/370866bf-7e1f-490a-b644-3e3b9d248182","resource":{"resourceType":"Observation","id":"370866bf-7e1f-490a-b644-3e3b9d248182","meta":{"profile":["http://hl7.org/fhir/StructureDefinition/bp"]},"status":"final","category":[{"coding":[{"system":"http://terminology.hl7.org/CodeSystem/observation-category","code":"vital-signs","display":"Vital Signs"}],"text":"Vital Signs"}],"code":{"coding":[{"system":"http://loinc.org","code":"85354-9","display":"Blood pressure panel"}]},"subject":{"reference":"Patient/37526b3c-564e-4e1f-910a-3a41f06d9c24"},"effectiveDateTime":"2026-07-01T00:30:00.000Z","component":[{"code":{"coding":[{"system":"http://loinc.org","code":"8480-6","display":"Systolic blood pressure"}]},"valueQuantity":{"value":131,"unit":"mmHg","system":"http://unitsofmeasure.org","code":"mm[Hg]"}},{"code":{"coding":[{"system":"http://loinc.org","code":"8462-4","display":"Diastolic blood pressure"}]},"valueQuantity":{"value":80,"unit":"mmHg","system":"http://unitsofmeasure.org","code":"mm[Hg]"}}]},"request":{"method":"PUT","url":"Observation/370866bf-7e1f-490a-b644-3e3b9d248182"}},{"fullUrl":"https://madie.cms.gov/Observation/9456ba21-7905-48ed-aa49-e0231d53b950","resource":{"resourceType":"Observation","id":"9456ba21-7905-48ed-aa49-e0231d53b950","meta":{"profile":["http://hl7.org/fhir/us/qicore/StructureDefinition/qicore-observation"]},"status":"amended","category":[{"coding":[{"system":"http://terminology.hl7.org/CodeSystem/observation-category","code":"laboratory","display":"laboratory","userSelected":true}]}],"code":{"coding":[{"system":"http://loinc.org","code":"8480-6"}]},"subject":{"reference":"Patient/37526b3c-564e-4e1f-910a-3a41f06d9c24"},"effectiveDateTime":"2026-07-01T15:00:00.000Z","valueQuantity":{"value":115.0,"unit":"mm[Hg]","system":"http://unitsofmeasure.org","code":"mm[Hg]"}},"request":{"method":"PUT","url":"Observation/9456ba21-7905-48ed-aa49-e0231d53b950"}},{"fullUrl":"https://madie.cms.gov/Organization/e7e4f00c-37b1-4d26-b6bb-622e97bcaaa0","resource":{"resourceType":"Organization","id":"3778262e-e084-4bb5-9a47-1a144735f786","meta":{"profile":["http://hl7.org/fhir/us/qicore/StructureDefinition/qicore-organization"]},"identifier":[{"use":"temp","system":"urn:oid:2.16.840.1.113883.4.4","value":"21-3259825"}],"active":true,"type":[{"coding":[{"system":"http://terminology.hl7.org/CodeSystem/organization-type","code":"pay","display":"Payer"}]}],"name":"Blue Cross Blue Shield of Texas","telecom":[{"system":"phone","value":"(+1) 972-766-6900"}],"address":[{"use":"billing","type":"postal","line":["P.O. Box 660044"],"city":"Dallas","state":"TX","postalCode":"75266-0044","country":"USA"}]},"request":{"method":"PUT","url":"Organization/3778262e-e084-4bb5-9a47-1a144735f786"}},{"fullUrl":"https://madie.cms.gov/Practitioner/6cc13648-661d-4183-bdbb-92792da96416","resource":{"resourceType":"Practitioner","id":"6cc13648-661d-4183-bdbb-92792da96416","meta":{"profile":["http://hl7.org/fhir/us/qicore/StructureDefinition/qicore-practitioner"]},"identifier":[{"system":"http://hl7.org/fhir/sid/us-npi","value":"123456"}],"name":[{"family":"Evil","prefix":["Dr"]}]},"request":{"method":"PUT","url":"Practitioner/6cc13648-661d-4183-bdbb-92792da96416"}},{"fullUrl":"https://madie.cms.gov/MeasureReport/5bbefc8c-a632-44cc-9e35-ac341f0bc9a7","resource":{"resourceType":"MeasureReport","id":"5bbefc8c-a632-44cc-9e35-ac341f0bc9a7","meta":{"profile":["http://hl7.org/fhir/us/cqfmeasures/StructureDefinition/test-case-cqfm"]},"contained":[{"resourceType":"Parameters","id":"24a78e7d-e0ba-4e20-b59f-d3b169d23655-parameters","parameter":[{"name":"subject","valueString":"37526b3c-564e-4e1f-910a-3a41f06d9c24"}]}],"extension":[{"url":"http://hl7.org/fhir/us/cqfmeasures/StructureDefinition/cqfm-inputParameters","valueReference":{"reference":"#24a78e7d-e0ba-4e20-b59f-d3b169d23655-parameters"}},{"url":"http://hl7.org/fhir/us/cqfmeasures/StructureDefinition/cqfm-testCaseDescription","valueMarkdown":"ED Enc first day of MP (7/1) has Medicare, BP evaluated in ED 30 mins after ED start, 15.5 hrs prior to inpatient admit and at inpatient admit 15:00, only the BP taken in ED counted"}],"modifierExtension":[{"url":"http://hl7.org/fhir/us/cqfmeasures/StructureDefinition/cqfm-isTestCase","valueBoolean":true}],"status":"complete","type":"individual","measure":"https://madie.cms.gov/Measure/CMSFHIR529HybridHospitalWideReadmission","period":{"start":"2026-07-01","end":"2027-06-30"},"group":[{"population":[{"code":{"coding":[{"system":"http://terminology.hl7.org/CodeSystem/measure-population","code":"initial-population","display":"Initial Population"}]},"count":1}]}]},"request":{"method":"PUT","url":"MeasureReport/5bbefc8c-a632-44cc-9e35-ac341f0bc9a7"}}]}