{"resourceType":"Bundle","id":"tests-73b803bf-207c-411d-8db3-01908e5d9dda-bundle","type":"transaction","entry":[{"fullUrl":"https://madie.cms.gov/Patient/73b803bf-207c-411d-8db3-01908e5d9dda","resource":{"resourceType":"Patient","id":"73b803bf-207c-411d-8db3-01908e5d9dda","meta":{"profile":["http://hl7.org/fhir/us/qicore/StructureDefinition/qicore-patient"]},"text":{"status":"generated","div":"<div xmlns=\"http://www.w3.org/1999/xhtml\"><div class=\"hapiHeaderText\">LT24beforeAndLT2after <b>WBCPASS </b></div><table class=\"hapiPropertyTable\"><tbody><tr><td>Identifier</td><td>02a3c13b70ccf5a73b893e80582952bdd83e9cabbf053902bb5eb341874dc5ec</td></tr><tr><td>Date of birth</td><td><span>15 June 1956</span></td></tr></tbody></table></div>"},"extension":[{"url":"http://hl7.org/fhir/us/core/StructureDefinition/us-core-race","extension":[{"url":"ombCategory","valueCoding":{"system":"urn:oid:2.16.840.1.113883.6.238","code":"1002-5","display":"American Indian or Alaska Native","userSelected":true}},{"url":"text","valueString":"American Indian or Alaska Native"}]},{"url":"http://hl7.org/fhir/us/core/StructureDefinition/us-core-ethnicity","extension":[{"url":"ombCategory","valueCoding":{"system":"urn:oid:2.16.840.1.113883.6.238","code":"2186-5","display":"Not Hispanic or Latino","userSelected":true}},{"url":"text","valueString":"Not Hispanic or Latino"}]}],"identifier":[{"type":{"coding":[{"system":"http://terminology.hl7.org/CodeSystem/v2-0203","code":"MR"}]},"system":"https://bonnie-fhir.healthit.gov/","value":"63ec096accb3770120fe9fa2"}],"active":true,"name":[{"use":"usual","family":"WhiteBloodCellPass","given":["OneHourAfterAdmission"]}],"gender":"male","birthDate":"1960-07-01"},"request":{"method":"PUT","url":"Patient/73b803bf-207c-411d-8db3-01908e5d9dda"}},{"fullUrl":"https://madie.cms.gov/Encounter/89cf7da7-a403-4fbb-b897-1fd706a2a8f2","resource":{"resourceType":"Encounter","id":"89cf7da7-a403-4fbb-b897-1fd706a2a8f2","meta":{"profile":["http://hl7.org/fhir/us/qicore/StructureDefinition/qicore-encounter"]},"status":"finished","class":{"system":"http://terminology.hl7.org/CodeSystem/v3-ActCode","code":"IMP","display":"inpatient encounter","userSelected":true},"type":[{"coding":[{"system":"http://snomed.info/sct","code":"183452005"}]}],"subject":{"reference":"Patient/73b803bf-207c-411d-8db3-01908e5d9dda"},"period":{"start":"2026-07-01T08:00:00.000+00:00","end":"2026-07-03T23:59:00.000+00:00"},"length":{"value":1,"unit":"days"}},"request":{"method":"PUT","url":"Encounter/89cf7da7-a403-4fbb-b897-1fd706a2a8f2"}},{"fullUrl":"https://madie.cms.gov/Coverage/dae7641e-cdfd-4994-bfbd-261ed0ea7d9b","resource":{"resourceType":"Coverage","id":"dae7641e-cdfd-4994-bfbd-261ed0ea7d9b","meta":{"profile":["http://hl7.org/fhir/us/qicore/StructureDefinition/qicore-coverage"]},"status":"active","type":{"coding":[{"system":"https://nahdo.org/sopt","version":"1.0.1","code":"1","display":"Medicare payer","userSelected":true}]},"beneficiary":{"reference":"Patient/73b803bf-207c-411d-8db3-01908e5d9dda"},"payor":[{"reference":"Organization/3778262e-e084-4bb5-9a47-1a144735f786"}]},"request":{"method":"PUT","url":"Coverage/dae7641e-cdfd-4994-bfbd-261ed0ea7d9b"}},{"fullUrl":"https://madie.cms.gov/Observation/70bdd722-9962-4f3f-9c60-8c5a182a7d76","resource":{"resourceType":"Observation","id":"70bdd722-9962-4f3f-9c60-8c5a182a7d76","meta":{"profile":["http://hl7.org/fhir/us/core/StructureDefinition/us-core-observation-lab"]},"status":"amended","category":[{"coding":[{"system":"http://terminology.hl7.org/CodeSystem/observation-category","code":"laboratory","display":"laboratory","userSelected":true}]}],"code":{"coding":[{"system":"http://loinc.org","code":"26464-8","display":"Leukocytes [#/volume] in Blood"}]},"subject":{"reference":"Patient/73b803bf-207c-411d-8db3-01908e5d9dda"},"effectiveDateTime":"2026-07-01T09:01:00.000+00:00","issued":"2026-07-01T09:00:00.000+00:00","valueQuantity":{"value":4500,"unit":"uL","system":"http://unitsofmeasure.org","code":"uL"}},"request":{"method":"PUT","url":"Observation/70bdd722-9962-4f3f-9c60-8c5a182a7d76"}},{"fullUrl":"https://madie.cms.gov/Observation/7579498f-fa24-4243-8579-a24a3edc90a3","resource":{"resourceType":"Observation","id":"7579498f-fa24-4243-8579-a24a3edc90a3","meta":{"profile":["http://hl7.org/fhir/us/core/StructureDefinition/us-core-observation-lab"]},"status":"final","category":[{"coding":[{"system":"http://terminology.hl7.org/CodeSystem/observation-category","code":"laboratory","display":"laboratory","userSelected":true}]}],"code":{"coding":[{"system":"http://loinc.org","code":"26464-8","display":"Leukocytes [#/volume] in Blood"}]},"subject":{"reference":"Patient/73b803bf-207c-411d-8db3-01908e5d9dda"},"issued":"2026-07-02T08:00:00.000+00:00","valueQuantity":{"value":5000,"unit":"uL","system":"http://unitsofmeasure.org","code":"uL"}},"request":{"method":"PUT","url":"Observation/7579498f-fa24-4243-8579-a24a3edc90a3"}},{"fullUrl":"https://madie.cms.gov/Organization/7b3e9b8c-bfe2-48eb-b9b7-366de59c707b","resource":{"resourceType":"Organization","id":"3778262e-e084-4bb5-9a47-1a144735f786","meta":{"profile":["http://hl7.org/fhir/us/qicore/StructureDefinition/qicore-organization"]},"identifier":[{"use":"temp","system":"urn:oid:2.16.840.1.113883.4.4","value":"21-3259825"}],"active":true,"type":[{"coding":[{"system":"http://terminology.hl7.org/CodeSystem/organization-type","code":"pay","display":"Payer"}]}],"name":"Blue Cross Blue Shield of Texas","telecom":[{"system":"phone","value":"(+1) 972-766-6900"}],"address":[{"use":"billing","type":"postal","line":["P.O. Box 660044"],"city":"Dallas","state":"TX","postalCode":"75266-0044","country":"USA"}]},"request":{"method":"PUT","url":"Organization/3778262e-e084-4bb5-9a47-1a144735f786"}},{"fullUrl":"https://madie.cms.gov/Practitioner/437ee47b-5082-428a-b85a-489979f3c67c","resource":{"resourceType":"Practitioner","id":"437ee47b-5082-428a-b85a-489979f3c67c","meta":{"profile":["http://hl7.org/fhir/us/qicore/StructureDefinition/qicore-practitioner"]},"identifier":[{"system":"http://hl7.org/fhir/sid/us-npi","value":"123456"}],"name":[{"family":"Evil","prefix":["Dr"]}]},"request":{"method":"PUT","url":"Practitioner/437ee47b-5082-428a-b85a-489979f3c67c"}},{"fullUrl":"https://madie.cms.gov/MeasureReport/143b0884-dbe9-43e4-8445-1c99d0fbf6f0","resource":{"resourceType":"MeasureReport","id":"143b0884-dbe9-43e4-8445-1c99d0fbf6f0","meta":{"profile":["http://hl7.org/fhir/us/cqfmeasures/StructureDefinition/test-case-cqfm"]},"contained":[{"resourceType":"Parameters","id":"ecbee8a7-f478-4585-82d6-300eff8efc14-parameters","parameter":[{"name":"subject","valueString":"73b803bf-207c-411d-8db3-01908e5d9dda"}]}],"extension":[{"url":"http://hl7.org/fhir/us/cqfmeasures/StructureDefinition/cqfm-inputParameters","valueReference":{"reference":"#ecbee8a7-f478-4585-82d6-300eff8efc14-parameters"}},{"url":"http://hl7.org/fhir/us/cqfmeasures/StructureDefinition/cqfm-testCaseDescription","valueMarkdown":"Enc first day of MP (7/1) WBC were evaluated 1 hr and 24 hours after admission  "}],"modifierExtension":[{"url":"http://hl7.org/fhir/us/cqfmeasures/StructureDefinition/cqfm-isTestCase","valueBoolean":true}],"status":"complete","type":"individual","measure":"https://madie.cms.gov/Measure/CMSFHIR529HybridHospitalWideReadmission","period":{"start":"2026-07-01","end":"2027-06-30"},"group":[{"population":[{"code":{"coding":[{"system":"http://terminology.hl7.org/CodeSystem/measure-population","code":"initial-population","display":"Initial Population"}]},"count":1}]}]},"request":{"method":"PUT","url":"MeasureReport/143b0884-dbe9-43e4-8445-1c99d0fbf6f0"}}]}