{"resourceType":"Bundle","id":"tests-5c70a969-ae6d-46ca-9a71-92e15292804d-bundle","type":"transaction","entry":[{"fullUrl":"https://madie.cms.gov/Patient/5c70a969-ae6d-46ca-9a71-92e15292804d","resource":{"resourceType":"Patient","id":"5c70a969-ae6d-46ca-9a71-92e15292804d","meta":{"profile":["http://hl7.org/fhir/us/qicore/StructureDefinition/qicore-patient"]},"extension":[{"url":"http://hl7.org/fhir/us/core/StructureDefinition/us-core-race","extension":[{"url":"ombCategory","valueCoding":{"system":"urn:oid:2.16.840.1.113883.6.238","code":"2054-5","display":"Black or African American","userSelected":true}},{"url":"text","valueString":"Black or African American"}]},{"url":"http://hl7.org/fhir/us/core/StructureDefinition/us-core-ethnicity","extension":[{"url":"ombCategory","valueCoding":{"system":"urn:oid:2.16.840.1.113883.6.238","code":"2186-5","display":"Not Hispanic or Latino","userSelected":true}},{"url":"text","valueString":"Not Hispanic or Latino"}]}],"identifier":[{"type":{"coding":[{"system":"http://terminology.hl7.org/CodeSystem/v2-0203","code":"MR"}]},"system":"https://bonnie-fhir.healthit.gov/","value":"645050ba07f33d7a42c117301"}],"name":[{"family":"DENEXCEPop4Fail","given":["HospiceCareEncounterBeforeMP"]}],"gender":"female","birthDate":"1949-12-31"},"request":{"method":"PUT","url":"Patient/5c70a969-ae6d-46ca-9a71-92e15292804d"}},{"fullUrl":"https://madie.cms.gov/Encounter/unlisted-preventive-medicine-service-d4bb","resource":{"resourceType":"Encounter","id":"03e7076a-7203-4a8e-ba86-093a3d0e9352","meta":{"profile":["http://hl7.org/fhir/us/qicore/StructureDefinition/qicore-encounter"]},"status":"finished","class":{"system":"http://terminology.hl7.org/CodeSystem/v3-ActCode","code":"AMB","display":"ambulatory"},"type":[{"coding":[{"system":"http://www.ama-assn.org/go/cpt","code":"99396","display":"Periodic comprehensive preventive medicine reevaluation","userSelected":true}]}],"subject":{"reference":"Patient/5c70a969-ae6d-46ca-9a71-92e15292804d"},"period":{"start":"2025-01-01T08:00:00.000+00:00","end":"2025-01-01T08:30:00.000+00:00"}},"request":{"method":"PUT","url":"Encounter/03e7076a-7203-4a8e-ba86-093a3d0e9352"}},{"fullUrl":"https://madie.cms.gov/Encounter/hospice-encounter-35ca","resource":{"resourceType":"Encounter","id":"70edde60-fbd0-4d69-9cf2-3c5aa6f3d565","meta":{"profile":["http://hl7.org/fhir/us/qicore/StructureDefinition/qicore-encounter"]},"status":"finished","class":{"system":"http://terminology.hl7.org/CodeSystem/v3-ActCode","code":"AMB","display":"ambulatory"},"type":[{"coding":[{"system":"http://snomed.info/sct","version":"2022-03","code":"183919006","display":"Urgent admission to hospice (procedure)","userSelected":true}]}],"subject":{"reference":"Patient/5c70a969-ae6d-46ca-9a71-92e15292804d"},"period":{"start":"2024-12-31T08:00:00.000+00:00","end":"2024-12-31T08:30:00.000+00:00"}},"request":{"method":"PUT","url":"Encounter/70edde60-fbd0-4d69-9cf2-3c5aa6f3d565"}},{"fullUrl":"https://madie.cms.gov/Encounter/hospice-encounter-1731","resource":{"resourceType":"Encounter","id":"035b404a-7ea9-4dfd-9749-0eb718c74e77","meta":{"profile":["http://hl7.org/fhir/us/qicore/StructureDefinition/qicore-encounter"]},"status":"finished","class":{"system":"http://terminology.hl7.org/CodeSystem/v3-ActCode","code":"AMB","display":"ambulatory"},"type":[{"coding":[{"system":"http://snomed.info/sct","version":"2022-09","code":"183919006","display":"Urgent admission to hospice (procedure)","userSelected":true}]}],"subject":{"reference":"Patient/5c70a969-ae6d-46ca-9a71-92e15292804d"},"period":{"start":"2024-05-01T08:00:00.000+00:00","end":"2024-05-01T08:15:00.000+00:00"}},"request":{"method":"PUT","url":"Encounter/035b404a-7ea9-4dfd-9749-0eb718c74e77"}},{"fullUrl":"https://madie.cms.gov/Observation/cardiovascular-disease-10y-risk-goff-2013-1732","resource":{"resourceType":"Observation","id":"b40752ee-b140-428a-b026-98518c015cea","meta":{"profile":["http://hl7.org/fhir/us/qicore/StructureDefinition/qicore-observation"]},"status":"final","category":[{"coding":[{"system":"http://terminology.hl7.org/CodeSystem/observation-category","code":"procedure","display":"Procedure"}]}],"code":{"coding":[{"system":"http://loinc.org","code":"79423-0","display":"Cardiovascular disease 10Y risk [Likelihood] ACC-AHA Pooled Cohort by Goff 2013","userSelected":true}]},"subject":{"reference":"Patient/5c70a969-ae6d-46ca-9a71-92e15292804d"},"effectiveDateTime":"2025-01-01T08:00:00.000+00:00","valueQuantity":{"value":20.0,"unit":"%","system":"http://unitsofmeasure.org","code":"%"}},"request":{"method":"PUT","url":"Observation/b40752ee-b140-428a-b026-98518c015cea"}},{"fullUrl":"https://madie.cms.gov/Coverage/1","resource":{"resourceType":"Coverage","id":"b0b32ab9-1b71-4524-931c-192393bf844e","meta":{"profile":["http://hl7.org/fhir/us/qicore/StructureDefinition/qicore-coverage"]},"status":"active","beneficiary":{"reference":"Patient/5c70a969-ae6d-46ca-9a71-92e15292804d"},"payor":[{"reference":"Organization/80573fa1-cf83-4e9a-8f21-86a018689678"}]},"request":{"method":"PUT","url":"Coverage/b0b32ab9-1b71-4524-931c-192393bf844e"}},{"fullUrl":"https://madie.cms.gov/Organization/123456","resource":{"resourceType":"Organization","id":"80573fa1-cf83-4e9a-8f21-86a018689678","meta":{"profile":["http://hl7.org/fhir/us/qicore/StructureDefinition/qicore-organization"]},"identifier":[{"use":"temp","system":"urn:oid:2.16.840.1.113883.4.4","value":"21-3259825"}],"active":true,"type":[{"coding":[{"system":"http://terminology.hl7.org/CodeSystem/organization-type","code":"pay","display":"Payer"}]}],"name":"Blue Cross Blue Shield of Texas","telecom":[{"system":"phone","value":"(+1) 972-766-6900"}],"address":[{"use":"billing","type":"postal","line":["P.O. Box 660044"],"city":"Dallas","state":"TX","postalCode":"75266-0044","country":"USA"}]},"request":{"method":"PUT","url":"Organization/80573fa1-cf83-4e9a-8f21-86a018689678"}},{"fullUrl":"https://madie.cms.gov/Practitioner/practitioner-123456","resource":{"resourceType":"Practitioner","id":"c1ca3ade-f350-4891-bef5-62a8c74476e5","meta":{"profile":["http://hl7.org/fhir/us/qicore/StructureDefinition/qicore-practitioner"]},"identifier":[{"system":"http://hl7.org/fhir/sid/us-npi","value":"123456"}],"name":[{"family":"Evil","prefix":["Dr"]}]},"request":{"method":"PUT","url":"Practitioner/c1ca3ade-f350-4891-bef5-62a8c74476e5"}},{"fullUrl":"https://madie.cms.gov/MeasureReport/d2fadd1f-bf8f-478b-99a1-0eed004e8565","resource":{"resourceType":"MeasureReport","id":"d2fadd1f-bf8f-478b-99a1-0eed004e8565","meta":{"profile":["http://hl7.org/fhir/us/cqfmeasures/StructureDefinition/test-case-cqfm"]},"contained":[{"resourceType":"Parameters","id":"6cb584de-d406-4a94-a735-0a4513c8e6e5-parameters","parameter":[{"name":"subject","valueString":"5c70a969-ae6d-46ca-9a71-92e15292804d"}]}],"extension":[{"url":"http://hl7.org/fhir/us/cqfmeasures/StructureDefinition/cqfm-inputParameters","valueReference":{"reference":"#6cb584de-d406-4a94-a735-0a4513c8e6e5-parameters"}},{"url":"http://hl7.org/fhir/us/cqfmeasures/StructureDefinition/cqfm-testCaseDescription","valueMarkdown":"Age 75, hospice encounter May of year prior and last day of prior year which end on same day, risk estimator = 20 performed during non hospice encounter first day of MP"}],"modifierExtension":[{"url":"http://hl7.org/fhir/us/cqfmeasures/StructureDefinition/cqfm-isTestCase","valueBoolean":true}],"status":"complete","type":"individual","measure":"https://madie.cms.gov/Measure/StatinTherapyforthePreventionandTreatmentofCardiovascularDiseaseFHIR","period":{"start":"2025-01-01","end":"2025-12-31"},"group":[{"population":[{"code":{"coding":[{"system":"http://terminology.hl7.org/CodeSystem/measure-population","code":"initial-population","display":"Initial Population"}]},"count":0},{"code":{"coding":[{"system":"http://terminology.hl7.org/CodeSystem/measure-population","code":"denominator","display":"Denominator"}]},"count":0},{"code":{"coding":[{"system":"http://terminology.hl7.org/CodeSystem/measure-population","code":"denominator-exclusion","display":"Denominator Exclusion"}]},"count":0},{"code":{"coding":[{"system":"http://terminology.hl7.org/CodeSystem/measure-population","code":"numerator","display":"Numerator"}]},"count":0},{"code":{"coding":[{"system":"http://terminology.hl7.org/CodeSystem/measure-population","code":"denominator-exception","display":"Denominator Exception"}]},"count":0}]},{"population":[{"code":{"coding":[{"system":"http://terminology.hl7.org/CodeSystem/measure-population","code":"initial-population","display":"Initial Population"}]},"count":0},{"code":{"coding":[{"system":"http://terminology.hl7.org/CodeSystem/measure-population","code":"denominator","display":"Denominator"}]},"count":0},{"code":{"coding":[{"system":"http://terminology.hl7.org/CodeSystem/measure-population","code":"denominator-exclusion","display":"Denominator Exclusion"}]},"count":0},{"code":{"coding":[{"system":"http://terminology.hl7.org/CodeSystem/measure-population","code":"numerator","display":"Numerator"}]},"count":0},{"code":{"coding":[{"system":"http://terminology.hl7.org/CodeSystem/measure-population","code":"denominator-exception","display":"Denominator Exception"}]},"count":0}]},{"population":[{"code":{"coding":[{"system":"http://terminology.hl7.org/CodeSystem/measure-population","code":"initial-population","display":"Initial Population"}]},"count":0},{"code":{"coding":[{"system":"http://terminology.hl7.org/CodeSystem/measure-population","code":"denominator","display":"Denominator"}]},"count":0},{"code":{"coding":[{"system":"http://terminology.hl7.org/CodeSystem/measure-population","code":"denominator-exclusion","display":"Denominator Exclusion"}]},"count":0},{"code":{"coding":[{"system":"http://terminology.hl7.org/CodeSystem/measure-population","code":"numerator","display":"Numerator"}]},"count":0},{"code":{"coding":[{"system":"http://terminology.hl7.org/CodeSystem/measure-population","code":"denominator-exception","display":"Denominator Exception"}]},"count":0}]},{"population":[{"code":{"coding":[{"system":"http://terminology.hl7.org/CodeSystem/measure-population","code":"initial-population","display":"Initial Population"}]},"count":1},{"code":{"coding":[{"system":"http://terminology.hl7.org/CodeSystem/measure-population","code":"denominator","display":"Denominator"}]},"count":1},{"code":{"coding":[{"system":"http://terminology.hl7.org/CodeSystem/measure-population","code":"denominator-exclusion","display":"Denominator Exclusion"}]},"count":0},{"code":{"coding":[{"system":"http://terminology.hl7.org/CodeSystem/measure-population","code":"numerator","display":"Numerator"}]},"count":0},{"code":{"coding":[{"system":"http://terminology.hl7.org/CodeSystem/measure-population","code":"denominator-exception","display":"Denominator Exception"}]},"count":0}]}]},"request":{"method":"PUT","url":"MeasureReport/d2fadd1f-bf8f-478b-99a1-0eed004e8565"}}]}