{"resourceType":"Bundle","id":"tests-f9a03175-0a16-4c4a-97d5-f7b38e359526-bundle","type":"transaction","entry":[{"fullUrl":"https://madie.cms.gov/Patient/f9a03175-0a16-4c4a-97d5-f7b38e359526","resource":{"resourceType":"Patient","id":"f9a03175-0a16-4c4a-97d5-f7b38e359526","meta":{"profile":["http://hl7.org/fhir/us/qicore/StructureDefinition/qicore-patient"]},"extension":[{"url":"http://hl7.org/fhir/us/core/StructureDefinition/us-core-race","extension":[{"url":"ombCategory","valueCoding":{"system":"urn:oid:2.16.840.1.113883.6.238","code":"1002-5","display":"American Indian or Alaska Native","userSelected":true}},{"url":"text","valueString":"American Indian or Alaska Native"}]},{"url":"http://hl7.org/fhir/us/core/StructureDefinition/us-core-ethnicity","extension":[{"url":"ombCategory","valueCoding":{"system":"urn:oid:2.16.840.1.113883.6.238","code":"2135-2","display":"Hispanic or Latino","userSelected":true}},{"url":"text","valueString":"Hispanic or Latino"}]}],"identifier":[{"type":{"coding":[{"system":"http://terminology.hl7.org/CodeSystem/v2-0203","code":"MR"}]},"system":"https://bonnie-fhir.healthit.gov/","value":"645028b051de4e56b7e15eda"}],"name":[{"family":"NUMERPop4Pass","given":["OrderLowIntensityStatin"]}],"gender":"male","birthDate":"1982-12-31"},"request":{"method":"PUT","url":"Patient/f9a03175-0a16-4c4a-97d5-f7b38e359526"}},{"fullUrl":"https://madie.cms.gov/Encounter/annual-wellness-visit-390d","resource":{"resourceType":"Encounter","id":"c43c67b2-8d93-4551-9098-be4009eec51a","meta":{"profile":["http://hl7.org/fhir/us/qicore/StructureDefinition/qicore-encounter"]},"status":"finished","class":{"system":"http://terminology.hl7.org/CodeSystem/v3-ActCode","code":"AMB","display":"ambulatory"},"type":[{"coding":[{"system":"http://snomed.info/sct","version":"2022-03","code":"444971000124105","display":"Annual wellness visit (procedure)","userSelected":true}]}],"subject":{"reference":"Patient/f9a03175-0a16-4c4a-97d5-f7b38e359526"},"period":{"start":"2025-01-01T08:00:00.000+00:00","end":"2025-01-01T09:15:00.000+00:00"}},"request":{"method":"PUT","url":"Encounter/c43c67b2-8d93-4551-9098-be4009eec51a"}},{"fullUrl":"https://madie.cms.gov/MedicationRequest/low-intensity-statin-therapy-390f","resource":{"resourceType":"MedicationRequest","id":"b01e2718-c02d-4093-afc0-994092ec0e00","meta":{"profile":["http://hl7.org/fhir/us/qicore/StructureDefinition/qicore-medicationrequest"]},"status":"active","intent":"order","doNotPerform":false,"medicationCodeableConcept":{"coding":[{"system":"http://www.nlm.nih.gov/research/umls/rxnorm","code":"1790679","display":"simvastatin 4 MG/ML Oral Suspension","userSelected":true}]},"subject":{"reference":"Patient/f9a03175-0a16-4c4a-97d5-f7b38e359526"},"authoredOn":"2025-01-01T08:00:00.000+00:00","requester":{"reference":"Practitioner/example"}},"request":{"method":"PUT","url":"MedicationRequest/b01e2718-c02d-4093-afc0-994092ec0e00"}},{"fullUrl":"https://madie.cms.gov/Observation/cardiovascular-disease-10y-risk-likelihood-5edb","resource":{"resourceType":"Observation","id":"1fbda1fd-fa7c-488f-a171-338089fb122b","meta":{"profile":["http://hl7.org/fhir/us/qicore/StructureDefinition/qicore-observation"]},"status":"final","category":[{"coding":[{"system":"http://terminology.hl7.org/CodeSystem/observation-category","code":"procedure","display":"Procedure"}]}],"code":{"coding":[{"system":"http://loinc.org","code":"99055-6","display":"Cardiovascular disease 10Y risk [Likelihood]","userSelected":true}]},"subject":{"reference":"Patient/f9a03175-0a16-4c4a-97d5-f7b38e359526"},"effectiveDateTime":"2025-01-01T08:00:00.000+00:00","valueQuantity":{"value":20.0,"unit":"%","system":"http://unitsofmeasure.org","code":"%"}},"request":{"method":"PUT","url":"Observation/1fbda1fd-fa7c-488f-a171-338089fb122b"}},{"fullUrl":"https://madie.cms.gov/Coverage/1","resource":{"resourceType":"Coverage","id":"e64f7ece-3f47-4cf9-a8e7-1c300e903054","meta":{"profile":["http://hl7.org/fhir/us/qicore/StructureDefinition/qicore-coverage"]},"status":"active","beneficiary":{"reference":"Patient/f9a03175-0a16-4c4a-97d5-f7b38e359526"},"payor":[{"reference":"Organization/42846cc3-1db0-4bf7-b9ff-8b81fa6e835d"}]},"request":{"method":"PUT","url":"Coverage/e64f7ece-3f47-4cf9-a8e7-1c300e903054"}},{"fullUrl":"https://madie.cms.gov/Organization/123456","resource":{"resourceType":"Organization","id":"42846cc3-1db0-4bf7-b9ff-8b81fa6e835d","meta":{"profile":["http://hl7.org/fhir/us/qicore/StructureDefinition/qicore-organization"]},"identifier":[{"use":"temp","system":"urn:oid:2.16.840.1.113883.4.4","value":"21-3259825"}],"active":true,"type":[{"coding":[{"system":"http://terminology.hl7.org/CodeSystem/organization-type","code":"pay","display":"Payer"}]}],"name":"Blue Cross Blue Shield of Texas","telecom":[{"system":"phone","value":"(+1) 972-766-6900"}],"address":[{"use":"billing","type":"postal","line":["P.O. Box 660044"],"city":"Dallas","state":"TX","postalCode":"75266-0044","country":"USA"}]},"request":{"method":"PUT","url":"Organization/42846cc3-1db0-4bf7-b9ff-8b81fa6e835d"}},{"fullUrl":"https://madie.cms.gov/Practitioner/practitioner-123456","resource":{"resourceType":"Practitioner","id":"9edc57dd-1fc4-4caa-997a-5965e720861d","meta":{"profile":["http://hl7.org/fhir/us/qicore/StructureDefinition/qicore-practitioner"]},"identifier":[{"system":"http://hl7.org/fhir/sid/us-npi","value":"123456"}],"name":[{"family":"Evil","prefix":["Dr"]}]},"request":{"method":"PUT","url":"Practitioner/9edc57dd-1fc4-4caa-997a-5965e720861d"}},{"fullUrl":"https://madie.cms.gov/MeasureReport/8a072c50-851a-4ac1-89eb-4d7fa9720c4f","resource":{"resourceType":"MeasureReport","id":"8a072c50-851a-4ac1-89eb-4d7fa9720c4f","meta":{"profile":["http://hl7.org/fhir/us/cqfmeasures/StructureDefinition/test-case-cqfm"]},"contained":[{"resourceType":"Parameters","id":"a6495b2d-aff6-4bac-bc4f-403194444be0-parameters","parameter":[{"name":"subject","valueString":"f9a03175-0a16-4c4a-97d5-f7b38e359526"}]}],"extension":[{"url":"http://hl7.org/fhir/us/cqfmeasures/StructureDefinition/cqfm-inputParameters","valueReference":{"reference":"#a6495b2d-aff6-4bac-bc4f-403194444be0-parameters"}},{"url":"http://hl7.org/fhir/us/cqfmeasures/StructureDefinition/cqfm-testCaseDescription","valueMarkdown":"Forty year old with an encounter with 10 risk assessment at 20%, order for low statin, expected to pass the numer for pop 4"}],"modifierExtension":[{"url":"http://hl7.org/fhir/us/cqfmeasures/StructureDefinition/cqfm-isTestCase","valueBoolean":true}],"status":"complete","type":"individual","measure":"https://madie.cms.gov/Measure/StatinTherapyforthePreventionandTreatmentofCardiovascularDiseaseFHIR","period":{"start":"2025-01-01","end":"2025-12-31"},"group":[{"population":[{"code":{"coding":[{"system":"http://terminology.hl7.org/CodeSystem/measure-population","code":"initial-population","display":"Initial Population"}]},"count":0},{"code":{"coding":[{"system":"http://terminology.hl7.org/CodeSystem/measure-population","code":"denominator","display":"Denominator"}]},"count":0},{"code":{"coding":[{"system":"http://terminology.hl7.org/CodeSystem/measure-population","code":"denominator-exclusion","display":"Denominator Exclusion"}]},"count":0},{"code":{"coding":[{"system":"http://terminology.hl7.org/CodeSystem/measure-population","code":"numerator","display":"Numerator"}]},"count":0},{"code":{"coding":[{"system":"http://terminology.hl7.org/CodeSystem/measure-population","code":"denominator-exception","display":"Denominator Exception"}]},"count":0}]},{"population":[{"code":{"coding":[{"system":"http://terminology.hl7.org/CodeSystem/measure-population","code":"initial-population","display":"Initial Population"}]},"count":0},{"code":{"coding":[{"system":"http://terminology.hl7.org/CodeSystem/measure-population","code":"denominator","display":"Denominator"}]},"count":0},{"code":{"coding":[{"system":"http://terminology.hl7.org/CodeSystem/measure-population","code":"denominator-exclusion","display":"Denominator Exclusion"}]},"count":0},{"code":{"coding":[{"system":"http://terminology.hl7.org/CodeSystem/measure-population","code":"numerator","display":"Numerator"}]},"count":0},{"code":{"coding":[{"system":"http://terminology.hl7.org/CodeSystem/measure-population","code":"denominator-exception","display":"Denominator Exception"}]},"count":0}]},{"population":[{"code":{"coding":[{"system":"http://terminology.hl7.org/CodeSystem/measure-population","code":"initial-population","display":"Initial Population"}]},"count":0},{"code":{"coding":[{"system":"http://terminology.hl7.org/CodeSystem/measure-population","code":"denominator","display":"Denominator"}]},"count":0},{"code":{"coding":[{"system":"http://terminology.hl7.org/CodeSystem/measure-population","code":"denominator-exclusion","display":"Denominator Exclusion"}]},"count":0},{"code":{"coding":[{"system":"http://terminology.hl7.org/CodeSystem/measure-population","code":"numerator","display":"Numerator"}]},"count":0},{"code":{"coding":[{"system":"http://terminology.hl7.org/CodeSystem/measure-population","code":"denominator-exception","display":"Denominator Exception"}]},"count":0}]},{"population":[{"code":{"coding":[{"system":"http://terminology.hl7.org/CodeSystem/measure-population","code":"initial-population","display":"Initial Population"}]},"count":1},{"code":{"coding":[{"system":"http://terminology.hl7.org/CodeSystem/measure-population","code":"denominator","display":"Denominator"}]},"count":1},{"code":{"coding":[{"system":"http://terminology.hl7.org/CodeSystem/measure-population","code":"denominator-exclusion","display":"Denominator Exclusion"}]},"count":0},{"code":{"coding":[{"system":"http://terminology.hl7.org/CodeSystem/measure-population","code":"numerator","display":"Numerator"}]},"count":1},{"code":{"coding":[{"system":"http://terminology.hl7.org/CodeSystem/measure-population","code":"denominator-exception","display":"Denominator Exception"}]},"count":0}]}]},"request":{"method":"PUT","url":"MeasureReport/8a072c50-851a-4ac1-89eb-4d7fa9720c4f"}}]}