{"resourceType":"Bundle","id":"tests-e55d9fc4-44e6-4f00-bf53-b82a5b646222-bundle","type":"transaction","entry":[{"fullUrl":"https://madie.cms.gov/Patient/e55d9fc4-44e6-4f00-bf53-b82a5b646222","resource":{"resourceType":"Patient","id":"e55d9fc4-44e6-4f00-bf53-b82a5b646222","meta":{"profile":["http://hl7.org/fhir/us/qicore/StructureDefinition/qicore-patient"]},"extension":[{"url":"http://hl7.org/fhir/us/core/StructureDefinition/us-core-race","extension":[{"url":"ombCategory","valueCoding":{"system":"urn:oid:2.16.840.1.113883.6.238","code":"1002-5","display":"American Indian or Alaska Native","userSelected":true}},{"url":"text","valueString":"American Indian or Alaska Native"}]},{"url":"http://hl7.org/fhir/us/core/StructureDefinition/us-core-ethnicity","extension":[{"url":"ombCategory","valueCoding":{"system":"urn:oid:2.16.840.1.113883.6.238","code":"2135-2","display":"Hispanic or Latino","userSelected":true}},{"url":"text","valueString":"Hispanic or Latino"}]}],"identifier":[{"type":{"coding":[{"system":"http://terminology.hl7.org/CodeSystem/v2-0203","code":"MR"}]},"system":"https://bonnie-fhir.healthit.gov/","value":"62fa5242ec5646118bf57448"}],"name":[{"family":"NUMERPop3Pass","given":["OrderedModIntensityStatin"]}],"gender":"male","birthDate":"1983-12-31"},"request":{"method":"PUT","url":"Patient/e55d9fc4-44e6-4f00-bf53-b82a5b646222"}},{"fullUrl":"https://madie.cms.gov/Encounter/annual-wellness-visit-390d","resource":{"resourceType":"Encounter","id":"52cbe843-fcda-4283-884f-3fba7d1d0575","meta":{"profile":["http://hl7.org/fhir/us/qicore/StructureDefinition/qicore-encounter"]},"status":"finished","class":{"system":"http://terminology.hl7.org/CodeSystem/v3-ActCode","code":"AMB","display":"ambulatory"},"type":[{"coding":[{"system":"http://snomed.info/sct","version":"2022-03","code":"444971000124105","display":"Annual wellness visit (procedure)","userSelected":true}]}],"subject":{"reference":"Patient/e55d9fc4-44e6-4f00-bf53-b82a5b646222"},"period":{"start":"2025-12-31T08:00:00.000+00:00","end":"2025-12-31T09:15:00.000+00:00"}},"request":{"method":"PUT","url":"Encounter/52cbe843-fcda-4283-884f-3fba7d1d0575"}},{"fullUrl":"https://madie.cms.gov/MedicationRequest/low-intensity-statin-therapy-390f","resource":{"resourceType":"MedicationRequest","id":"a4e19c64-8032-4b8c-a86e-2d8ec6c16e6f","meta":{"profile":["http://hl7.org/fhir/us/qicore/StructureDefinition/qicore-medicationrequest"]},"status":"active","intent":"order","doNotPerform":false,"medicationCodeableConcept":{"coding":[{"system":"http://www.nlm.nih.gov/research/umls/rxnorm","code":"597980","display":"amlodipine 5 MG / atorvastatin 20 MG Oral Tablet","userSelected":true}]},"subject":{"reference":"Patient/e55d9fc4-44e6-4f00-bf53-b82a5b646222"},"authoredOn":"2025-12-31T08:00:00.000+00:00","requester":{"reference":"Practitioner/example"}},"request":{"method":"PUT","url":"MedicationRequest/a4e19c64-8032-4b8c-a86e-2d8ec6c16e6f"}},{"fullUrl":"https://madie.cms.gov/Condition/diabetes-7449","resource":{"resourceType":"Condition","id":"d713c2b9-9cb3-423e-8f9f-9450018e32e4","meta":{"profile":["http://hl7.org/fhir/us/qicore/StructureDefinition/qicore-condition"]},"clinicalStatus":{"coding":[{"system":"http://terminology.hl7.org/CodeSystem/condition-clinical","code":"active","display":"Active","userSelected":true}]},"category":[{"coding":[{"system":"http://terminology.hl7.org/CodeSystem/condition-category","code":"problem-list-item","display":"Problem List Item"}]}],"code":{"coding":[{"system":"http://snomed.info/sct","version":"2022-03","code":"102781000119107","display":"Sensory neuropathy due to type 1 diabetes mellitus (disorder)","userSelected":true}]},"subject":{"reference":"Patient/e55d9fc4-44e6-4f00-bf53-b82a5b646222"},"onsetPeriod":{"start":"2025-12-31T08:00:00.000+00:00"}},"request":{"method":"PUT","url":"Condition/d713c2b9-9cb3-423e-8f9f-9450018e32e4"}},{"fullUrl":"https://madie.cms.gov/Coverage/1","resource":{"resourceType":"Coverage","id":"c57fb97b-03dc-4b9a-8b90-a26bbcb11dce","meta":{"profile":["http://hl7.org/fhir/us/qicore/StructureDefinition/qicore-coverage"]},"status":"active","beneficiary":{"reference":"Patient/e55d9fc4-44e6-4f00-bf53-b82a5b646222"},"payor":[{"reference":"Organization/33ead57e-5e04-40e4-95ea-bc3cdbd58917"}]},"request":{"method":"PUT","url":"Coverage/c57fb97b-03dc-4b9a-8b90-a26bbcb11dce"}},{"fullUrl":"https://madie.cms.gov/Organization/123456","resource":{"resourceType":"Organization","id":"33ead57e-5e04-40e4-95ea-bc3cdbd58917","meta":{"profile":["http://hl7.org/fhir/us/qicore/StructureDefinition/qicore-organization"]},"identifier":[{"use":"temp","system":"urn:oid:2.16.840.1.113883.4.4","value":"21-3259825"}],"active":true,"type":[{"coding":[{"system":"http://terminology.hl7.org/CodeSystem/organization-type","code":"pay","display":"Payer"}]}],"name":"Blue Cross Blue Shield of Texas","telecom":[{"system":"phone","value":"(+1) 972-766-6900"}],"address":[{"use":"billing","type":"postal","line":["P.O. Box 660044"],"city":"Dallas","state":"TX","postalCode":"75266-0044","country":"USA"}]},"request":{"method":"PUT","url":"Organization/33ead57e-5e04-40e4-95ea-bc3cdbd58917"}},{"fullUrl":"https://madie.cms.gov/Practitioner/practitioner-123456","resource":{"resourceType":"Practitioner","id":"edce415a-f7ce-4708-be9a-a6c7ee7a9a55","meta":{"profile":["http://hl7.org/fhir/us/qicore/StructureDefinition/qicore-practitioner"]},"identifier":[{"system":"http://hl7.org/fhir/sid/us-npi","value":"123456"}],"name":[{"family":"Evil","prefix":["Dr"]}]},"request":{"method":"PUT","url":"Practitioner/edce415a-f7ce-4708-be9a-a6c7ee7a9a55"}},{"fullUrl":"https://madie.cms.gov/MeasureReport/450bef73-1c7e-4eed-9415-5c420fdad36d","resource":{"resourceType":"MeasureReport","id":"450bef73-1c7e-4eed-9415-5c420fdad36d","meta":{"profile":["http://hl7.org/fhir/us/cqfmeasures/StructureDefinition/test-case-cqfm"]},"contained":[{"resourceType":"Parameters","id":"b5cac62d-1774-46d5-964f-c974f4c634e8-parameters","parameter":[{"name":"subject","valueString":"e55d9fc4-44e6-4f00-bf53-b82a5b646222"}]}],"extension":[{"url":"http://hl7.org/fhir/us/cqfmeasures/StructureDefinition/cqfm-inputParameters","valueReference":{"reference":"#b5cac62d-1774-46d5-964f-c974f4c634e8-parameters"}},{"url":"http://hl7.org/fhir/us/cqfmeasures/StructureDefinition/cqfm-testCaseDescription","valueMarkdown":"Enc last day of MP, age 20, DM dx last day of MP, moderate stating ordered during enc."}],"modifierExtension":[{"url":"http://hl7.org/fhir/us/cqfmeasures/StructureDefinition/cqfm-isTestCase","valueBoolean":true}],"status":"complete","type":"individual","measure":"https://madie.cms.gov/Measure/StatinTherapyforthePreventionandTreatmentofCardiovascularDiseaseFHIR","period":{"start":"2025-01-01","end":"2025-12-31"},"group":[{"population":[{"code":{"coding":[{"system":"http://terminology.hl7.org/CodeSystem/measure-population","code":"initial-population","display":"Initial Population"}]},"count":0},{"code":{"coding":[{"system":"http://terminology.hl7.org/CodeSystem/measure-population","code":"denominator","display":"Denominator"}]},"count":0},{"code":{"coding":[{"system":"http://terminology.hl7.org/CodeSystem/measure-population","code":"denominator-exclusion","display":"Denominator Exclusion"}]},"count":0},{"code":{"coding":[{"system":"http://terminology.hl7.org/CodeSystem/measure-population","code":"numerator","display":"Numerator"}]},"count":0},{"code":{"coding":[{"system":"http://terminology.hl7.org/CodeSystem/measure-population","code":"denominator-exception","display":"Denominator Exception"}]},"count":0}]},{"population":[{"code":{"coding":[{"system":"http://terminology.hl7.org/CodeSystem/measure-population","code":"initial-population","display":"Initial Population"}]},"count":0},{"code":{"coding":[{"system":"http://terminology.hl7.org/CodeSystem/measure-population","code":"denominator","display":"Denominator"}]},"count":0},{"code":{"coding":[{"system":"http://terminology.hl7.org/CodeSystem/measure-population","code":"denominator-exclusion","display":"Denominator Exclusion"}]},"count":0},{"code":{"coding":[{"system":"http://terminology.hl7.org/CodeSystem/measure-population","code":"numerator","display":"Numerator"}]},"count":0},{"code":{"coding":[{"system":"http://terminology.hl7.org/CodeSystem/measure-population","code":"denominator-exception","display":"Denominator Exception"}]},"count":0}]},{"population":[{"code":{"coding":[{"system":"http://terminology.hl7.org/CodeSystem/measure-population","code":"initial-population","display":"Initial Population"}]},"count":1},{"code":{"coding":[{"system":"http://terminology.hl7.org/CodeSystem/measure-population","code":"denominator","display":"Denominator"}]},"count":1},{"code":{"coding":[{"system":"http://terminology.hl7.org/CodeSystem/measure-population","code":"denominator-exclusion","display":"Denominator Exclusion"}]},"count":0},{"code":{"coding":[{"system":"http://terminology.hl7.org/CodeSystem/measure-population","code":"numerator","display":"Numerator"}]},"count":1},{"code":{"coding":[{"system":"http://terminology.hl7.org/CodeSystem/measure-population","code":"denominator-exception","display":"Denominator Exception"}]},"count":0}]},{"population":[{"code":{"coding":[{"system":"http://terminology.hl7.org/CodeSystem/measure-population","code":"initial-population","display":"Initial Population"}]},"count":0},{"code":{"coding":[{"system":"http://terminology.hl7.org/CodeSystem/measure-population","code":"denominator","display":"Denominator"}]},"count":0},{"code":{"coding":[{"system":"http://terminology.hl7.org/CodeSystem/measure-population","code":"denominator-exclusion","display":"Denominator Exclusion"}]},"count":0},{"code":{"coding":[{"system":"http://terminology.hl7.org/CodeSystem/measure-population","code":"numerator","display":"Numerator"}]},"count":0},{"code":{"coding":[{"system":"http://terminology.hl7.org/CodeSystem/measure-population","code":"denominator-exception","display":"Denominator Exception"}]},"count":0}]}]},"request":{"method":"PUT","url":"MeasureReport/450bef73-1c7e-4eed-9415-5c420fdad36d"}}]}