{"resourceType":"Bundle","id":"tests-0784160c-98b6-43a2-baa1-77ea9f3fe884-bundle","type":"transaction","entry":[{"fullUrl":"https://madie.cms.gov/Patient/0784160c-98b6-43a2-baa1-77ea9f3fe884","resource":{"resourceType":"Patient","id":"0784160c-98b6-43a2-baa1-77ea9f3fe884","meta":{"profile":["http://hl7.org/fhir/us/qicore/StructureDefinition/qicore-patient"]},"extension":[{"url":"http://hl7.org/fhir/us/core/StructureDefinition/us-core-race","extension":[{"url":"ombCategory","valueCoding":{"system":"urn:oid:2.16.840.1.113883.6.238","code":"2054-5","display":"Black or African American","userSelected":true}},{"url":"text","valueString":"Black or African American"}]},{"url":"http://hl7.org/fhir/us/core/StructureDefinition/us-core-ethnicity","extension":[{"url":"ombCategory","valueCoding":{"system":"urn:oid:2.16.840.1.113883.6.238","code":"2186-5","display":"Not Hispanic or Latino","userSelected":true}},{"url":"text","valueString":"Not Hispanic or Latino"}]}],"identifier":[{"type":{"coding":[{"system":"http://terminology.hl7.org/CodeSystem/v2-0203","code":"MR"}]},"system":"https://bonnie-fhir.healthit.gov/","value":"645050ba07f33d7a42c11730"}],"name":[{"family":"DENEXCEPop4Pass","given":["HospiceCareEncounter"]}],"gender":"female","birthDate":"1949-12-31"},"request":{"method":"PUT","url":"Patient/0784160c-98b6-43a2-baa1-77ea9f3fe884"}},{"fullUrl":"https://madie.cms.gov/Encounter/unlisted-preventive-medicine-service-d4bb","resource":{"resourceType":"Encounter","id":"848f29a4-23be-4f15-b7e8-6bc52baf1a1b","meta":{"profile":["http://hl7.org/fhir/us/qicore/StructureDefinition/qicore-encounter"]},"status":"finished","class":{"system":"http://terminology.hl7.org/CodeSystem/v3-ActCode","code":"AMB","display":"ambulatory"},"type":[{"coding":[{"system":"http://www.ama-assn.org/go/cpt","code":"99396","display":"Periodic comprehensive preventive medicine reevaluation","userSelected":true}]}],"subject":{"reference":"Patient/0784160c-98b6-43a2-baa1-77ea9f3fe884"},"period":{"start":"2025-01-01T08:00:00.000+00:00","end":"2025-01-01T08:30:00.000+00:00"}},"request":{"method":"PUT","url":"Encounter/848f29a4-23be-4f15-b7e8-6bc52baf1a1b"}},{"fullUrl":"https://madie.cms.gov/Encounter/hospice-encounter-35ca","resource":{"resourceType":"Encounter","id":"538d4d83-a2d4-4a17-a7aa-9faf77f81bce","meta":{"profile":["http://hl7.org/fhir/us/qicore/StructureDefinition/qicore-encounter"]},"status":"finished","class":{"system":"http://terminology.hl7.org/CodeSystem/v3-ActCode","code":"AMB","display":"ambulatory"},"type":[{"coding":[{"system":"http://snomed.info/sct","version":"2022-03","code":"183919006","display":"Urgent admission to hospice (procedure)","userSelected":true}]}],"subject":{"reference":"Patient/0784160c-98b6-43a2-baa1-77ea9f3fe884"},"period":{"start":"2025-12-31T08:00:00.000+00:00"}},"request":{"method":"PUT","url":"Encounter/538d4d83-a2d4-4a17-a7aa-9faf77f81bce"}},{"fullUrl":"https://madie.cms.gov/Encounter/hospice-encounter-1731","resource":{"resourceType":"Encounter","id":"a439e851-405b-49d9-8559-ee2fc2025a35","meta":{"profile":["http://hl7.org/fhir/us/qicore/StructureDefinition/qicore-encounter"]},"status":"finished","class":{"system":"http://terminology.hl7.org/CodeSystem/v3-ActCode","code":"AMB","display":"ambulatory"},"type":[{"coding":[{"system":"http://snomed.info/sct","version":"2022-09","code":"183919006","display":"Urgent admission to hospice (procedure)","userSelected":true}]}],"subject":{"reference":"Patient/0784160c-98b6-43a2-baa1-77ea9f3fe884"},"period":{"start":"2025-05-01T08:00:00.000+00:00","end":"2025-05-01T08:15:00.000+00:00"}},"request":{"method":"PUT","url":"Encounter/a439e851-405b-49d9-8559-ee2fc2025a35"}},{"fullUrl":"https://madie.cms.gov/Observation/cardiovascular-disease-10y-risk-goff-2013-1732","resource":{"resourceType":"Observation","id":"01dfc3b1-4978-47d0-939e-35fbdb350a35","meta":{"profile":["http://hl7.org/fhir/us/qicore/StructureDefinition/qicore-observation"]},"status":"final","category":[{"coding":[{"system":"http://terminology.hl7.org/CodeSystem/observation-category","code":"procedure","display":"Procedure"}]}],"code":{"coding":[{"system":"http://loinc.org","code":"79423-0","display":"Cardiovascular disease 10Y risk [Likelihood] ACC-AHA Pooled Cohort by Goff 2013","userSelected":true}]},"subject":{"reference":"Patient/0784160c-98b6-43a2-baa1-77ea9f3fe884"},"effectiveDateTime":"2025-05-01T08:00:00.000+00:00","valueQuantity":{"value":20.0,"unit":"%","system":"http://unitsofmeasure.org","code":"%"}},"request":{"method":"PUT","url":"Observation/01dfc3b1-4978-47d0-939e-35fbdb350a35"}},{"fullUrl":"https://madie.cms.gov/Coverage/1","resource":{"resourceType":"Coverage","id":"d9c5cfe2-931d-48a7-9aed-79a55cc03921","meta":{"profile":["http://hl7.org/fhir/us/qicore/StructureDefinition/qicore-coverage"]},"status":"active","beneficiary":{"reference":"Patient/0784160c-98b6-43a2-baa1-77ea9f3fe884"},"payor":[{"reference":"Organization/9e9b3f13-a353-4173-b29b-947d6f1f2031"}]},"request":{"method":"PUT","url":"Coverage/d9c5cfe2-931d-48a7-9aed-79a55cc03921"}},{"fullUrl":"https://madie.cms.gov/Organization/123456","resource":{"resourceType":"Organization","id":"9e9b3f13-a353-4173-b29b-947d6f1f2031","meta":{"profile":["http://hl7.org/fhir/us/qicore/StructureDefinition/qicore-organization"]},"identifier":[{"use":"temp","system":"urn:oid:2.16.840.1.113883.4.4","value":"21-3259825"}],"active":true,"type":[{"coding":[{"system":"http://terminology.hl7.org/CodeSystem/organization-type","code":"pay","display":"Payer"}]}],"name":"Blue Cross Blue Shield of Texas","telecom":[{"system":"phone","value":"(+1) 972-766-6900"}],"address":[{"use":"billing","type":"postal","line":["P.O. Box 660044"],"city":"Dallas","state":"TX","postalCode":"75266-0044","country":"USA"}]},"request":{"method":"PUT","url":"Organization/9e9b3f13-a353-4173-b29b-947d6f1f2031"}},{"fullUrl":"https://madie.cms.gov/Practitioner/practitioner-123456","resource":{"resourceType":"Practitioner","id":"aa9a8548-0167-4016-aa88-8555c3faedeb","meta":{"profile":["http://hl7.org/fhir/us/qicore/StructureDefinition/qicore-practitioner"]},"identifier":[{"system":"http://hl7.org/fhir/sid/us-npi","value":"123456"}],"name":[{"family":"Evil","prefix":["Dr"]}]},"request":{"method":"PUT","url":"Practitioner/aa9a8548-0167-4016-aa88-8555c3faedeb"}},{"fullUrl":"https://madie.cms.gov/MeasureReport/056347dc-bb21-4db0-b3c5-232406ede147","resource":{"resourceType":"MeasureReport","id":"056347dc-bb21-4db0-b3c5-232406ede147","meta":{"profile":["http://hl7.org/fhir/us/cqfmeasures/StructureDefinition/test-case-cqfm"]},"contained":[{"resourceType":"Parameters","id":"0829e2e0-beaf-4514-83a7-3e8471762635-parameters","parameter":[{"name":"subject","valueString":"0784160c-98b6-43a2-baa1-77ea9f3fe884"}]}],"extension":[{"url":"http://hl7.org/fhir/us/cqfmeasures/StructureDefinition/cqfm-inputParameters","valueReference":{"reference":"#0829e2e0-beaf-4514-83a7-3e8471762635-parameters"}},{"url":"http://hl7.org/fhir/us/cqfmeasures/StructureDefinition/cqfm-testCaseDescription","valueMarkdown":"Age 75 at start of MP, has finished encounter,  10 yr ASCVD assessment = 20%, expect to pass denexcep d/t hospice encounter"}],"modifierExtension":[{"url":"http://hl7.org/fhir/us/cqfmeasures/StructureDefinition/cqfm-isTestCase","valueBoolean":true}],"status":"complete","type":"individual","measure":"https://madie.cms.gov/Measure/StatinTherapyforthePreventionandTreatmentofCardiovascularDiseaseFHIR","period":{"start":"2025-01-01","end":"2025-12-31"},"group":[{"population":[{"code":{"coding":[{"system":"http://terminology.hl7.org/CodeSystem/measure-population","code":"initial-population","display":"Initial Population"}]},"count":0},{"code":{"coding":[{"system":"http://terminology.hl7.org/CodeSystem/measure-population","code":"denominator","display":"Denominator"}]},"count":0},{"code":{"coding":[{"system":"http://terminology.hl7.org/CodeSystem/measure-population","code":"denominator-exclusion","display":"Denominator Exclusion"}]},"count":0},{"code":{"coding":[{"system":"http://terminology.hl7.org/CodeSystem/measure-population","code":"numerator","display":"Numerator"}]},"count":0},{"code":{"coding":[{"system":"http://terminology.hl7.org/CodeSystem/measure-population","code":"denominator-exception","display":"Denominator Exception"}]},"count":0}]},{"population":[{"code":{"coding":[{"system":"http://terminology.hl7.org/CodeSystem/measure-population","code":"initial-population","display":"Initial Population"}]},"count":0},{"code":{"coding":[{"system":"http://terminology.hl7.org/CodeSystem/measure-population","code":"denominator","display":"Denominator"}]},"count":0},{"code":{"coding":[{"system":"http://terminology.hl7.org/CodeSystem/measure-population","code":"denominator-exclusion","display":"Denominator Exclusion"}]},"count":0},{"code":{"coding":[{"system":"http://terminology.hl7.org/CodeSystem/measure-population","code":"numerator","display":"Numerator"}]},"count":0},{"code":{"coding":[{"system":"http://terminology.hl7.org/CodeSystem/measure-population","code":"denominator-exception","display":"Denominator Exception"}]},"count":0}]},{"population":[{"code":{"coding":[{"system":"http://terminology.hl7.org/CodeSystem/measure-population","code":"initial-population","display":"Initial Population"}]},"count":0},{"code":{"coding":[{"system":"http://terminology.hl7.org/CodeSystem/measure-population","code":"denominator","display":"Denominator"}]},"count":0},{"code":{"coding":[{"system":"http://terminology.hl7.org/CodeSystem/measure-population","code":"denominator-exclusion","display":"Denominator Exclusion"}]},"count":0},{"code":{"coding":[{"system":"http://terminology.hl7.org/CodeSystem/measure-population","code":"numerator","display":"Numerator"}]},"count":0},{"code":{"coding":[{"system":"http://terminology.hl7.org/CodeSystem/measure-population","code":"denominator-exception","display":"Denominator Exception"}]},"count":0}]},{"population":[{"code":{"coding":[{"system":"http://terminology.hl7.org/CodeSystem/measure-population","code":"initial-population","display":"Initial Population"}]},"count":1},{"code":{"coding":[{"system":"http://terminology.hl7.org/CodeSystem/measure-population","code":"denominator","display":"Denominator"}]},"count":1},{"code":{"coding":[{"system":"http://terminology.hl7.org/CodeSystem/measure-population","code":"denominator-exclusion","display":"Denominator Exclusion"}]},"count":0},{"code":{"coding":[{"system":"http://terminology.hl7.org/CodeSystem/measure-population","code":"numerator","display":"Numerator"}]},"count":0},{"code":{"coding":[{"system":"http://terminology.hl7.org/CodeSystem/measure-population","code":"denominator-exception","display":"Denominator Exception"}]},"count":1}]}]},"request":{"method":"PUT","url":"MeasureReport/056347dc-bb21-4db0-b3c5-232406ede147"}}]}