{
  "resourceType": "Bundle",
  "id": "ScreNotatriNorefNoasseDxCp",
  "type": "transaction",
  "entry": [ {
    "fullUrl": "https://madie.cms.gov/Patient/83d39f0d-48dc-4978-a8d6-6bd5a303c3a4",
    "resource": {
      "resourceType": "Patient",
      "id": "83d39f0d-48dc-4978-a8d6-6bd5a303c3a4",
      "meta": {
        "profile": [ "http://hl7.org/fhir/us/qicore/StructureDefinition/qicore-patient" ]
      },
      "text": {
        "status": "generated",
        "div": "<div xmlns=\"http://www.w3.org/1999/xhtml\"><div class=\"hapiHeaderText\">ScreNotatriNorefNoasseDxCp, , <b> </b></div><table class=\"hapiPropertyTable\"><tbody><tr><td>Identifier</td><td>ScreNotatriNorefNoasseDxCp</td></tr><tr><td>Date of birth</td><td><span>14 May 1950</span></td></tr></tbody></table></div>"
      },
      "extension": [ {
        "url": "http://hl7.org/fhir/us/core/StructureDefinition/us-core-race",
        "extension": [ {
          "url": "ombCategory",
          "valueCoding": {
            "system": "urn:oid:2.16.840.1.113883.6.238",
            "code": "2106-3",
            "display": "White",
            "userSelected": true
          }
        }, {
          "url": "text",
          "valueString": "White"
        } ]
      }, {
        "url": "http://hl7.org/fhir/us/core/StructureDefinition/us-core-ethnicity",
        "extension": [ {
          "url": "ombCategory",
          "valueCoding": {
            "system": "urn:oid:2.16.840.1.113883.6.238",
            "code": "2186-5",
            "display": "Not Hispanic or Latino",
            "userSelected": true
          }
        }, {
          "url": "text",
          "valueString": "Not Hispanic or Latino"
        } ]
      } ],
      "identifier": [ {
        "type": {
          "coding": [ {
            "system": "http://terminology.hl7.org/CodeSystem/v2-0203",
            "code": "MR"
          } ]
        },
        "system": "https://madie.cms.gov/",
        "value": "ScreNotatriNorefNoasseDxCp"
      } ],
      "active": true,
      "name": [ {
        "use": "usual",
        "text": "ScreNotatriNorefNoasseDxCp",
        "family": "denompass1",
        "given": [ "ScreNotatriNorefNoasseDxCpdenompass1" ]
      } ],
      "gender": "male",
      "birthDate": "1950-05-14",
      "address": [ {
        "text": "ScreNotatriNorefNoasseDxCp, Screened at risk Assessed Severely Malnourished Diagnosed Care Plan, ID=ScreNotatriNorefNoasseDxCp, DOB: 14 May 1950"
      } ]
    },
    "request": {
      "method": "PUT",
      "url": "Patient/83d39f0d-48dc-4978-a8d6-6bd5a303c3a4"
    }
  }, {
    "fullUrl": "https://madie.cms.gov/Encounter/ScreNotatriNorefNoasseDxCp-01",
    "resource": {
      "resourceType": "Encounter",
      "id": "ScreNotatriNorefNoasseDxCp-01",
      "meta": {
        "profile": [ "http://hl7.org/fhir/us/qicore/StructureDefinition/qicore-encounter" ]
      },
      "status": "finished",
      "class": {
        "system": "http://terminology.hl7.org/CodeSystem/v3-ActCode",
        "code": "IMP",
        "display": "inpatient encounter"
      },
      "type": [ {
        "coding": [ {
          "system": "http://snomed.info/sct",
          "code": "183452005"
        } ]
      } ],
      "subject": {
        "reference": "Patient/83d39f0d-48dc-4978-a8d6-6bd5a303c3a4"
      },
      "period": {
        "start": "2025-02-01T08:00:00.000Z",
        "end": "2025-02-07T08:15:00.000Z"
      }
    },
    "request": {
      "method": "PUT",
      "url": "Encounter/ScreNotatriNorefNoasseDxCp-01"
    }
  }, {
    "fullUrl": "https://madie.cms.gov/Condition/ScreNotatriNorefNoasseDxCp-06",
    "resource": {
      "resourceType": "Condition",
      "id": "ScreNotatriNorefNoasseDxCp-06",
      "meta": {
        "profile": [ "http://hl7.org/fhir/us/qicore/StructureDefinition/qicore-condition" ]
      },
      "clinicalStatus": {
        "coding": [ {
          "system": "http://terminology.hl7.org/CodeSystem/condition-clinical",
          "code": "active",
          "display": "Active",
          "userSelected": true
        } ]
      },
      "verificationStatus": {
        "coding": [ {
          "system": "http://terminology.hl7.org/CodeSystem/condition-ver-status",
          "code": "confirmed",
          "display": "Confirmed",
          "userSelected": true
        } ]
      },
      "category": [ {
        "coding": [ {
          "system": "http://terminology.hl7.org/CodeSystem/condition-category",
          "code": "encounter-diagnosis",
          "display": "Encounter Diagnosis",
          "userSelected": true
        } ]
      } ],
      "code": {
        "coding": [ {
          "system": "http://snomed.info/sct",
          "code": "190606006",
          "display": "Moderate protein energy malnutrition (disorder)",
          "userSelected": true
        } ]
      },
      "subject": {
        "reference": "Patient/83d39f0d-48dc-4978-a8d6-6bd5a303c3a4"
      },
      "onsetPeriod": {
        "start": "2025-02-02T08:00:00.000+00:00"
      },
      "recordedDate": "2025-02-02T11:00:00.000+00:00"
    },
    "request": {
      "method": "PUT",
      "url": "Condition/ScreNotatriNorefNoasseDxCp-06"
    }
  }, {
    "fullUrl": "https://madie.cms.gov/Observation/ScreNotatriNorefNoasseDxCp-18",
    "resource": {
      "resourceType": "Observation",
      "id": "ScreNotatriNorefNoasseDxCp-18",
      "meta": {
        "profile": [ "http://hl7.org/fhir/us/qicore/StructureDefinition/qicore-observation" ]
      },
      "status": "final",
      "category": [ {
        "coding": [ {
          "system": "http://terminology.hl7.org/CodeSystem/observation-category",
          "code": "survey",
          "display": "Survey"
        } ]
      } ],
      "code": {
        "coding": [ {
          "system": "http://loinc.org",
          "code": "98967-3",
          "display": "Nutritional Risk Screening 2002 panel",
          "userSelected": true
        } ]
      },
      "subject": {
        "reference": "Patient/83d39f0d-48dc-4978-a8d6-6bd5a303c3a4"
      },
      "effectiveDateTime": "2025-02-02T09:00:00.000+00:00",
      "valueCodeableConcept": {
        "coding": [ {
          "system": "http://snomed.info/sct",
          "code": "36823005",
          "display": "Normal diet (finding)",
          "userSelected": true
        } ]
      }
    },
    "request": {
      "method": "PUT",
      "url": "Observation/ScreNotatriNorefNoasseDxCp-18"
    }
  }, {
    "fullUrl": "https://madie.cms.gov/Procedure/ScreNotatriNorefNoasseDxCp-08",
    "resource": {
      "resourceType": "Procedure",
      "id": "ScreNotatriNorefNoasseDxCp-08",
      "meta": {
        "profile": [ "http://hl7.org/fhir/us/qicore/StructureDefinition/qicore-procedure" ]
      },
      "extension": [ {
        "url": "http://hl7.org/fhir/us/qicore/StructureDefinition/qicore-recorded",
        "valueDateTime": "2025-02-02T11:30:00.000Z"
      } ],
      "status": "completed",
      "code": {
        "coding": [ {
          "system": "http://snomed.info/sct",
          "code": "182922004",
          "display": "Dietary regime (regime/therapy)"
        } ],
        "text": "Dietary regime (regime/therapy)"
      },
      "subject": {
        "reference": "Patient/83d39f0d-48dc-4978-a8d6-6bd5a303c3a4"
      },
      "encounter": {
        "reference": "Encounter/ScreNotatriNorefNoasseDxCpdenompass1"
      },
      "performedPeriod": {
        "start": "2025-02-01T11:30:00.000Z",
        "end": "2025-02-07T08:15:00.000Z"
      }
    },
    "request": {
      "method": "PUT",
      "url": "Procedure/ScreNotatriNorefNoasseDxCp-08"
    }
  }, {
    "fullUrl": "https://madie.cms.gov/Coverage/ScreNotatriNorefNoasseDxCp-61",
    "resource": {
      "resourceType": "Coverage",
      "id": "ScreNotatriNorefNoasseDxCp-61",
      "meta": {
        "profile": [ "http://hl7.org/fhir/us/qicore/StructureDefinition/qicore-coverage" ]
      },
      "status": "active",
      "type": {
        "coding": [ {
          "system": "https://nahdo.org/sopt",
          "version": "9.2",
          "code": "11",
          "display": "Medicare Managed Care (Includes Medicare Advantage Plans)"
        } ]
      },
      "beneficiary": {
        "reference": "Patient/83d39f0d-48dc-4978-a8d6-6bd5a303c3a4"
      },
      "period": {
        "start": "2024-10-01T00:00:00+00:00"
      },
      "payor": [ {
        "reference": "Organization/ScreNotatriNorefNoasseDxCp-98"
      } ]
    },
    "request": {
      "method": "PUT",
      "url": "Coverage/ScreNotatriNorefNoasseDxCp-61"
    }
  }, {
    "fullUrl": "https://madie.cms.gov/Organization/ScreNotatriNorefNoasseDxCp-98",
    "resource": {
      "resourceType": "Organization",
      "id": "ScreNotatriNorefNoasseDxCp-98",
      "meta": {
        "profile": [ "http://hl7.org/fhir/us/qicore/StructureDefinition/qicore-organization" ]
      },
      "identifier": [ {
        "use": "temp",
        "system": "urn:oid:2.16.840.1.113883.4.4",
        "value": "21-3259825"
      } ],
      "active": true,
      "type": [ {
        "coding": [ {
          "system": "http://terminology.hl7.org/CodeSystem/organization-type",
          "code": "pay",
          "display": "Payer"
        } ]
      } ],
      "name": "Blue Cross Blue Shield of Texas",
      "telecom": [ {
        "system": "phone",
        "value": "(+1) 972-766-6900"
      } ],
      "address": [ {
        "use": "billing",
        "type": "postal",
        "line": [ "P.O. Box 660044" ],
        "city": "Dallas",
        "state": "TX",
        "postalCode": "75266-0044",
        "country": "USA"
      } ]
    },
    "request": {
      "method": "PUT",
      "url": "Organization/ScreNotatriNorefNoasseDxCp-98"
    }
  }, {
    "fullUrl": "https://madie.cms.gov/MeasureReport/83f863dc-8309-4307-b5ad-89b52099e249",
    "resource": {
      "resourceType": "MeasureReport",
      "id": "83f863dc-8309-4307-b5ad-89b52099e249",
      "meta": {
        "profile": [ "http://hl7.org/fhir/us/cqfmeasures/StructureDefinition/test-case-cqfm" ]
      },
      "contained": [ {
        "resourceType": "Parameters",
        "id": "7a1b2db4-1478-4875-b9ea-68e026bfcbaf-parameters",
        "parameter": [ {
          "name": "subject",
          "valueString": "83d39f0d-48dc-4978-a8d6-6bd5a303c3a4"
        } ]
      } ],
      "extension": [ {
        "url": "http://hl7.org/fhir/us/cqfmeasures/StructureDefinition/cqfm-inputParameters",
        "valueReference": {
          "reference": "#7a1b2db4-1478-4875-b9ea-68e026bfcbaf-parameters"
        }
      }, {
        "url": "http://hl7.org/fhir/us/cqfmeasures/StructureDefinition/cqfm-testCaseDescription",
        "valueMarkdown": "Screened, Not at Risk, No Referral, Not Assessed, Diagnosis, Nutrition Care Plan&nbsp;"
      } ],
      "modifierExtension": [ {
        "url": "http://hl7.org/fhir/us/cqfmeasures/StructureDefinition/cqfm-isTestCase",
        "valueBoolean": true
      } ],
      "status": "complete",
      "type": "individual",
      "measure": "https://madie.cms.gov/Measure/GlobalMalnutritionCompositeFHIR",
      "period": {
        "start": "2025-01-01",
        "end": "2025-12-31"
      },
      "group": [ {
        "population": [ {
          "code": {
            "coding": [ {
              "system": "http://terminology.hl7.org/CodeSystem/measure-population",
              "code": "initial-population",
              "display": "Initial Population"
            } ]
          },
          "count": 1
        }, {
          "code": {
            "coding": [ {
              "system": "http://terminology.hl7.org/CodeSystem/measure-population",
              "code": "measure-population",
              "display": "Measure Population"
            } ]
          },
          "count": 1
        }, {
          "code": {
            "coding": [ {
              "system": "http://terminology.hl7.org/CodeSystem/measure-population",
              "code": "measure-population-observation",
              "display": "Measure Population Observation"
            } ]
          },
          "count": 1
        } ]
      }, {
        "population": [ {
          "code": {
            "coding": [ {
              "system": "http://terminology.hl7.org/CodeSystem/measure-population",
              "code": "initial-population",
              "display": "Initial Population"
            } ]
          },
          "count": 1
        }, {
          "code": {
            "coding": [ {
              "system": "http://terminology.hl7.org/CodeSystem/measure-population",
              "code": "measure-population",
              "display": "Measure Population"
            } ]
          },
          "count": 1
        }, {
          "code": {
            "coding": [ {
              "system": "http://terminology.hl7.org/CodeSystem/measure-population",
              "code": "measure-population-observation",
              "display": "Measure Population Observation"
            } ]
          },
          "count": 0
        } ]
      }, {
        "population": [ {
          "code": {
            "coding": [ {
              "system": "http://terminology.hl7.org/CodeSystem/measure-population",
              "code": "initial-population",
              "display": "Initial Population"
            } ]
          },
          "count": 1
        }, {
          "code": {
            "coding": [ {
              "system": "http://terminology.hl7.org/CodeSystem/measure-population",
              "code": "measure-population",
              "display": "Measure Population"
            } ]
          },
          "count": 1
        }, {
          "code": {
            "coding": [ {
              "system": "http://terminology.hl7.org/CodeSystem/measure-population",
              "code": "measure-population-observation",
              "display": "Measure Population Observation"
            } ]
          },
          "count": 0
        } ]
      }, {
        "population": [ {
          "code": {
            "coding": [ {
              "system": "http://terminology.hl7.org/CodeSystem/measure-population",
              "code": "initial-population",
              "display": "Initial Population"
            } ]
          },
          "count": 1
        }, {
          "code": {
            "coding": [ {
              "system": "http://terminology.hl7.org/CodeSystem/measure-population",
              "code": "measure-population",
              "display": "Measure Population"
            } ]
          },
          "count": 1
        }, {
          "code": {
            "coding": [ {
              "system": "http://terminology.hl7.org/CodeSystem/measure-population",
              "code": "measure-population-observation",
              "display": "Measure Population Observation"
            } ]
          },
          "count": 0
        } ]
      }, {
        "population": [ {
          "code": {
            "coding": [ {
              "system": "http://terminology.hl7.org/CodeSystem/measure-population",
              "code": "initial-population",
              "display": "Initial Population"
            } ]
          },
          "count": 1
        }, {
          "code": {
            "coding": [ {
              "system": "http://terminology.hl7.org/CodeSystem/measure-population",
              "code": "measure-population",
              "display": "Measure Population"
            } ]
          },
          "count": 1
        }, {
          "code": {
            "coding": [ {
              "system": "http://terminology.hl7.org/CodeSystem/measure-population",
              "code": "measure-population-observation",
              "display": "Measure Population Observation"
            } ]
          },
          "count": 1
        } ]
      }, {
        "population": [ {
          "code": {
            "coding": [ {
              "system": "http://terminology.hl7.org/CodeSystem/measure-population",
              "code": "initial-population",
              "display": "Initial Population"
            } ]
          },
          "count": 1
        }, {
          "code": {
            "coding": [ {
              "system": "http://terminology.hl7.org/CodeSystem/measure-population",
              "code": "measure-population",
              "display": "Measure Population"
            } ]
          },
          "count": 1
        }, {
          "code": {
            "coding": [ {
              "system": "http://terminology.hl7.org/CodeSystem/measure-population",
              "code": "measure-population-observation",
              "display": "Measure Population Observation"
            } ]
          },
          "count": 100
        } ]
      } ],
      "evaluatedResource": [ {
        "reference": "Patient/83d39f0d-48dc-4978-a8d6-6bd5a303c3a4"
      }, {
        "reference": "Encounter/ScreNotatriNorefNoasseDxCp-01"
      }, {
        "reference": "Condition/ScreNotatriNorefNoasseDxCp-06"
      }, {
        "reference": "Observation/ScreNotatriNorefNoasseDxCp-18"
      }, {
        "reference": "Procedure/ScreNotatriNorefNoasseDxCp-08"
      }, {
        "reference": "Coverage/ScreNotatriNorefNoasseDxCp-61"
      }, {
        "reference": "Organization/ScreNotatriNorefNoasseDxCp-98"
      } ]
    },
    "request": {
      "method": "PUT",
      "url": "MeasureReport/83f863dc-8309-4307-b5ad-89b52099e249"
    }
  } ]
}
