{
  "resourceType": "Bundle",
  "id": "tests-NUMER4Fail-Num4MVStartsLT48HrsFromEndOfORProc-bundle",
  "type": "transaction",
  "entry": [ {
    "fullUrl": "https://madie.cms.gov/Encounter/9a573208-d89e-4696-89b3-be870e16e478",
    "resource": {
      "resourceType": "Encounter",
      "id": "9a573208-d89e-4696-89b3-be870e16e478",
      "meta": {
        "profile": [ "http://hl7.org/fhir/us/qicore/StructureDefinition/qicore-encounter" ]
      },
      "status": "finished",
      "class": {
        "system": "http://terminology.hl7.org/CodeSystem/v3-ActCode",
        "code": "IMP",
        "display": "inpatient encounter"
      },
      "type": [ {
        "coding": [ {
          "system": "http://snomed.info/sct",
          "code": "112689000",
          "display": "Hospital admission, elective, with complete pre-admission work-up"
        } ],
        "text": "Hospital admission, elective, with complete pre-admission work-up"
      } ],
      "priority": {
        "coding": [ {
          "system": "http://snomed.info/sct",
          "code": "103390000"
        } ]
      },
      "subject": {
        "reference": "Patient/77789a0c-8d3f-44cc-8014-75329aa8b1f3"
      },
      "period": {
        "start": "2026-04-10T08:00:00+00:00",
        "end": "2026-04-14T08:15:00+00:00"
      }
    },
    "request": {
      "method": "PUT",
      "url": "Encounter/9a573208-d89e-4696-89b3-be870e16e478"
    }
  }, {
    "fullUrl": "https://madie.cms.gov/Patient/77789a0c-8d3f-44cc-8014-75329aa8b1f3",
    "resource": {
      "resourceType": "Patient",
      "id": "77789a0c-8d3f-44cc-8014-75329aa8b1f3",
      "meta": {
        "profile": [ "http://hl7.org/fhir/us/qicore/StructureDefinition/qicore-patient" ]
      },
      "extension": [ {
        "url": "http://hl7.org/fhir/us/core/StructureDefinition/us-core-race",
        "extension": [ {
          "url": "ombCategory",
          "valueCoding": {
            "system": "urn:oid:2.16.840.1.113883.6.238",
            "code": "2054-5",
            "display": "Black or African American",
            "userSelected": true
          }
        }, {
          "url": "text",
          "valueString": "Black or African American"
        } ]
      }, {
        "url": "http://hl7.org/fhir/us/core/StructureDefinition/us-core-ethnicity",
        "extension": [ {
          "url": "ombCategory",
          "valueCoding": {
            "system": "urn:oid:2.16.840.1.113883.6.238",
            "code": "2186-5",
            "display": "Not Hispanic or Latino",
            "userSelected": true
          }
        }, {
          "url": "text",
          "valueString": "Not Hispanic or Latino"
        } ]
      } ],
      "identifier": [ {
        "type": {
          "coding": [ {
            "system": "http://terminology.hl7.org/CodeSystem/v2-0203",
            "code": "MR"
          } ]
        },
        "system": "https://bonnie-fhir.healthit.gov/",
        "value": "61152a3b98086b7a79cbd7c1"
      } ],
      "active": true,
      "name": [ {
        "use": "usual",
        "family": "NUMER4Fail",
        "given": [ "Num4MVStartsLT48HrsFromEndOfORProc" ]
      } ],
      "gender": "female",
      "birthDate": "1966-07-12"
    },
    "request": {
      "method": "PUT",
      "url": "Patient/77789a0c-8d3f-44cc-8014-75329aa8b1f3"
    }
  }, {
    "fullUrl": "https://madie.cms.gov/Procedure/8f1c2c43-344e-4431-8583-a2bca9414274",
    "resource": {
      "resourceType": "Procedure",
      "id": "8f1c2c43-344e-4431-8583-a2bca9414274",
      "meta": {
        "profile": [ "http://hl7.org/fhir/us/qicore/StructureDefinition/qicore-procedure" ]
      },
      "extension": [ {
        "url": "http://hl7.org/fhir/us/qicore/StructureDefinition/qicore-recorded",
        "valueDateTime": "2026-04-11T10:15:00+00:00"
      } ],
      "status": "completed",
      "category": {
        "coding": [ {
          "system": "http://snomed.info/sct",
          "code": "18286008",
          "display": "General or neuraxial anesthesia"
        } ]
      },
      "code": {
        "coding": [ {
          "system": "http://snomed.info/sct",
          "code": "112943005",
          "display": "Epidural injection of anesthetic substance, diagnostic, caudal, continuous"
        } ]
      },
      "subject": {
        "reference": "Patient/77789a0c-8d3f-44cc-8014-75329aa8b1f3"
      },
      "performedPeriod": {
        "start": "2026-04-11T08:00:00+00:00",
        "end": "2026-04-11T10:15:00+00:00"
      }
    },
    "request": {
      "method": "PUT",
      "url": "Procedure/8f1c2c43-344e-4431-8583-a2bca9414274"
    }
  }, {
    "fullUrl": "https://madie.cms.gov/Procedure/48614bfa-270d-4535-b67d-4962ae7b6b80",
    "resource": {
      "resourceType": "Procedure",
      "id": "48614bfa-270d-4535-b67d-4962ae7b6b80",
      "meta": {
        "profile": [ "http://hl7.org/fhir/us/qicore/StructureDefinition/qicore-procedure" ]
      },
      "extension": [ {
        "url": "http://hl7.org/fhir/us/qicore/StructureDefinition/qicore-recorded",
        "valueDateTime": "2026-04-13T11:20:30+00:00"
      } ],
      "status": "completed",
      "code": {
        "coding": [ {
          "system": "http://snomed.info/sct",
          "code": "243141005",
          "display": "Mechanically assisted spontaneous ventilation"
        } ],
        "text": "Mechanically assisted spontaneous ventilation"
      },
      "subject": {
        "reference": "Patient/77789a0c-8d3f-44cc-8014-75329aa8b1f3"
      },
      "performedPeriod": {
        "start": "2026-04-13T10:14:00+00:00",
        "end": "2026-04-13T11:15:00+00:00"
      }
    },
    "request": {
      "method": "PUT",
      "url": "Procedure/48614bfa-270d-4535-b67d-4962ae7b6b80"
    }
  }, {
    "fullUrl": "https://madie.cms.gov/MeasureReport/44a8f0ca-6a75-40b5-93ea-d14fd51a5143",
    "resource": {
      "resourceType": "MeasureReport",
      "id": "44a8f0ca-6a75-40b5-93ea-d14fd51a5143",
      "meta": {
        "profile": [ "http://hl7.org/fhir/us/cqfmeasures/StructureDefinition/test-case-cqfm" ]
      },
      "contained": [ {
        "resourceType": "Parameters",
        "id": "4dd2d3b3-f9af-4535-9781-4c84d5e5f470-parameters",
        "parameter": [ {
          "name": "subject",
          "valueString": "77789a0c-8d3f-44cc-8014-75329aa8b1f3"
        } ]
      } ],
      "extension": [ {
        "url": "http://hl7.org/fhir/us/cqfmeasures/StructureDefinition/cqfm-inputParameters",
        "valueReference": {
          "reference": "#4dd2d3b3-f9af-4535-9781-4c84d5e5f470-parameters"
        }
      }, {
        "url": "http://hl7.org/fhir/us/cqfmeasures/StructureDefinition/cqfm-testCaseDescription",
        "valueMarkdown": "Elective hospitalization with procedure (general anesthesia) within first 3 days of encounter. Mech ventilation starts 1 minute shy of  48 hours from end of OR proc. Edge case, Numer4 Fails. MV must start >= 48 hours after end of proc. "
      } ],
      "modifierExtension": [ {
        "url": "http://hl7.org/fhir/us/cqfmeasures/StructureDefinition/cqfm-isTestCase",
        "valueBoolean": true
      } ],
      "status": "complete",
      "type": "individual",
      "measure": "https://madie.cms.gov/Measure/CMS1218HHRFFHIR",
      "period": {
        "start": "2026-01-01",
        "end": "2026-12-31"
      },
      "group": [ {
        "population": [ {
          "code": {
            "coding": [ {
              "system": "http://terminology.hl7.org/CodeSystem/measure-population",
              "code": "initial-population",
              "display": "Initial Population"
            } ]
          },
          "count": 1
        }, {
          "code": {
            "coding": [ {
              "system": "http://terminology.hl7.org/CodeSystem/measure-population",
              "code": "denominator",
              "display": "Denominator"
            } ]
          },
          "count": 1
        }, {
          "code": {
            "coding": [ {
              "system": "http://terminology.hl7.org/CodeSystem/measure-population",
              "code": "denominator-exclusion",
              "display": "Denominator Exclusion"
            } ]
          },
          "count": 0
        }, {
          "code": {
            "coding": [ {
              "system": "http://terminology.hl7.org/CodeSystem/measure-population",
              "code": "numerator",
              "display": "Numerator"
            } ]
          },
          "count": 0
        } ]
      } ],
      "evaluatedResource": [ {
        "reference": "Encounter/9a573208-d89e-4696-89b3-be870e16e478"
      }, {
        "reference": "Patient/77789a0c-8d3f-44cc-8014-75329aa8b1f3"
      }, {
        "reference": "Procedure/8f1c2c43-344e-4431-8583-a2bca9414274"
      }, {
        "reference": "Procedure/48614bfa-270d-4535-b67d-4962ae7b6b80"
      } ]
    },
    "request": {
      "method": "PUT",
      "url": "MeasureReport/44a8f0ca-6a75-40b5-93ea-d14fd51a5143"
    }
  } ]
}