{
  "resourceType": "Bundle",
  "id": "tests-NUMERPass-Num2O2BtwnGATandMV-bundle",
  "type": "transaction",
  "entry": [ {
    "fullUrl": "https://madie.cms.gov/Encounter/62ebedbf-94ae-495e-9606-9957071590fa",
    "resource": {
      "resourceType": "Encounter",
      "id": "62ebedbf-94ae-495e-9606-9957071590fa",
      "meta": {
        "profile": [ "http://hl7.org/fhir/us/qicore/StructureDefinition/qicore-encounter" ]
      },
      "status": "finished",
      "class": {
        "system": "http://terminology.hl7.org/CodeSystem/v3-ActCode",
        "code": "IMP",
        "display": "inpatient encounter"
      },
      "type": [ {
        "coding": [ {
          "system": "http://snomed.info/sct",
          "code": "112689000",
          "display": "Hospital admission, elective, with complete pre-admission work-up"
        } ],
        "text": "Hospital admission, elective, with complete pre-admission work-up"
      } ],
      "priority": {
        "coding": [ {
          "system": "http://snomed.info/sct",
          "code": "103390000"
        } ]
      },
      "subject": {
        "reference": "Patient/2f3ae88b-8fc4-4941-a2a3-09ae9e134c84"
      },
      "period": {
        "start": "2026-05-04T11:00:00+00:00",
        "end": "2026-05-13T08:15:00+00:00"
      }
    },
    "request": {
      "method": "PUT",
      "url": "Encounter/62ebedbf-94ae-495e-9606-9957071590fa"
    }
  }, {
    "fullUrl": "https://madie.cms.gov/Patient/2f3ae88b-8fc4-4941-a2a3-09ae9e134c84",
    "resource": {
      "resourceType": "Patient",
      "id": "2f3ae88b-8fc4-4941-a2a3-09ae9e134c84",
      "meta": {
        "profile": [ "http://hl7.org/fhir/us/qicore/StructureDefinition/qicore-patient" ]
      },
      "extension": [ {
        "url": "http://hl7.org/fhir/us/core/StructureDefinition/us-core-race",
        "extension": [ {
          "url": "ombCategory",
          "valueCoding": {
            "system": "urn:oid:2.16.840.1.113883.6.238",
            "code": "2054-5",
            "display": "Black or African American",
            "userSelected": true
          }
        }, {
          "url": "text",
          "valueString": "Black or African American"
        } ]
      }, {
        "url": "http://hl7.org/fhir/us/core/StructureDefinition/us-core-ethnicity",
        "extension": [ {
          "url": "ombCategory",
          "valueCoding": {
            "system": "urn:oid:2.16.840.1.113883.6.238",
            "code": "2186-5",
            "display": "Not Hispanic or Latino",
            "userSelected": true
          }
        }, {
          "url": "text",
          "valueString": "Not Hispanic or Latino"
        } ]
      } ],
      "identifier": [ {
        "type": {
          "coding": [ {
            "system": "http://terminology.hl7.org/CodeSystem/v2-0203",
            "code": "MR"
          } ]
        },
        "system": "https://bonnie-fhir.healthit.gov/",
        "value": "61152a3b98086b7a79cbd7c1"
      } ],
      "active": true,
      "name": [ {
        "use": "usual",
        "family": "NUMERPass",
        "given": [ "Num2O2BtwnGATandMV" ]
      } ],
      "gender": "female",
      "birthDate": "1966-07-12"
    },
    "request": {
      "method": "PUT",
      "url": "Patient/2f3ae88b-8fc4-4941-a2a3-09ae9e134c84"
    }
  }, {
    "fullUrl": "https://madie.cms.gov/Procedure/5319ae3e-c446-4f68-b824-4ba6baf70d4f",
    "resource": {
      "resourceType": "Procedure",
      "id": "5319ae3e-c446-4f68-b824-4ba6baf70d4f",
      "meta": {
        "profile": [ "http://hl7.org/fhir/us/qicore/StructureDefinition/qicore-procedure" ]
      },
      "extension": [ {
        "url": "http://hl7.org/fhir/us/qicore/StructureDefinition/qicore-recorded",
        "valueDateTime": "2026-05-15T10:20:00+00:00"
      } ],
      "status": "completed",
      "category": {
        "coding": [ {
          "system": "http://snomed.info/sct",
          "code": "18286008",
          "display": "General or neuraxial anesthesia"
        } ]
      },
      "code": {
        "coding": [ {
          "system": "http://snomed.info/sct",
          "code": "112943005",
          "display": "Epidural injection of anesthetic substance, diagnostic, caudal, continuous"
        } ]
      },
      "subject": {
        "reference": "Patient/2f3ae88b-8fc4-4941-a2a3-09ae9e134c84"
      },
      "performedPeriod": {
        "start": "2026-05-05T09:00:00+00:00",
        "end": "2026-05-05T10:15:00+00:00"
      }
    },
    "request": {
      "method": "PUT",
      "url": "Procedure/5319ae3e-c446-4f68-b824-4ba6baf70d4f"
    }
  }, {
    "fullUrl": "https://madie.cms.gov/Procedure/c4a4537f-81d4-4224-8387-60e846b6c6a0",
    "resource": {
      "resourceType": "Procedure",
      "id": "c4a4537f-81d4-4224-8387-60e846b6c6a0",
      "meta": {
        "profile": [ "http://hl7.org/fhir/us/qicore/StructureDefinition/qicore-procedure" ]
      },
      "extension": [ {
        "url": "http://hl7.org/fhir/us/qicore/StructureDefinition/qicore-recorded",
        "valueDateTime": "2026-05-06T08:15:30+00:00"
      } ],
      "status": "completed",
      "code": {
        "coding": [ {
          "system": "http://snomed.info/sct",
          "version": "2023-09",
          "code": "304577004",
          "display": "Humidified oxygen therapy (procedure)"
        } ],
        "text": "Humidified oxygen therapy (procedure)"
      },
      "subject": {
        "reference": "Patient/2f3ae88b-8fc4-4941-a2a3-09ae9e134c84"
      },
      "performedDateTime": "2026-05-06T08:10:00+00:00"
    },
    "request": {
      "method": "PUT",
      "url": "Procedure/c4a4537f-81d4-4224-8387-60e846b6c6a0"
    }
  }, {
    "fullUrl": "https://madie.cms.gov/Procedure/2ed51bd4-fe58-4db4-8556-6b02152508e5",
    "resource": {
      "resourceType": "Procedure",
      "id": "2ed51bd4-fe58-4db4-8556-6b02152508e5",
      "meta": {
        "profile": [ "http://hl7.org/fhir/us/qicore/StructureDefinition/qicore-procedure" ]
      },
      "extension": [ {
        "url": "http://hl7.org/fhir/us/qicore/StructureDefinition/qicore-recorded",
        "valueDateTime": "2026-05-15T13:20:30+00:00"
      } ],
      "status": "completed",
      "code": {
        "coding": [ {
          "system": "http://snomed.info/sct",
          "code": "1258985005",
          "display": "Invasive Mechanical Ventilation"
        } ],
        "text": "Invasive Mechanical Ventilation"
      },
      "subject": {
        "reference": "Patient/2f3ae88b-8fc4-4941-a2a3-09ae9e134c84"
      },
      "performedPeriod": {
        "start": "2026-05-10T13:04:00+00:00",
        "end": "2026-05-10T13:19:00+00:00"
      }
    },
    "request": {
      "method": "PUT",
      "url": "Procedure/2ed51bd4-fe58-4db4-8556-6b02152508e5"
    }
  }, {
    "fullUrl": "https://madie.cms.gov/MeasureReport/faed3ebf-6a4c-4273-ae33-eb66aba1ca32",
    "resource": {
      "resourceType": "MeasureReport",
      "id": "faed3ebf-6a4c-4273-ae33-eb66aba1ca32",
      "meta": {
        "profile": [ "http://hl7.org/fhir/us/cqfmeasures/StructureDefinition/test-case-cqfm" ]
      },
      "contained": [ {
        "resourceType": "Parameters",
        "id": "68928fc6-ef9e-47c3-99c3-94cf81b26ca2-parameters",
        "parameter": [ {
          "name": "subject",
          "valueString": "2f3ae88b-8fc4-4941-a2a3-09ae9e134c84"
        } ]
      } ],
      "extension": [ {
        "url": "http://hl7.org/fhir/us/cqfmeasures/StructureDefinition/cqfm-inputParameters",
        "valueReference": {
          "reference": "#68928fc6-ef9e-47c3-99c3-94cf81b26ca2-parameters"
        }
      }, {
        "url": "http://hl7.org/fhir/us/cqfmeasures/StructureDefinition/cqfm-testCaseDescription",
        "valueMarkdown": "Encounter with O2 therapy after end of general anesthesia, but before mechanical ventilation.  Satisfies Num2"
      } ],
      "modifierExtension": [ {
        "url": "http://hl7.org/fhir/us/cqfmeasures/StructureDefinition/cqfm-isTestCase",
        "valueBoolean": true
      } ],
      "status": "complete",
      "type": "individual",
      "measure": "https://madie.cms.gov/Measure/CMS1218HHRFFHIR",
      "period": {
        "start": "2026-01-01",
        "end": "2026-12-31"
      },
      "group": [ {
        "population": [ {
          "code": {
            "coding": [ {
              "system": "http://terminology.hl7.org/CodeSystem/measure-population",
              "code": "initial-population",
              "display": "Initial Population"
            } ]
          },
          "count": 1
        }, {
          "code": {
            "coding": [ {
              "system": "http://terminology.hl7.org/CodeSystem/measure-population",
              "code": "denominator",
              "display": "Denominator"
            } ]
          },
          "count": 1
        }, {
          "code": {
            "coding": [ {
              "system": "http://terminology.hl7.org/CodeSystem/measure-population",
              "code": "denominator-exclusion",
              "display": "Denominator Exclusion"
            } ]
          },
          "count": 0
        }, {
          "code": {
            "coding": [ {
              "system": "http://terminology.hl7.org/CodeSystem/measure-population",
              "code": "numerator",
              "display": "Numerator"
            } ]
          },
          "count": 1
        } ]
      } ],
      "evaluatedResource": [ {
        "reference": "Encounter/62ebedbf-94ae-495e-9606-9957071590fa"
      }, {
        "reference": "Patient/2f3ae88b-8fc4-4941-a2a3-09ae9e134c84"
      }, {
        "reference": "Procedure/5319ae3e-c446-4f68-b824-4ba6baf70d4f"
      }, {
        "reference": "Procedure/c4a4537f-81d4-4224-8387-60e846b6c6a0"
      }, {
        "reference": "Procedure/2ed51bd4-fe58-4db4-8556-6b02152508e5"
      } ]
    },
    "request": {
      "method": "PUT",
      "url": "MeasureReport/faed3ebf-6a4c-4273-ae33-eb66aba1ca32"
    }
  } ]
}