{
  "resourceType": "Bundle",
  "id": "63487c300968f801225401bf",
  "type": "transaction",
  "entry": [ {
    "fullUrl": "https://madie.cms.gov/Patient/0acdfbb5-024b-4ae7-bede-f3a627996733",
    "resource": {
      "resourceType": "Patient",
      "id": "0acdfbb5-024b-4ae7-bede-f3a627996733",
      "meta": {
        "profile": [ "http://hl7.org/fhir/us/qicore/StructureDefinition/qicore-patient" ]
      },
      "text": {
        "status": "generated",
        "div": "<div xmlns=\"http://www.w3.org/1999/xhtml\"><div class=\"hapiHeaderText\">EncDxNotPlacentaPrevia <b>DENEXFAIL </b></div><table class=\"hapiPropertyTable\"><tbody><tr><td>Identifier</td><td>26ae2095ae359d33c45002ef417f38a5e4f6a61da3ea75d0332f68a4cb93137e</td></tr><tr><td>Date of birth</td><td><span>14 February 1985</span></td></tr></tbody></table></div>"
      },
      "extension": [ {
        "url": "http://hl7.org/fhir/us/core/StructureDefinition/us-core-race",
        "extension": [ {
          "url": "ombCategory",
          "valueCoding": {
            "system": "urn:oid:2.16.840.1.113883.6.238",
            "code": "1002-5",
            "display": "American Indian or Alaska Native",
            "userSelected": true
          }
        }, {
          "url": "text",
          "valueString": "American Indian or Alaska Native"
        } ]
      }, {
        "url": "http://hl7.org/fhir/us/core/StructureDefinition/us-core-ethnicity",
        "extension": [ {
          "url": "ombCategory",
          "valueCoding": {
            "system": "urn:oid:2.16.840.1.113883.6.238",
            "code": "2135-2",
            "display": "Hispanic or Latino",
            "userSelected": true
          }
        }, {
          "url": "text",
          "valueString": "Hispanic or Latino"
        } ]
      } ],
      "identifier": [ {
        "type": {
          "coding": [ {
            "system": "http://terminology.hl7.org/CodeSystem/v2-0203",
            "code": "MR"
          } ]
        },
        "system": "https://bonnie-fhir.healthit.gov/",
        "value": "63487c300968f801225401bf"
      } ],
      "active": true,
      "name": [ {
        "use": "usual",
        "family": "DENEXFail",
        "given": [ "EncDxNotPlacentaPrevia" ]
      } ],
      "gender": "female",
      "birthDate": "1998-02-14"
    },
    "request": {
      "method": "PUT",
      "url": "Patient/0acdfbb5-024b-4ae7-bede-f3a627996733"
    }
  }, {
    "fullUrl": "https://madie.cms.gov/Observation/bb6ba4ff-94dd-4fb4-b22c-c5dd093c6a8f",
    "resource": {
      "resourceType": "Observation",
      "id": "bb6ba4ff-94dd-4fb4-b22c-c5dd093c6a8f",
      "meta": {
        "profile": [ "http://hl7.org/fhir/us/qicore/StructureDefinition/qicore-observation" ]
      },
      "status": "final",
      "category": [ {
        "coding": [ {
          "system": "http://terminology.hl7.org/CodeSystem/observation-category",
          "code": "exam",
          "display": "exam",
          "userSelected": true
        } ]
      } ],
      "code": {
        "coding": [ {
          "system": "http://loinc.org",
          "code": "11996-6"
        } ]
      },
      "subject": {
        "reference": "Patient/0acdfbb5-024b-4ae7-bede-f3a627996733"
      },
      "effectiveDateTime": "2026-06-08T08:00:00.000+00:00",
      "valueInteger": 1
    },
    "request": {
      "method": "PUT",
      "url": "Observation/bb6ba4ff-94dd-4fb4-b22c-c5dd093c6a8f"
    }
  }, {
    "fullUrl": "https://madie.cms.gov/Observation/7fe1ea06-70bf-4d12-9a98-f6b0c43e46cf",
    "resource": {
      "resourceType": "Observation",
      "id": "7fe1ea06-70bf-4d12-9a98-f6b0c43e46cf",
      "meta": {
        "profile": [ "http://hl7.org/fhir/us/qicore/StructureDefinition/qicore-observation" ]
      },
      "status": "final",
      "category": [ {
        "coding": [ {
          "system": "http://terminology.hl7.org/CodeSystem/observation-category",
          "code": "exam",
          "display": "exam",
          "userSelected": true
        } ]
      } ],
      "code": {
        "coding": [ {
          "system": "http://loinc.org",
          "code": "11884-4"
        } ]
      },
      "subject": {
        "reference": "Patient/0acdfbb5-024b-4ae7-bede-f3a627996733"
      },
      "effectiveDateTime": "2026-06-08T08:00:00.000+00:00",
      "valueQuantity": {
        "value": 43.0,
        "system": "http://unitsofmeasure.org",
        "code": "wk"
      }
    },
    "request": {
      "method": "PUT",
      "url": "Observation/7fe1ea06-70bf-4d12-9a98-f6b0c43e46cf"
    }
  }, {
    "fullUrl": "https://madie.cms.gov/Observation/31c5bfb9-1bb5-4782-bce3-53829d3e57ae",
    "resource": {
      "resourceType": "Observation",
      "id": "31c5bfb9-1bb5-4782-bce3-53829d3e57ae",
      "meta": {
        "profile": [ "http://hl7.org/fhir/us/qicore/StructureDefinition/qicore-observation" ]
      },
      "status": "final",
      "category": [ {
        "coding": [ {
          "system": "http://terminology.hl7.org/CodeSystem/observation-category",
          "code": "exam",
          "display": "exam",
          "userSelected": true
        } ]
      } ],
      "code": {
        "coding": [ {
          "system": "http://loinc.org",
          "code": "93857-1"
        } ]
      },
      "subject": {
        "reference": "Patient/0acdfbb5-024b-4ae7-bede-f3a627996733"
      },
      "effectiveDateTime": "2026-06-08T20:00:00.000+00:00",
      "valueDateTime": "2026-06-08T20:00:00+00:00"
    },
    "request": {
      "method": "PUT",
      "url": "Observation/31c5bfb9-1bb5-4782-bce3-53829d3e57ae"
    }
  }, {
    "fullUrl": "https://madie.cms.gov/Encounter/88a0d169-9e57-471b-8f25-2968a16606b2",
    "resource": {
      "resourceType": "Encounter",
      "id": "88a0d169-9e57-471b-8f25-2968a16606b2",
      "meta": {
        "profile": [ "http://hl7.org/fhir/us/qicore/StructureDefinition/qicore-encounter" ]
      },
      "status": "finished",
      "class": {
        "system": "http://terminology.hl7.org/CodeSystem/v3-ActCode",
        "code": "IMP",
        "display": "inpatient encounter"
      },
      "type": [ {
        "coding": [ {
          "system": "http://snomed.info/sct",
          "code": "8715000"
        } ]
      } ],
      "subject": {
        "reference": "Patient/0acdfbb5-024b-4ae7-bede-f3a627996733"
      },
      "period": {
        "start": "2026-06-08T08:00:00.000Z",
        "end": "2026-06-10T08:15:00.000Z"
      },
      "diagnosis": [ {
        "condition": {
          "reference": "Condition/e8927d6e-f218-4db6-87cf-811e088a388b"
        }
      } ]
    },
    "request": {
      "method": "PUT",
      "url": "Encounter/88a0d169-9e57-471b-8f25-2968a16606b2"
    }
  }, {
    "fullUrl": "https://madie.cms.gov/Procedure/673858b4-db9d-4b2b-96bc-56fe72b87e1b",
    "resource": {
      "resourceType": "Procedure",
      "id": "673858b4-db9d-4b2b-96bc-56fe72b87e1b",
      "meta": {
        "profile": [ "http://hl7.org/fhir/us/qicore/StructureDefinition/qicore-procedure" ]
      },
      "extension": [ {
        "url": "http://hl7.org/fhir/us/qicore/StructureDefinition/qicore-recorded",
        "valueDateTime": "2014-04-05T09:35:00-04:00"
      } ],
      "status": "completed",
      "code": {
        "coding": [ {
          "system": "http://snomed.info/sct",
          "code": "11466000",
          "userSelected": true
        } ]
      },
      "subject": {
        "reference": "Patient/0acdfbb5-024b-4ae7-bede-f3a627996733"
      },
      "performedDateTime": "2026-06-08T20:00:00.000+00:00"
    },
    "request": {
      "method": "PUT",
      "url": "Procedure/673858b4-db9d-4b2b-96bc-56fe72b87e1b"
    }
  }, {
    "fullUrl": "https://madie.cms.gov/Condition/e8927d6e-f218-4db6-87cf-811e088a388b",
    "resource": {
      "resourceType": "Condition",
      "id": "e8927d6e-f218-4db6-87cf-811e088a388b",
      "meta": {
        "profile": [ "http://hl7.org/fhir/us/qicore/StructureDefinition/qicore-condition" ]
      },
      "category": [ {
        "coding": [ {
          "system": "http://terminology.hl7.org/CodeSystem/condition-category",
          "code": "encounter-diagnosis",
          "display": "Encounter Diagnosis"
        } ]
      } ],
      "code": {
        "coding": [ {
          "system": "http://snomed.info/sct",
          "version": "2022-09",
          "code": "169826009",
          "display": "Single live birth (finding)",
          "userSelected": true
        } ]
      },
      "subject": {
        "reference": "Patient/0acdfbb5-024b-4ae7-bede-f3a627996733"
      },
      "recordedDate": "2026-10-17T08:00:00.000+00:00"
    },
    "request": {
      "method": "PUT",
      "url": "Condition/e8927d6e-f218-4db6-87cf-811e088a388b"
    }
  }, {
    "fullUrl": "https://madie.cms.gov/Coverage/c57ba188-28c8-4ab1-856d-b1b856181f83",
    "resource": {
      "resourceType": "Coverage",
      "id": "c57ba188-28c8-4ab1-856d-b1b856181f83",
      "meta": {
        "profile": [ "http://hl7.org/fhir/us/qicore/StructureDefinition/qicore-coverage" ]
      },
      "status": "active",
      "beneficiary": {
        "reference": "Patient/0acdfbb5-024b-4ae7-bede-f3a627996733"
      },
      "payor": [ {
        "reference": "Organization/6eb24786-2450-482e-80d9-1c76b7625956"
      } ]
    },
    "request": {
      "method": "PUT",
      "url": "Coverage/c57ba188-28c8-4ab1-856d-b1b856181f83"
    }
  }, {
    "fullUrl": "https://madie.cms.gov/Organization/6eb24786-2450-482e-80d9-1c76b7625956",
    "resource": {
      "resourceType": "Organization",
      "id": "6eb24786-2450-482e-80d9-1c76b7625956",
      "meta": {
        "profile": [ "http://hl7.org/fhir/us/qicore/StructureDefinition/qicore-organization" ]
      },
      "identifier": [ {
        "use": "temp",
        "system": "urn:oid:2.16.840.1.113883.4.4",
        "value": "21-3259825"
      } ],
      "active": true,
      "type": [ {
        "coding": [ {
          "system": "http://terminology.hl7.org/CodeSystem/organization-type",
          "code": "pay",
          "display": "Payer"
        } ]
      } ],
      "name": "Blue Cross Blue Shield of Texas",
      "telecom": [ {
        "system": "phone",
        "value": "(+1) 972-766-6900"
      } ],
      "address": [ {
        "use": "billing",
        "type": "postal",
        "line": [ "P.O. Box 660044" ],
        "city": "Dallas",
        "state": "TX",
        "postalCode": "75266-0044",
        "country": "USA"
      } ]
    },
    "request": {
      "method": "PUT",
      "url": "Organization/6eb24786-2450-482e-80d9-1c76b7625956"
    }
  }, {
    "fullUrl": "https://madie.cms.gov/Practitioner/4e452b80-febf-41b8-bf6f-b9753ba6ea3a",
    "resource": {
      "resourceType": "Practitioner",
      "id": "4e452b80-febf-41b8-bf6f-b9753ba6ea3a",
      "identifier": [ {
        "system": "http://hl7.org/fhir/sid/us-npi",
        "value": "123456"
      } ],
      "name": [ {
        "family": "Evil",
        "prefix": [ "Dr" ]
      } ]
    },
    "request": {
      "method": "PUT",
      "url": "Practitioner/4e452b80-febf-41b8-bf6f-b9753ba6ea3a"
    }
  }, {
    "fullUrl": "https://madie.cms.gov/MeasureReport/99e733c4-2e79-4bff-b24a-9cd0cd96e7a3",
    "resource": {
      "resourceType": "MeasureReport",
      "id": "99e733c4-2e79-4bff-b24a-9cd0cd96e7a3",
      "meta": {
        "profile": [ "http://hl7.org/fhir/us/cqfmeasures/StructureDefinition/test-case-cqfm" ]
      },
      "contained": [ {
        "resourceType": "Parameters",
        "id": "2c32fe91-98d7-4f89-a915-a04b4efe3df4-parameters",
        "parameter": [ {
          "name": "subject",
          "valueString": "0acdfbb5-024b-4ae7-bede-f3a627996733"
        } ]
      } ],
      "extension": [ {
        "url": "http://hl7.org/fhir/us/cqfmeasures/StructureDefinition/cqfm-inputParameters",
        "valueReference": {
          "reference": "#2c32fe91-98d7-4f89-a915-a04b4efe3df4-parameters"
        }
      }, {
        "url": "http://hl7.org/fhir/us/cqfmeasures/StructureDefinition/cqfm-testCaseDescription",
        "valueMarkdown": "EGA 43 weeks; Placenta previa not on encounter, gravida 1, \n"
      } ],
      "modifierExtension": [ {
        "url": "http://hl7.org/fhir/us/cqfmeasures/StructureDefinition/cqfm-isTestCase",
        "valueBoolean": true
      } ],
      "status": "complete",
      "type": "individual",
      "measure": "https://madie.cms.gov/Measure/CMS334FHIRPCCesareanBirth",
      "period": {
        "start": "2026-01-01",
        "end": "2026-12-31"
      },
      "group": [ {
        "population": [ {
          "code": {
            "coding": [ {
              "system": "http://terminology.hl7.org/CodeSystem/measure-population",
              "code": "initial-population",
              "display": "Initial Population"
            } ]
          },
          "count": 1
        }, {
          "code": {
            "coding": [ {
              "system": "http://terminology.hl7.org/CodeSystem/measure-population",
              "code": "denominator",
              "display": "Denominator"
            } ]
          },
          "count": 1
        }, {
          "code": {
            "coding": [ {
              "system": "http://terminology.hl7.org/CodeSystem/measure-population",
              "code": "denominator-exclusion",
              "display": "Denominator Exclusion"
            } ]
          },
          "count": 0
        }, {
          "code": {
            "coding": [ {
              "system": "http://terminology.hl7.org/CodeSystem/measure-population",
              "code": "numerator",
              "display": "Numerator"
            } ]
          },
          "count": 1
        } ]
      } ],
      "evaluatedResource": [ {
        "reference": "Patient/0acdfbb5-024b-4ae7-bede-f3a627996733"
      }, {
        "reference": "Observation/bb6ba4ff-94dd-4fb4-b22c-c5dd093c6a8f"
      }, {
        "reference": "Observation/7fe1ea06-70bf-4d12-9a98-f6b0c43e46cf"
      }, {
        "reference": "Observation/31c5bfb9-1bb5-4782-bce3-53829d3e57ae"
      }, {
        "reference": "Encounter/88a0d169-9e57-471b-8f25-2968a16606b2"
      }, {
        "reference": "Procedure/673858b4-db9d-4b2b-96bc-56fe72b87e1b"
      }, {
        "reference": "Condition/e8927d6e-f218-4db6-87cf-811e088a388b"
      }, {
        "reference": "Coverage/c57ba188-28c8-4ab1-856d-b1b856181f83"
      }, {
        "reference": "Organization/6eb24786-2450-482e-80d9-1c76b7625956"
      }, {
        "reference": "Practitioner/4e452b80-febf-41b8-bf6f-b9753ba6ea3a"
      } ]
    },
    "request": {
      "method": "PUT",
      "url": "MeasureReport/99e733c4-2e79-4bff-b24a-9cd0cd96e7a3"
    }
  } ]
}