{"resourceType":"Bundle","id":"tests-40b225ab-9cbf-4f11-90a4-12d7f13f939a-bundle","type":"transaction","entry":[{"fullUrl":"https://madie.cms.gov/Patient/40b225ab-9cbf-4f11-90a4-12d7f13f939a","resource":{"resourceType":"Patient","id":"40b225ab-9cbf-4f11-90a4-12d7f13f939a","meta":{"profile":["http://hl7.org/fhir/us/qicore/StructureDefinition/qicore-patient"]},"extension":[{"url":"http://hl7.org/fhir/us/core/StructureDefinition/us-core-race","extension":[{"url":"ombCategory","valueCoding":{"system":"urn:oid:2.16.840.1.113883.6.238","code":"1002-5","display":"American Indian or Alaska Native","userSelected":true}},{"url":"text","valueString":"American Indian or Alaska Native"},{"url":"detailed","valueCoding":{"system":"urn:oid:2.16.840.1.113883.6.238","code":"1653-5","display":"Tohono O'Odham"}}]},{"url":"http://hl7.org/fhir/us/core/StructureDefinition/us-core-ethnicity","extension":[{"url":"ombCategory","valueCoding":{"system":"urn:oid:2.16.840.1.113883.6.238","code":"2135-2","display":"Hispanic or Latino","userSelected":true}},{"url":"text","valueString":"Hispanic or Latino"},{"url":"detailed","valueCoding":{"system":"urn:oid:2.16.840.1.113883.6.238","code":"2153-5","display":"Mexican American Indian"}}]}],"identifier":[{"type":{"coding":[{"system":"http://terminology.hl7.org/CodeSystem/v2-0203","code":"MR"}]},"system":"https://bonnie-fhir.healthit.gov/","value":"62ec3235ea03a4ebacd6a08a"}],"name":[{"family":"NumerPass","given":["EncEndsLastDayMPAt2359Doc1stMinEnc"]}],"gender":"unknown","birthDate":"2007-01-01"},"request":{"method":"PUT","url":"Patient/40b225ab-9cbf-4f11-90a4-12d7f13f939a"}},{"fullUrl":"https://madie.cms.gov/Encounter/encounter-to-document-medications-a085","resource":{"resourceType":"Encounter","id":"d5cf941f-2627-408e-9a7e-d3d17669cc27","meta":{"profile":["http://hl7.org/fhir/us/qicore/StructureDefinition/qicore-encounter"]},"status":"finished","class":{"system":"http://terminology.hl7.org/CodeSystem/v3-ActCode","code":"AMB","display":"ambulatory"},"type":[{"coding":[{"system":"http://snomed.info/sct","version":"2022-03","code":"10197000","display":"Psychiatric interview and evaluation (procedure)","userSelected":true}]}],"subject":{"reference":"Patient/40b225ab-9cbf-4f11-90a4-12d7f13f939a"},"period":{"start":"2025-12-20T00:00:00.000+00:00","end":"2025-12-31T23:59:00.000+00:00"}},"request":{"method":"PUT","url":"Encounter/d5cf941f-2627-408e-9a7e-d3d17669cc27"}},{"fullUrl":"https://madie.cms.gov/Procedure/documentation-of-current-medications-procedure-58cf","resource":{"resourceType":"Procedure","id":"ee00f2d0-2026-4c28-b86a-30d12a278bab","meta":{"profile":["http://hl7.org/fhir/us/qicore/StructureDefinition/qicore-procedure"]},"extension":[{"url":"http://hl7.org/fhir/us/qicore/StructureDefinition/qicore-recorded","valueDateTime":"2024-02-01T09:00:00.000+00:00"}],"status":"completed","code":{"coding":[{"system":"http://snomed.info/sct","code":"428191000124101","display":"Documentation of current medications (procedure)","userSelected":true}]},"subject":{"reference":"Patient/40b225ab-9cbf-4f11-90a4-12d7f13f939a"},"performedDateTime":"2025-12-20T00:01:00.000+00:00"},"request":{"method":"PUT","url":"Procedure/ee00f2d0-2026-4c28-b86a-30d12a278bab"}},{"fullUrl":"https://madie.cms.gov/Coverage/1","resource":{"resourceType":"Coverage","id":"7ce00763-c2b4-46e4-888f-57bfd659aedc","meta":{"profile":["http://hl7.org/fhir/us/qicore/StructureDefinition/qicore-coverage"]},"status":"active","type":{"coding":[{"system":"https://nahdo.org/sopt","code":"1","display":"MEDICARE"}]},"beneficiary":{"reference":"Patient/40b225ab-9cbf-4f11-90a4-12d7f13f939a"},"period":{"start":"2024-12-01T00:00:00+00:00"},"payor":[{"reference":"Organization/80573fa1-cf83-4e9a-8f21-86a018689678"}]},"request":{"method":"PUT","url":"Coverage/7ce00763-c2b4-46e4-888f-57bfd659aedc"}},{"fullUrl":"https://madie.cms.gov/Organization/123456","resource":{"resourceType":"Organization","id":"80573fa1-cf83-4e9a-8f21-86a018689678","meta":{"profile":["http://hl7.org/fhir/us/qicore/StructureDefinition/qicore-organization"]},"identifier":[{"use":"temp","system":"urn:oid:2.16.840.1.113883.4.4","value":"21-3259825"}],"active":true,"type":[{"coding":[{"system":"http://terminology.hl7.org/CodeSystem/organization-type","code":"pay","display":"Payer"}]}],"name":"Blue Cross Blue Shield of Texas","telecom":[{"system":"phone","value":"(+1) 972-766-6900"}],"address":[{"use":"billing","type":"postal","line":["P.O. Box 660044"],"city":"Dallas","state":"TX","postalCode":"75266-0044","country":"USA"}]},"request":{"method":"PUT","url":"Organization/80573fa1-cf83-4e9a-8f21-86a018689678"}},{"fullUrl":"https://madie.cms.gov/Practitioner/practitioner-123456","resource":{"resourceType":"Practitioner","id":"469edf51-1fa0-454c-b83c-274a5f4b6b06","meta":{"profile":["http://hl7.org/fhir/us/qicore/StructureDefinition/qicore-practitioner"]},"identifier":[{"system":"http://hl7.org/fhir/sid/us-npi","value":"123456"}],"name":[{"family":"Evil","prefix":["Dr"]}]},"request":{"method":"PUT","url":"Practitioner/469edf51-1fa0-454c-b83c-274a5f4b6b06"}},{"fullUrl":"https://madie.cms.gov/MeasureReport/d0d1d3ec-2cd3-4560-b41a-82f3bf795175","resource":{"resourceType":"MeasureReport","id":"d0d1d3ec-2cd3-4560-b41a-82f3bf795175","meta":{"profile":["http://hl7.org/fhir/us/cqfmeasures/StructureDefinition/test-case-cqfm"]},"contained":[{"resourceType":"Parameters","id":"3c825434-61c9-486f-ae7f-3a29068526c4-parameters","parameter":[{"name":"subject","valueString":"40b225ab-9cbf-4f11-90a4-12d7f13f939a"}]}],"extension":[{"url":"http://hl7.org/fhir/us/cqfmeasures/StructureDefinition/cqfm-inputParameters","valueReference":{"reference":"#3c825434-61c9-486f-ae7f-3a29068526c4-parameters"}},{"url":"http://hl7.org/fhir/us/cqfmeasures/StructureDefinition/cqfm-testCaseDescription","valueMarkdown":"Encounter ends the last day of the measurement period.  Medication documentation occurs first minute of encounter."}],"modifierExtension":[{"url":"http://hl7.org/fhir/us/cqfmeasures/StructureDefinition/cqfm-isTestCase","valueBoolean":true}],"status":"complete","type":"individual","measure":"https://madie.cms.gov/Measure/DocumentationofCurrentMedicationsFHIR","period":{"start":"2025-01-01","end":"2025-12-31"},"group":[{"population":[{"code":{"coding":[{"system":"http://terminology.hl7.org/CodeSystem/measure-population","code":"initial-population","display":"Initial Population"}]},"count":1},{"code":{"coding":[{"system":"http://terminology.hl7.org/CodeSystem/measure-population","code":"denominator","display":"Denominator"}]},"count":1},{"code":{"coding":[{"system":"http://terminology.hl7.org/CodeSystem/measure-population","code":"numerator","display":"Numerator"}]},"count":1},{"code":{"coding":[{"system":"http://terminology.hl7.org/CodeSystem/measure-population","code":"denominator-exception","display":"Denominator Exception"}]},"count":0}]}]},"request":{"method":"PUT","url":"MeasureReport/d0d1d3ec-2cd3-4560-b41a-82f3bf795175"}}]}