{"resourceType":"Bundle","id":"tests-67df96df-45ff-4387-bc4d-04055a95483f-bundle","type":"transaction","entry":[{"fullUrl":"https://madie.cms.gov/Patient/67df96df-45ff-4387-bc4d-04055a95483f","resource":{"resourceType":"Patient","id":"67df96df-45ff-4387-bc4d-04055a95483f","meta":{"profile":["http://hl7.org/fhir/us/qicore/StructureDefinition/qicore-patient"]},"text":{"status":"generated","div":"<div xmlns=\"http://www.w3.org/1999/xhtml\"><div class=\"hapiHeaderText\">TestMultipleOccur1inDen1inNum <b>NUMERPASS </b></div><table class=\"hapiPropertyTable\"><tbody><tr><td>Identifier</td><td>9a2b10a8b5b2082e23f2748100ecbdeaeee7f4e84632ea8fa273e55b42847316</td></tr><tr><td>Date of birth</td><td><span>03 March 1974</span></td></tr></tbody></table></div>"},"extension":[{"url":"http://hl7.org/fhir/us/core/StructureDefinition/us-core-race","extension":[{"url":"ombCategory","valueCoding":{"system":"urn:oid:2.16.840.1.113883.6.238","code":"1002-5","display":"American Indian or Alaska Native","userSelected":true}},{"url":"text","valueString":"American Indian or Alaska Native"}]},{"url":"http://hl7.org/fhir/us/core/StructureDefinition/us-core-ethnicity","extension":[{"url":"ombCategory","valueCoding":{"system":"urn:oid:2.16.840.1.113883.6.238","code":"2135-2","display":"Hispanic or Latino","userSelected":true}},{"url":"text","valueString":"Hispanic or Latino"}]}],"identifier":[{"type":{"coding":[{"system":"http://terminology.hl7.org/CodeSystem/v2-0203","code":"MR"}]},"system":"https://bonnie-fhir.healthit.gov/","value":"612e6f6d02c62a011f2f1cad"}],"active":true,"name":[{"use":"usual","family":"NUMERPass","given":["TestMultipleOccur1inDen1inNum"]}],"gender":"female","birthDate":"1974-03-03"},"request":{"method":"PUT","url":"Patient/67df96df-45ff-4387-bc4d-04055a95483f"}},{"fullUrl":"https://madie.cms.gov/Encounter/5ce80971b848467c29eaf2bd","resource":{"resourceType":"Encounter","id":"34d43bd0-ba42-4875-8b56-0ddcac13b68c","meta":{"profile":["http://hl7.org/fhir/us/qicore/StructureDefinition/qicore-encounter"]},"status":"finished","class":{"system":"http://terminology.hl7.org/CodeSystem/v3-ActCode","code":"IMP","display":"inpatient encounter"},"type":[{"coding":[{"system":"http://snomed.info/sct","code":"183452005"}]}],"subject":{"reference":"Patient/67df96df-45ff-4387-bc4d-04055a95483f"},"period":{"start":"2025-03-22T08:00:00+00:00","end":"2025-03-22T08:15:00+00:00"},"length":{"value":0.0,"unit":"days"}},"request":{"method":"PUT","url":"Encounter/34d43bd0-ba42-4875-8b56-0ddcac13b68c"}},{"fullUrl":"https://madie.cms.gov/Encounter/5ce80971b848467c29eaf2be","resource":{"resourceType":"Encounter","id":"bd6cd042-cfac-4b11-b8e6-7325b28167dd","meta":{"profile":["http://hl7.org/fhir/us/qicore/StructureDefinition/qicore-encounter"]},"status":"finished","class":{"system":"http://terminology.hl7.org/CodeSystem/v3-ActCode","code":"EMER","display":"emergency"},"type":[{"coding":[{"system":"http://snomed.info/sct","code":"4525004"}]}],"subject":{"reference":"Patient/67df96df-45ff-4387-bc4d-04055a95483f"},"period":{"start":"2025-12-06T02:00:00+00:00","end":"2025-12-06T08:15:00+00:00"},"length":{"value":0.0,"unit":"days"}},"request":{"method":"PUT","url":"Encounter/bd6cd042-cfac-4b11-b8e6-7325b28167dd"}},{"fullUrl":"https://madie.cms.gov/Encounter/5ce80971b848467c29eaf2bf","resource":{"resourceType":"Encounter","id":"563f6028-eead-4e7e-9a7f-5566191dcac2","meta":{"profile":["http://hl7.org/fhir/us/qicore/StructureDefinition/qicore-encounter"]},"status":"finished","class":{"system":"http://terminology.hl7.org/CodeSystem/v3-ActCode","code":"IMP","display":"inpatient encounter"},"type":[{"coding":[{"system":"http://snomed.info/sct","code":"8715000"}]}],"subject":{"reference":"Patient/67df96df-45ff-4387-bc4d-04055a95483f"},"period":{"start":"2025-12-06T08:45:00+00:00","end":"2025-12-30T08:15:00+00:00"},"length":{"value":24.0,"unit":"days"},"location":[{"location":{"reference":"Location/intensive-care-unit-0f90"},"period":{"start":"2025-12-06T09:00:00.000+00:00","end":"2025-12-12T08:15:00.000+00:00"}}]},"request":{"method":"PUT","url":"Encounter/563f6028-eead-4e7e-9a7f-5566191dcac2"}},{"fullUrl":"https://madie.cms.gov/Coverage/5fa041081c76ba66d9959108","resource":{"resourceType":"Coverage","id":"1f0f17d9-3fbd-4fe7-bcf3-82bd58cbc80f","status":"active","beneficiary":{"reference":"Patient/67df96df-45ff-4387-bc4d-04055a95483f"},"period":{"start":"1974-03-03T08:00:00+00:00"},"payor":[{"reference":"Organization/84b56847-ad40-4bf6-b612-9e42ad2a84e5"}]},"request":{"method":"PUT","url":"Coverage/1f0f17d9-3fbd-4fe7-bcf3-82bd58cbc80f"}},{"fullUrl":"https://madie.cms.gov/MedicationAdministration/5ce80971b848467c29eaf2c0","resource":{"resourceType":"MedicationAdministration","id":"dc4fa5c6-c76f-4b50-b8cc-6e03aa0eeb16","meta":{"profile":["http://hl7.org/fhir/us/qicore/StructureDefinition/qicore-medicationadministration"]},"status":"completed","medicationCodeableConcept":{"coding":[{"system":"http://www.nlm.nih.gov/research/umls/rxnorm","code":"308351"}]},"subject":{"reference":"Patient/67df96df-45ff-4387-bc4d-04055a95483f"},"effectivePeriod":{"start":"2025-12-06T06:30:00+00:00"}},"request":{"method":"PUT","url":"MedicationAdministration/dc4fa5c6-c76f-4b50-b8cc-6e03aa0eeb16"}},{"fullUrl":"https://madie.cms.gov/Location/intensive-care-unit-0f90","resource":{"resourceType":"Location","id":"356428ee-d852-4e72-baeb-ad6d39f8aae3","meta":{"profile":["http://hl7.org/fhir/us/qicore/StructureDefinition/qicore-location"]},"identifier":[{"use":"usual","system":"http://exampleoflocation.com","value":"B1-S.F2"}],"name":"Medical Surgical East, first floor","type":[{"coding":[{"system":"https://www.cdc.gov/nhsn/cdaportal/terminology/codesystem/hsloc.html","code":"1025-6","display":"Trauma Critical Care","userSelected":true}]}]},"request":{"method":"PUT","url":"Location/356428ee-d852-4e72-baeb-ad6d39f8aae3"}},{"fullUrl":"https://madie.cms.gov/Organization/123456","resource":{"resourceType":"Organization","id":"84b56847-ad40-4bf6-b612-9e42ad2a84e5","meta":{"profile":["http://hl7.org/fhir/us/qicore/StructureDefinition/qicore-organization"]},"identifier":[{"use":"temp","system":"urn:oid:2.16.840.1.113883.4.4","value":"21-3259825"}],"active":true,"type":[{"coding":[{"system":"http://terminology.hl7.org/CodeSystem/organization-type","code":"pay","display":"Payer"}]}],"name":"Blue Cross Blue Shield of Texas","telecom":[{"system":"phone","value":"(+1) 972-766-6900"}],"address":[{"use":"billing","type":"postal","line":["P.O. Box 660044"],"city":"Dallas","state":"TX","postalCode":"75266-0044","country":"USA"}]},"request":{"method":"PUT","url":"Organization/84b56847-ad40-4bf6-b612-9e42ad2a84e5"}},{"fullUrl":"https://madie.cms.gov/Practitioner/practitioner-123456","resource":{"resourceType":"Practitioner","id":"1d94716a-6f5a-4555-9aac-ed862e83fdf5","identifier":[{"system":"http://hl7.org/fhir/sid/us-npi","value":"123456"}],"name":[{"family":"Evil","prefix":["Dr"]}]},"request":{"method":"PUT","url":"Practitioner/1d94716a-6f5a-4555-9aac-ed862e83fdf5"}},{"fullUrl":"https://madie.cms.gov/MeasureReport/490fbef9-1e27-4916-9eba-942b15b3fb8e","resource":{"resourceType":"MeasureReport","id":"490fbef9-1e27-4916-9eba-942b15b3fb8e","meta":{"profile":["http://hl7.org/fhir/us/cqfmeasures/StructureDefinition/test-case-cqfm"]},"contained":[{"resourceType":"Parameters","id":"3dca67b4-0c9e-4312-b0fa-474d60949e52-parameters","parameter":[{"name":"subject","valueString":"67df96df-45ff-4387-bc4d-04055a95483f"}]}],"extension":[{"url":"http://hl7.org/fhir/us/cqfmeasures/StructureDefinition/cqfm-inputParameters","valueReference":{"reference":"#3dca67b4-0c9e-4312-b0fa-474d60949e52-parameters"}},{"url":"http://hl7.org/fhir/us/cqfmeasures/StructureDefinition/cqfm-testCaseDescription","valueMarkdown":" Patient has 2 encounters, first encounter has NO ICU, but second encounter  meets IPP, meets Denominator, medication administered:Thrombin during ED, ED endTime less than 1 hour before Start of ICU\n"}],"modifierExtension":[{"url":"http://hl7.org/fhir/us/cqfmeasures/StructureDefinition/cqfm-isTestCase","valueBoolean":true}],"status":"complete","type":"individual","measure":"https://madie.cms.gov/Measure/IntensiveCareUnitVenousThromboembolismProphylaxisFHIR","period":{"start":"2025-01-01","end":"2025-12-31"},"group":[{"population":[{"code":{"coding":[{"system":"http://terminology.hl7.org/CodeSystem/measure-population","code":"initial-population","display":"Initial Population"}]},"count":2},{"code":{"coding":[{"system":"http://terminology.hl7.org/CodeSystem/measure-population","code":"denominator","display":"Denominator"}]},"count":1},{"code":{"coding":[{"system":"http://terminology.hl7.org/CodeSystem/measure-population","code":"denominator-exclusion","display":"Denominator Exclusion"}]},"count":0},{"code":{"coding":[{"system":"http://terminology.hl7.org/CodeSystem/measure-population","code":"numerator","display":"Numerator"}]},"count":1},{"code":{"coding":[{"system":"http://terminology.hl7.org/CodeSystem/measure-population","code":"denominator-exception","display":"Denominator Exception"}]},"count":0}]}]},"request":{"method":"PUT","url":"MeasureReport/490fbef9-1e27-4916-9eba-942b15b3fb8e"}}]}