{"resourceType":"Bundle","id":"tests-f859dd94-f201-4517-a368-32b98dd486c9-bundle","type":"transaction","entry":[{"fullUrl":"https://madie.cms.gov/Patient/f859dd94-f201-4517-a368-32b98dd486c9","resource":{"resourceType":"Patient","id":"f859dd94-f201-4517-a368-32b98dd486c9","meta":{"profile":["http://hl7.org/fhir/us/qicore/StructureDefinition/qicore-patient"]},"text":{"status":"generated","div":"<div xmlns=\"http://www.w3.org/1999/xhtml\"><div class=\"hapiHeaderText\">MedRsnMAWarfDAIPCDrgEDGT1hrSameDayAdm <b>NUMERPASS </b></div><table class=\"hapiPropertyTable\"><tbody><tr><td>Identifier</td><td>d5661b6a7ac7a6b9f13847d23af8475a</td></tr><tr><td>Date of birth</td><td><span>02 January 1974</span></td></tr></tbody></table></div>"},"extension":[{"url":"http://hl7.org/fhir/us/core/StructureDefinition/us-core-race","extension":[{"url":"ombCategory","valueCoding":{"system":"urn:oid:2.16.840.1.113883.6.238","code":"1002-5","display":"American Indian or Alaska Native","userSelected":true}},{"url":"text","valueString":"American Indian or Alaska Native"}]},{"url":"http://hl7.org/fhir/us/core/StructureDefinition/us-core-ethnicity","extension":[{"url":"ombCategory","valueCoding":{"system":"urn:oid:2.16.840.1.113883.6.238","code":"2135-2","display":"Hispanic or Latino","userSelected":true}},{"url":"text","valueString":"Hispanic or Latino"}]}],"identifier":[{"type":{"coding":[{"system":"http://terminology.hl7.org/CodeSystem/v2-0203","code":"MR"}]},"system":"https://bonnie-fhir.healthit.gov/","value":"612e6b8402c62a011f2ee1d9"}],"active":true,"name":[{"use":"usual","family":"NUMERPass","given":["MedRsnMAWarfDAIPCDrgEDGT1hrSameDayAdm"]}],"gender":"male","birthDate":"1974-01-02"},"request":{"method":"PUT","url":"Patient/f859dd94-f201-4517-a368-32b98dd486c9"}},{"fullUrl":"https://madie.cms.gov/Encounter/5ca62961b8484628b8de1e81","resource":{"resourceType":"Encounter","id":"d1fb1db7-d1a2-4f18-9d6e-f8d98abdedae","meta":{"profile":["http://hl7.org/fhir/us/qicore/StructureDefinition/qicore-encounter"]},"status":"finished","class":{"system":"http://terminology.hl7.org/CodeSystem/v3-ActCode","code":"EMER","display":"emergency"},"type":[{"coding":[{"system":"http://snomed.info/sct","code":"4525004"}]}],"subject":{"reference":"Patient/f859dd94-f201-4517-a368-32b98dd486c9"},"period":{"start":"2025-10-31T04:00:00.000+00:00","end":"2025-11-01T07:15:00.000+00:00"},"length":{"value":1.0,"unit":"days"}},"request":{"method":"PUT","url":"Encounter/d1fb1db7-d1a2-4f18-9d6e-f8d98abdedae"}},{"fullUrl":"https://madie.cms.gov/Encounter/5ca62961b8484628b8de1e82","resource":{"resourceType":"Encounter","id":"342cbe59-5577-4bd4-8ec2-1fe6677f0b6c","meta":{"profile":["http://hl7.org/fhir/us/qicore/StructureDefinition/qicore-encounter"]},"status":"finished","class":{"system":"http://terminology.hl7.org/CodeSystem/v3-ActCode","code":"IMP","display":"inpatient encounter"},"type":[{"coding":[{"system":"http://snomed.info/sct","code":"8715000"}]}],"subject":{"reference":"Patient/f859dd94-f201-4517-a368-32b98dd486c9"},"period":{"start":"2025-11-01T10:00:00.000+00:00","end":"2025-11-04T05:00:00.000+00:00"},"length":{"value":25.0,"unit":"days"},"location":[{"location":{"reference":"Location/Location-1"},"period":{"start":"2025-11-01T10:30:00.000+00:00","end":"2025-11-02T08:15:00.000+00:00"}}]},"request":{"method":"PUT","url":"Encounter/342cbe59-5577-4bd4-8ec2-1fe6677f0b6c"}},{"fullUrl":"https://madie.cms.gov/Coverage/5fa041591c76ba66d995928f","resource":{"resourceType":"Coverage","id":"385c78ba-f3b2-4196-8841-d0242a3a6129","status":"active","beneficiary":{"reference":"Patient/f859dd94-f201-4517-a368-32b98dd486c9"},"period":{"start":"1974-01-02T08:00:00+00:00"},"payor":[{"reference":"Organization/024e2731-b045-43bf-80d2-684774c5b51c"}]},"request":{"method":"PUT","url":"Coverage/385c78ba-f3b2-4196-8841-d0242a3a6129"}},{"fullUrl":"https://madie.cms.gov/Location/Location-1","resource":{"resourceType":"Location","id":"942f2241-5e78-4612-adfc-187cd2f5f4db","meta":{"profile":["http://hl7.org/fhir/us/qicore/StructureDefinition/qicore-location"]},"identifier":[{"use":"usual","system":"http://exampleoflocation.com","value":"B1-S.F2"}],"name":"Medical Surgical East, first floor","type":[{"coding":[{"system":"https://www.cdc.gov/nhsn/cdaportal/terminology/codesystem/hsloc.html","code":"1025-6","display":"Trauma Critical Care","userSelected":true}]}]},"request":{"method":"PUT","url":"Location/942f2241-5e78-4612-adfc-187cd2f5f4db"}},{"fullUrl":"https://madie.cms.gov/Procedure/device-application-8a0a","resource":{"resourceType":"Procedure","id":"ac8b72ce-b2ce-42d8-b4ce-f0946101b1e8","meta":{"profile":["http://hl7.org/fhir/us/qicore/StructureDefinition/qicore-procedurenotdone"]},"extension":[{"url":"http://hl7.org/fhir/us/qicore/StructureDefinition/qicore-recorded","valueDateTime":"2025-11-01T06:35:00-04:00"}],"status":"not-done","statusReason":{"coding":[{"system":"http://snomed.info/sct","code":"183932001","display":"Procedure contraindicated (situation)","userSelected":true}]},"code":{"coding":[{"system":"http://snomed.info/sct","code":"443448006","display":"Application of intermittent pneumatic compression device (procedure)","userSelected":true}]},"subject":{"reference":"Patient/f859dd94-f201-4517-a368-32b98dd486c9"},"_performedDateTime":{"extension":[{"url":"http://hl7.org/fhir/StructureDefinition/data-absent-reason","valueCode":"not-performed"}]}},"request":{"method":"PUT","url":"Procedure/ac8b72ce-b2ce-42d8-b4ce-f0946101b1e8"}},{"fullUrl":"https://madie.cms.gov/MedicationAdministration/warfarin-8a15","resource":{"resourceType":"MedicationAdministration","id":"725abec0-c625-4007-8b09-88da9d23d688","meta":{"profile":["http://hl7.org/fhir/us/qicore/StructureDefinition/qicore-mednotadministered"]},"extension":[{"url":"http://hl7.org/fhir/us/qicore/StructureDefinition/qicore-recorded","valueDateTime":"2025-11-01T06:00:00+00:00"}],"status":"not-done","statusReason":[{"coding":[{"system":"http://snomed.info/sct","code":"183932001","display":"Procedure contraindicated (situation)","userSelected":true}]}],"medicationCodeableConcept":{"coding":[{"system":"http://www.nlm.nih.gov/research/umls/rxnorm","code":"855288"}]},"subject":{"reference":"Patient/f859dd94-f201-4517-a368-32b98dd486c9"},"effectivePeriod":{"start":"2025-11-01T07:00:00+00:00"}},"request":{"method":"PUT","url":"MedicationAdministration/725abec0-c625-4007-8b09-88da9d23d688"}},{"fullUrl":"https://madie.cms.gov/Organization/123456","resource":{"resourceType":"Organization","id":"024e2731-b045-43bf-80d2-684774c5b51c","meta":{"profile":["http://hl7.org/fhir/us/qicore/StructureDefinition/qicore-organization"]},"identifier":[{"use":"temp","system":"urn:oid:2.16.840.1.113883.4.4","value":"21-3259825"}],"active":true,"type":[{"coding":[{"system":"http://terminology.hl7.org/CodeSystem/organization-type","code":"pay","display":"Payer"}]}],"name":"Blue Cross Blue Shield of Texas","telecom":[{"system":"phone","value":"(+1) 972-766-6900"}],"address":[{"use":"billing","type":"postal","line":["P.O. Box 660044"],"city":"Dallas","state":"TX","postalCode":"75266-0044","country":"USA"}]},"request":{"method":"PUT","url":"Organization/024e2731-b045-43bf-80d2-684774c5b51c"}},{"fullUrl":"https://madie.cms.gov/Practitioner/practitioner-123456","resource":{"resourceType":"Practitioner","id":"cf20c925-48dc-4053-9fb0-945d298ed3f3","identifier":[{"system":"http://hl7.org/fhir/sid/us-npi","value":"123456"}],"name":[{"family":"Evil","prefix":["Dr"]}]},"request":{"method":"PUT","url":"Practitioner/cf20c925-48dc-4053-9fb0-945d298ed3f3"}},{"fullUrl":"https://madie.cms.gov/MeasureReport/885c8f2b-e03d-4d06-852a-f811e7cc9922","resource":{"resourceType":"MeasureReport","id":"885c8f2b-e03d-4d06-852a-f811e7cc9922","meta":{"profile":["http://hl7.org/fhir/us/cqfmeasures/StructureDefinition/test-case-cqfm"]},"contained":[{"resourceType":"Parameters","id":"0fcc7d23-f171-4b3d-aef6-b08fc88a00c7-parameters","parameter":[{"name":"subject","valueString":"f859dd94-f201-4517-a368-32b98dd486c9"}]}],"extension":[{"url":"http://hl7.org/fhir/us/cqfmeasures/StructureDefinition/cqfm-inputParameters","valueReference":{"reference":"#0fcc7d23-f171-4b3d-aef6-b08fc88a00c7-parameters"}},{"url":"http://hl7.org/fhir/us/cqfmeasures/StructureDefinition/cqfm-testCaseDescription","valueMarkdown":"meets IPP, meets Denominator, IPC applied not done MedRsn and Warfarin admin not done PatRfsl - during ED but ED > 1 hr before adm time, but it is on the same day as Adm date\n\"\n"}],"modifierExtension":[{"url":"http://hl7.org/fhir/us/cqfmeasures/StructureDefinition/cqfm-isTestCase","valueBoolean":true}],"status":"complete","type":"individual","measure":"https://madie.cms.gov/Measure/IntensiveCareUnitVenousThromboembolismProphylaxisFHIR","period":{"start":"2025-01-01","end":"2025-12-31"},"group":[{"population":[{"code":{"coding":[{"system":"http://terminology.hl7.org/CodeSystem/measure-population","code":"initial-population","display":"Initial Population"}]},"count":1},{"code":{"coding":[{"system":"http://terminology.hl7.org/CodeSystem/measure-population","code":"denominator","display":"Denominator"}]},"count":1},{"code":{"coding":[{"system":"http://terminology.hl7.org/CodeSystem/measure-population","code":"denominator-exclusion","display":"Denominator Exclusion"}]},"count":0},{"code":{"coding":[{"system":"http://terminology.hl7.org/CodeSystem/measure-population","code":"numerator","display":"Numerator"}]},"count":1},{"code":{"coding":[{"system":"http://terminology.hl7.org/CodeSystem/measure-population","code":"denominator-exception","display":"Denominator Exception"}]},"count":0}]}]},"request":{"method":"PUT","url":"MeasureReport/885c8f2b-e03d-4d06-852a-f811e7cc9922"}}]}