{"resourceType":"Bundle","id":"tests-24068f4d-3179-4f2f-872e-02e3b362cac0-bundle","type":"transaction","entry":[{"fullUrl":"https://madie.cms.gov/Patient/24068f4d-3179-4f2f-872e-02e3b362cac0","resource":{"resourceType":"Patient","id":"24068f4d-3179-4f2f-872e-02e3b362cac0","meta":{"profile":["http://hl7.org/fhir/us/qicore/StructureDefinition/qicore-patient"]},"text":{"status":"generated","div":"<div xmlns=\"http://www.w3.org/1999/xhtml\"><div class=\"hapiHeaderText\">CMOPerf1minB4EncEd2DayB4Enc <b>DENEXPASS </b></div><table class=\"hapiPropertyTable\"><tbody><tr><td>Identifier</td><td>c418ae51a353c7bea9882dfcbe25293a0248f676c9c3a21849ac6b06ce037aaa</td></tr><tr><td>Date of birth</td><td><span>03 March 1974</span></td></tr></tbody></table></div>"},"extension":[{"url":"http://hl7.org/fhir/us/core/StructureDefinition/us-core-race","extension":[{"url":"ombCategory","valueCoding":{"system":"urn:oid:2.16.840.1.113883.6.238","code":"1002-5","display":"American Indian or Alaska Native","userSelected":true}},{"url":"text","valueString":"American Indian or Alaska Native"}]},{"url":"http://hl7.org/fhir/us/core/StructureDefinition/us-core-ethnicity","extension":[{"url":"ombCategory","valueCoding":{"system":"urn:oid:2.16.840.1.113883.6.238","code":"2135-2","display":"Hispanic or Latino","userSelected":true}},{"url":"text","valueString":"Hispanic or Latino"}]}],"identifier":[{"type":{"coding":[{"system":"http://terminology.hl7.org/CodeSystem/v2-0203","code":"MR"}]},"system":"https://bonnie-fhir.healthit.gov/","value":"612e6e7802c62a011f2ee7c5"}],"active":true,"name":[{"use":"usual","family":"DENEXPass","given":["CMOPerf1minB4EncEd2DayB4Enc"]}],"gender":"female","birthDate":"1974-03-03"},"request":{"method":"PUT","url":"Patient/24068f4d-3179-4f2f-872e-02e3b362cac0"}},{"fullUrl":"https://madie.cms.gov/Encounter/5ce80971b848467c29eaf2aa","resource":{"resourceType":"Encounter","id":"b20c899e-0891-4948-9f52-bba59861eff0","meta":{"profile":["http://hl7.org/fhir/us/qicore/StructureDefinition/qicore-encounter"]},"status":"finished","class":{"system":"http://terminology.hl7.org/CodeSystem/v3-ActCode","code":"EMER","display":"emergency"},"type":[{"coding":[{"system":"http://snomed.info/sct","code":"4525004"}]}],"subject":{"reference":"Patient/24068f4d-3179-4f2f-872e-02e3b362cac0"},"period":{"start":"2025-12-02T06:00:00+00:00","end":"2025-12-02T18:30:00+00:00"},"length":{"value":0.0,"unit":"days"}},"request":{"method":"PUT","url":"Encounter/b20c899e-0891-4948-9f52-bba59861eff0"}},{"fullUrl":"https://madie.cms.gov/Encounter/5ce80971b848467c29eaf2ab","resource":{"resourceType":"Encounter","id":"a36e3e7d-7a79-4ef0-9af0-50b7f953eb69","meta":{"profile":["http://hl7.org/fhir/us/qicore/StructureDefinition/qicore-encounter"]},"status":"finished","class":{"system":"http://terminology.hl7.org/CodeSystem/v3-ActCode","code":"IMP","display":"inpatient encounter"},"type":[{"coding":[{"system":"http://snomed.info/sct","code":"8715000"}]}],"subject":{"reference":"Patient/24068f4d-3179-4f2f-872e-02e3b362cac0"},"period":{"start":"2025-12-04T08:00:00+00:00","end":"2025-12-30T08:15:00+00:00"},"length":{"value":26.0,"unit":"days"},"location":[{"location":{"reference":"Location/intensive-care-unit-7629"},"period":{"start":"2025-12-26T08:00:00.000+00:00","end":"2025-12-28T08:15:00.000+00:00"}}]},"request":{"method":"PUT","url":"Encounter/a36e3e7d-7a79-4ef0-9af0-50b7f953eb69"}},{"fullUrl":"https://madie.cms.gov/Procedure/5ce80971b848467c29eaf2ac","resource":{"resourceType":"Procedure","id":"4cd5e49b-7498-4160-8719-9e9e5aa61b0a","meta":{"profile":["http://hl7.org/fhir/us/qicore/StructureDefinition/qicore-procedure"]},"extension":[{"url":"http://hl7.org/fhir/us/qicore/StructureDefinition/qicore-recorded","valueDateTime":"2012-12-05T09:35:00-04:00"}],"status":"completed","code":{"coding":[{"system":"http://snomed.info/sct","code":"133918004"}]},"subject":{"reference":"Patient/24068f4d-3179-4f2f-872e-02e3b362cac0"},"performedPeriod":{"start":"2025-12-04T07:59:00+00:00"}},"request":{"method":"PUT","url":"Procedure/4cd5e49b-7498-4160-8719-9e9e5aa61b0a"}},{"fullUrl":"https://madie.cms.gov/Coverage/5fa041071c76ba66d99590f0","resource":{"resourceType":"Coverage","id":"42813aaa-3917-48ea-b38b-59e4e8ae19f5","status":"active","beneficiary":{"reference":"Patient/24068f4d-3179-4f2f-872e-02e3b362cac0"},"period":{"start":"1974-03-03T08:00:00+00:00"},"payor":[{"reference":"Organization/84b56847-ad40-4bf6-b612-9e42ad2a84e5"}]},"request":{"method":"PUT","url":"Coverage/42813aaa-3917-48ea-b38b-59e4e8ae19f5"}},{"fullUrl":"https://madie.cms.gov/Location/intensive-care-unit-7629","resource":{"resourceType":"Location","id":"d2658247-e563-4a20-aade-10a92811eb28","meta":{"profile":["http://hl7.org/fhir/us/qicore/StructureDefinition/qicore-location"]},"identifier":[{"use":"usual","system":"http://exampleoflocation.com","value":"B1-S.F2"}],"name":"Medical Surgical East, first floor","type":[{"coding":[{"system":"https://www.cdc.gov/nhsn/cdaportal/terminology/codesystem/hsloc.html","code":"1025-6","display":"Trauma Critical Care","userSelected":true}]}]},"request":{"method":"PUT","url":"Location/d2658247-e563-4a20-aade-10a92811eb28"}},{"fullUrl":"https://madie.cms.gov/Organization/123456","resource":{"resourceType":"Organization","id":"84b56847-ad40-4bf6-b612-9e42ad2a84e5","meta":{"profile":["http://hl7.org/fhir/us/qicore/StructureDefinition/qicore-organization"]},"identifier":[{"use":"temp","system":"urn:oid:2.16.840.1.113883.4.4","value":"21-3259825"}],"active":true,"type":[{"coding":[{"system":"http://terminology.hl7.org/CodeSystem/organization-type","code":"pay","display":"Payer"}]}],"name":"Blue Cross Blue Shield of Texas","telecom":[{"system":"phone","value":"(+1) 972-766-6900"}],"address":[{"use":"billing","type":"postal","line":["P.O. Box 660044"],"city":"Dallas","state":"TX","postalCode":"75266-0044","country":"USA"}]},"request":{"method":"PUT","url":"Organization/84b56847-ad40-4bf6-b612-9e42ad2a84e5"}},{"fullUrl":"https://madie.cms.gov/Practitioner/practitioner-123456","resource":{"resourceType":"Practitioner","id":"665c01c5-7c89-4b61-8089-5102f3fc0eb4","identifier":[{"system":"http://hl7.org/fhir/sid/us-npi","value":"123456"}],"name":[{"family":"Evil","prefix":["Dr"]}]},"request":{"method":"PUT","url":"Practitioner/665c01c5-7c89-4b61-8089-5102f3fc0eb4"}},{"fullUrl":"https://madie.cms.gov/MeasureReport/205b6c42-0ff3-4562-9f1d-f72597e0b6ee","resource":{"resourceType":"MeasureReport","id":"205b6c42-0ff3-4562-9f1d-f72597e0b6ee","meta":{"profile":["http://hl7.org/fhir/us/cqfmeasures/StructureDefinition/test-case-cqfm"]},"contained":[{"resourceType":"Parameters","id":"e47a76a6-1f2f-4b38-a31f-875d401f56eb-parameters","parameter":[{"name":"subject","valueString":"24068f4d-3179-4f2f-872e-02e3b362cac0"}]}],"extension":[{"url":"http://hl7.org/fhir/us/cqfmeasures/StructureDefinition/cqfm-inputParameters","valueReference":{"reference":"#e47a76a6-1f2f-4b38-a31f-875d401f56eb-parameters"}},{"url":"http://hl7.org/fhir/us/cqfmeasures/StructureDefinition/cqfm-testCaseDescription","valueMarkdown":"meets IPP and Denominator, inpatient visit starts >1 day after the end of ED visit(Global Hosp without Ed) AND Comfort Measures are performed 1 min before EncIP,. This case passes DENEXCL because CMO is on the same day as Adm\n"}],"modifierExtension":[{"url":"http://hl7.org/fhir/us/cqfmeasures/StructureDefinition/cqfm-isTestCase","valueBoolean":true}],"status":"complete","type":"individual","measure":"https://madie.cms.gov/Measure/IntensiveCareUnitVenousThromboembolismProphylaxisFHIR","period":{"start":"2025-01-01","end":"2025-12-31"},"group":[{"population":[{"code":{"coding":[{"system":"http://terminology.hl7.org/CodeSystem/measure-population","code":"initial-population","display":"Initial Population"}]},"count":1},{"code":{"coding":[{"system":"http://terminology.hl7.org/CodeSystem/measure-population","code":"denominator","display":"Denominator"}]},"count":1},{"code":{"coding":[{"system":"http://terminology.hl7.org/CodeSystem/measure-population","code":"denominator-exclusion","display":"Denominator Exclusion"}]},"count":1},{"code":{"coding":[{"system":"http://terminology.hl7.org/CodeSystem/measure-population","code":"numerator","display":"Numerator"}]},"count":0},{"code":{"coding":[{"system":"http://terminology.hl7.org/CodeSystem/measure-population","code":"denominator-exception","display":"Denominator Exception"}]},"count":0}]}]},"request":{"method":"PUT","url":"MeasureReport/205b6c42-0ff3-4562-9f1d-f72597e0b6ee"}}]}