{"resourceType":"Bundle","id":"tests-324eb2e7-2beb-4c84-88ff-bdf9fa5d8171-bundle","type":"transaction","entry":[{"fullUrl":"https://madie.cms.gov/Patient/324eb2e7-2beb-4c84-88ff-bdf9fa5d8171","resource":{"resourceType":"Patient","id":"324eb2e7-2beb-4c84-88ff-bdf9fa5d8171","meta":{"profile":["http://hl7.org/fhir/us/qicore/StructureDefinition/qicore-patient"]},"text":{"status":"generated","div":"<div xmlns=\"http://www.w3.org/1999/xhtml\"><div class=\"hapiHeaderText\">MARiv1DayAfterAnesProc1DayAFICUAdm <b>NUMERPASS </b></div><table class=\"hapiPropertyTable\"><tbody><tr><td>Identifier</td><td>64846eeef3495268258129327974b438</td></tr><tr><td>Date of birth</td><td><span>03 March 1974</span></td></tr></tbody></table></div>"},"extension":[{"url":"http://hl7.org/fhir/us/core/StructureDefinition/us-core-race","extension":[{"url":"ombCategory","valueCoding":{"system":"urn:oid:2.16.840.1.113883.6.238","code":"1002-5","display":"American Indian or Alaska Native","userSelected":true}},{"url":"text","valueString":"American Indian or Alaska Native"}]},{"url":"http://hl7.org/fhir/us/core/StructureDefinition/us-core-ethnicity","extension":[{"url":"ombCategory","valueCoding":{"system":"urn:oid:2.16.840.1.113883.6.238","code":"2135-2","display":"Hispanic or Latino","userSelected":true}},{"url":"text","valueString":"Hispanic or Latino"}]}],"identifier":[{"type":{"coding":[{"system":"http://terminology.hl7.org/CodeSystem/v2-0203","code":"MR"}]},"system":"https://bonnie-fhir.healthit.gov/","value":"612e6f7f02c62a011f2f2077"}],"active":true,"name":[{"use":"usual","family":"NUMERPass","given":["MARiv1DayAfterAnesProc1DayAFICUAdm"]}],"gender":"female","birthDate":"1974-03-03"},"request":{"method":"PUT","url":"Patient/324eb2e7-2beb-4c84-88ff-bdf9fa5d8171"}},{"fullUrl":"https://madie.cms.gov/Encounter/5ce80970b848467c29eaf287","resource":{"resourceType":"Encounter","id":"5272d9c7-7192-42fa-bdd0-ee523629cc02","meta":{"profile":["http://hl7.org/fhir/us/qicore/StructureDefinition/qicore-encounter"]},"status":"finished","class":{"system":"http://terminology.hl7.org/CodeSystem/v3-ActCode","code":"IMP","display":"inpatient encounter"},"type":[{"coding":[{"system":"http://snomed.info/sct","code":"8715000"}]}],"subject":{"reference":"Patient/324eb2e7-2beb-4c84-88ff-bdf9fa5d8171"},"period":{"start":"2025-12-04T08:00:00+00:00","end":"2025-12-30T08:15:00+00:00"},"length":{"value":26.0,"unit":"days"},"location":[{"location":{"reference":"Location/Location-1"},"period":{"start":"2025-12-06T09:00:00.000+00:00","end":"2025-12-12T08:15:00.000+00:00"}}]},"request":{"method":"PUT","url":"Encounter/5272d9c7-7192-42fa-bdd0-ee523629cc02"}},{"fullUrl":"https://madie.cms.gov/Coverage/5fa0410a1c76ba66d9959132","resource":{"resourceType":"Coverage","id":"1a68aab6-78b2-419f-8b33-148b7ebb2136","status":"active","beneficiary":{"reference":"Patient/324eb2e7-2beb-4c84-88ff-bdf9fa5d8171"},"period":{"start":"1974-03-03T08:00:00+00:00"},"payor":[{"reference":"Organization/a6c3e6fa-301e-4714-9d04-3dde9a7e7c49"}]},"request":{"method":"PUT","url":"Coverage/1a68aab6-78b2-419f-8b33-148b7ebb2136"}},{"fullUrl":"https://madie.cms.gov/MedicationAdministration/5e27196ab9a54c000051d56c","resource":{"resourceType":"MedicationAdministration","id":"30f4fa56-cd07-4806-b6ce-db928ea24a68","meta":{"profile":["http://hl7.org/fhir/us/qicore/StructureDefinition/qicore-medicationadministration"]},"status":"completed","medicationCodeableConcept":{"coding":[{"system":"http://www.nlm.nih.gov/research/umls/rxnorm","code":"1114198"}]},"subject":{"reference":"Patient/324eb2e7-2beb-4c84-88ff-bdf9fa5d8171"},"effectivePeriod":{"start":"2025-12-08T11:30:00+00:00"}},"request":{"method":"PUT","url":"MedicationAdministration/30f4fa56-cd07-4806-b6ce-db928ea24a68"}},{"fullUrl":"https://madie.cms.gov/Procedure/5ce80970b848467c29eaf28a","resource":{"resourceType":"Procedure","id":"31568a53-62d7-408e-a263-32ecb576e283","meta":{"profile":["http://hl7.org/fhir/us/qicore/StructureDefinition/qicore-procedure"]},"extension":[{"url":"http://hl7.org/fhir/us/qicore/StructureDefinition/qicore-recorded","valueDateTime":"2012-12-07T09:35:00-04:00"}],"status":"completed","code":{"coding":[{"system":"http://www.icd10data.com/icd10pcs","code":"3E030FZ"},{"system":"http://snomed.info/sct","code":"18946005"}]},"subject":{"reference":"Patient/324eb2e7-2beb-4c84-88ff-bdf9fa5d8171"},"performedPeriod":{"start":"2025-12-07T11:00:00+00:00","end":"2025-12-07T11:15:00+00:00"}},"request":{"method":"PUT","url":"Procedure/31568a53-62d7-408e-a263-32ecb576e283"}},{"fullUrl":"https://madie.cms.gov/Location/Location-1","resource":{"resourceType":"Location","id":"90bbe415-cf7a-4dfe-a162-098bb700dc41","meta":{"profile":["http://hl7.org/fhir/us/qicore/StructureDefinition/qicore-location"]},"identifier":[{"use":"usual","system":"http://exampleoflocation.com","value":"B1-S.F2"}],"name":"Medical Surgical East, first floor","type":[{"coding":[{"system":"https://www.cdc.gov/nhsn/cdaportal/terminology/codesystem/hsloc.html","code":"1025-6","display":"Trauma Critical Care","userSelected":true}]}]},"request":{"method":"PUT","url":"Location/90bbe415-cf7a-4dfe-a162-098bb700dc41"}},{"fullUrl":"https://madie.cms.gov/Organization/123456","resource":{"resourceType":"Organization","id":"a6c3e6fa-301e-4714-9d04-3dde9a7e7c49","meta":{"profile":["http://hl7.org/fhir/us/qicore/StructureDefinition/qicore-organization"]},"identifier":[{"use":"temp","system":"urn:oid:2.16.840.1.113883.4.4","value":"21-3259825"}],"active":true,"type":[{"coding":[{"system":"http://terminology.hl7.org/CodeSystem/organization-type","code":"pay","display":"Payer"}]}],"name":"Blue Cross Blue Shield of Texas","telecom":[{"system":"phone","value":"(+1) 972-766-6900"}],"address":[{"use":"billing","type":"postal","line":["P.O. Box 660044"],"city":"Dallas","state":"TX","postalCode":"75266-0044","country":"USA"}]},"request":{"method":"PUT","url":"Organization/a6c3e6fa-301e-4714-9d04-3dde9a7e7c49"}},{"fullUrl":"https://madie.cms.gov/Practitioner/practitioner-123456","resource":{"resourceType":"Practitioner","id":"f33068af-9451-4f7d-8a40-0216dc963986","identifier":[{"system":"http://hl7.org/fhir/sid/us-npi","value":"123456"}],"name":[{"family":"Evil","prefix":["Dr"]}]},"request":{"method":"PUT","url":"Practitioner/f33068af-9451-4f7d-8a40-0216dc963986"}},{"fullUrl":"https://madie.cms.gov/MeasureReport/c40fad24-480a-44f5-958f-8785a7b8f0c3","resource":{"resourceType":"MeasureReport","id":"c40fad24-480a-44f5-958f-8785a7b8f0c3","meta":{"profile":["http://hl7.org/fhir/us/cqfmeasures/StructureDefinition/test-case-cqfm"]},"contained":[{"resourceType":"Parameters","id":"2108875b-f14c-4bcb-af98-8f20f17e9c78-parameters","parameter":[{"name":"subject","valueString":"324eb2e7-2beb-4c84-88ff-bdf9fa5d8171"}]}],"extension":[{"url":"http://hl7.org/fhir/us/cqfmeasures/StructureDefinition/cqfm-inputParameters","valueReference":{"reference":"#2108875b-f14c-4bcb-af98-8f20f17e9c78-parameters"}},{"url":"http://hl7.org/fhir/us/cqfmeasures/StructureDefinition/cqfm-testCaseDescription","valueMarkdown":"Rivaroxaban for VTE Prophylaxis administered 1 day after neuraxial anesthesia which procedure ends 1 day after ICU Adm date\n"}],"modifierExtension":[{"url":"http://hl7.org/fhir/us/cqfmeasures/StructureDefinition/cqfm-isTestCase","valueBoolean":true}],"status":"complete","type":"individual","measure":"https://madie.cms.gov/Measure/IntensiveCareUnitVenousThromboembolismProphylaxisFHIR","period":{"start":"2025-01-01","end":"2025-12-31"},"group":[{"population":[{"code":{"coding":[{"system":"http://terminology.hl7.org/CodeSystem/measure-population","code":"initial-population","display":"Initial Population"}]},"count":1},{"code":{"coding":[{"system":"http://terminology.hl7.org/CodeSystem/measure-population","code":"denominator","display":"Denominator"}]},"count":1},{"code":{"coding":[{"system":"http://terminology.hl7.org/CodeSystem/measure-population","code":"denominator-exclusion","display":"Denominator Exclusion"}]},"count":0},{"code":{"coding":[{"system":"http://terminology.hl7.org/CodeSystem/measure-population","code":"numerator","display":"Numerator"}]},"count":1},{"code":{"coding":[{"system":"http://terminology.hl7.org/CodeSystem/measure-population","code":"denominator-exception","display":"Denominator Exception"}]},"count":0}]}]},"request":{"method":"PUT","url":"MeasureReport/c40fad24-480a-44f5-958f-8785a7b8f0c3"}}]}