{"resourceType":"Bundle","id":"tests-b9c40fdd-af88-483a-b987-a00753c70eb9-bundle","type":"transaction","entry":[{"fullUrl":"https://madie.cms.gov/Patient/b9c40fdd-af88-483a-b987-a00753c70eb9","resource":{"resourceType":"Patient","id":"b9c40fdd-af88-483a-b987-a00753c70eb9","meta":{"profile":["http://hl7.org/fhir/us/qicore/StructureDefinition/qicore-patient"]},"text":{"status":"generated","div":"<div xmlns=\"http://www.w3.org/1999/xhtml\"><div class=\"hapiHeaderText\">RiskAssessDuringED <b>NUMERPASS </b></div><table class=\"hapiPropertyTable\"><tbody><tr><td>Identifier</td><td>a3219b39ecf0f23fe4e7afd2937b490a</td></tr><tr><td>Date of birth</td><td><span>03 March 1974</span></td></tr></tbody></table></div>"},"extension":[{"url":"http://hl7.org/fhir/us/core/StructureDefinition/us-core-race","extension":[{"url":"ombCategory","valueCoding":{"system":"urn:oid:2.16.840.1.113883.6.238","code":"1002-5","display":"American Indian or Alaska Native","userSelected":true}},{"url":"text","valueString":"American Indian or Alaska Native"}]},{"url":"http://hl7.org/fhir/us/core/StructureDefinition/us-core-ethnicity","extension":[{"url":"ombCategory","valueCoding":{"system":"urn:oid:2.16.840.1.113883.6.238","code":"2135-2","display":"Hispanic or Latino","userSelected":true}},{"url":"text","valueString":"Hispanic or Latino"}]}],"identifier":[{"type":{"coding":[{"system":"http://terminology.hl7.org/CodeSystem/v2-0203","code":"MR"}]},"system":"https://bonnie-fhir.healthit.gov/","value":"612e6ef002c62a011f2f018b"}],"active":true,"name":[{"use":"usual","family":"NUMERPass","given":["RiskAssessDuringED"]}],"gender":"female","birthDate":"1974-03-03"},"request":{"method":"PUT","url":"Patient/b9c40fdd-af88-483a-b987-a00753c70eb9"}},{"fullUrl":"https://madie.cms.gov/Encounter/5ce80970b848467c29eaf20e","resource":{"resourceType":"Encounter","id":"278dc0b2-f705-4bd3-8fc7-41545e07041a","meta":{"profile":["http://hl7.org/fhir/us/qicore/StructureDefinition/qicore-encounter"]},"status":"finished","class":{"system":"http://terminology.hl7.org/CodeSystem/v3-ActCode","code":"EMER","display":"emergency"},"type":[{"coding":[{"system":"http://snomed.info/sct","code":"4525004"}]}],"subject":{"reference":"Patient/b9c40fdd-af88-483a-b987-a00753c70eb9"},"period":{"start":"2025-12-06T02:00:00+00:00","end":"2025-12-06T08:15:00+00:00"},"length":{"value":0.0,"unit":"days"}},"request":{"method":"PUT","url":"Encounter/278dc0b2-f705-4bd3-8fc7-41545e07041a"}},{"fullUrl":"https://madie.cms.gov/Encounter/5ce80970b848467c29eaf20f","resource":{"resourceType":"Encounter","id":"b003f36c-ace7-4292-903f-6ef1a64f4d98","meta":{"profile":["http://hl7.org/fhir/us/qicore/StructureDefinition/qicore-encounter"]},"status":"finished","class":{"system":"http://terminology.hl7.org/CodeSystem/v3-ActCode","code":"IMP","display":"inpatient encounter"},"type":[{"coding":[{"system":"http://snomed.info/sct","code":"8715000"}]}],"subject":{"reference":"Patient/b9c40fdd-af88-483a-b987-a00753c70eb9"},"period":{"start":"2025-12-06T08:45:00+00:00","end":"2025-12-30T08:15:00+00:00"},"length":{"value":24.0,"unit":"days"},"location":[{"location":{"reference":"Location/Location-1"},"period":{"start":"2025-12-06T09:00:00.000+00:00","end":"2025-12-12T08:15:00.000+00:00"}}]},"request":{"method":"PUT","url":"Encounter/b003f36c-ace7-4292-903f-6ef1a64f4d98"}},{"fullUrl":"https://madie.cms.gov/Observation/5ce80970b848467c29eaf210","resource":{"resourceType":"Observation","id":"bbc27335-4040-4aa6-8762-ef56c149905d","meta":{"profile":["http://hl7.org/fhir/us/qicore/StructureDefinition/qicore-observation"]},"status":"final","category":[{"coding":[{"system":"http://terminology.hl7.org/CodeSystem/observation-category","code":"exam","display":"exam"}]}],"code":{"coding":[{"system":"http://loinc.org","code":"72136-5"}]},"subject":{"reference":"Patient/b9c40fdd-af88-483a-b987-a00753c70eb9"},"effectiveDateTime":"2025-12-06T06:30:00+00:00","valueCodeableConcept":{"coding":[{"system":"http://snomed.info/sct","code":"260362008","display":"Low Risk"}]}},"request":{"method":"PUT","url":"Observation/bbc27335-4040-4aa6-8762-ef56c149905d"}},{"fullUrl":"https://madie.cms.gov/Coverage/5fa040f61c76ba66d9958fc7","resource":{"resourceType":"Coverage","id":"0b882cc5-4fe7-4a7f-ab05-8cb0fa978629","status":"active","beneficiary":{"reference":"Patient/b9c40fdd-af88-483a-b987-a00753c70eb9"},"period":{"start":"1974-03-03T08:00:00+00:00"},"payor":[{"reference":"Organization/f6075515-d38f-4624-bde8-a1ce20473a69"}]},"request":{"method":"PUT","url":"Coverage/0b882cc5-4fe7-4a7f-ab05-8cb0fa978629"}},{"fullUrl":"https://madie.cms.gov/Location/Location-1","resource":{"resourceType":"Location","id":"7d01a997-f083-4689-b26d-cc49b1c2c5c7","meta":{"profile":["http://hl7.org/fhir/us/qicore/StructureDefinition/qicore-location"]},"identifier":[{"use":"usual","system":"http://exampleoflocation.com","value":"B1-S.F2"}],"name":"Medical Surgical East, first floor","type":[{"coding":[{"system":"https://www.cdc.gov/nhsn/cdaportal/terminology/codesystem/hsloc.html","code":"1025-6","display":"Trauma Critical Care","userSelected":true}]}]},"request":{"method":"PUT","url":"Location/7d01a997-f083-4689-b26d-cc49b1c2c5c7"}},{"fullUrl":"https://madie.cms.gov/Organization/123456","resource":{"resourceType":"Organization","id":"f6075515-d38f-4624-bde8-a1ce20473a69","meta":{"profile":["http://hl7.org/fhir/us/qicore/StructureDefinition/qicore-organization"]},"identifier":[{"use":"temp","system":"urn:oid:2.16.840.1.113883.4.4","value":"21-3259825"}],"active":true,"type":[{"coding":[{"system":"http://terminology.hl7.org/CodeSystem/organization-type","code":"pay","display":"Payer"}]}],"name":"Blue Cross Blue Shield of Texas","telecom":[{"system":"phone","value":"(+1) 972-766-6900"}],"address":[{"use":"billing","type":"postal","line":["P.O. Box 660044"],"city":"Dallas","state":"TX","postalCode":"75266-0044","country":"USA"}]},"request":{"method":"PUT","url":"Organization/f6075515-d38f-4624-bde8-a1ce20473a69"}},{"fullUrl":"https://madie.cms.gov/Practitioner/practitioner-123456","resource":{"resourceType":"Practitioner","id":"f999ba2e-8f0a-44a0-aaea-cc2160fc3abb","identifier":[{"system":"http://hl7.org/fhir/sid/us-npi","value":"123456"}],"name":[{"family":"Evil","prefix":["Dr"]}]},"request":{"method":"PUT","url":"Practitioner/f999ba2e-8f0a-44a0-aaea-cc2160fc3abb"}},{"fullUrl":"https://madie.cms.gov/MeasureReport/5bb2f13b-1262-4371-b599-35c2e8244430","resource":{"resourceType":"MeasureReport","id":"5bb2f13b-1262-4371-b599-35c2e8244430","meta":{"profile":["http://hl7.org/fhir/us/cqfmeasures/StructureDefinition/test-case-cqfm"]},"contained":[{"resourceType":"Parameters","id":"574e38c6-13f8-4095-8ceb-54c795e18d81-parameters","parameter":[{"name":"subject","valueString":"b9c40fdd-af88-483a-b987-a00753c70eb9"}]}],"extension":[{"url":"http://hl7.org/fhir/us/cqfmeasures/StructureDefinition/cqfm-inputParameters","valueReference":{"reference":"#574e38c6-13f8-4095-8ceb-54c795e18d81-parameters"}},{"url":"http://hl7.org/fhir/us/cqfmeasures/StructureDefinition/cqfm-testCaseDescription","valueMarkdown":"meets IPP, meets Denominator, RCA VTErisk during ED, ED endTime less than 1 hour before Start of ICU\n"}],"modifierExtension":[{"url":"http://hl7.org/fhir/us/cqfmeasures/StructureDefinition/cqfm-isTestCase","valueBoolean":true}],"status":"complete","type":"individual","measure":"https://madie.cms.gov/Measure/IntensiveCareUnitVenousThromboembolismProphylaxisFHIR","period":{"start":"2025-01-01","end":"2025-12-31"},"group":[{"population":[{"code":{"coding":[{"system":"http://terminology.hl7.org/CodeSystem/measure-population","code":"initial-population","display":"Initial Population"}]},"count":1},{"code":{"coding":[{"system":"http://terminology.hl7.org/CodeSystem/measure-population","code":"denominator","display":"Denominator"}]},"count":1},{"code":{"coding":[{"system":"http://terminology.hl7.org/CodeSystem/measure-population","code":"denominator-exclusion","display":"Denominator Exclusion"}]},"count":0},{"code":{"coding":[{"system":"http://terminology.hl7.org/CodeSystem/measure-population","code":"numerator","display":"Numerator"}]},"count":1},{"code":{"coding":[{"system":"http://terminology.hl7.org/CodeSystem/measure-population","code":"denominator-exception","display":"Denominator Exception"}]},"count":0}]}]},"request":{"method":"PUT","url":"MeasureReport/5bb2f13b-1262-4371-b599-35c2e8244430"}}]}