{"resourceType":"Bundle","id":"tests-63050905-516c-41e9-8e97-c792143fdd0b-bundle","type":"transaction","entry":[{"fullUrl":"https://madie.cms.gov/Patient/63050905-516c-41e9-8e97-c792143fdd0b","resource":{"resourceType":"Patient","id":"63050905-516c-41e9-8e97-c792143fdd0b","meta":{"profile":["http://hl7.org/fhir/us/qicore/StructureDefinition/qicore-patient"]},"text":{"status":"generated","div":"<div xmlns=\"http://www.w3.org/1999/xhtml\"><div class=\"hapiHeaderText\">CMODuringED <b>DENEXPASS </b></div><table class=\"hapiPropertyTable\"><tbody><tr><td>Identifier</td><td>45452ea1dc23640e1878befc89e45fab</td></tr><tr><td>Date of birth</td><td><span>03 March 1974</span></td></tr></tbody></table></div>"},"extension":[{"url":"http://hl7.org/fhir/us/core/StructureDefinition/us-core-race","extension":[{"url":"ombCategory","valueCoding":{"system":"urn:oid:2.16.840.1.113883.6.238","code":"1002-5","display":"American Indian or Alaska Native","userSelected":true}},{"url":"text","valueString":"American Indian or Alaska Native"}]},{"url":"http://hl7.org/fhir/us/core/StructureDefinition/us-core-ethnicity","extension":[{"url":"ombCategory","valueCoding":{"system":"urn:oid:2.16.840.1.113883.6.238","code":"2135-2","display":"Hispanic or Latino","userSelected":true}},{"url":"text","valueString":"Hispanic or Latino"}]}],"identifier":[{"type":{"coding":[{"system":"http://terminology.hl7.org/CodeSystem/v2-0203","code":"MR"}]},"system":"https://bonnie-fhir.healthit.gov/","value":"612e6e7d02c62a011f2ee907"}],"active":true,"name":[{"use":"usual","family":"DENEXPass","given":["CMODuringED"]}],"gender":"female","birthDate":"1974-03-03"},"request":{"method":"PUT","url":"Patient/63050905-516c-41e9-8e97-c792143fdd0b"}},{"fullUrl":"https://madie.cms.gov/Encounter/5ce8096eb848467c29eaf115","resource":{"resourceType":"Encounter","id":"00d278c8-9837-49a9-8190-2abb0a41bfff","meta":{"profile":["http://hl7.org/fhir/us/qicore/StructureDefinition/qicore-encounter"]},"status":"finished","class":{"system":"http://terminology.hl7.org/CodeSystem/v3-ActCode","code":"EMER","display":"emergency"},"type":[{"coding":[{"system":"http://snomed.info/sct","code":"4525004"}]}],"subject":{"reference":"Patient/63050905-516c-41e9-8e97-c792143fdd0b"},"period":{"start":"2025-12-04T06:00:00+00:00","end":"2025-12-04T07:15:00+00:00"},"length":{"value":0.0,"unit":"days"}},"request":{"method":"PUT","url":"Encounter/00d278c8-9837-49a9-8190-2abb0a41bfff"}},{"fullUrl":"https://madie.cms.gov/Encounter/5ce8096eb848467c29eaf116","resource":{"resourceType":"Encounter","id":"f4cd1cab-e99c-4e6e-8b16-d04dada347e6","meta":{"profile":["http://hl7.org/fhir/us/qicore/StructureDefinition/qicore-encounter"]},"status":"finished","class":{"system":"http://terminology.hl7.org/CodeSystem/v3-ActCode","code":"IMP","display":"inpatient encounter"},"type":[{"coding":[{"system":"http://snomed.info/sct","code":"8715000"}]}],"subject":{"reference":"Patient/63050905-516c-41e9-8e97-c792143fdd0b"},"period":{"start":"2025-12-04T08:00:00+00:00","end":"2025-12-30T08:15:00+00:00"},"length":{"value":26.0,"unit":"days"},"location":[{"location":{"reference":"Location/Location-1"},"period":{"start":"2025-12-26T08:00:00.000+00:00","end":"2025-12-28T08:15:00.000+00:00"}}]},"request":{"method":"PUT","url":"Encounter/f4cd1cab-e99c-4e6e-8b16-d04dada347e6"}},{"fullUrl":"https://madie.cms.gov/ServiceRequest/5ce8096eb848467c29eaf117","resource":{"resourceType":"ServiceRequest","id":"c4e474d7-a3af-46be-95ff-cee8c4d4cdf3","meta":{"profile":["http://hl7.org/fhir/us/qicore/StructureDefinition/qicore-servicerequest"]},"status":"completed","intent":"order","code":{"coding":[{"system":"http://snomed.info/sct","code":"133918004"}]},"subject":{"reference":"Patient/63050905-516c-41e9-8e97-c792143fdd0b"},"authoredOn":"2025-12-04T06:30:00+00:00"},"request":{"method":"PUT","url":"ServiceRequest/c4e474d7-a3af-46be-95ff-cee8c4d4cdf3"}},{"fullUrl":"https://madie.cms.gov/Coverage/5fa040f41c76ba66d9958fa6","resource":{"resourceType":"Coverage","id":"3758cbe0-f9a4-4397-90aa-06486504147c","status":"active","beneficiary":{"reference":"Patient/63050905-516c-41e9-8e97-c792143fdd0b"},"period":{"start":"1974-03-03T08:00:00+00:00"},"payor":[{"reference":"Organization/880a275e-1cf2-4fb9-869b-f1d2173fdc2b"}]},"request":{"method":"PUT","url":"Coverage/3758cbe0-f9a4-4397-90aa-06486504147c"}},{"fullUrl":"https://madie.cms.gov/Location/intensive-care-unit-7625","resource":{"resourceType":"Location","id":"8afe18cc-de37-45a0-a7a1-8f389e7f7bed","type":[{"coding":[{"system":"http://cts.nlm.nih.gov/fhir/cs/hsloc","version":"2020","code":"1025-6","display":"Trauma Critical Care","userSelected":true}]}]},"request":{"method":"PUT","url":"Location/8afe18cc-de37-45a0-a7a1-8f389e7f7bed"}},{"fullUrl":"https://madie.cms.gov/Location/Location-1","resource":{"resourceType":"Location","id":"3d8c985c-a895-483f-b580-afbd1a41d17d","meta":{"profile":["http://hl7.org/fhir/us/qicore/StructureDefinition/qicore-location"]},"identifier":[{"use":"usual","system":"http://exampleoflocation.com","value":"B1-S.F2"}],"name":"Medical Surgical East, first floor","type":[{"coding":[{"system":"https://www.cdc.gov/nhsn/cdaportal/terminology/codesystem/hsloc.html","code":"1025-6","display":"Trauma Critical Care","userSelected":true}]}]},"request":{"method":"PUT","url":"Location/3d8c985c-a895-483f-b580-afbd1a41d17d"}},{"fullUrl":"https://madie.cms.gov/Organization/123456","resource":{"resourceType":"Organization","id":"880a275e-1cf2-4fb9-869b-f1d2173fdc2b","meta":{"profile":["http://hl7.org/fhir/us/qicore/StructureDefinition/qicore-organization"]},"identifier":[{"use":"temp","system":"urn:oid:2.16.840.1.113883.4.4","value":"21-3259825"}],"active":true,"type":[{"coding":[{"system":"http://terminology.hl7.org/CodeSystem/organization-type","code":"pay","display":"Payer"}]}],"name":"Blue Cross Blue Shield of Texas","telecom":[{"system":"phone","value":"(+1) 972-766-6900"}],"address":[{"use":"billing","type":"postal","line":["P.O. Box 660044"],"city":"Dallas","state":"TX","postalCode":"75266-0044","country":"USA"}]},"request":{"method":"PUT","url":"Organization/880a275e-1cf2-4fb9-869b-f1d2173fdc2b"}},{"fullUrl":"https://madie.cms.gov/Practitioner/practitioner-123456","resource":{"resourceType":"Practitioner","id":"7acd1094-df8c-4920-95ec-6048dfb7432f","identifier":[{"system":"http://hl7.org/fhir/sid/us-npi","value":"123456"}],"name":[{"family":"Evil","prefix":["Dr"]}]},"request":{"method":"PUT","url":"Practitioner/7acd1094-df8c-4920-95ec-6048dfb7432f"}},{"fullUrl":"https://madie.cms.gov/MeasureReport/defaac40-24d0-4309-954e-1fead1232cca","resource":{"resourceType":"MeasureReport","id":"defaac40-24d0-4309-954e-1fead1232cca","meta":{"profile":["http://hl7.org/fhir/us/cqfmeasures/StructureDefinition/test-case-cqfm"]},"contained":[{"resourceType":"Parameters","id":"03889e21-030b-415c-a6f6-c3aa76e01bff-parameters","parameter":[{"name":"subject","valueString":"63050905-516c-41e9-8e97-c792143fdd0b"}]}],"extension":[{"url":"http://hl7.org/fhir/us/cqfmeasures/StructureDefinition/cqfm-inputParameters","valueReference":{"reference":"#03889e21-030b-415c-a6f6-c3aa76e01bff-parameters"}},{"url":"http://hl7.org/fhir/us/cqfmeasures/StructureDefinition/cqfm-testCaseDescription","valueMarkdown":"meets IPP and Denominator, inpatient visit starts <=1 hour after the end of ED visit AND Comfort Measures are ordered during ED visit\n"}],"modifierExtension":[{"url":"http://hl7.org/fhir/us/cqfmeasures/StructureDefinition/cqfm-isTestCase","valueBoolean":true}],"status":"complete","type":"individual","measure":"https://madie.cms.gov/Measure/IntensiveCareUnitVenousThromboembolismProphylaxisFHIR","period":{"start":"2025-01-01","end":"2025-12-31"},"group":[{"population":[{"code":{"coding":[{"system":"http://terminology.hl7.org/CodeSystem/measure-population","code":"initial-population","display":"Initial Population"}]},"count":1},{"code":{"coding":[{"system":"http://terminology.hl7.org/CodeSystem/measure-population","code":"denominator","display":"Denominator"}]},"count":1},{"code":{"coding":[{"system":"http://terminology.hl7.org/CodeSystem/measure-population","code":"denominator-exclusion","display":"Denominator Exclusion"}]},"count":1},{"code":{"coding":[{"system":"http://terminology.hl7.org/CodeSystem/measure-population","code":"numerator","display":"Numerator"}]},"count":0},{"code":{"coding":[{"system":"http://terminology.hl7.org/CodeSystem/measure-population","code":"denominator-exception","display":"Denominator Exception"}]},"count":0}]}]},"request":{"method":"PUT","url":"MeasureReport/defaac40-24d0-4309-954e-1fead1232cca"}}]}