{"resourceType":"Bundle","id":"tests-7961993e-f025-4a12-9bb8-461c6ab3870e-bundle","type":"transaction","entry":[{"fullUrl":"https://madie.cms.gov/Patient/7961993e-f025-4a12-9bb8-461c6ab3870e","resource":{"resourceType":"Patient","id":"7961993e-f025-4a12-9bb8-461c6ab3870e","meta":{"profile":["http://hl7.org/fhir/us/qicore/StructureDefinition/qicore-patient"]},"text":{"status":"generated","div":"<div xmlns=\"http://www.w3.org/1999/xhtml\"><div class=\"hapiHeaderText\">FactorXaDuringICUDxVTERemission <b>NUMERPASS </b></div><table class=\"hapiPropertyTable\"><tbody><tr><td>Identifier</td><td>ba9e367399672c89721f9d3c22d115ac</td></tr><tr><td>Date of birth</td><td><span>03 March 1974</span></td></tr></tbody></table></div>"},"extension":[{"url":"http://hl7.org/fhir/us/core/StructureDefinition/us-core-race","extension":[{"url":"ombCategory","valueCoding":{"system":"urn:oid:2.16.840.1.113883.6.238","code":"1002-5","display":"American Indian or Alaska Native","userSelected":true}},{"url":"text","valueString":"American Indian or Alaska Native"}]},{"url":"http://hl7.org/fhir/us/core/StructureDefinition/us-core-ethnicity","extension":[{"url":"ombCategory","valueCoding":{"system":"urn:oid:2.16.840.1.113883.6.238","code":"2135-2","display":"Hispanic or Latino","userSelected":true}},{"url":"text","valueString":"Hispanic or Latino"}]}],"identifier":[{"type":{"coding":[{"system":"http://terminology.hl7.org/CodeSystem/v2-0203","code":"MR"}]},"system":"https://bonnie-fhir.healthit.gov/","value":"63050905-516c-41e9-8e97-c792143fdd0d"}],"active":true,"name":[{"use":"usual","family":"NUMERPass","given":["FactorXaDuringICUDxVTERemission"]}],"gender":"female","birthDate":"1974-03-03"},"request":{"method":"PUT","url":"Patient/7961993e-f025-4a12-9bb8-461c6ab3870e"}},{"fullUrl":"https://madie.cms.gov/Encounter/5ce80970b848467c29eaf1fd","resource":{"resourceType":"Encounter","id":"d3701106-8c85-4f48-b7df-13ed851def9b","meta":{"profile":["http://hl7.org/fhir/us/qicore/StructureDefinition/qicore-encounter"]},"status":"finished","class":{"system":"http://terminology.hl7.org/CodeSystem/v3-ActCode","code":"IMP","display":"inpatient encounter"},"type":[{"coding":[{"system":"http://snomed.info/sct","code":"8715000"}]}],"subject":{"reference":"Patient/926d2075-8536-4e61-9154-934460890b9c"},"period":{"start":"2025-12-04T08:00:00+00:00","end":"2025-12-30T08:15:00+00:00"},"length":{"value":26,"unit":"days"},"location":[{"location":{"reference":"Location/intensive-care-unit-5583"},"period":{"start":"2025-12-06T08:00:00.000+00:00","end":"2025-12-08T08:15:00.000+00:00"}}]},"request":{"method":"PUT","url":"Encounter/d3701106-8c85-4f48-b7df-13ed851def9b"}},{"fullUrl":"https://madie.cms.gov/Coverage/5fa040ee1c76ba66d9958f28","resource":{"resourceType":"Coverage","id":"8887142f-19a4-4595-bb0b-3829ecb61edc","status":"active","beneficiary":{"reference":"Patient/926d2075-8536-4e61-9154-934460890b9c"},"period":{"start":"1974-03-03T08:00:00+00:00"},"payor":[{"reference":"Organization/80573fa1-cf83-4e9a-8f21-86a018689678"}]},"request":{"method":"PUT","url":"Coverage/8887142f-19a4-4595-bb0b-3829ecb61edc"}},{"fullUrl":"https://madie.cms.gov/Condition/5ce80970b848467c29eaf1fc","resource":{"resourceType":"Condition","id":"c947abd1-4fd9-4527-b912-d7548a27d350","meta":{"profile":["http://hl7.org/fhir/us/qicore/StructureDefinition/qicore-condition"]},"clinicalStatus":{"coding":[{"system":"http://terminology.hl7.org/CodeSystem/condition-clinical","code":"remission"}]},"verificationStatus":{"coding":[{"system":"http://terminology.hl7.org/CodeSystem/condition-ver-status","code":"confirmed"}]},"category":[{"coding":[{"system":"http://terminology.hl7.org/CodeSystem/condition-category","code":"problem-list-item","display":"Problem List Item"}]}],"code":{"coding":[{"system":"http://hl7.org/fhir/sid/icd-10-cm","code":"I26.09","display":"Other pulmonary embolism with acute cor pulmonale"}]},"subject":{"reference":"Patient/926d2075-8536-4e61-9154-934460890b9c"},"onsetPeriod":{"start":"2025-11-03T08:00:00+00:00","end":"2025-12-03T08:00:00+00:00"}},"request":{"method":"PUT","url":"Condition/c947abd1-4fd9-4527-b912-d7548a27d350"}},{"fullUrl":"https://madie.cms.gov/MedicationAdministration/5ce80970b848467c29eaf1fe","resource":{"resourceType":"MedicationAdministration","id":"bca69943-83cb-439d-bcac-a659181b63db","meta":{"profile":["http://hl7.org/fhir/us/qicore/StructureDefinition/qicore-medicationadministration"]},"status":"completed","medicationCodeableConcept":{"coding":[{"system":"http://www.nlm.nih.gov/research/umls/rxnorm","code":"1599543","display":"edoxaban 15 MG Oral Tablet"}]},"subject":{"reference":"Patient/926d2075-8536-4e61-9154-934460890b9c"},"effectivePeriod":{"start":"2025-12-06T11:30:00+00:00","end":"2025-12-06T11:35:00+00:00"}},"request":{"method":"PUT","url":"MedicationAdministration/bca69943-83cb-439d-bcac-a659181b63db"}},{"fullUrl":"https://madie.cms.gov/Location/intensive-care-unit-5583","resource":{"resourceType":"Location","id":"25f8c5a6-2cc6-45e1-9ad3-2732362c4011","meta":{"profile":["http://hl7.org/fhir/us/qicore/StructureDefinition/qicore-location"]},"identifier":[{"use":"usual","system":"http://exampleoflocation.com","value":"B1-S.F2"}],"name":"Medical Surgical East, first floor","type":[{"coding":[{"system":"https://www.cdc.gov/nhsn/cdaportal/terminology/codesystem/hsloc.html","version":"2020","code":"1025-6","display":"Trauma Critical Care","userSelected":true}]}]},"request":{"method":"PUT","url":"Location/25f8c5a6-2cc6-45e1-9ad3-2732362c4011"}},{"fullUrl":"https://madie.cms.gov/Organization/123456","resource":{"resourceType":"Organization","id":"80573fa1-cf83-4e9a-8f21-86a018689678","meta":{"profile":["http://hl7.org/fhir/us/qicore/StructureDefinition/qicore-organization"]},"identifier":[{"use":"temp","system":"urn:oid:2.16.840.1.113883.4.4","value":"21-3259825"}],"active":true,"type":[{"coding":[{"system":"http://terminology.hl7.org/CodeSystem/organization-type","code":"pay","display":"Payer"}]}],"name":"Blue Cross Blue Shield of Texas","telecom":[{"system":"phone","value":"(+1) 972-766-6900"}],"address":[{"use":"billing","type":"postal","line":["P.O. Box 660044"],"city":"Dallas","state":"TX","postalCode":"75266-0044","country":"USA"}]},"request":{"method":"PUT","url":"Organization/80573fa1-cf83-4e9a-8f21-86a018689678"}},{"fullUrl":"https://madie.cms.gov/MeasureReport/e0a4a8e0-8802-48a6-b5e0-6f6dde1a996c","resource":{"resourceType":"MeasureReport","id":"e0a4a8e0-8802-48a6-b5e0-6f6dde1a996c","meta":{"profile":["http://hl7.org/fhir/us/cqfmeasures/StructureDefinition/test-case-cqfm"]},"contained":[{"resourceType":"Parameters","id":"35273179-9132-4853-b9c7-767e6e41f861-parameters","parameter":[{"name":"subject","valueString":"7961993e-f025-4a12-9bb8-461c6ab3870e"}]}],"extension":[{"url":"http://hl7.org/fhir/us/cqfmeasures/StructureDefinition/cqfm-inputParameters","valueReference":{"reference":"#35273179-9132-4853-b9c7-767e6e41f861-parameters"}},{"url":"http://hl7.org/fhir/us/cqfmeasures/StructureDefinition/cqfm-testCaseDescription","valueMarkdown":"Test and cover Dx clinicalstatus is remission"}],"modifierExtension":[{"url":"http://hl7.org/fhir/us/cqfmeasures/StructureDefinition/cqfm-isTestCase","valueBoolean":true}],"status":"complete","type":"individual","measure":"https://madie.cms.gov/Measure/IntensiveCareUnitVenousThromboembolismProphylaxisFHIR","period":{"start":"2025-01-01","end":"2025-12-31"},"group":[{"population":[{"code":{"coding":[{"system":"http://terminology.hl7.org/CodeSystem/measure-population","code":"initial-population","display":"Initial Population"}]},"count":1},{"code":{"coding":[{"system":"http://terminology.hl7.org/CodeSystem/measure-population","code":"denominator","display":"Denominator"}]},"count":1},{"code":{"coding":[{"system":"http://terminology.hl7.org/CodeSystem/measure-population","code":"denominator-exclusion","display":"Denominator Exclusion"}]},"count":0},{"code":{"coding":[{"system":"http://terminology.hl7.org/CodeSystem/measure-population","code":"numerator","display":"Numerator"}]},"count":1},{"code":{"coding":[{"system":"http://terminology.hl7.org/CodeSystem/measure-population","code":"denominator-exception","display":"Denominator Exception"}]},"count":0}]}]},"request":{"method":"PUT","url":"MeasureReport/e0a4a8e0-8802-48a6-b5e0-6f6dde1a996c"}}]}