{"resourceType":"Bundle","id":"tests-48c37537-acc1-41a7-865e-254194f4cffa-bundle","type":"transaction","entry":[{"fullUrl":"https://madie.cms.gov/Patient/48c37537-acc1-41a7-865e-254194f4cffa","resource":{"resourceType":"Patient","id":"48c37537-acc1-41a7-865e-254194f4cffa","meta":{"profile":["http://hl7.org/fhir/us/qicore/StructureDefinition/qicore-patient"]},"text":{"status":"generated","div":"<div xmlns=\"http://www.w3.org/1999/xhtml\"><div class=\"hapiHeaderText\">EncB4MP <b>IPFAIL </b></div><table class=\"hapiPropertyTable\"><tbody><tr><td>Identifier</td><td>1971749ced0366ba55946d4deb756887</td></tr><tr><td>Date of birth</td><td><span>03 March 1974</span></td></tr></tbody></table></div>"},"extension":[{"url":"http://hl7.org/fhir/us/core/StructureDefinition/us-core-race","extension":[{"url":"ombCategory","valueCoding":{"system":"urn:oid:2.16.840.1.113883.6.238","code":"1002-5","display":"American Indian or Alaska Native","userSelected":true}},{"url":"text","valueString":"American Indian or Alaska Native"}]},{"url":"http://hl7.org/fhir/us/core/StructureDefinition/us-core-ethnicity","extension":[{"url":"ombCategory","valueCoding":{"system":"urn:oid:2.16.840.1.113883.6.238","code":"2186-5","display":"Not Hispanic or Latino","userSelected":true}},{"url":"text","valueString":"Not Hispanic or Latino"}]}],"identifier":[{"type":{"coding":[{"system":"http://terminology.hl7.org/CodeSystem/v2-0203","code":"MR"}]},"system":"https://bonnie-fhir.healthit.gov/","value":"612e6eac02c62a011f2ef380"}],"active":true,"name":[{"use":"usual","family":"IPFail","given":["EncB4MP"]}],"gender":"female","birthDate":"1974-03-03"},"request":{"method":"PUT","url":"Patient/48c37537-acc1-41a7-865e-254194f4cffa"}},{"fullUrl":"https://madie.cms.gov/Encounter/5ce8096db848467c29eaf0b0","resource":{"resourceType":"Encounter","id":"a7c6ad81-dca2-43f8-80a2-0e36a1748bee","meta":{"profile":["http://hl7.org/fhir/us/qicore/StructureDefinition/qicore-encounter"]},"status":"finished","class":{"system":"http://terminology.hl7.org/CodeSystem/v3-ActCode","code":"IMP","display":"inpatient encounter"},"type":[{"coding":[{"system":"http://snomed.info/sct","code":"8715000"}]}],"subject":{"reference":"Patient/48c37537-acc1-41a7-865e-254194f4cffa"},"period":{"start":"2020-12-04T08:00:00+00:00","end":"2020-12-30T08:15:00+00:00"},"length":{"value":26.0,"unit":"days"}},"request":{"method":"PUT","url":"Encounter/a7c6ad81-dca2-43f8-80a2-0e36a1748bee"}},{"fullUrl":"https://madie.cms.gov/Coverage/5fa040eb1c76ba66d9958eef","resource":{"resourceType":"Coverage","id":"f2819d13-8d1a-445b-8ce0-1223ba86fe8f","status":"active","beneficiary":{"reference":"Patient/48c37537-acc1-41a7-865e-254194f4cffa"},"period":{"start":"1974-03-03T08:00:00+00:00"},"payor":[{"reference":"Organization/42846cc3-1db0-4bf7-b9ff-8b81fa6e835d"}]},"request":{"method":"PUT","url":"Coverage/f2819d13-8d1a-445b-8ce0-1223ba86fe8f"}},{"fullUrl":"https://madie.cms.gov/Condition/5ce8096db848467c29eaf0af","resource":{"resourceType":"Condition","id":"a5b04b21-7ddc-43e7-b02d-f9d9c57afc28","category":[{"coding":[{"system":"http://terminology.hl7.org/CodeSystem/condition-category","code":"problem-list-item","display":"Problem List Item"}]}],"code":{"coding":[{"system":"http://hl7.org/fhir/sid/icd-10-cm","code":"I26.09"},{"system":"http://hl7.org/fhir/sid/icd-9-cm","code":"415.11"},{"system":"http://snomed.info/sct","code":"132251000119101"}]},"subject":{"reference":"Patient/48c37537-acc1-41a7-865e-254194f4cffa"},"onsetPeriod":{"start":"2025-10-04T08:00:00+00:00","end":"2025-10-05T08:15:00+00:00"}},"request":{"method":"PUT","url":"Condition/a5b04b21-7ddc-43e7-b02d-f9d9c57afc28"}},{"fullUrl":"https://madie.cms.gov/Organization/123456","resource":{"resourceType":"Organization","id":"42846cc3-1db0-4bf7-b9ff-8b81fa6e835d","meta":{"profile":["http://hl7.org/fhir/us/qicore/StructureDefinition/qicore-organization"]},"identifier":[{"use":"temp","system":"urn:oid:2.16.840.1.113883.4.4","value":"21-3259825"}],"active":true,"type":[{"coding":[{"system":"http://terminology.hl7.org/CodeSystem/organization-type","code":"pay","display":"Payer"}]}],"name":"Blue Cross Blue Shield of Texas","telecom":[{"system":"phone","value":"(+1) 972-766-6900"}],"address":[{"use":"billing","type":"postal","line":["P.O. Box 660044"],"city":"Dallas","state":"TX","postalCode":"75266-0044","country":"USA"}]},"request":{"method":"PUT","url":"Organization/42846cc3-1db0-4bf7-b9ff-8b81fa6e835d"}},{"fullUrl":"https://madie.cms.gov/Practitioner/practitioner-123456","resource":{"resourceType":"Practitioner","id":"6208ba0d-4164-45f3-bf73-8df9c8c89dee","identifier":[{"system":"http://hl7.org/fhir/sid/us-npi","value":"123456"}],"name":[{"family":"Evil","prefix":["Dr"]}]},"request":{"method":"PUT","url":"Practitioner/6208ba0d-4164-45f3-bf73-8df9c8c89dee"}},{"fullUrl":"https://madie.cms.gov/MeasureReport/411f56a2-3935-48c8-8743-6dfb92196056","resource":{"resourceType":"MeasureReport","id":"411f56a2-3935-48c8-8743-6dfb92196056","meta":{"profile":["http://hl7.org/fhir/us/cqfmeasures/StructureDefinition/test-case-cqfm"]},"contained":[{"resourceType":"Parameters","id":"28d0519b-f1e8-4a8e-b1dd-030767b06363-parameters","parameter":[{"name":"subject","valueString":"48c37537-acc1-41a7-865e-254194f4cffa"}]}],"extension":[{"url":"http://hl7.org/fhir/us/cqfmeasures/StructureDefinition/cqfm-inputParameters","valueReference":{"reference":"#28d0519b-f1e8-4a8e-b1dd-030767b06363-parameters"}},{"url":"http://hl7.org/fhir/us/cqfmeasures/StructureDefinition/cqfm-testCaseDescription","valueMarkdown":"encounter before MP\n"}],"modifierExtension":[{"url":"http://hl7.org/fhir/us/cqfmeasures/StructureDefinition/cqfm-isTestCase","valueBoolean":true}],"status":"complete","type":"individual","measure":"https://madie.cms.gov/Measure/IntensiveCareUnitVenousThromboembolismProphylaxisFHIR","period":{"start":"2025-01-01","end":"2025-12-31"},"group":[{"population":[{"code":{"coding":[{"system":"http://terminology.hl7.org/CodeSystem/measure-population","code":"initial-population","display":"Initial Population"}]},"count":0},{"code":{"coding":[{"system":"http://terminology.hl7.org/CodeSystem/measure-population","code":"denominator","display":"Denominator"}]},"count":0},{"code":{"coding":[{"system":"http://terminology.hl7.org/CodeSystem/measure-population","code":"denominator-exclusion","display":"Denominator Exclusion"}]},"count":0},{"code":{"coding":[{"system":"http://terminology.hl7.org/CodeSystem/measure-population","code":"numerator","display":"Numerator"}]},"count":0},{"code":{"coding":[{"system":"http://terminology.hl7.org/CodeSystem/measure-population","code":"denominator-exception","display":"Denominator Exception"}]},"count":0}]}]},"request":{"method":"PUT","url":"MeasureReport/411f56a2-3935-48c8-8743-6dfb92196056"}}]}