{"resourceType":"Bundle","id":"tests-57e2d87e-3b5e-4433-ab6d-6dca03878253-bundle","type":"transaction","entry":[{"fullUrl":"https://madie.cms.gov/Patient/57e2d87e-3b5e-4433-ab6d-6dca03878253","resource":{"resourceType":"Patient","id":"57e2d87e-3b5e-4433-ab6d-6dca03878253","meta":{"profile":["http://hl7.org/fhir/us/qicore/StructureDefinition/qicore-patient"]},"text":{"status":"generated","div":"<div xmlns=\"http://www.w3.org/1999/xhtml\"><div class=\"hapiHeaderText\">RiskAssesOnICUStartAfterAnes <b>NUMERPASS </b></div><table class=\"hapiPropertyTable\"><tbody><tr><td>Identifier</td><td>94254b89a0f145332771ce19c2500535</td></tr><tr><td>Date of birth</td><td><span>03 March 1974</span></td></tr></tbody></table></div>"},"extension":[{"url":"http://hl7.org/fhir/us/core/StructureDefinition/us-core-race","extension":[{"url":"ombCategory","valueCoding":{"system":"urn:oid:2.16.840.1.113883.6.238","code":"1002-5","display":"American Indian or Alaska Native","userSelected":true}},{"url":"text","valueString":"American Indian or Alaska Native"}]},{"url":"http://hl7.org/fhir/us/core/StructureDefinition/us-core-ethnicity","extension":[{"url":"ombCategory","valueCoding":{"system":"urn:oid:2.16.840.1.113883.6.238","code":"2135-2","display":"Hispanic or Latino","userSelected":true}},{"url":"text","valueString":"Hispanic or Latino"}]}],"identifier":[{"type":{"coding":[{"system":"http://terminology.hl7.org/CodeSystem/v2-0203","code":"MR"}]},"system":"https://bonnie-fhir.healthit.gov/","value":"612e6f5502c62a011f2f174b"}],"active":true,"name":[{"use":"usual","family":"NUMERPass","given":["RiskAssesOnICUStartAfterAnes"]}],"gender":"female","birthDate":"1974-03-03"},"request":{"method":"PUT","url":"Patient/57e2d87e-3b5e-4433-ab6d-6dca03878253"}},{"fullUrl":"https://madie.cms.gov/Encounter/5ce80970b848467c29eaf212","resource":{"resourceType":"Encounter","id":"1f101bd6-adf0-44ff-89c1-d5d475f6a787","meta":{"profile":["http://hl7.org/fhir/us/qicore/StructureDefinition/qicore-encounter"]},"status":"finished","class":{"system":"http://terminology.hl7.org/CodeSystem/v3-ActCode","code":"IMP","display":"inpatient encounter"},"type":[{"coding":[{"system":"http://snomed.info/sct","code":"8715000"}]}],"subject":{"reference":"Patient/57e2d87e-3b5e-4433-ab6d-6dca03878253"},"period":{"start":"2025-12-04T08:00:00+00:00","end":"2025-12-30T08:15:00+00:00"},"length":{"value":26.0,"unit":"days"},"location":[{"location":{"reference":"Location/Location-1"},"period":{"start":"2025-12-06T08:00:00.000+00:00","end":"2025-12-08T08:15:00.000+00:00"}}]},"request":{"method":"PUT","url":"Encounter/1f101bd6-adf0-44ff-89c1-d5d475f6a787"}},{"fullUrl":"https://madie.cms.gov/Observation/5ce80970b848467c29eaf214","resource":{"resourceType":"Observation","id":"6c33bafb-0269-4be1-a75b-01786e7f020a","meta":{"profile":["http://hl7.org/fhir/us/qicore/StructureDefinition/qicore-observation"]},"status":"final","category":[{"coding":[{"system":"http://terminology.hl7.org/CodeSystem/observation-category","code":"exam","display":"exam"}]}],"code":{"coding":[{"system":"http://loinc.org","code":"72136-5"}]},"subject":{"reference":"Patient/57e2d87e-3b5e-4433-ab6d-6dca03878253"},"effectiveDateTime":"2025-12-06T08:00:00+00:00","valueCodeableConcept":{"coding":[{"system":"http://snomed.info/sct","code":"260362008","display":"Low Risk"}]}},"request":{"method":"PUT","url":"Observation/6c33bafb-0269-4be1-a75b-01786e7f020a"}},{"fullUrl":"https://madie.cms.gov/Coverage/5fa041041c76ba66d99590c6","resource":{"resourceType":"Coverage","id":"43311fb4-744b-4845-8788-b82a97189b24","status":"active","beneficiary":{"reference":"Patient/57e2d87e-3b5e-4433-ab6d-6dca03878253"},"period":{"start":"1974-03-03T08:00:00+00:00"},"payor":[{"reference":"Organization/880a275e-1cf2-4fb9-869b-f1d2173fdc2b"}]},"request":{"method":"PUT","url":"Coverage/43311fb4-744b-4845-8788-b82a97189b24"}},{"fullUrl":"https://madie.cms.gov/Procedure/5ce80970b848467c29eaf213","resource":{"resourceType":"Procedure","id":"0c674e42-eff2-48c0-9942-ea1d5c438e44","meta":{"profile":["http://hl7.org/fhir/us/qicore/StructureDefinition/qicore-procedure"]},"extension":[{"url":"http://hl7.org/fhir/us/qicore/StructureDefinition/qicore-recorded","valueDateTime":"2012-12-06T09:35:00-04:00"}],"status":"completed","code":{"coding":[{"system":"http://www.icd10data.com/icd10pcs","code":"3E030FZ"},{"system":"http://snomed.info/sct","code":"18946005"}]},"subject":{"reference":"Patient/57e2d87e-3b5e-4433-ab6d-6dca03878253"},"performedPeriod":{"start":"2025-12-06T05:00:00+00:00","end":"2025-12-06T05:15:00+00:00"}},"request":{"method":"PUT","url":"Procedure/0c674e42-eff2-48c0-9942-ea1d5c438e44"}},{"fullUrl":"https://madie.cms.gov/Location/Location-1","resource":{"resourceType":"Location","id":"97388ce7-4c1c-4b61-94e4-966f7ab874f1","meta":{"profile":["http://hl7.org/fhir/us/qicore/StructureDefinition/qicore-location"]},"identifier":[{"use":"usual","system":"http://exampleoflocation.com","value":"B1-S.F2"}],"name":"Medical Surgical East, first floor","type":[{"coding":[{"system":"https://www.cdc.gov/nhsn/cdaportal/terminology/codesystem/hsloc.html","code":"1025-6","display":"Trauma Critical Care","userSelected":true}]}]},"request":{"method":"PUT","url":"Location/97388ce7-4c1c-4b61-94e4-966f7ab874f1"}},{"fullUrl":"https://madie.cms.gov/Organization/123456","resource":{"resourceType":"Organization","id":"880a275e-1cf2-4fb9-869b-f1d2173fdc2b","meta":{"profile":["http://hl7.org/fhir/us/qicore/StructureDefinition/qicore-organization"]},"identifier":[{"use":"temp","system":"urn:oid:2.16.840.1.113883.4.4","value":"21-3259825"}],"active":true,"type":[{"coding":[{"system":"http://terminology.hl7.org/CodeSystem/organization-type","code":"pay","display":"Payer"}]}],"name":"Blue Cross Blue Shield of Texas","telecom":[{"system":"phone","value":"(+1) 972-766-6900"}],"address":[{"use":"billing","type":"postal","line":["P.O. Box 660044"],"city":"Dallas","state":"TX","postalCode":"75266-0044","country":"USA"}]},"request":{"method":"PUT","url":"Organization/880a275e-1cf2-4fb9-869b-f1d2173fdc2b"}},{"fullUrl":"https://madie.cms.gov/Practitioner/practitioner-123456","resource":{"resourceType":"Practitioner","id":"ba342af4-6786-40ac-9468-30a59f131ddc","identifier":[{"system":"http://hl7.org/fhir/sid/us-npi","value":"123456"}],"name":[{"family":"Evil","prefix":["Dr"]}]},"request":{"method":"PUT","url":"Practitioner/ba342af4-6786-40ac-9468-30a59f131ddc"}},{"fullUrl":"https://madie.cms.gov/MeasureReport/b80f3e37-07dc-48f6-92ed-d9078c49d01d","resource":{"resourceType":"MeasureReport","id":"b80f3e37-07dc-48f6-92ed-d9078c49d01d","meta":{"profile":["http://hl7.org/fhir/us/cqfmeasures/StructureDefinition/test-case-cqfm"]},"contained":[{"resourceType":"Parameters","id":"f2aaf235-7a25-46e9-aadb-93b062cc7817-parameters","parameter":[{"name":"subject","valueString":"57e2d87e-3b5e-4433-ab6d-6dca03878253"}]}],"extension":[{"url":"http://hl7.org/fhir/us/cqfmeasures/StructureDefinition/cqfm-inputParameters","valueReference":{"reference":"#f2aaf235-7a25-46e9-aadb-93b062cc7817-parameters"}},{"url":"http://hl7.org/fhir/us/cqfmeasures/StructureDefinition/cqfm-testCaseDescription","valueMarkdown":"vte risk assessment with low risk result concurrent with start of ICU admission and after neuraxial anesthesia\n"}],"modifierExtension":[{"url":"http://hl7.org/fhir/us/cqfmeasures/StructureDefinition/cqfm-isTestCase","valueBoolean":true}],"status":"complete","type":"individual","measure":"https://madie.cms.gov/Measure/IntensiveCareUnitVenousThromboembolismProphylaxisFHIR","period":{"start":"2025-01-01","end":"2025-12-31"},"group":[{"population":[{"code":{"coding":[{"system":"http://terminology.hl7.org/CodeSystem/measure-population","code":"initial-population","display":"Initial Population"}]},"count":1},{"code":{"coding":[{"system":"http://terminology.hl7.org/CodeSystem/measure-population","code":"denominator","display":"Denominator"}]},"count":1},{"code":{"coding":[{"system":"http://terminology.hl7.org/CodeSystem/measure-population","code":"denominator-exclusion","display":"Denominator Exclusion"}]},"count":0},{"code":{"coding":[{"system":"http://terminology.hl7.org/CodeSystem/measure-population","code":"numerator","display":"Numerator"}]},"count":1},{"code":{"coding":[{"system":"http://terminology.hl7.org/CodeSystem/measure-population","code":"denominator-exception","display":"Denominator Exception"}]},"count":0}]}]},"request":{"method":"PUT","url":"MeasureReport/b80f3e37-07dc-48f6-92ed-d9078c49d01d"}}]}