{"resourceType":"Bundle","id":"tests-e18e3c0b-6a5d-4977-a65d-1dcfcb731f57-bundle","type":"transaction","entry":[{"fullUrl":"https://madie.cms.gov/Patient/e18e3c0b-6a5d-4977-a65d-1dcfcb731f57","resource":{"resourceType":"Patient","id":"e18e3c0b-6a5d-4977-a65d-1dcfcb731f57","meta":{"profile":["http://hl7.org/fhir/us/qicore/StructureDefinition/qicore-patient"]},"text":{"status":"generated","div":"<div xmlns=\"http://www.w3.org/1999/xhtml\"><div class=\"hapiHeaderText\">GYNSurgeryGT1DayAfterICUStart <b>DENEXFAIL </b></div><table class=\"hapiPropertyTable\"><tbody><tr><td>Identifier</td><td>c86bf4d45e0ace80da93806dc6ebb45b</td></tr><tr><td>Date of birth</td><td><span>03 February 1975</span></td></tr></tbody></table></div>"},"extension":[{"url":"http://hl7.org/fhir/us/core/StructureDefinition/us-core-race","extension":[{"url":"ombCategory","valueCoding":{"system":"urn:oid:2.16.840.1.113883.6.238","code":"1002-5","display":"American Indian or Alaska Native","userSelected":true}},{"url":"text","valueString":"American Indian or Alaska Native"}]},{"url":"http://hl7.org/fhir/us/core/StructureDefinition/us-core-ethnicity","extension":[{"url":"ombCategory","valueCoding":{"system":"urn:oid:2.16.840.1.113883.6.238","code":"2135-2","display":"Hispanic or Latino","userSelected":true}},{"url":"text","valueString":"Hispanic or Latino"}]}],"identifier":[{"type":{"coding":[{"system":"http://terminology.hl7.org/CodeSystem/v2-0203","code":"MR"}]},"system":"https://bonnie-fhir.healthit.gov/","value":"612e6ec302c62a011f2ef7ec"}],"active":true,"name":[{"use":"usual","family":"DENEXFail","given":["GYNSurgeryGT1DayAfterICUStart"]}],"gender":"female","birthDate":"1975-02-03"},"request":{"method":"PUT","url":"Patient/e18e3c0b-6a5d-4977-a65d-1dcfcb731f57"}},{"fullUrl":"https://madie.cms.gov/Encounter/5ce8096db848467c29eaf0dc","resource":{"resourceType":"Encounter","id":"aa4562fb-c8d3-4db9-8cb6-a4ae81cb2195","meta":{"profile":["http://hl7.org/fhir/us/qicore/StructureDefinition/qicore-encounter"]},"status":"finished","class":{"system":"http://terminology.hl7.org/CodeSystem/v3-ActCode","code":"IMP","display":"inpatient encounter"},"type":[{"coding":[{"system":"http://snomed.info/sct","code":"8715000"}]}],"subject":{"reference":"Patient/e18e3c0b-6a5d-4977-a65d-1dcfcb731f57"},"period":{"start":"2025-12-04T08:00:00+00:00","end":"2025-12-30T08:15:00+00:00"},"length":{"value":26.0,"unit":"days"},"location":[{"location":{"reference":"Location/Location-1"},"period":{"start":"2025-12-06T08:00:00.000+00:00","end":"2025-12-08T08:15:00.000+00:00"}}]},"request":{"method":"PUT","url":"Encounter/aa4562fb-c8d3-4db9-8cb6-a4ae81cb2195"}},{"fullUrl":"https://madie.cms.gov/Coverage/5fa040ee1c76ba66d9958f31","resource":{"resourceType":"Coverage","id":"5a336406-bd42-4e1d-9c97-2833a37dc957","status":"active","beneficiary":{"reference":"Patient/e18e3c0b-6a5d-4977-a65d-1dcfcb731f57"},"period":{"start":"1974-03-03T08:00:00+00:00"},"payor":[{"reference":"Organization/9e9b3f13-a353-4173-b29b-947d6f1f2031"}]},"request":{"method":"PUT","url":"Coverage/5a336406-bd42-4e1d-9c97-2833a37dc957"}},{"fullUrl":"https://madie.cms.gov/Procedure/5ce8096db848467c29eaf0dd","resource":{"resourceType":"Procedure","id":"774fa6a0-7da0-4179-b037-b9dc5266bc1c","meta":{"profile":["http://hl7.org/fhir/us/qicore/StructureDefinition/qicore-procedure"]},"extension":[{"url":"http://hl7.org/fhir/us/qicore/StructureDefinition/qicore-recorded","valueDateTime":"2012-12-08T09:35:00-04:00"}],"status":"completed","code":{"coding":[{"system":"http://www.cms.gov/Medicare/Coding/ICD10","code":"0U500ZZ"}]},"subject":{"reference":"Patient/e18e3c0b-6a5d-4977-a65d-1dcfcb731f57"},"performedPeriod":{"start":"2025-12-08T08:15:00+00:00","end":"2025-12-08T11:15:00+00:00"}},"request":{"method":"PUT","url":"Procedure/774fa6a0-7da0-4179-b037-b9dc5266bc1c"}},{"fullUrl":"https://madie.cms.gov/Location/Location-1","resource":{"resourceType":"Location","id":"81a65dbb-bead-4fc2-ab95-b6aa8f1b39cd","meta":{"profile":["http://hl7.org/fhir/us/qicore/StructureDefinition/qicore-location"]},"identifier":[{"use":"usual","system":"http://exampleoflocation.com","value":"B1-S.F2"}],"name":"Medical Surgical East, first floor","type":[{"coding":[{"system":"https://www.cdc.gov/nhsn/cdaportal/terminology/codesystem/hsloc.html","code":"1025-6","display":"Trauma Critical Care","userSelected":true}]}]},"request":{"method":"PUT","url":"Location/81a65dbb-bead-4fc2-ab95-b6aa8f1b39cd"}},{"fullUrl":"https://madie.cms.gov/Organization/123456","resource":{"resourceType":"Organization","id":"9e9b3f13-a353-4173-b29b-947d6f1f2031","meta":{"profile":["http://hl7.org/fhir/us/qicore/StructureDefinition/qicore-organization"]},"identifier":[{"use":"temp","system":"urn:oid:2.16.840.1.113883.4.4","value":"21-3259825"}],"active":true,"type":[{"coding":[{"system":"http://terminology.hl7.org/CodeSystem/organization-type","code":"pay","display":"Payer"}]}],"name":"Blue Cross Blue Shield of Texas","telecom":[{"system":"phone","value":"(+1) 972-766-6900"}],"address":[{"use":"billing","type":"postal","line":["P.O. Box 660044"],"city":"Dallas","state":"TX","postalCode":"75266-0044","country":"USA"}]},"request":{"method":"PUT","url":"Organization/9e9b3f13-a353-4173-b29b-947d6f1f2031"}},{"fullUrl":"https://madie.cms.gov/Practitioner/practitioner-123456","resource":{"resourceType":"Practitioner","id":"9a65c606-a717-441d-9fc2-95277d9911dc","identifier":[{"system":"http://hl7.org/fhir/sid/us-npi","value":"123456"}],"name":[{"family":"Evil","prefix":["Dr"]}]},"request":{"method":"PUT","url":"Practitioner/9a65c606-a717-441d-9fc2-95277d9911dc"}},{"fullUrl":"https://madie.cms.gov/MeasureReport/478003ec-094e-489b-bd04-f6fa2ba979a5","resource":{"resourceType":"MeasureReport","id":"478003ec-094e-489b-bd04-f6fa2ba979a5","meta":{"profile":["http://hl7.org/fhir/us/cqfmeasures/StructureDefinition/test-case-cqfm"]},"contained":[{"resourceType":"Parameters","id":"2018d390-e800-45bd-b5a8-ba3bde32259e-parameters","parameter":[{"name":"subject","valueString":"e18e3c0b-6a5d-4977-a65d-1dcfcb731f57"}]}],"extension":[{"url":"http://hl7.org/fhir/us/cqfmeasures/StructureDefinition/cqfm-inputParameters","valueReference":{"reference":"#2018d390-e800-45bd-b5a8-ba3bde32259e-parameters"}},{"url":"http://hl7.org/fhir/us/cqfmeasures/StructureDefinition/cqfm-testCaseDescription","valueMarkdown":"gynecological surgery starts > 1 day after start of ICU admission\n"}],"modifierExtension":[{"url":"http://hl7.org/fhir/us/cqfmeasures/StructureDefinition/cqfm-isTestCase","valueBoolean":true}],"status":"complete","type":"individual","measure":"https://madie.cms.gov/Measure/IntensiveCareUnitVenousThromboembolismProphylaxisFHIR","period":{"start":"2025-01-01","end":"2025-12-31"},"group":[{"population":[{"code":{"coding":[{"system":"http://terminology.hl7.org/CodeSystem/measure-population","code":"initial-population","display":"Initial Population"}]},"count":1},{"code":{"coding":[{"system":"http://terminology.hl7.org/CodeSystem/measure-population","code":"denominator","display":"Denominator"}]},"count":1},{"code":{"coding":[{"system":"http://terminology.hl7.org/CodeSystem/measure-population","code":"denominator-exclusion","display":"Denominator Exclusion"}]},"count":0},{"code":{"coding":[{"system":"http://terminology.hl7.org/CodeSystem/measure-population","code":"numerator","display":"Numerator"}]},"count":0},{"code":{"coding":[{"system":"http://terminology.hl7.org/CodeSystem/measure-population","code":"denominator-exception","display":"Denominator Exception"}]},"count":0}]}]},"request":{"method":"PUT","url":"MeasureReport/478003ec-094e-489b-bd04-f6fa2ba979a5"}}]}