{"resourceType":"Bundle","id":"tests-7572464e-7191-4b5c-bad1-c7acd195178d-bundle","type":"transaction","entry":[{"fullUrl":"https://madie.cms.gov/Patient/7572464e-7191-4b5c-bad1-c7acd195178d","resource":{"resourceType":"Patient","id":"7572464e-7191-4b5c-bad1-c7acd195178d","meta":{"profile":["http://hl7.org/fhir/us/qicore/StructureDefinition/qicore-patient"]},"text":{"status":"generated","div":"<div xmlns=\"http://www.w3.org/1999/xhtml\"><div class=\"hapiHeaderText\">TestMultipleOccur1inNum1inExcept <b>NUMERPASS </b></div><table class=\"hapiPropertyTable\"><tbody><tr><td>Identifier</td><td>7eb67ce98abae0db784097d37457cc127812e19c5da043ea7e60ae3fb3b930ef</td></tr><tr><td>Date of birth</td><td><span>03 March 1974</span></td></tr></tbody></table></div>"},"extension":[{"url":"http://hl7.org/fhir/us/core/StructureDefinition/us-core-race","extension":[{"url":"ombCategory","valueCoding":{"system":"urn:oid:2.16.840.1.113883.6.238","code":"1002-5","display":"American Indian or Alaska Native","userSelected":true}},{"url":"text","valueString":"American Indian or Alaska Native"}]},{"url":"http://hl7.org/fhir/us/core/StructureDefinition/us-core-ethnicity","extension":[{"url":"ombCategory","valueCoding":{"system":"urn:oid:2.16.840.1.113883.6.238","code":"2135-2","display":"Hispanic or Latino","userSelected":true}},{"url":"text","valueString":"Hispanic or Latino"}]}],"identifier":[{"type":{"coding":[{"system":"http://terminology.hl7.org/CodeSystem/v2-0203","code":"MR"}]},"system":"https://bonnie-fhir.healthit.gov/","value":"612e6f7102c62a011f2f1e30"}],"active":true,"name":[{"use":"usual","family":"NUMERPass","given":["TestMultipleOccur1inNum1inExcept"]}],"gender":"female","birthDate":"1974-03-03"},"request":{"method":"PUT","url":"Patient/7572464e-7191-4b5c-bad1-c7acd195178d"}},{"fullUrl":"https://madie.cms.gov/Encounter/5ce80971b848467c29eaf2cc","resource":{"resourceType":"Encounter","id":"ffb89333-2843-4c2d-80ca-739adfda6c2c","meta":{"profile":["http://hl7.org/fhir/us/qicore/StructureDefinition/qicore-encounter"]},"status":"finished","class":{"system":"http://terminology.hl7.org/CodeSystem/v3-ActCode","code":"IMP","display":"inpatient encounter"},"type":[{"coding":[{"system":"http://snomed.info/sct","code":"183452005"}]}],"subject":{"reference":"Patient/7572464e-7191-4b5c-bad1-c7acd195178d"},"period":{"start":"2025-03-22T08:00:00+00:00","end":"2025-03-26T08:15:00+00:00"},"length":{"value":4.0,"unit":"days"},"location":[{"location":{"reference":"Location/intensive-care-unit-0a0b"},"period":{"start":"2025-03-22T08:15:00.000+00:00","end":"2025-03-24T08:00:00.000+00:00"}}]},"request":{"method":"PUT","url":"Encounter/ffb89333-2843-4c2d-80ca-739adfda6c2c"}},{"fullUrl":"https://madie.cms.gov/Encounter/5ce80971b848467c29eaf2cd","resource":{"resourceType":"Encounter","id":"5f486614-f89c-416b-92f7-6604aff4ce4f","meta":{"profile":["http://hl7.org/fhir/us/qicore/StructureDefinition/qicore-encounter"]},"status":"finished","class":{"system":"http://terminology.hl7.org/CodeSystem/v3-ActCode","code":"OBSENC","display":"observation encounter"},"type":[{"coding":[{"system":"http://snomed.info/sct","code":"4525004"}]}],"subject":{"reference":"Patient/7572464e-7191-4b5c-bad1-c7acd195178d"},"period":{"start":"2025-12-06T02:00:00+00:00","end":"2025-12-06T08:15:00+00:00"},"length":{"value":0.0,"unit":"days"}},"request":{"method":"PUT","url":"Encounter/5f486614-f89c-416b-92f7-6604aff4ce4f"}},{"fullUrl":"https://madie.cms.gov/Encounter/5ce80971b848467c29eaf2ce","resource":{"resourceType":"Encounter","id":"237ab249-1af7-4bf2-9530-0bae112bcfbf","meta":{"profile":["http://hl7.org/fhir/us/qicore/StructureDefinition/qicore-encounter"]},"status":"finished","class":{"system":"http://terminology.hl7.org/CodeSystem/v3-ActCode","code":"IMP","display":"inpatient encounter"},"type":[{"coding":[{"system":"http://snomed.info/sct","code":"8715000"}]}],"subject":{"reference":"Patient/7572464e-7191-4b5c-bad1-c7acd195178d"},"period":{"start":"2025-12-06T08:45:00+00:00","end":"2025-12-30T08:15:00+00:00"},"length":{"value":24.0,"unit":"days"},"location":[{"location":{"reference":"Location/Location-1"},"period":{"start":"2025-12-07T08:45:00.000+00:00","end":"2025-12-07T20:00:00.000+00:00"}}]},"request":{"method":"PUT","url":"Encounter/237ab249-1af7-4bf2-9530-0bae112bcfbf"}},{"fullUrl":"https://madie.cms.gov/Coverage/5fa041081c76ba66d9959111","resource":{"resourceType":"Coverage","id":"7265eedc-f211-4d05-804d-3ff32194af1d","status":"active","beneficiary":{"reference":"Patient/7572464e-7191-4b5c-bad1-c7acd195178d"},"period":{"start":"1974-03-03T08:00:00+00:00"},"payor":[{"reference":"Organization/aeb2c6be-6577-4bba-a6b6-6eab95111f1b"}]},"request":{"method":"PUT","url":"Coverage/7265eedc-f211-4d05-804d-3ff32194af1d"}},{"fullUrl":"https://madie.cms.gov/Location/intensive-care-unit-0a0b","resource":{"resourceType":"Location","id":"ba306874-323f-48f6-8c23-f5b982bca2a0","meta":{"profile":["http://hl7.org/fhir/us/qicore/StructureDefinition/qicore-location"]},"identifier":[{"use":"usual","system":"http://exampleoflocation.com","value":"B1-S.F2"}],"name":"Medical Surgical East, first floor","type":[{"coding":[{"system":"https://www.cdc.gov/nhsn/cdaportal/terminology/codesystem/hsloc.html","code":"1025-6","display":"Trauma Critical Care","userSelected":true}]}]},"request":{"method":"PUT","url":"Location/ba306874-323f-48f6-8c23-f5b982bca2a0"}},{"fullUrl":"https://madie.cms.gov/Location/Location-1","resource":{"resourceType":"Location","id":"70c9615d-e18d-4f36-9fd3-8ce306aee7aa","meta":{"profile":["http://hl7.org/fhir/us/qicore/StructureDefinition/qicore-location"]},"identifier":[{"use":"usual","system":"http://exampleoflocation.com","value":"B1-S.F2"}],"name":"Medical Surgical East, first floor","type":[{"coding":[{"system":"https://www.cdc.gov/nhsn/cdaportal/terminology/codesystem/hsloc.html","code":"1025-6","display":"Trauma Critical Care","userSelected":true}]}]},"request":{"method":"PUT","url":"Location/70c9615d-e18d-4f36-9fd3-8ce306aee7aa"}},{"fullUrl":"https://madie.cms.gov/Procedure/device-application-0a0d","resource":{"resourceType":"Procedure","id":"d974d967-42a2-4434-9d53-360b2d6260a8","meta":{"profile":["http://hl7.org/fhir/us/qicore/StructureDefinition/qicore-procedure"]},"extension":[{"url":"http://hl7.org/fhir/us/qicore/StructureDefinition/qicore-recorded","valueDateTime":"2025-03-26T09:35:00-04:00"}],"status":"completed","code":{"coding":[{"system":"http://snomed.info/sct","code":"229511001"}]},"subject":{"reference":"Patient/7572464e-7191-4b5c-bad1-c7acd195178d"},"performedPeriod":{"start":"2025-03-22T08:05:00.000+00:00","end":"2025-03-22T08:15:00.000+00:00"}},"request":{"method":"PUT","url":"Procedure/d974d967-42a2-4434-9d53-360b2d6260a8"}},{"fullUrl":"https://madie.cms.gov/Location/intensive-care-unit-6457","resource":{"resourceType":"Location","id":"218a9af5-4710-4ba2-aa73-ad4568749431","meta":{"profile":["http://hl7.org/fhir/us/qicore/StructureDefinition/qicore-location"]},"identifier":[{"use":"usual","system":"http://exampleoflocation.com","value":"B1-S.F2"}],"name":"Medical Surgical East, first floor","type":[{"coding":[{"system":"https://www.cdc.gov/nhsn/cdaportal/terminology/codesystem/hsloc.html","code":"1025-6","display":"Trauma Critical Care","userSelected":true}]}]},"request":{"method":"PUT","url":"Location/218a9af5-4710-4ba2-aa73-ad4568749431"}},{"fullUrl":"https://madie.cms.gov/Organization/123456","resource":{"resourceType":"Organization","id":"aeb2c6be-6577-4bba-a6b6-6eab95111f1b","meta":{"profile":["http://hl7.org/fhir/us/qicore/StructureDefinition/qicore-organization"]},"identifier":[{"use":"temp","system":"urn:oid:2.16.840.1.113883.4.4","value":"21-3259825"}],"active":true,"type":[{"coding":[{"system":"http://terminology.hl7.org/CodeSystem/organization-type","code":"pay","display":"Payer"}]}],"name":"Blue Cross Blue Shield of Texas","telecom":[{"system":"phone","value":"(+1) 972-766-6900"}],"address":[{"use":"billing","type":"postal","line":["P.O. Box 660044"],"city":"Dallas","state":"TX","postalCode":"75266-0044","country":"USA"}]},"request":{"method":"PUT","url":"Organization/aeb2c6be-6577-4bba-a6b6-6eab95111f1b"}},{"fullUrl":"https://madie.cms.gov/Practitioner/practitioner-123456","resource":{"resourceType":"Practitioner","id":"d7c87309-4429-4fc3-b1c7-367658afe16a","identifier":[{"system":"http://hl7.org/fhir/sid/us-npi","value":"123456"}],"name":[{"family":"Evil","prefix":["Dr"]}]},"request":{"method":"PUT","url":"Practitioner/d7c87309-4429-4fc3-b1c7-367658afe16a"}},{"fullUrl":"https://madie.cms.gov/MeasureReport/e0ea8d48-32f2-4db6-9bef-8931df44cacc","resource":{"resourceType":"MeasureReport","id":"e0ea8d48-32f2-4db6-9bef-8931df44cacc","meta":{"profile":["http://hl7.org/fhir/us/cqfmeasures/StructureDefinition/test-case-cqfm"]},"contained":[{"resourceType":"Parameters","id":"e3ff679f-3e23-4707-90e2-9c04359963e8-parameters","parameter":[{"name":"subject","valueString":"7572464e-7191-4b5c-bad1-c7acd195178d"}]}],"extension":[{"url":"http://hl7.org/fhir/us/cqfmeasures/StructureDefinition/cqfm-inputParameters","valueReference":{"reference":"#e3ff679f-3e23-4707-90e2-9c04359963e8-parameters"}},{"url":"http://hl7.org/fhir/us/cqfmeasures/StructureDefinition/cqfm-testCaseDescription","valueMarkdown":" Patient has 2 encounters, one pass Numerator one pass DenExceptions\n"}],"modifierExtension":[{"url":"http://hl7.org/fhir/us/cqfmeasures/StructureDefinition/cqfm-isTestCase","valueBoolean":true}],"status":"complete","type":"individual","measure":"https://madie.cms.gov/Measure/IntensiveCareUnitVenousThromboembolismProphylaxisFHIR","period":{"start":"2025-01-01","end":"2025-12-31"},"group":[{"population":[{"code":{"coding":[{"system":"http://terminology.hl7.org/CodeSystem/measure-population","code":"initial-population","display":"Initial Population"}]},"count":2},{"code":{"coding":[{"system":"http://terminology.hl7.org/CodeSystem/measure-population","code":"denominator","display":"Denominator"}]},"count":2},{"code":{"coding":[{"system":"http://terminology.hl7.org/CodeSystem/measure-population","code":"denominator-exclusion","display":"Denominator Exclusion"}]},"count":0},{"code":{"coding":[{"system":"http://terminology.hl7.org/CodeSystem/measure-population","code":"numerator","display":"Numerator"}]},"count":1},{"code":{"coding":[{"system":"http://terminology.hl7.org/CodeSystem/measure-population","code":"denominator-exception","display":"Denominator Exception"}]},"count":1}]}]},"request":{"method":"PUT","url":"MeasureReport/e0ea8d48-32f2-4db6-9bef-8931df44cacc"}}]}