{"resourceType":"Bundle","id":"tests-41a02e47-7593-4107-bed2-b24fca5ddf3d-bundle","type":"transaction","entry":[{"fullUrl":"https://madie.cms.gov/Patient/41a02e47-7593-4107-bed2-b24fca5ddf3d","resource":{"resourceType":"Patient","id":"41a02e47-7593-4107-bed2-b24fca5ddf3d","meta":{"profile":["http://hl7.org/fhir/us/qicore/StructureDefinition/qicore-patient"]},"text":{"status":"generated","div":"<div xmlns=\"http://www.w3.org/1999/xhtml\"><div class=\"hapiHeaderText\">MAWarfarinConcurrentAnes <b>NUMERPASS </b></div><table class=\"hapiPropertyTable\"><tbody><tr><td>Identifier</td><td>8a73949853d1489520b4f85cece6c975</td></tr><tr><td>Date of birth</td><td><span>02 January 1974</span></td></tr></tbody></table></div>"},"extension":[{"url":"http://hl7.org/fhir/us/core/StructureDefinition/us-core-race","extension":[{"url":"ombCategory","valueCoding":{"system":"urn:oid:2.16.840.1.113883.6.238","code":"1002-5","display":"American Indian or Alaska Native","userSelected":true}},{"url":"text","valueString":"American Indian or Alaska Native"}]},{"url":"http://hl7.org/fhir/us/core/StructureDefinition/us-core-ethnicity","extension":[{"url":"ombCategory","valueCoding":{"system":"urn:oid:2.16.840.1.113883.6.238","code":"2135-2","display":"Hispanic or Latino","userSelected":true}},{"url":"text","valueString":"Hispanic or Latino"}]}],"identifier":[{"type":{"coding":[{"system":"http://terminology.hl7.org/CodeSystem/v2-0203","code":"MR"}]},"system":"https://bonnie-fhir.healthit.gov/","value":"612e6a5e02c62a011f2e9d40"}],"active":true,"name":[{"use":"usual","family":"NUMERPass","given":["MAWarfarinConcurrentAnes"]}],"gender":"male","birthDate":"1974-01-02"},"request":{"method":"PUT","url":"Patient/41a02e47-7593-4107-bed2-b24fca5ddf3d"}},{"fullUrl":"https://madie.cms.gov/Encounter/5ca6295cb8484628b8de1d36","resource":{"resourceType":"Encounter","id":"3b85e0f3-b513-4208-af93-c69fd8b4a6fa","meta":{"profile":["http://hl7.org/fhir/us/qicore/StructureDefinition/qicore-encounter"]},"status":"finished","class":{"system":"http://terminology.hl7.org/CodeSystem/v3-ActCode","code":"IMP","display":"inpatient encounter"},"type":[{"coding":[{"system":"http://snomed.info/sct","code":"8715000"}]}],"subject":{"reference":"Patient/41a02e47-7593-4107-bed2-b24fca5ddf3d"},"period":{"start":"2025-11-01T08:00:00+00:00","end":"2025-11-26T08:15:00+00:00"},"length":{"value":25.0,"unit":"days"},"location":[{"location":{"reference":"Location/Location-1"},"period":{"start":"2025-11-01T09:00:00.000+00:00","end":"2025-11-10T08:15:00.000+00:00"}}]},"request":{"method":"PUT","url":"Encounter/3b85e0f3-b513-4208-af93-c69fd8b4a6fa"}},{"fullUrl":"https://madie.cms.gov/Coverage/5fa041491c76ba66d995916f","resource":{"resourceType":"Coverage","id":"151b1623-57f4-4628-bd25-dc1edd97efe2","status":"active","beneficiary":{"reference":"Patient/41a02e47-7593-4107-bed2-b24fca5ddf3d"},"period":{"start":"1974-01-02T08:00:00+00:00"},"payor":[{"reference":"Organization/80573fa1-cf83-4e9a-8f21-86a018689678"}]},"request":{"method":"PUT","url":"Coverage/151b1623-57f4-4628-bd25-dc1edd97efe2"}},{"fullUrl":"https://madie.cms.gov/MedicationAdministration/5ca6295cb8484628b8de1d37","resource":{"resourceType":"MedicationAdministration","id":"96ef42fe-a5fa-4b4a-9193-bcadb0915928","meta":{"profile":["http://hl7.org/fhir/us/qicore/StructureDefinition/qicore-medicationadministration"]},"status":"completed","medicationCodeableConcept":{"coding":[{"system":"http://www.nlm.nih.gov/research/umls/rxnorm","code":"855288"}]},"subject":{"reference":"Patient/41a02e47-7593-4107-bed2-b24fca5ddf3d"},"effectivePeriod":{"start":"2025-11-01T10:00:00+00:00","end":"2025-11-02T08:15:00+00:00"}},"request":{"method":"PUT","url":"MedicationAdministration/96ef42fe-a5fa-4b4a-9193-bcadb0915928"}},{"fullUrl":"https://madie.cms.gov/Procedure/5ca6295cb8484628b8de1d38","resource":{"resourceType":"Procedure","id":"c7cab37d-b3d1-4fcb-a2bc-62c424a61891","meta":{"profile":["http://hl7.org/fhir/us/qicore/StructureDefinition/qicore-procedure"]},"extension":[{"url":"http://hl7.org/fhir/us/qicore/StructureDefinition/qicore-recorded","valueDateTime":"2025-11-01T09:35:00-04:00"}],"status":"completed","code":{"coding":[{"system":"http://www.icd10data.com/icd10pcs","code":"3E030FZ"},{"system":"http://snomed.info/sct","code":"18946005"}]},"subject":{"reference":"Patient/41a02e47-7593-4107-bed2-b24fca5ddf3d"},"performedPeriod":{"start":"2025-11-01T09:00:00+00:00","end":"2025-11-01T10:00:00+00:00"}},"request":{"method":"PUT","url":"Procedure/c7cab37d-b3d1-4fcb-a2bc-62c424a61891"}},{"fullUrl":"https://madie.cms.gov/Location/Location-1","resource":{"resourceType":"Location","id":"0fedc7d9-4dfe-4faf-9c88-613503b3b6a7","meta":{"profile":["http://hl7.org/fhir/us/qicore/StructureDefinition/qicore-location"]},"identifier":[{"use":"usual","system":"http://exampleoflocation.com","value":"B1-S.F2"}],"name":"Medical Surgical East, first floor","type":[{"coding":[{"system":"https://www.cdc.gov/nhsn/cdaportal/terminology/codesystem/hsloc.html","code":"1025-6","display":"Trauma Critical Care","userSelected":true}]}]},"request":{"method":"PUT","url":"Location/0fedc7d9-4dfe-4faf-9c88-613503b3b6a7"}},{"fullUrl":"https://madie.cms.gov/Organization/123456","resource":{"resourceType":"Organization","id":"80573fa1-cf83-4e9a-8f21-86a018689678","meta":{"profile":["http://hl7.org/fhir/us/qicore/StructureDefinition/qicore-organization"]},"identifier":[{"use":"temp","system":"urn:oid:2.16.840.1.113883.4.4","value":"21-3259825"}],"active":true,"type":[{"coding":[{"system":"http://terminology.hl7.org/CodeSystem/organization-type","code":"pay","display":"Payer"}]}],"name":"Blue Cross Blue Shield of Texas","telecom":[{"system":"phone","value":"(+1) 972-766-6900"}],"address":[{"use":"billing","type":"postal","line":["P.O. Box 660044"],"city":"Dallas","state":"TX","postalCode":"75266-0044","country":"USA"}]},"request":{"method":"PUT","url":"Organization/80573fa1-cf83-4e9a-8f21-86a018689678"}},{"fullUrl":"https://madie.cms.gov/Practitioner/practitioner-123456","resource":{"resourceType":"Practitioner","id":"ab02a534-4bda-4804-ac00-2ae1df209dde","identifier":[{"system":"http://hl7.org/fhir/sid/us-npi","value":"123456"}],"name":[{"family":"Evil","prefix":["Dr"]}]},"request":{"method":"PUT","url":"Practitioner/ab02a534-4bda-4804-ac00-2ae1df209dde"}},{"fullUrl":"https://madie.cms.gov/MeasureReport/2190ceb6-3963-49fb-b9ba-d4350837e35f","resource":{"resourceType":"MeasureReport","id":"2190ceb6-3963-49fb-b9ba-d4350837e35f","meta":{"profile":["http://hl7.org/fhir/us/cqfmeasures/StructureDefinition/test-case-cqfm"]},"contained":[{"resourceType":"Parameters","id":"3eea58ea-b64e-4a61-a0d5-ae075912a32d-parameters","parameter":[{"name":"subject","valueString":"41a02e47-7593-4107-bed2-b24fca5ddf3d"}]}],"extension":[{"url":"http://hl7.org/fhir/us/cqfmeasures/StructureDefinition/cqfm-inputParameters","valueReference":{"reference":"#3eea58ea-b64e-4a61-a0d5-ae075912a32d-parameters"}},{"url":"http://hl7.org/fhir/us/cqfmeasures/StructureDefinition/cqfm-testCaseDescription","valueMarkdown":"Warf concurrent with  anesthesia.\n"}],"modifierExtension":[{"url":"http://hl7.org/fhir/us/cqfmeasures/StructureDefinition/cqfm-isTestCase","valueBoolean":true}],"status":"complete","type":"individual","measure":"https://madie.cms.gov/Measure/IntensiveCareUnitVenousThromboembolismProphylaxisFHIR","period":{"start":"2025-01-01","end":"2025-12-31"},"group":[{"population":[{"code":{"coding":[{"system":"http://terminology.hl7.org/CodeSystem/measure-population","code":"initial-population","display":"Initial Population"}]},"count":1},{"code":{"coding":[{"system":"http://terminology.hl7.org/CodeSystem/measure-population","code":"denominator","display":"Denominator"}]},"count":1},{"code":{"coding":[{"system":"http://terminology.hl7.org/CodeSystem/measure-population","code":"denominator-exclusion","display":"Denominator Exclusion"}]},"count":0},{"code":{"coding":[{"system":"http://terminology.hl7.org/CodeSystem/measure-population","code":"numerator","display":"Numerator"}]},"count":1},{"code":{"coding":[{"system":"http://terminology.hl7.org/CodeSystem/measure-population","code":"denominator-exception","display":"Denominator Exception"}]},"count":0}]}]},"request":{"method":"PUT","url":"MeasureReport/2190ceb6-3963-49fb-b9ba-d4350837e35f"}}]}