{"resourceType":"Bundle","id":"tests-f82746cf-f6cd-4fcc-bc9e-7e569ae26211-bundle","type":"transaction","entry":[{"fullUrl":"https://madie.cms.gov/Patient/f82746cf-f6cd-4fcc-bc9e-7e569ae26211","resource":{"resourceType":"Patient","id":"f82746cf-f6cd-4fcc-bc9e-7e569ae26211","meta":{"profile":["http://hl7.org/fhir/us/qicore/StructureDefinition/qicore-patient"]},"text":{"status":"generated","div":"<div xmlns=\"http://www.w3.org/1999/xhtml\"><div class=\"hapiHeaderText\">MedReasonMALDUHepDAGCSDuringED <b>NUMERPASS </b></div><table class=\"hapiPropertyTable\"><tbody><tr><td>Identifier</td><td>020df11163b665120eb01e83e644f1da</td></tr><tr><td>Date of birth</td><td><span>02 January 1974</span></td></tr></tbody></table></div>"},"extension":[{"url":"http://hl7.org/fhir/us/core/StructureDefinition/us-core-race","extension":[{"url":"ombCategory","valueCoding":{"system":"urn:oid:2.16.840.1.113883.6.238","code":"1002-5","display":"American Indian or Alaska Native","userSelected":true}},{"url":"text","valueString":"American Indian or Alaska Native"}]},{"url":"http://hl7.org/fhir/us/core/StructureDefinition/us-core-ethnicity","extension":[{"url":"ombCategory","valueCoding":{"system":"urn:oid:2.16.840.1.113883.6.238","code":"2135-2","display":"Hispanic or Latino","userSelected":true}},{"url":"text","valueString":"Hispanic or Latino"}]}],"identifier":[{"type":{"coding":[{"system":"http://terminology.hl7.org/CodeSystem/v2-0203","code":"MR"}]},"system":"https://bonnie-fhir.healthit.gov/","value":"612e6aab02c62a011f2ead9b"}],"active":true,"name":[{"use":"usual","family":"NUMERPass","given":["MedReasonMALDUHepDAGCSDuringED"]}],"gender":"male","birthDate":"1974-01-02"},"request":{"method":"PUT","url":"Patient/f82746cf-f6cd-4fcc-bc9e-7e569ae26211"}},{"fullUrl":"https://madie.cms.gov/Encounter/5ca6295fb8484628b8de1df7","resource":{"resourceType":"Encounter","id":"a33308d4-7467-42a9-96ab-96e5dac219d8","meta":{"profile":["http://hl7.org/fhir/us/qicore/StructureDefinition/qicore-encounter"]},"status":"finished","class":{"system":"http://terminology.hl7.org/CodeSystem/v3-ActCode","code":"EMER","display":"emergency"},"type":[{"coding":[{"system":"http://snomed.info/sct","code":"4525004"}]}],"subject":{"reference":"Patient/f82746cf-f6cd-4fcc-bc9e-7e569ae26211"},"period":{"start":"2025-10-31T05:00:00+00:00","end":"2025-11-01T07:15:00+00:00"},"length":{"value":1.0,"unit":"days"}},"request":{"method":"PUT","url":"Encounter/a33308d4-7467-42a9-96ab-96e5dac219d8"}},{"fullUrl":"https://madie.cms.gov/Encounter/5ca6295fb8484628b8de1df8","resource":{"resourceType":"Encounter","id":"f7ecb911-6d24-449c-a0ac-b508e5e66249","meta":{"profile":["http://hl7.org/fhir/us/qicore/StructureDefinition/qicore-encounter"]},"status":"finished","class":{"system":"http://terminology.hl7.org/CodeSystem/v3-ActCode","code":"IMP","display":"inpatient encounter"},"type":[{"coding":[{"system":"http://snomed.info/sct","code":"8715000"}]}],"subject":{"reference":"Patient/f82746cf-f6cd-4fcc-bc9e-7e569ae26211"},"period":{"start":"2025-11-01T08:00:00+00:00","end":"2025-11-26T08:15:00+00:00"},"length":{"value":25.0,"unit":"days"},"location":[{"location":{"reference":"Location/Location-1"},"period":{"start":"2025-11-01T09:00:00.000+00:00","end":"2025-11-10T08:15:00.000+00:00"}}]},"request":{"method":"PUT","url":"Encounter/f7ecb911-6d24-449c-a0ac-b508e5e66249"}},{"fullUrl":"https://madie.cms.gov/Coverage/5fa041541c76ba66d9959235","resource":{"resourceType":"Coverage","id":"f26fb96d-5b2e-4f78-8ee3-3ebc50fda2c1","status":"active","beneficiary":{"reference":"Patient/f82746cf-f6cd-4fcc-bc9e-7e569ae26211"},"period":{"start":"1974-01-02T08:00:00+00:00"},"payor":[{"reference":"Organization/a6c3e6fa-301e-4714-9d04-3dde9a7e7c49"}]},"request":{"method":"PUT","url":"Coverage/f26fb96d-5b2e-4f78-8ee3-3ebc50fda2c1"}},{"fullUrl":"https://madie.cms.gov/MedicationAdministration/5ca6295fb8484628b8de1dff","resource":{"resourceType":"MedicationAdministration","id":"a8f846ad-824e-4229-b4e9-e3655e65a61c","meta":{"profile":["http://hl7.org/fhir/us/qicore/StructureDefinition/qicore-mednotadministered"]},"extension":[{"url":"http://hl7.org/fhir/us/qicore/StructureDefinition/qicore-recorded","valueDateTime":"2025-11-01T07:00:00+00:00"}],"status":"not-done","statusReason":[{"coding":[{"system":"http://snomed.info/sct","code":"183932001","display":"Procedure contraindicated (situation)"}]}],"medicationCodeableConcept":{"coding":[{"system":"http://www.nlm.nih.gov/research/umls/rxnorm","code":"1361574"}]},"subject":{"reference":"Patient/f82746cf-f6cd-4fcc-bc9e-7e569ae26211"},"effectivePeriod":{"start":"2025-11-01T07:00:00+00:00"}},"request":{"method":"PUT","url":"MedicationAdministration/a8f846ad-824e-4229-b4e9-e3655e65a61c"}},{"fullUrl":"https://madie.cms.gov/Procedure/device-application-8a03","resource":{"resourceType":"Procedure","id":"df79a709-285b-461e-b721-408a7c42c386","meta":{"profile":["http://hl7.org/fhir/us/qicore/StructureDefinition/qicore-procedurenotdone"]},"extension":[{"url":"http://hl7.org/fhir/us/qicore/StructureDefinition/qicore-recorded","valueDateTime":"2025-11-01T07:00:00+00:00"}],"status":"not-done","statusReason":{"coding":[{"system":"http://snomed.info/sct","code":"183932001","display":"Procedure contraindicated (situation)","userSelected":true}]},"code":{"coding":[{"system":"http://snomed.info/sct","code":"229511001","display":"Application of graduated compression garment (procedure)","userSelected":true}]},"subject":{"reference":"Patient/f82746cf-f6cd-4fcc-bc9e-7e569ae26211"},"_performedDateTime":{"extension":[{"url":"http://hl7.org/fhir/StructureDefinition/data-absent-reason","valueCode":"not-performed"}]}},"request":{"method":"PUT","url":"Procedure/df79a709-285b-461e-b721-408a7c42c386"}},{"fullUrl":"https://madie.cms.gov/Location/Location-1","resource":{"resourceType":"Location","id":"931e9996-8447-4b90-b884-a6e0b966e3a5","meta":{"profile":["http://hl7.org/fhir/us/qicore/StructureDefinition/qicore-location"]},"identifier":[{"use":"usual","system":"http://exampleoflocation.com","value":"B1-S.F2"}],"name":"Medical Surgical East, first floor","type":[{"coding":[{"system":"https://www.cdc.gov/nhsn/cdaportal/terminology/codesystem/hsloc.html","code":"1025-6","display":"Trauma Critical Care","userSelected":true}]}]},"request":{"method":"PUT","url":"Location/931e9996-8447-4b90-b884-a6e0b966e3a5"}},{"fullUrl":"https://madie.cms.gov/Organization/123456","resource":{"resourceType":"Organization","id":"a6c3e6fa-301e-4714-9d04-3dde9a7e7c49","meta":{"profile":["http://hl7.org/fhir/us/qicore/StructureDefinition/qicore-organization"]},"identifier":[{"use":"temp","system":"urn:oid:2.16.840.1.113883.4.4","value":"21-3259825"}],"active":true,"type":[{"coding":[{"system":"http://terminology.hl7.org/CodeSystem/organization-type","code":"pay","display":"Payer"}]}],"name":"Blue Cross Blue Shield of Texas","telecom":[{"system":"phone","value":"(+1) 972-766-6900"}],"address":[{"use":"billing","type":"postal","line":["P.O. Box 660044"],"city":"Dallas","state":"TX","postalCode":"75266-0044","country":"USA"}]},"request":{"method":"PUT","url":"Organization/a6c3e6fa-301e-4714-9d04-3dde9a7e7c49"}},{"fullUrl":"https://madie.cms.gov/Practitioner/practitioner-123456","resource":{"resourceType":"Practitioner","id":"9b6f1602-ba17-4ddc-8377-1605213f2c31","identifier":[{"system":"http://hl7.org/fhir/sid/us-npi","value":"123456"}],"name":[{"family":"Evil","prefix":["Dr"]}]},"request":{"method":"PUT","url":"Practitioner/9b6f1602-ba17-4ddc-8377-1605213f2c31"}},{"fullUrl":"https://madie.cms.gov/MeasureReport/4fd99c24-616d-48a6-8128-abd6f2f2e9c4","resource":{"resourceType":"MeasureReport","id":"4fd99c24-616d-48a6-8128-abd6f2f2e9c4","meta":{"profile":["http://hl7.org/fhir/us/cqfmeasures/StructureDefinition/test-case-cqfm"]},"contained":[{"resourceType":"Parameters","id":"082d5354-f458-48fa-82a5-b410b89c18a5-parameters","parameter":[{"name":"subject","valueString":"f82746cf-f6cd-4fcc-bc9e-7e569ae26211"}]}],"extension":[{"url":"http://hl7.org/fhir/us/cqfmeasures/StructureDefinition/cqfm-inputParameters","valueReference":{"reference":"#082d5354-f458-48fa-82a5-b410b89c18a5-parameters"}},{"url":"http://hl7.org/fhir/us/cqfmeasures/StructureDefinition/cqfm-testCaseDescription","valueMarkdown":"meets IPP, meets Denominator, GCS ordered not done MedRsn and Order Unfractionated Heparin not done MedRsn - during ED\n"}],"modifierExtension":[{"url":"http://hl7.org/fhir/us/cqfmeasures/StructureDefinition/cqfm-isTestCase","valueBoolean":true}],"status":"complete","type":"individual","measure":"https://madie.cms.gov/Measure/IntensiveCareUnitVenousThromboembolismProphylaxisFHIR","period":{"start":"2025-01-01","end":"2025-12-31"},"group":[{"population":[{"code":{"coding":[{"system":"http://terminology.hl7.org/CodeSystem/measure-population","code":"initial-population","display":"Initial Population"}]},"count":1},{"code":{"coding":[{"system":"http://terminology.hl7.org/CodeSystem/measure-population","code":"denominator","display":"Denominator"}]},"count":1},{"code":{"coding":[{"system":"http://terminology.hl7.org/CodeSystem/measure-population","code":"denominator-exclusion","display":"Denominator Exclusion"}]},"count":0},{"code":{"coding":[{"system":"http://terminology.hl7.org/CodeSystem/measure-population","code":"numerator","display":"Numerator"}]},"count":1},{"code":{"coding":[{"system":"http://terminology.hl7.org/CodeSystem/measure-population","code":"denominator-exception","display":"Denominator Exception"}]},"count":0}]}]},"request":{"method":"PUT","url":"MeasureReport/4fd99c24-616d-48a6-8128-abd6f2f2e9c4"}}]}