{"resourceType":"Bundle","id":"tests-88086c39-a440-43ae-b015-f399190c9589-bundle","type":"transaction","entry":[{"fullUrl":"https://madie.cms.gov/Patient/88086c39-a440-43ae-b015-f399190c9589","resource":{"resourceType":"Patient","id":"88086c39-a440-43ae-b015-f399190c9589","meta":{"profile":["http://hl7.org/fhir/us/qicore/StructureDefinition/qicore-patient"]},"text":{"status":"generated","div":"<div xmlns=\"http://www.w3.org/1999/xhtml\"><div class=\"hapiHeaderText\">PtRefMOWarfEDendTimeEQEncStartTime <b>NUMERPASS </b></div><table class=\"hapiPropertyTable\"><tbody><tr><td>Identifier</td><td>35e854fe06e36e7e02449812c3316da3</td></tr><tr><td>Date of birth</td><td><span>02 January 1974</span></td></tr></tbody></table></div>"},"extension":[{"url":"http://hl7.org/fhir/us/core/StructureDefinition/us-core-race","extension":[{"url":"ombCategory","valueCoding":{"system":"urn:oid:2.16.840.1.113883.6.238","code":"1002-5","display":"American Indian or Alaska Native","userSelected":true}},{"url":"text","valueString":"American Indian or Alaska Native"}]},{"url":"http://hl7.org/fhir/us/core/StructureDefinition/us-core-ethnicity","extension":[{"url":"ombCategory","valueCoding":{"system":"urn:oid:2.16.840.1.113883.6.238","code":"2135-2","display":"Hispanic or Latino","userSelected":true}},{"url":"text","valueString":"Hispanic or Latino"}]}],"identifier":[{"type":{"coding":[{"system":"http://terminology.hl7.org/CodeSystem/v2-0203","code":"MR"}]},"system":"https://bonnie-fhir.healthit.gov/","value":"612e6b5002c62a011f2ed433"}],"active":true,"name":[{"use":"usual","family":"NUMERPass","given":["PtRefMOWarfEDendTimeEQEncStartTime"]}],"gender":"male","birthDate":"1974-01-02"},"request":{"method":"PUT","url":"Patient/88086c39-a440-43ae-b015-f399190c9589"}},{"fullUrl":"https://madie.cms.gov/Encounter/5ca62961b8484628b8de1e7d","resource":{"resourceType":"Encounter","id":"bf5d12e3-226e-461c-9249-2c7b703d81cc","meta":{"profile":["http://hl7.org/fhir/us/qicore/StructureDefinition/qicore-encounter"]},"status":"finished","class":{"system":"http://terminology.hl7.org/CodeSystem/v3-ActCode","code":"EMER","display":"emergency"},"type":[{"coding":[{"system":"http://snomed.info/sct","code":"4525004"}]}],"subject":{"reference":"Patient/88086c39-a440-43ae-b015-f399190c9589"},"period":{"start":"2025-10-31T05:00:00+00:00","end":"2025-11-01T08:00:00+00:00"},"length":{"value":1,"unit":"days"}},"request":{"method":"PUT","url":"Encounter/bf5d12e3-226e-461c-9249-2c7b703d81cc"}},{"fullUrl":"https://madie.cms.gov/Encounter/5ca62961b8484628b8de1e7e","resource":{"resourceType":"Encounter","id":"c628a8a9-7124-415c-8dd6-7b08af3b24fe","meta":{"profile":["http://hl7.org/fhir/us/qicore/StructureDefinition/qicore-encounter"]},"status":"finished","class":{"system":"http://terminology.hl7.org/CodeSystem/v3-ActCode","code":"IMP","display":"inpatient encounter"},"type":[{"coding":[{"system":"http://snomed.info/sct","code":"8715000"}]}],"subject":{"reference":"Patient/88086c39-a440-43ae-b015-f399190c9589"},"period":{"start":"2025-11-01T08:00:00+00:00","end":"2025-11-26T08:15:00+00:00"},"length":{"value":25,"unit":"days"},"location":[{"location":{"reference":"Location/intensive-care-unit-2312"},"period":{"start":"2025-11-04T09:00:00.000+00:00","end":"2025-11-06T08:15:00.000+00:00"}}]},"request":{"method":"PUT","url":"Encounter/c628a8a9-7124-415c-8dd6-7b08af3b24fe"}},{"fullUrl":"https://madie.cms.gov/Coverage/5fa041591c76ba66d995928c","resource":{"resourceType":"Coverage","id":"23bbf115-1a82-4f9d-9eee-d9091bd5a30d","status":"active","beneficiary":{"reference":"Patient/88086c39-a440-43ae-b015-f399190c9589"},"period":{"start":"1974-01-02T08:00:00+00:00"},"payor":[{"reference":"Organization/84b56847-ad40-4bf6-b612-9e42ad2a84e5"}]},"request":{"method":"PUT","url":"Coverage/23bbf115-1a82-4f9d-9eee-d9091bd5a30d"}},{"fullUrl":"https://madie.cms.gov/MedicationRequest/5ca6295fb8484628b8de1dd7","resource":{"resourceType":"MedicationRequest","id":"b98d8c12-2613-400c-abfc-271296b792d4","meta":{"profile":["http://hl7.org/fhir/us/qicore/StructureDefinition/qicore-mednotrequested"]},"status":"completed","intent":"order","category":[{"coding":[{"system":"http://terminology.hl7.org/CodeSystem/medicationrequest-category","code":"community"}]}],"doNotPerform":true,"medicationCodeableConcept":{"coding":[{"system":"http://www.nlm.nih.gov/research/umls/rxnorm","code":"855288"}]},"subject":{"reference":"Patient/88086c39-a440-43ae-b015-f399190c9589"},"authoredOn":"2025-11-01T07:00:00+00:00","requester":{"reference":"Practitioner/123456"},"reasonCode":[{"coding":[{"system":"http://snomed.info/sct","code":"443390004","display":"Refusal of treatment by patient (situation)","userSelected":true}]}]},"request":{"method":"PUT","url":"MedicationRequest/b98d8c12-2613-400c-abfc-271296b792d4"}},{"fullUrl":"https://madie.cms.gov/Location/intensive-care-unit-2312","resource":{"resourceType":"Location","id":"e9e8a13b-1749-4503-a8b8-3ff87628c41b","meta":{"profile":["http://hl7.org/fhir/us/qicore/StructureDefinition/qicore-location"]},"identifier":[{"use":"usual","system":"http://exampleoflocation.com","value":"B1-S.F2"}],"name":"Medical Surgical East, first floor","type":[{"coding":[{"system":"https://www.cdc.gov/nhsn/cdaportal/terminology/codesystem/hsloc.html","code":"1025-6","display":"Trauma Critical Care","userSelected":true}]}]},"request":{"method":"PUT","url":"Location/e9e8a13b-1749-4503-a8b8-3ff87628c41b"}},{"fullUrl":"https://madie.cms.gov/Organization/123456","resource":{"resourceType":"Organization","id":"84b56847-ad40-4bf6-b612-9e42ad2a84e5","meta":{"profile":["http://hl7.org/fhir/us/qicore/StructureDefinition/qicore-organization"]},"identifier":[{"use":"temp","system":"urn:oid:2.16.840.1.113883.4.4","value":"21-3259825"}],"active":true,"type":[{"coding":[{"system":"http://terminology.hl7.org/CodeSystem/organization-type","code":"pay","display":"Payer"}]}],"name":"Blue Cross Blue Shield of Texas","telecom":[{"system":"phone","value":"(+1) 972-766-6900"}],"address":[{"use":"billing","type":"postal","line":["P.O. Box 660044"],"city":"Dallas","state":"TX","postalCode":"75266-0044","country":"USA"}]},"request":{"method":"PUT","url":"Organization/84b56847-ad40-4bf6-b612-9e42ad2a84e5"}},{"fullUrl":"https://madie.cms.gov/Practitioner/practitioner-123456","resource":{"resourceType":"Practitioner","id":"8bb01443-ce2b-4339-9735-6bc2d2448df3","identifier":[{"system":"http://hl7.org/fhir/sid/us-npi","value":"123456"}],"name":[{"family":"Evil","prefix":["Dr"]}]},"request":{"method":"PUT","url":"Practitioner/8bb01443-ce2b-4339-9735-6bc2d2448df3"}},{"fullUrl":"https://madie.cms.gov/MeasureReport/993f5794-089e-4b71-a24f-c11dda56ba39","resource":{"resourceType":"MeasureReport","id":"993f5794-089e-4b71-a24f-c11dda56ba39","meta":{"profile":["http://hl7.org/fhir/us/cqfmeasures/StructureDefinition/test-case-cqfm"]},"contained":[{"resourceType":"Parameters","id":"d9bf6b63-24f4-4de3-870a-5d7aa3064d46-parameters","parameter":[{"name":"subject","valueString":"88086c39-a440-43ae-b015-f399190c9589"}]}],"extension":[{"url":"http://hl7.org/fhir/us/cqfmeasures/StructureDefinition/cqfm-inputParameters","valueReference":{"reference":"#d9bf6b63-24f4-4de3-870a-5d7aa3064d46-parameters"}},{"url":"http://hl7.org/fhir/us/cqfmeasures/StructureDefinition/cqfm-testCaseDescription","valueMarkdown":"meets IPP, meets Denominator, Warfarin admin not done patient Refusal - during ED\n"}],"modifierExtension":[{"url":"http://hl7.org/fhir/us/cqfmeasures/StructureDefinition/cqfm-isTestCase","valueBoolean":true}],"status":"complete","type":"individual","measure":"https://madie.cms.gov/Measure/IntensiveCareUnitVenousThromboembolismProphylaxisFHIR","period":{"start":"2025-01-01","end":"2025-12-31"},"group":[{"population":[{"code":{"coding":[{"system":"http://terminology.hl7.org/CodeSystem/measure-population","code":"initial-population","display":"Initial Population"}]},"count":1},{"code":{"coding":[{"system":"http://terminology.hl7.org/CodeSystem/measure-population","code":"denominator","display":"Denominator"}]},"count":1},{"code":{"coding":[{"system":"http://terminology.hl7.org/CodeSystem/measure-population","code":"denominator-exclusion","display":"Denominator Exclusion"}]},"count":0},{"code":{"coding":[{"system":"http://terminology.hl7.org/CodeSystem/measure-population","code":"numerator","display":"Numerator"}]},"count":1},{"code":{"coding":[{"system":"http://terminology.hl7.org/CodeSystem/measure-population","code":"denominator-exception","display":"Denominator Exception"}]},"count":0}]}]},"request":{"method":"PUT","url":"MeasureReport/993f5794-089e-4b71-a24f-c11dda56ba39"}}]}