{"resourceType":"Bundle","id":"tests-6e9594c6-7336-4735-b402-0bd0a1d10c6d-bundle","type":"transaction","entry":[{"fullUrl":"https://madie.cms.gov/Patient/6e9594c6-7336-4735-b402-0bd0a1d10c6d","resource":{"resourceType":"Patient","id":"6e9594c6-7336-4735-b402-0bd0a1d10c6d","meta":{"profile":["http://hl7.org/fhir/us/qicore/StructureDefinition/qicore-patient"]},"text":{"status":"generated","div":"<div xmlns=\"http://www.w3.org/1999/xhtml\"><div class=\"hapiHeaderText\">MAUHepOnAnesEndOnICUStart <b>NUMERPASS </b></div><table class=\"hapiPropertyTable\"><tbody><tr><td>Identifier</td><td>18da224ba07858aaf8efb0009ede783e</td></tr><tr><td>Date of birth</td><td><span>03 March 1974</span></td></tr></tbody></table></div>"},"extension":[{"url":"http://hl7.org/fhir/us/core/StructureDefinition/us-core-race","extension":[{"url":"ombCategory","valueCoding":{"system":"urn:oid:2.16.840.1.113883.6.238","code":"1002-5","display":"American Indian or Alaska Native","userSelected":true}},{"url":"text","valueString":"American Indian or Alaska Native"}]},{"url":"http://hl7.org/fhir/us/core/StructureDefinition/us-core-ethnicity","extension":[{"url":"ombCategory","valueCoding":{"system":"urn:oid:2.16.840.1.113883.6.238","code":"2135-2","display":"Hispanic or Latino","userSelected":true}},{"url":"text","valueString":"Hispanic or Latino"}]}],"identifier":[{"type":{"coding":[{"system":"http://terminology.hl7.org/CodeSystem/v2-0203","code":"MR"}]},"system":"https://bonnie-fhir.healthit.gov/","value":"612e6f4e02c62a011f2f15ae"}],"active":true,"name":[{"use":"usual","family":"NUMERPass","given":["MAUHepOnAnesEndOnICUStart"]}],"gender":"female","birthDate":"1974-03-03"},"request":{"method":"PUT","url":"Patient/6e9594c6-7336-4735-b402-0bd0a1d10c6d"}},{"fullUrl":"https://madie.cms.gov/Encounter/5ce8096fb848467c29eaf1e1","resource":{"resourceType":"Encounter","id":"d6adedc6-584b-4022-b105-2af99450dccc","meta":{"profile":["http://hl7.org/fhir/us/qicore/StructureDefinition/qicore-encounter"]},"status":"finished","class":{"system":"http://terminology.hl7.org/CodeSystem/v3-ActCode","code":"IMP","display":"inpatient encounter"},"type":[{"coding":[{"system":"http://snomed.info/sct","code":"8715000"}]}],"subject":{"reference":"Patient/6e9594c6-7336-4735-b402-0bd0a1d10c6d"},"period":{"start":"2025-12-04T08:00:00+00:00","end":"2025-12-30T08:15:00+00:00"},"length":{"value":26.0,"unit":"days"},"location":[{"location":{"reference":"Location/Location-1"},"period":{"start":"2025-12-06T08:00:00.000+00:00","end":"2025-12-12T08:15:00.000+00:00"}}]},"request":{"method":"PUT","url":"Encounter/d6adedc6-584b-4022-b105-2af99450dccc"}},{"fullUrl":"https://madie.cms.gov/Coverage/5fa041031c76ba66d99590b7","resource":{"resourceType":"Coverage","id":"86b57d56-b4df-4f00-8870-3d329c36be98","status":"active","beneficiary":{"reference":"Patient/6e9594c6-7336-4735-b402-0bd0a1d10c6d"},"period":{"start":"1974-03-03T08:00:00+00:00"},"payor":[{"reference":"Organization/42846cc3-1db0-4bf7-b9ff-8b81fa6e835d"}]},"request":{"method":"PUT","url":"Coverage/86b57d56-b4df-4f00-8870-3d329c36be98"}},{"fullUrl":"https://madie.cms.gov/MedicationAdministration/5ce8096fb848467c29eaf1e2","resource":{"resourceType":"MedicationAdministration","id":"b425fac6-0ccc-444e-8245-ea48837b3459","meta":{"profile":["http://hl7.org/fhir/us/qicore/StructureDefinition/qicore-medicationadministration"]},"status":"completed","medicationCodeableConcept":{"coding":[{"system":"http://www.nlm.nih.gov/research/umls/rxnorm","code":"1361607"}]},"subject":{"reference":"Patient/6e9594c6-7336-4735-b402-0bd0a1d10c6d"},"effectivePeriod":{"start":"2025-12-06T08:00:00+00:00","end":"2025-12-12T08:15:00+00:00"},"dosage":{"route":{"coding":[{"system":"http://snomed.info/sct","code":"418114005","display":"Intravenous route"}]},"dose":{"value":500,"unit":"ml","system":"http://unitsofmeasure.org","code":"ml"}}},"request":{"method":"PUT","url":"MedicationAdministration/b425fac6-0ccc-444e-8245-ea48837b3459"}},{"fullUrl":"https://madie.cms.gov/Procedure/5ce8096fb848467c29eaf1e3","resource":{"resourceType":"Procedure","id":"e5fd036b-d785-4ba8-99bf-917a8c478886","meta":{"profile":["http://hl7.org/fhir/us/qicore/StructureDefinition/qicore-procedure"]},"extension":[{"url":"http://hl7.org/fhir/us/qicore/StructureDefinition/qicore-recorded","valueDateTime":"2012-12-06T09:35:00-04:00"}],"status":"completed","code":{"coding":[{"system":"http://snomed.info/sct","code":"18946005"}]},"subject":{"reference":"Patient/6e9594c6-7336-4735-b402-0bd0a1d10c6d"},"performedPeriod":{"start":"2025-12-06T08:00:00+00:00","end":"2025-12-06T09:00:00+00:00"}},"request":{"method":"PUT","url":"Procedure/e5fd036b-d785-4ba8-99bf-917a8c478886"}},{"fullUrl":"https://madie.cms.gov/Location/Location-1","resource":{"resourceType":"Location","id":"9209c6b1-d17d-4b24-9438-1f8c7c9f11cd","meta":{"profile":["http://hl7.org/fhir/us/qicore/StructureDefinition/qicore-location"]},"identifier":[{"use":"usual","system":"http://exampleoflocation.com","value":"B1-S.F2"}],"name":"Medical Surgical East, first floor","type":[{"coding":[{"system":"https://www.cdc.gov/nhsn/cdaportal/terminology/codesystem/hsloc.html","code":"1025-6","display":"Trauma Critical Care","userSelected":true}]}]},"request":{"method":"PUT","url":"Location/9209c6b1-d17d-4b24-9438-1f8c7c9f11cd"}},{"fullUrl":"https://madie.cms.gov/Organization/123456","resource":{"resourceType":"Organization","id":"42846cc3-1db0-4bf7-b9ff-8b81fa6e835d","meta":{"profile":["http://hl7.org/fhir/us/qicore/StructureDefinition/qicore-organization"]},"identifier":[{"use":"temp","system":"urn:oid:2.16.840.1.113883.4.4","value":"21-3259825"}],"active":true,"type":[{"coding":[{"system":"http://terminology.hl7.org/CodeSystem/organization-type","code":"pay","display":"Payer"}]}],"name":"Blue Cross Blue Shield of Texas","telecom":[{"system":"phone","value":"(+1) 972-766-6900"}],"address":[{"use":"billing","type":"postal","line":["P.O. Box 660044"],"city":"Dallas","state":"TX","postalCode":"75266-0044","country":"USA"}]},"request":{"method":"PUT","url":"Organization/42846cc3-1db0-4bf7-b9ff-8b81fa6e835d"}},{"fullUrl":"https://madie.cms.gov/Practitioner/practitioner-123456","resource":{"resourceType":"Practitioner","id":"ee769ba6-2f89-4731-8f22-311a63ff3bb1","identifier":[{"system":"http://hl7.org/fhir/sid/us-npi","value":"123456"}],"name":[{"family":"Evil","prefix":["Dr"]}]},"request":{"method":"PUT","url":"Practitioner/ee769ba6-2f89-4731-8f22-311a63ff3bb1"}},{"fullUrl":"https://madie.cms.gov/MeasureReport/ca8a2fe5-6612-488d-9c03-d393d22d239b","resource":{"resourceType":"MeasureReport","id":"ca8a2fe5-6612-488d-9c03-d393d22d239b","meta":{"profile":["http://hl7.org/fhir/us/cqfmeasures/StructureDefinition/test-case-cqfm"]},"contained":[{"resourceType":"Parameters","id":"94255ba9-760a-4dbe-b407-1acf05104532-parameters","parameter":[{"name":"subject","valueString":"6e9594c6-7336-4735-b402-0bd0a1d10c6d"}]}],"extension":[{"url":"http://hl7.org/fhir/us/cqfmeasures/StructureDefinition/cqfm-inputParameters","valueReference":{"reference":"#94255ba9-760a-4dbe-b407-1acf05104532-parameters"}},{"url":"http://hl7.org/fhir/us/cqfmeasures/StructureDefinition/cqfm-testCaseDescription","valueMarkdown":"meets IPP, meets Denominator, medication administered:Unfractionated Heparin Route:IV starts concurrent with Anesthesia ends, Anes ends concurrent with start of ICU\n"}],"modifierExtension":[{"url":"http://hl7.org/fhir/us/cqfmeasures/StructureDefinition/cqfm-isTestCase","valueBoolean":true}],"status":"complete","type":"individual","measure":"https://madie.cms.gov/Measure/IntensiveCareUnitVenousThromboembolismProphylaxisFHIR","period":{"start":"2025-01-01","end":"2025-12-31"},"group":[{"population":[{"code":{"coding":[{"system":"http://terminology.hl7.org/CodeSystem/measure-population","code":"initial-population","display":"Initial Population"}]},"count":1},{"code":{"coding":[{"system":"http://terminology.hl7.org/CodeSystem/measure-population","code":"denominator","display":"Denominator"}]},"count":1},{"code":{"coding":[{"system":"http://terminology.hl7.org/CodeSystem/measure-population","code":"denominator-exclusion","display":"Denominator Exclusion"}]},"count":0},{"code":{"coding":[{"system":"http://terminology.hl7.org/CodeSystem/measure-population","code":"numerator","display":"Numerator"}]},"count":1},{"code":{"coding":[{"system":"http://terminology.hl7.org/CodeSystem/measure-population","code":"denominator-exception","display":"Denominator Exception"}]},"count":0}]}]},"request":{"method":"PUT","url":"MeasureReport/ca8a2fe5-6612-488d-9c03-d393d22d239b"}}]}