{"resourceType":"Bundle","id":"tests-9ddea16c-55d3-4dda-a1d8-a256fbff0b64-bundle","type":"transaction","entry":[{"fullUrl":"https://madie.cms.gov/Patient/9ddea16c-55d3-4dda-a1d8-a256fbff0b64","resource":{"resourceType":"Patient","id":"9ddea16c-55d3-4dda-a1d8-a256fbff0b64","meta":{"profile":["http://hl7.org/fhir/us/qicore/StructureDefinition/qicore-patient"]},"text":{"status":"generated","div":"<div xmlns=\"http://www.w3.org/1999/xhtml\"><div class=\"hapiHeaderText\">MedRsnLDUHVFP1MinAFAnesEnds1DayAFICU <b>NUMERPASS </b></div><table class=\"hapiPropertyTable\"><tbody><tr><td>Identifier</td><td>c46ac45885afaf33533a822506cc9d0e</td></tr><tr><td>Date of birth</td><td><span>03 March 1974</span></td></tr></tbody></table></div>"},"extension":[{"url":"http://hl7.org/fhir/us/core/StructureDefinition/us-core-race","extension":[{"url":"ombCategory","valueCoding":{"system":"urn:oid:2.16.840.1.113883.6.238","code":"1002-5","display":"American Indian or Alaska Native","userSelected":true}},{"url":"text","valueString":"American Indian or Alaska Native"}]},{"url":"http://hl7.org/fhir/us/core/StructureDefinition/us-core-ethnicity","extension":[{"url":"ombCategory","valueCoding":{"system":"urn:oid:2.16.840.1.113883.6.238","code":"2135-2","display":"Hispanic or Latino","userSelected":true}},{"url":"text","valueString":"Hispanic or Latino"}]}],"identifier":[{"type":{"coding":[{"system":"http://terminology.hl7.org/CodeSystem/v2-0203","code":"MR"}]},"system":"https://bonnie-fhir.healthit.gov/","value":"612e6f2702c62a011f2f0db5"}],"active":true,"name":[{"use":"usual","family":"NUMERPass","given":["MedRsnLDUHVFP1MinAFAnesEnds1DayAFICU"]}],"gender":"female","birthDate":"1974-03-03"},"request":{"method":"PUT","url":"Patient/9ddea16c-55d3-4dda-a1d8-a256fbff0b64"}},{"fullUrl":"https://madie.cms.gov/Encounter/5ce8096fb848467c29eaf174","resource":{"resourceType":"Encounter","id":"24dd447c-7ec7-4fa3-9e0b-ec40dd6648f6","meta":{"profile":["http://hl7.org/fhir/us/qicore/StructureDefinition/qicore-encounter"]},"status":"finished","class":{"system":"http://terminology.hl7.org/CodeSystem/v3-ActCode","code":"IMP","display":"inpatient encounter"},"type":[{"coding":[{"system":"http://snomed.info/sct","code":"8715000"}]}],"subject":{"reference":"Patient/9ddea16c-55d3-4dda-a1d8-a256fbff0b64"},"period":{"start":"2025-12-01T00:00:00+00:00","end":"2025-12-31T23:59:00+00:00"},"length":{"value":30.0,"unit":"days"},"location":[{"location":{"reference":"Location/intensive-care-unit-09f8"},"period":{"start":"2025-12-01T05:00:00.000+00:00","end":"2025-12-15T23:59:00.000+00:00"}}]},"request":{"method":"PUT","url":"Encounter/24dd447c-7ec7-4fa3-9e0b-ec40dd6648f6"}},{"fullUrl":"https://madie.cms.gov/Coverage/5fa040fe1c76ba66d9959060","resource":{"resourceType":"Coverage","id":"c50bd140-8985-4526-991a-8f0c7455f283","status":"active","beneficiary":{"reference":"Patient/9ddea16c-55d3-4dda-a1d8-a256fbff0b64"},"period":{"start":"1974-03-03T08:00:00+00:00"},"payor":[{"reference":"Organization/4d7da20f-8773-4347-8f6b-80adcdcee1f4"}]},"request":{"method":"PUT","url":"Coverage/c50bd140-8985-4526-991a-8f0c7455f283"}},{"fullUrl":"https://madie.cms.gov/MedicationAdministration/5ce8096fb848467c29eaf176","resource":{"resourceType":"MedicationAdministration","id":"72292d8d-d9d3-42cd-97db-3ebfc50f879c","meta":{"profile":["http://hl7.org/fhir/us/qicore/StructureDefinition/qicore-mednotadministered"]},"extension":[{"url":"http://hl7.org/fhir/us/qicore/StructureDefinition/qicore-recorded","valueDateTime":"2025-12-02T15:11:00+00:00"}],"status":"not-done","statusReason":[{"coding":[{"system":"http://snomed.info/sct","code":"183932001","display":"Procedure contraindicated (situation)"}]}],"medicationCodeableConcept":{"coding":[{"system":"http://www.nlm.nih.gov/research/umls/rxnorm","code":"854228"}]},"subject":{"reference":"Patient/9ddea16c-55d3-4dda-a1d8-a256fbff0b64"},"effectivePeriod":{"start":"2025-12-02T15:11:00+00:00"}},"request":{"method":"PUT","url":"MedicationAdministration/72292d8d-d9d3-42cd-97db-3ebfc50f879c"}},{"fullUrl":"https://madie.cms.gov/Procedure/5ce8096fb848467c29eaf177","resource":{"resourceType":"Procedure","id":"69211c6c-cdb1-4e3b-931a-7d96b36fa23c","meta":{"profile":["http://hl7.org/fhir/us/qicore/StructureDefinition/qicore-procedure"]},"extension":[{"url":"http://hl7.org/fhir/us/qicore/StructureDefinition/qicore-recorded","valueDateTime":"2012-12-04T09:35:00-04:00"}],"status":"completed","code":{"coding":[{"system":"http://snomed.info/sct","code":"18946005"}]},"subject":{"reference":"Patient/9ddea16c-55d3-4dda-a1d8-a256fbff0b64"},"performedPeriod":{"start":"2025-12-02T10:59:00+00:00","end":"2025-12-02T15:10:00+00:00"}},"request":{"method":"PUT","url":"Procedure/69211c6c-cdb1-4e3b-931a-7d96b36fa23c"}},{"fullUrl":"https://madie.cms.gov/Location/intensive-care-unit-09f8","resource":{"resourceType":"Location","id":"b1528d9d-4754-44f2-8cd2-66a8e3ddc50a","meta":{"profile":["http://hl7.org/fhir/us/qicore/StructureDefinition/qicore-location"]},"identifier":[{"use":"usual","system":"http://exampleoflocation.com","value":"B1-S.F2"}],"name":"Medical Surgical East, first floor","type":[{"coding":[{"system":"https://www.cdc.gov/nhsn/cdaportal/terminology/codesystem/hsloc.html","code":"1025-6","display":"Trauma Critical Care","userSelected":true}]}]},"request":{"method":"PUT","url":"Location/b1528d9d-4754-44f2-8cd2-66a8e3ddc50a"}},{"fullUrl":"https://madie.cms.gov/Procedure/device-application-557b","resource":{"resourceType":"Procedure","id":"cbca035f-db1a-4de0-aa7a-26a943da6b78","meta":{"profile":["http://hl7.org/fhir/us/qicore/StructureDefinition/qicore-procedurenotdone"]},"extension":[{"url":"http://hl7.org/fhir/us/qicore/StructureDefinition/qicore-recorded","valueDateTime":"2025-12-02T15:11:00.000+00:00"}],"status":"not-done","statusReason":{"coding":[{"system":"http://snomed.info/sct","code":"183932001","display":"Procedure contraindicated (situation)","userSelected":true}]},"code":{"coding":[{"system":"http://snomed.info/sct","code":"442410008","display":"Application of venous foot pump (procedure)","userSelected":true}]},"subject":{"reference":"Patient/9ddea16c-55d3-4dda-a1d8-a256fbff0b64"},"_performedDateTime":{"extension":[{"url":"http://hl7.org/fhir/StructureDefinition/data-absent-reason","valueCode":"not-performed"}]}},"request":{"method":"PUT","url":"Procedure/cbca035f-db1a-4de0-aa7a-26a943da6b78"}},{"fullUrl":"https://madie.cms.gov/Organization/123456","resource":{"resourceType":"Organization","id":"4d7da20f-8773-4347-8f6b-80adcdcee1f4","meta":{"profile":["http://hl7.org/fhir/us/qicore/StructureDefinition/qicore-organization"]},"identifier":[{"use":"temp","system":"urn:oid:2.16.840.1.113883.4.4","value":"21-3259825"}],"active":true,"type":[{"coding":[{"system":"http://terminology.hl7.org/CodeSystem/organization-type","code":"pay","display":"Payer"}]}],"name":"Blue Cross Blue Shield of Texas","telecom":[{"system":"phone","value":"(+1) 972-766-6900"}],"address":[{"use":"billing","type":"postal","line":["P.O. Box 660044"],"city":"Dallas","state":"TX","postalCode":"75266-0044","country":"USA"}]},"request":{"method":"PUT","url":"Organization/4d7da20f-8773-4347-8f6b-80adcdcee1f4"}},{"fullUrl":"https://madie.cms.gov/Practitioner/practitioner-123456","resource":{"resourceType":"Practitioner","id":"8d911483-2388-41a9-bb00-709e17112df4","identifier":[{"system":"http://hl7.org/fhir/sid/us-npi","value":"123456"}],"name":[{"family":"Evil","prefix":["Dr"]}]},"request":{"method":"PUT","url":"Practitioner/8d911483-2388-41a9-bb00-709e17112df4"}},{"fullUrl":"https://madie.cms.gov/MeasureReport/872e581e-8feb-4f98-83c9-b6f3e52d4aa1","resource":{"resourceType":"MeasureReport","id":"872e581e-8feb-4f98-83c9-b6f3e52d4aa1","meta":{"profile":["http://hl7.org/fhir/us/cqfmeasures/StructureDefinition/test-case-cqfm"]},"contained":[{"resourceType":"Parameters","id":"d0d6ad41-5761-4b0b-8b65-23e6855e086e-parameters","parameter":[{"name":"subject","valueString":"9ddea16c-55d3-4dda-a1d8-a256fbff0b64"}]}],"extension":[{"url":"http://hl7.org/fhir/us/cqfmeasures/StructureDefinition/cqfm-inputParameters","valueReference":{"reference":"#d0d6ad41-5761-4b0b-8b65-23e6855e086e-parameters"}},{"url":"http://hl7.org/fhir/us/cqfmeasures/StructureDefinition/cqfm-testCaseDescription","valueMarkdown":"Patient has a documented reason for no LDUH and a medical reason for no IPC 1 min after anesthesia end (and anesthesia ends 1 day after ICU admission). This case will also satisfy no VTE prophylaxis due to medical reason <=1 day after ICU.start\n"}],"modifierExtension":[{"url":"http://hl7.org/fhir/us/cqfmeasures/StructureDefinition/cqfm-isTestCase","valueBoolean":true}],"status":"complete","type":"individual","measure":"https://madie.cms.gov/Measure/IntensiveCareUnitVenousThromboembolismProphylaxisFHIR","period":{"start":"2025-01-01","end":"2025-12-31"},"group":[{"population":[{"code":{"coding":[{"system":"http://terminology.hl7.org/CodeSystem/measure-population","code":"initial-population","display":"Initial Population"}]},"count":1},{"code":{"coding":[{"system":"http://terminology.hl7.org/CodeSystem/measure-population","code":"denominator","display":"Denominator"}]},"count":1},{"code":{"coding":[{"system":"http://terminology.hl7.org/CodeSystem/measure-population","code":"denominator-exclusion","display":"Denominator Exclusion"}]},"count":0},{"code":{"coding":[{"system":"http://terminology.hl7.org/CodeSystem/measure-population","code":"numerator","display":"Numerator"}]},"count":1},{"code":{"coding":[{"system":"http://terminology.hl7.org/CodeSystem/measure-population","code":"denominator-exception","display":"Denominator Exception"}]},"count":0}]}]},"request":{"method":"PUT","url":"MeasureReport/872e581e-8feb-4f98-83c9-b6f3e52d4aa1"}}]}