{"resourceType":"Bundle","id":"tests-da27cb98-5c52-431e-921e-9b925a508689-bundle","type":"transaction","entry":[{"fullUrl":"https://madie.cms.gov/Patient/da27cb98-5c52-431e-921e-9b925a508689","resource":{"resourceType":"Patient","id":"da27cb98-5c52-431e-921e-9b925a508689","meta":{"profile":["http://hl7.org/fhir/us/qicore/StructureDefinition/qicore-patient"]},"text":{"status":"generated","div":"<div xmlns=\"http://www.w3.org/1999/xhtml\"><div class=\"hapiHeaderText\">CMOPerf1dayB4EncEd3DayB4Enc <b>DENEXFAIL </b></div><table class=\"hapiPropertyTable\"><tbody><tr><td>Identifier</td><td>bf11ccab793d1a7deae8665db83df87d5b0367d2f50f1935405979410fcf8e18</td></tr><tr><td>Date of birth</td><td><span>03 March 1974</span></td></tr></tbody></table></div>"},"extension":[{"url":"http://hl7.org/fhir/us/core/StructureDefinition/us-core-race","extension":[{"url":"ombCategory","valueCoding":{"system":"urn:oid:2.16.840.1.113883.6.238","code":"1002-5","display":"American Indian or Alaska Native","userSelected":true}},{"url":"text","valueString":"American Indian or Alaska Native"}]},{"url":"http://hl7.org/fhir/us/core/StructureDefinition/us-core-ethnicity","extension":[{"url":"ombCategory","valueCoding":{"system":"urn:oid:2.16.840.1.113883.6.238","code":"2135-2","display":"Hispanic or Latino","userSelected":true}},{"url":"text","valueString":"Hispanic or Latino"}]}],"identifier":[{"type":{"coding":[{"system":"http://terminology.hl7.org/CodeSystem/v2-0203","code":"MR"}]},"system":"https://bonnie-fhir.healthit.gov/","value":"612e6f6502c62a011f2f1a9e"}],"active":true,"name":[{"use":"usual","family":"DENEXFail","given":["CMOPerf1dayB4EncEd3DayB4Enc"]}],"gender":"female","birthDate":"1974-03-03"},"request":{"method":"PUT","url":"Patient/da27cb98-5c52-431e-921e-9b925a508689"}},{"fullUrl":"https://madie.cms.gov/Encounter/5ce80971b848467c29eaf2ad","resource":{"resourceType":"Encounter","id":"17c9bacf-8968-4d28-abe5-ca1a7f7da455","meta":{"profile":["http://hl7.org/fhir/us/qicore/StructureDefinition/qicore-encounter"]},"status":"finished","class":{"system":"http://terminology.hl7.org/CodeSystem/v3-ActCode","code":"EMER","display":"emergency"},"type":[{"coding":[{"system":"http://snomed.info/sct","code":"4525004"}]}],"subject":{"reference":"Patient/da27cb98-5c52-431e-921e-9b925a508689"},"period":{"start":"2025-12-01T06:00:00+00:00","end":"2025-12-01T18:30:00+00:00"},"length":{"value":0.0,"unit":"days"}},"request":{"method":"PUT","url":"Encounter/17c9bacf-8968-4d28-abe5-ca1a7f7da455"}},{"fullUrl":"https://madie.cms.gov/Encounter/5ce80971b848467c29eaf2ae","resource":{"resourceType":"Encounter","id":"5181b1e3-6ca3-4d26-b5ef-8ef63ebfb5e0","meta":{"profile":["http://hl7.org/fhir/us/qicore/StructureDefinition/qicore-encounter"]},"status":"finished","class":{"system":"http://terminology.hl7.org/CodeSystem/v3-ActCode","code":"IMP","display":"inpatient encounter"},"type":[{"coding":[{"system":"http://snomed.info/sct","code":"8715000"}]}],"subject":{"reference":"Patient/da27cb98-5c52-431e-921e-9b925a508689"},"period":{"start":"2025-12-04T08:00:00+00:00","end":"2025-12-30T08:15:00+00:00"},"length":{"value":26.0,"unit":"days"},"location":[{"location":{"reference":"Location/Location-1"},"period":{"start":"2025-12-26T08:00:00.000+00:00","end":"2025-12-28T08:15:00.000+00:00"}}]},"request":{"method":"PUT","url":"Encounter/5181b1e3-6ca3-4d26-b5ef-8ef63ebfb5e0"}},{"fullUrl":"https://madie.cms.gov/Procedure/5ce80971b848467c29eaf2af","resource":{"resourceType":"Procedure","id":"0e718433-48ea-409d-a5c7-c589ff228f2d","meta":{"profile":["http://hl7.org/fhir/us/qicore/StructureDefinition/qicore-procedure"]},"extension":[{"url":"http://hl7.org/fhir/us/qicore/StructureDefinition/qicore-recorded","valueDateTime":"2012-12-04T09:35:00-04:00"}],"status":"completed","code":{"coding":[{"system":"http://snomed.info/sct","code":"133918004"}]},"subject":{"reference":"Patient/da27cb98-5c52-431e-921e-9b925a508689"},"performedPeriod":{"start":"2025-12-03T07:59:00+00:00"}},"request":{"method":"PUT","url":"Procedure/0e718433-48ea-409d-a5c7-c589ff228f2d"}},{"fullUrl":"https://madie.cms.gov/Coverage/5fa041071c76ba66d99590f3","resource":{"resourceType":"Coverage","id":"6840e81a-346b-4e73-99fd-a4c007dcd72a","status":"active","beneficiary":{"reference":"Patient/da27cb98-5c52-431e-921e-9b925a508689"},"period":{"start":"1974-03-03T08:00:00+00:00"},"payor":[{"reference":"Organization/42846cc3-1db0-4bf7-b9ff-8b81fa6e835d"}]},"request":{"method":"PUT","url":"Coverage/6840e81a-346b-4e73-99fd-a4c007dcd72a"}},{"fullUrl":"https://madie.cms.gov/Location/Location-1","resource":{"resourceType":"Location","id":"165abc68-03a6-403a-8519-6ec21aae40bd","meta":{"profile":["http://hl7.org/fhir/us/qicore/StructureDefinition/qicore-location"]},"identifier":[{"use":"usual","system":"http://exampleoflocation.com","value":"B1-S.F2"}],"name":"Medical Surgical East, first floor","type":[{"coding":[{"system":"https://www.cdc.gov/nhsn/cdaportal/terminology/codesystem/hsloc.html","code":"1025-6","display":"Trauma Critical Care","userSelected":true}]}]},"request":{"method":"PUT","url":"Location/165abc68-03a6-403a-8519-6ec21aae40bd"}},{"fullUrl":"https://madie.cms.gov/Organization/123456","resource":{"resourceType":"Organization","id":"42846cc3-1db0-4bf7-b9ff-8b81fa6e835d","meta":{"profile":["http://hl7.org/fhir/us/qicore/StructureDefinition/qicore-organization"]},"identifier":[{"use":"temp","system":"urn:oid:2.16.840.1.113883.4.4","value":"21-3259825"}],"active":true,"type":[{"coding":[{"system":"http://terminology.hl7.org/CodeSystem/organization-type","code":"pay","display":"Payer"}]}],"name":"Blue Cross Blue Shield of Texas","telecom":[{"system":"phone","value":"(+1) 972-766-6900"}],"address":[{"use":"billing","type":"postal","line":["P.O. Box 660044"],"city":"Dallas","state":"TX","postalCode":"75266-0044","country":"USA"}]},"request":{"method":"PUT","url":"Organization/42846cc3-1db0-4bf7-b9ff-8b81fa6e835d"}},{"fullUrl":"https://madie.cms.gov/Practitioner/practitioner-123456","resource":{"resourceType":"Practitioner","id":"29c7d532-95b9-42ac-9434-d94997e4b46d","identifier":[{"system":"http://hl7.org/fhir/sid/us-npi","value":"123456"}],"name":[{"family":"Evil","prefix":["Dr"]}]},"request":{"method":"PUT","url":"Practitioner/29c7d532-95b9-42ac-9434-d94997e4b46d"}},{"fullUrl":"https://madie.cms.gov/MeasureReport/8264267e-2652-4118-b824-7cd3f4a55095","resource":{"resourceType":"MeasureReport","id":"8264267e-2652-4118-b824-7cd3f4a55095","meta":{"profile":["http://hl7.org/fhir/us/cqfmeasures/StructureDefinition/test-case-cqfm"]},"contained":[{"resourceType":"Parameters","id":"dafd938d-5174-4a91-ab6c-cde4c4c14be8-parameters","parameter":[{"name":"subject","valueString":"da27cb98-5c52-431e-921e-9b925a508689"}]}],"extension":[{"url":"http://hl7.org/fhir/us/cqfmeasures/StructureDefinition/cqfm-inputParameters","valueReference":{"reference":"#dafd938d-5174-4a91-ab6c-cde4c4c14be8-parameters"}},{"url":"http://hl7.org/fhir/us/cqfmeasures/StructureDefinition/cqfm-testCaseDescription","valueMarkdown":"meets IPP and Denominator, inpatient visit starts 3day after the end of ED visit(Global Hosp without Ed) AND Comfort Measures are performed 1 day before EncIP\n"}],"modifierExtension":[{"url":"http://hl7.org/fhir/us/cqfmeasures/StructureDefinition/cqfm-isTestCase","valueBoolean":true}],"status":"complete","type":"individual","measure":"https://madie.cms.gov/Measure/IntensiveCareUnitVenousThromboembolismProphylaxisFHIR","period":{"start":"2025-01-01","end":"2025-12-31"},"group":[{"population":[{"code":{"coding":[{"system":"http://terminology.hl7.org/CodeSystem/measure-population","code":"initial-population","display":"Initial Population"}]},"count":1},{"code":{"coding":[{"system":"http://terminology.hl7.org/CodeSystem/measure-population","code":"denominator","display":"Denominator"}]},"count":1},{"code":{"coding":[{"system":"http://terminology.hl7.org/CodeSystem/measure-population","code":"denominator-exclusion","display":"Denominator Exclusion"}]},"count":0},{"code":{"coding":[{"system":"http://terminology.hl7.org/CodeSystem/measure-population","code":"numerator","display":"Numerator"}]},"count":0},{"code":{"coding":[{"system":"http://terminology.hl7.org/CodeSystem/measure-population","code":"denominator-exception","display":"Denominator Exception"}]},"count":0}]}]},"request":{"method":"PUT","url":"MeasureReport/8264267e-2652-4118-b824-7cd3f4a55095"}}]}