{"resourceType":"Bundle","id":"tests-a82cd0c1-900e-4ab3-a498-840ac1608486-bundle","type":"transaction","entry":[{"fullUrl":"https://madie.cms.gov/Patient/a82cd0c1-900e-4ab3-a498-840ac1608486","resource":{"resourceType":"Patient","id":"a82cd0c1-900e-4ab3-a498-840ac1608486","meta":{"profile":["http://hl7.org/fhir/us/qicore/StructureDefinition/qicore-patient"]},"text":{"status":"generated","div":"<div xmlns=\"http://www.w3.org/1999/xhtml\"><div class=\"hapiHeaderText\">CMODuringEDDoNotPerformTrue <b>DENEXFail </b></div><table class=\"hapiPropertyTable\"><tbody><tr><td>Identifier</td><td>45452ea1dc23640e1878befc89e45fab</td></tr><tr><td>Date of birth</td><td><span>03 March 1974</span></td></tr></tbody></table></div>"},"extension":[{"url":"http://hl7.org/fhir/us/core/StructureDefinition/us-core-race","extension":[{"url":"ombCategory","valueCoding":{"system":"urn:oid:2.16.840.1.113883.6.238","code":"1002-5","display":"American Indian or Alaska Native","userSelected":true}},{"url":"text","valueString":"American Indian or Alaska Native"}]},{"url":"http://hl7.org/fhir/us/core/StructureDefinition/us-core-ethnicity","extension":[{"url":"ombCategory","valueCoding":{"system":"urn:oid:2.16.840.1.113883.6.238","code":"2135-2","display":"Hispanic or Latino","userSelected":true}},{"url":"text","valueString":"Hispanic or Latino"}]}],"identifier":[{"type":{"coding":[{"system":"http://terminology.hl7.org/CodeSystem/v2-0203","code":"MR"}]},"system":"https://bonnie-fhir.healthit.gov/","value":"612e6e7d02c62a011f2ee908"}],"active":true,"name":[{"use":"usual","family":"DENEXFail","given":["CMODuringEDDoNotPerformTrue"]}],"gender":"female","birthDate":"1974-03-03"},"request":{"method":"PUT","url":"Patient/a82cd0c1-900e-4ab3-a498-840ac1608486"}},{"fullUrl":"https://madie.cms.gov/Encounter/5ce8096eb848467c29eaf115","resource":{"resourceType":"Encounter","id":"d9a107ac-f1f4-4abf-944a-4cbcde03d91b","meta":{"profile":["http://hl7.org/fhir/us/qicore/StructureDefinition/qicore-encounter"]},"status":"finished","class":{"system":"http://terminology.hl7.org/CodeSystem/v3-ActCode","code":"EMER","display":"emergency"},"type":[{"coding":[{"system":"http://snomed.info/sct","code":"4525004"}]}],"subject":{"reference":"Patient/63050905-516c-41e9-8e97-c792143fdd0c"},"period":{"start":"2025-12-04T06:00:00+00:00","end":"2025-12-04T07:15:00+00:00"},"length":{"value":0,"unit":"days"}},"request":{"method":"PUT","url":"Encounter/d9a107ac-f1f4-4abf-944a-4cbcde03d91b"}},{"fullUrl":"https://madie.cms.gov/Encounter/5ce8096eb848467c29eaf116","resource":{"resourceType":"Encounter","id":"be1c27e9-691e-4a18-8d51-a30327eca26a","meta":{"profile":["http://hl7.org/fhir/us/qicore/StructureDefinition/qicore-encounter"]},"status":"finished","class":{"system":"http://terminology.hl7.org/CodeSystem/v3-ActCode","code":"IMP","display":"inpatient encounter"},"type":[{"coding":[{"system":"http://snomed.info/sct","code":"8715000"}]}],"subject":{"reference":"Patient/63050905-516c-41e9-8e97-c792143fdd0c"},"period":{"start":"2025-12-04T08:00:00+00:00","end":"2025-12-30T08:15:00+00:00"},"length":{"value":26,"unit":"days"},"location":[{"location":{"reference":"Location/Location-1"},"period":{"start":"2025-12-26T08:00:00.000+00:00","end":"2025-12-28T08:15:00.000+00:00"}}]},"request":{"method":"PUT","url":"Encounter/be1c27e9-691e-4a18-8d51-a30327eca26a"}},{"fullUrl":"https://madie.cms.gov/ServiceRequest/5ce8096eb848467c29eaf117","resource":{"resourceType":"ServiceRequest","id":"cbc620b5-fc8a-4849-9d76-b7a5c672e2e6","meta":{"profile":["http://hl7.org/fhir/us/qicore/StructureDefinition/qicore-servicerequest"]},"status":"completed","intent":"order","doNotPerform":true,"code":{"coding":[{"system":"http://snomed.info/sct","code":"133918004"}]},"subject":{"reference":"Patient/63050905-516c-41e9-8e97-c792143fdd0c"},"authoredOn":"2025-12-04T06:30:00+00:00"},"request":{"method":"PUT","url":"ServiceRequest/cbc620b5-fc8a-4849-9d76-b7a5c672e2e6"}},{"fullUrl":"https://madie.cms.gov/Coverage/5fa040f41c76ba66d9958fa6","resource":{"resourceType":"Coverage","id":"7b9eced3-5b6e-4e31-90a9-acfae0645e3d","status":"active","beneficiary":{"reference":"Patient/63050905-516c-41e9-8e97-c792143fdd0c"},"period":{"start":"1974-03-03T08:00:00+00:00"},"payor":[{"reference":"Organization/a6c3e6fa-301e-4714-9d04-3dde9a7e7c49"}]},"request":{"method":"PUT","url":"Coverage/7b9eced3-5b6e-4e31-90a9-acfae0645e3d"}},{"fullUrl":"https://madie.cms.gov/Location/intensive-care-unit-7625","resource":{"resourceType":"Location","id":"5ec1530e-816c-4944-9a62-390df45a73ba","type":[{"coding":[{"system":"http://cts.nlm.nih.gov/fhir/cs/hsloc","version":"2020","code":"1025-6","display":"Trauma Critical Care","userSelected":true}]}]},"request":{"method":"PUT","url":"Location/5ec1530e-816c-4944-9a62-390df45a73ba"}},{"fullUrl":"https://madie.cms.gov/Location/Location-1","resource":{"resourceType":"Location","id":"1dfff8b6-25d2-4567-8ea4-c02b67322e02","meta":{"profile":["http://hl7.org/fhir/us/qicore/StructureDefinition/qicore-location"]},"identifier":[{"use":"usual","system":"http://exampleoflocation.com","value":"B1-S.F2"}],"name":"Medical Surgical East, first floor","type":[{"coding":[{"system":"https://www.cdc.gov/nhsn/cdaportal/terminology/codesystem/hsloc.html","code":"1025-6","display":"Trauma Critical Care","userSelected":true}]}]},"request":{"method":"PUT","url":"Location/1dfff8b6-25d2-4567-8ea4-c02b67322e02"}},{"fullUrl":"https://madie.cms.gov/Organization/123456","resource":{"resourceType":"Organization","id":"a6c3e6fa-301e-4714-9d04-3dde9a7e7c49","meta":{"profile":["http://hl7.org/fhir/us/qicore/StructureDefinition/qicore-organization"]},"identifier":[{"use":"temp","system":"urn:oid:2.16.840.1.113883.4.4","value":"21-3259825"}],"active":true,"type":[{"coding":[{"system":"http://terminology.hl7.org/CodeSystem/organization-type","code":"pay","display":"Payer"}]}],"name":"Blue Cross Blue Shield of Texas","telecom":[{"system":"phone","value":"(+1) 972-766-6900"}],"address":[{"use":"billing","type":"postal","line":["P.O. Box 660044"],"city":"Dallas","state":"TX","postalCode":"75266-0044","country":"USA"}]},"request":{"method":"PUT","url":"Organization/a6c3e6fa-301e-4714-9d04-3dde9a7e7c49"}},{"fullUrl":"https://madie.cms.gov/Practitioner/practitioner-123456","resource":{"resourceType":"Practitioner","id":"3cda86b2-37d9-45fe-9cd0-459dceb66e21","identifier":[{"system":"http://hl7.org/fhir/sid/us-npi","value":"123456"}],"name":[{"family":"Evil","prefix":["Dr"]}]},"request":{"method":"PUT","url":"Practitioner/3cda86b2-37d9-45fe-9cd0-459dceb66e21"}},{"fullUrl":"https://madie.cms.gov/MeasureReport/b939a596-8044-45b4-9d6e-e528892dab5a","resource":{"resourceType":"MeasureReport","id":"b939a596-8044-45b4-9d6e-e528892dab5a","meta":{"profile":["http://hl7.org/fhir/us/cqfmeasures/StructureDefinition/test-case-cqfm"]},"contained":[{"resourceType":"Parameters","id":"51accc28-9223-4e6a-a08a-0b547b15d82b-parameters","parameter":[{"name":"subject","valueString":"a82cd0c1-900e-4ab3-a498-840ac1608486"}]}],"extension":[{"url":"http://hl7.org/fhir/us/cqfmeasures/StructureDefinition/cqfm-inputParameters","valueReference":{"reference":"#51accc28-9223-4e6a-a08a-0b547b15d82b-parameters"}},{"url":"http://hl7.org/fhir/us/cqfmeasures/StructureDefinition/cqfm-testCaseDescription","valueMarkdown":"To test and cover CMO doNotPerform is true"}],"modifierExtension":[{"url":"http://hl7.org/fhir/us/cqfmeasures/StructureDefinition/cqfm-isTestCase","valueBoolean":true}],"status":"complete","type":"individual","measure":"https://madie.cms.gov/Measure/IntensiveCareUnitVenousThromboembolismProphylaxisFHIR","period":{"start":"2025-01-01","end":"2025-12-31"},"group":[{"population":[{"code":{"coding":[{"system":"http://terminology.hl7.org/CodeSystem/measure-population","code":"initial-population","display":"Initial Population"}]},"count":1},{"code":{"coding":[{"system":"http://terminology.hl7.org/CodeSystem/measure-population","code":"denominator","display":"Denominator"}]},"count":1},{"code":{"coding":[{"system":"http://terminology.hl7.org/CodeSystem/measure-population","code":"denominator-exclusion","display":"Denominator Exclusion"}]},"count":0},{"code":{"coding":[{"system":"http://terminology.hl7.org/CodeSystem/measure-population","code":"numerator","display":"Numerator"}]},"count":0},{"code":{"coding":[{"system":"http://terminology.hl7.org/CodeSystem/measure-population","code":"denominator-exception","display":"Denominator Exception"}]},"count":0}]}]},"request":{"method":"PUT","url":"MeasureReport/b939a596-8044-45b4-9d6e-e528892dab5a"}}]}