{"resourceType":"Bundle","id":"tests-f7ffeb68-1928-4860-8b3e-767f128b23d3-bundle","type":"transaction","entry":[{"fullUrl":"https://madie.cms.gov/Patient/f7ffeb68-1928-4860-8b3e-767f128b23d3","resource":{"resourceType":"Patient","id":"f7ffeb68-1928-4860-8b3e-767f128b23d3","meta":{"profile":["http://hl7.org/fhir/us/qicore/StructureDefinition/qicore-patient"]},"text":{"status":"generated","div":"<div xmlns=\"http://www.w3.org/1999/xhtml\"><div class=\"hapiHeaderText\">ThrombinIOnICUStart <b>NUMERPASS </b></div><table class=\"hapiPropertyTable\"><tbody><tr><td>Identifier</td><td>06eca7aa47ca0c502a3acb1ae6090a56</td></tr><tr><td>Date of birth</td><td><span>03 March 1974</span></td></tr></tbody></table></div>"},"extension":[{"url":"http://hl7.org/fhir/us/core/StructureDefinition/us-core-race","extension":[{"url":"ombCategory","valueCoding":{"system":"urn:oid:2.16.840.1.113883.6.238","code":"1002-5","display":"American Indian or Alaska Native","userSelected":true}},{"url":"text","valueString":"American Indian or Alaska Native"}]},{"url":"http://hl7.org/fhir/us/core/StructureDefinition/us-core-ethnicity","extension":[{"url":"ombCategory","valueCoding":{"system":"urn:oid:2.16.840.1.113883.6.238","code":"2135-2","display":"Hispanic or Latino","userSelected":true}},{"url":"text","valueString":"Hispanic or Latino"}]}],"identifier":[{"type":{"coding":[{"system":"http://terminology.hl7.org/CodeSystem/v2-0203","code":"MR"}]},"system":"https://bonnie-fhir.healthit.gov/","value":"612e6f5302c62a011f2f166a"}],"active":true,"name":[{"use":"usual","family":"NUMERPass","given":["ThrombinIOnICUStart"]}],"gender":"female","birthDate":"1974-03-03"},"request":{"method":"PUT","url":"Patient/f7ffeb68-1928-4860-8b3e-767f128b23d3"}},{"fullUrl":"https://madie.cms.gov/Encounter/5ce8096fb848467c29eaf1d6","resource":{"resourceType":"Encounter","id":"e70f987f-3298-4a78-88b2-2a5350c828f0","meta":{"profile":["http://hl7.org/fhir/us/qicore/StructureDefinition/qicore-encounter"]},"status":"finished","class":{"system":"http://terminology.hl7.org/CodeSystem/v3-ActCode","code":"IMP","display":"inpatient encounter"},"type":[{"coding":[{"system":"http://snomed.info/sct","code":"8715000"}]}],"subject":{"reference":"Patient/f7ffeb68-1928-4860-8b3e-767f128b23d3"},"period":{"start":"2025-12-04T08:00:00+00:00","end":"2025-12-30T08:15:00+00:00"},"length":{"value":26.0,"unit":"days"},"location":[{"location":{"reference":"Location/intensive-care-unit-230b"},"period":{"start":"2025-12-06T09:00:00.000+00:00","end":"2025-12-12T08:15:00.000+00:00"}}]},"request":{"method":"PUT","url":"Encounter/e70f987f-3298-4a78-88b2-2a5350c828f0"}},{"fullUrl":"https://madie.cms.gov/Coverage/5fa041041c76ba66d99590c0","resource":{"resourceType":"Coverage","id":"096ed9ea-e5bb-41e5-b654-c8002ed6b9da","status":"active","beneficiary":{"reference":"Patient/f7ffeb68-1928-4860-8b3e-767f128b23d3"},"period":{"start":"1974-03-03T08:00:00+00:00"},"payor":[{"reference":"Organization/80573fa1-cf83-4e9a-8f21-86a018689678"}]},"request":{"method":"PUT","url":"Coverage/096ed9ea-e5bb-41e5-b654-c8002ed6b9da"}},{"fullUrl":"https://madie.cms.gov/MedicationAdministration/5ce8096fb848467c29eaf1d7","resource":{"resourceType":"MedicationAdministration","id":"306cec85-73ac-4500-ab32-6e00a4421b49","meta":{"profile":["http://hl7.org/fhir/us/qicore/StructureDefinition/qicore-medicationadministration"]},"status":"completed","medicationCodeableConcept":{"coding":[{"system":"http://www.nlm.nih.gov/research/umls/rxnorm","code":"308351"}]},"subject":{"reference":"Patient/f7ffeb68-1928-4860-8b3e-767f128b23d3"},"effectivePeriod":{"start":"2025-12-06T08:00:00+00:00","end":"2025-12-06T08:45:00+00:00"}},"request":{"method":"PUT","url":"MedicationAdministration/306cec85-73ac-4500-ab32-6e00a4421b49"}},{"fullUrl":"https://madie.cms.gov/Procedure/5ce8096fb848467c29eaf1d8","resource":{"resourceType":"Procedure","id":"9b512bfe-e52d-4758-bee3-ab064baa9b76","status":"completed","code":{"coding":[{"system":"http://www.icd10data.com/icd10pcs","code":"3E030FZ"},{"system":"http://snomed.info/sct","code":"18946005"}]},"subject":{"reference":"Patient/f7ffeb68-1928-4860-8b3e-767f128b23d3"},"performedPeriod":{"start":"2025-12-04T11:00:00+00:00","end":"2025-12-06T11:15:00+00:00"}},"request":{"method":"PUT","url":"Procedure/9b512bfe-e52d-4758-bee3-ab064baa9b76"}},{"fullUrl":"https://madie.cms.gov/Location/intensive-care-unit-230b","resource":{"resourceType":"Location","id":"bbcc89d6-049b-4691-9a5e-88d3321f00e7","meta":{"profile":["http://hl7.org/fhir/us/qicore/StructureDefinition/qicore-location"]},"identifier":[{"use":"usual","system":"http://exampleoflocation.com","value":"B1-S.F2"}],"name":"Medical Surgical East, first floor","type":[{"coding":[{"system":"https://www.cdc.gov/nhsn/cdaportal/terminology/codesystem/hsloc.html","code":"1025-6","display":"Trauma Critical Care","userSelected":true}]}]},"request":{"method":"PUT","url":"Location/bbcc89d6-049b-4691-9a5e-88d3321f00e7"}},{"fullUrl":"https://madie.cms.gov/Organization/123456","resource":{"resourceType":"Organization","id":"80573fa1-cf83-4e9a-8f21-86a018689678","meta":{"profile":["http://hl7.org/fhir/us/qicore/StructureDefinition/qicore-organization"]},"identifier":[{"use":"temp","system":"urn:oid:2.16.840.1.113883.4.4","value":"21-3259825"}],"active":true,"type":[{"coding":[{"system":"http://terminology.hl7.org/CodeSystem/organization-type","code":"pay","display":"Payer"}]}],"name":"Blue Cross Blue Shield of Texas","telecom":[{"system":"phone","value":"(+1) 972-766-6900"}],"address":[{"use":"billing","type":"postal","line":["P.O. Box 660044"],"city":"Dallas","state":"TX","postalCode":"75266-0044","country":"USA"}]},"request":{"method":"PUT","url":"Organization/80573fa1-cf83-4e9a-8f21-86a018689678"}},{"fullUrl":"https://madie.cms.gov/Practitioner/practitioner-123456","resource":{"resourceType":"Practitioner","id":"b8a60874-6242-4b43-b75e-7b5dc0ddd47f","identifier":[{"system":"http://hl7.org/fhir/sid/us-npi","value":"123456"}],"name":[{"family":"Evil","prefix":["Dr"]}]},"request":{"method":"PUT","url":"Practitioner/b8a60874-6242-4b43-b75e-7b5dc0ddd47f"}},{"fullUrl":"https://madie.cms.gov/MeasureReport/e2a40211-8c8b-48df-9f24-59a4082ec6e7","resource":{"resourceType":"MeasureReport","id":"e2a40211-8c8b-48df-9f24-59a4082ec6e7","meta":{"profile":["http://hl7.org/fhir/us/cqfmeasures/StructureDefinition/test-case-cqfm"]},"contained":[{"resourceType":"Parameters","id":"07b02f03-1543-4d2a-ab29-bfbbbc90e301-parameters","parameter":[{"name":"subject","valueString":"f7ffeb68-1928-4860-8b3e-767f128b23d3"}]}],"extension":[{"url":"http://hl7.org/fhir/us/cqfmeasures/StructureDefinition/cqfm-inputParameters","valueReference":{"reference":"#07b02f03-1543-4d2a-ab29-bfbbbc90e301-parameters"}},{"url":"http://hl7.org/fhir/us/cqfmeasures/StructureDefinition/cqfm-testCaseDescription","valueMarkdown":"meets IPP, meets Denominator, medication administered:Thrombin, Thrombin  concurrent with start of ICU Admission \n"}],"modifierExtension":[{"url":"http://hl7.org/fhir/us/cqfmeasures/StructureDefinition/cqfm-isTestCase","valueBoolean":true}],"status":"complete","type":"individual","measure":"https://madie.cms.gov/Measure/IntensiveCareUnitVenousThromboembolismProphylaxisFHIR","period":{"start":"2025-01-01","end":"2025-12-31"},"group":[{"population":[{"code":{"coding":[{"system":"http://terminology.hl7.org/CodeSystem/measure-population","code":"initial-population","display":"Initial Population"}]},"count":1},{"code":{"coding":[{"system":"http://terminology.hl7.org/CodeSystem/measure-population","code":"denominator","display":"Denominator"}]},"count":1},{"code":{"coding":[{"system":"http://terminology.hl7.org/CodeSystem/measure-population","code":"denominator-exclusion","display":"Denominator Exclusion"}]},"count":0},{"code":{"coding":[{"system":"http://terminology.hl7.org/CodeSystem/measure-population","code":"numerator","display":"Numerator"}]},"count":1},{"code":{"coding":[{"system":"http://terminology.hl7.org/CodeSystem/measure-population","code":"denominator-exception","display":"Denominator Exception"}]},"count":0}]}]},"request":{"method":"PUT","url":"MeasureReport/e2a40211-8c8b-48df-9f24-59a4082ec6e7"}}]}