{"resourceType":"Bundle","id":"tests-eea9698a-bf0d-4128-afc2-a646062acbef-bundle","type":"transaction","entry":[{"fullUrl":"https://madie.cms.gov/Patient/eea9698a-bf0d-4128-afc2-a646062acbef","resource":{"resourceType":"Patient","id":"eea9698a-bf0d-4128-afc2-a646062acbef","meta":{"profile":["http://hl7.org/fhir/us/qicore/StructureDefinition/qicore-patient"]},"text":{"status":"generated","div":"<div xmlns=\"http://www.w3.org/1999/xhtml\"><div class=\"hapiHeaderText\">ComfortMeasures1MinB4ICU <b>DENEXPASS </b></div><table class=\"hapiPropertyTable\"><tbody><tr><td>Identifier</td><td>1d0273693925f8e335ce9eb65ed102e1</td></tr><tr><td>Date of birth</td><td><span>03 March 1974</span></td></tr></tbody></table></div>"},"extension":[{"url":"http://hl7.org/fhir/us/core/StructureDefinition/us-core-race","extension":[{"url":"ombCategory","valueCoding":{"system":"urn:oid:2.16.840.1.113883.6.238","code":"1002-5","display":"American Indian or Alaska Native","userSelected":true}},{"url":"text","valueString":"American Indian or Alaska Native"}]},{"url":"http://hl7.org/fhir/us/core/StructureDefinition/us-core-ethnicity","extension":[{"url":"ombCategory","valueCoding":{"system":"urn:oid:2.16.840.1.113883.6.238","code":"2135-2","display":"Hispanic or Latino","userSelected":true}},{"url":"text","valueString":"Hispanic or Latino"}]}],"identifier":[{"type":{"coding":[{"system":"http://terminology.hl7.org/CodeSystem/v2-0203","code":"MR"}]},"system":"https://bonnie-fhir.healthit.gov/","value":"612e6eb302c62a011f2ef479"}],"active":true,"name":[{"use":"usual","family":"DENEXPass","given":["ComfortMeasures1MinB4ICU"]}],"gender":"female","birthDate":"1974-03-03"},"request":{"method":"PUT","url":"Patient/eea9698a-bf0d-4128-afc2-a646062acbef"}},{"fullUrl":"https://madie.cms.gov/Encounter/5ce8096db848467c29eaf0b2","resource":{"resourceType":"Encounter","id":"81864535-a35a-456b-8f53-6277cdeda762","meta":{"profile":["http://hl7.org/fhir/us/qicore/StructureDefinition/qicore-encounter"]},"status":"finished","class":{"system":"http://terminology.hl7.org/CodeSystem/v3-ActCode","code":"IMP","display":"inpatient encounter"},"type":[{"coding":[{"system":"http://snomed.info/sct","code":"8715000"}]}],"subject":{"reference":"Patient/eea9698a-bf0d-4128-afc2-a646062acbef"},"period":{"start":"2025-12-04T08:00:00.000+00:00","end":"2025-12-30T08:15:00.000+00:00"},"length":{"value":26.0,"unit":"days"},"location":[{"location":{"reference":"Location/intensive-care-unit-02b9"},"period":{"start":"2025-12-04T08:00:00.000+00:00","end":"2025-12-08T08:15:00.000+00:00"}}]},"request":{"method":"PUT","url":"Encounter/81864535-a35a-456b-8f53-6277cdeda762"}},{"fullUrl":"https://madie.cms.gov/ServiceRequest/5ce8096db848467c29eaf0b3","resource":{"resourceType":"ServiceRequest","id":"542a6223-937e-4633-9a8e-ab3a53ee45a0","meta":{"profile":["http://hl7.org/fhir/us/qicore/StructureDefinition/qicore-servicerequest"]},"status":"completed","intent":"order","code":{"coding":[{"system":"http://snomed.info/sct","code":"133918004"}]},"subject":{"reference":"Patient/eea9698a-bf0d-4128-afc2-a646062acbef"},"authoredOn":"2025-12-04T08:00:00+00:00"},"request":{"method":"PUT","url":"ServiceRequest/542a6223-937e-4633-9a8e-ab3a53ee45a0"}},{"fullUrl":"https://madie.cms.gov/Coverage/5fa040eb1c76ba66d9958efe","resource":{"resourceType":"Coverage","id":"1aacb1c9-4f17-4079-8909-97a288c5870a","status":"active","beneficiary":{"reference":"Patient/eea9698a-bf0d-4128-afc2-a646062acbef"},"period":{"start":"1974-03-03T08:00:00+00:00"},"payor":[{"reference":"Organization/5224cb12-ed64-4d6d-ab28-40a64f0800f1"}]},"request":{"method":"PUT","url":"Coverage/1aacb1c9-4f17-4079-8909-97a288c5870a"}},{"fullUrl":"https://madie.cms.gov/Location/intensive-care-unit-02b9","resource":{"resourceType":"Location","id":"a379d5fa-f70c-4896-b816-bd2b130f2fd0","meta":{"profile":["http://hl7.org/fhir/us/qicore/StructureDefinition/qicore-location"]},"identifier":[{"use":"usual","system":"http://exampleoflocation.com","value":"B1-S.F2"}],"name":"Medical Surgical East, first floor","type":[{"coding":[{"system":"https://www.cdc.gov/nhsn/cdaportal/terminology/codesystem/hsloc.html","code":"1025-6","display":"Trauma Critical Care","userSelected":true}]}]},"request":{"method":"PUT","url":"Location/a379d5fa-f70c-4896-b816-bd2b130f2fd0"}},{"fullUrl":"https://madie.cms.gov/Organization/123456","resource":{"resourceType":"Organization","id":"5224cb12-ed64-4d6d-ab28-40a64f0800f1","meta":{"profile":["http://hl7.org/fhir/us/qicore/StructureDefinition/qicore-organization"]},"identifier":[{"use":"temp","system":"urn:oid:2.16.840.1.113883.4.4","value":"21-3259825"}],"active":true,"type":[{"coding":[{"system":"http://terminology.hl7.org/CodeSystem/organization-type","code":"pay","display":"Payer"}]}],"name":"Blue Cross Blue Shield of Texas","telecom":[{"system":"phone","value":"(+1) 972-766-6900"}],"address":[{"use":"billing","type":"postal","line":["P.O. Box 660044"],"city":"Dallas","state":"TX","postalCode":"75266-0044","country":"USA"}]},"request":{"method":"PUT","url":"Organization/5224cb12-ed64-4d6d-ab28-40a64f0800f1"}},{"fullUrl":"https://madie.cms.gov/Practitioner/practitioner-123456","resource":{"resourceType":"Practitioner","id":"8eac8c38-843c-40ce-8d64-526eccbf1ca2","identifier":[{"system":"http://hl7.org/fhir/sid/us-npi","value":"123456"}],"name":[{"family":"Evil","prefix":["Dr"]}]},"request":{"method":"PUT","url":"Practitioner/8eac8c38-843c-40ce-8d64-526eccbf1ca2"}},{"fullUrl":"https://madie.cms.gov/MeasureReport/adae0aa7-77f2-447c-befa-6814bd3af9d3","resource":{"resourceType":"MeasureReport","id":"adae0aa7-77f2-447c-befa-6814bd3af9d3","meta":{"profile":["http://hl7.org/fhir/us/cqfmeasures/StructureDefinition/test-case-cqfm"]},"contained":[{"resourceType":"Parameters","id":"725435a1-30e2-4ac4-ad2c-232bf0192341-parameters","parameter":[{"name":"subject","valueString":"eea9698a-bf0d-4128-afc2-a646062acbef"}]}],"extension":[{"url":"http://hl7.org/fhir/us/cqfmeasures/StructureDefinition/cqfm-inputParameters","valueReference":{"reference":"#725435a1-30e2-4ac4-ad2c-232bf0192341-parameters"}},{"url":"http://hl7.org/fhir/us/cqfmeasures/StructureDefinition/cqfm-testCaseDescription","valueMarkdown":"comfort measures order starts during IP encounter, 1 minute before ICU admission\n"}],"modifierExtension":[{"url":"http://hl7.org/fhir/us/cqfmeasures/StructureDefinition/cqfm-isTestCase","valueBoolean":true}],"status":"complete","type":"individual","measure":"https://madie.cms.gov/Measure/IntensiveCareUnitVenousThromboembolismProphylaxisFHIR","period":{"start":"2025-01-01","end":"2025-12-31"},"group":[{"population":[{"code":{"coding":[{"system":"http://terminology.hl7.org/CodeSystem/measure-population","code":"initial-population","display":"Initial Population"}]},"count":1},{"code":{"coding":[{"system":"http://terminology.hl7.org/CodeSystem/measure-population","code":"denominator","display":"Denominator"}]},"count":1},{"code":{"coding":[{"system":"http://terminology.hl7.org/CodeSystem/measure-population","code":"denominator-exclusion","display":"Denominator Exclusion"}]},"count":1},{"code":{"coding":[{"system":"http://terminology.hl7.org/CodeSystem/measure-population","code":"numerator","display":"Numerator"}]},"count":0},{"code":{"coding":[{"system":"http://terminology.hl7.org/CodeSystem/measure-population","code":"denominator-exception","display":"Denominator Exception"}]},"count":0}]}]},"request":{"method":"PUT","url":"MeasureReport/adae0aa7-77f2-447c-befa-6814bd3af9d3"}}]}