{"resourceType":"Bundle","id":"tests-5109af7f-4d95-4372-8857-71d800f53100-bundle","type":"transaction","entry":[{"fullUrl":"https://madie.cms.gov/Patient/5109af7f-4d95-4372-8857-71d800f53100","resource":{"resourceType":"Patient","id":"5109af7f-4d95-4372-8857-71d800f53100","meta":{"profile":["http://hl7.org/fhir/us/qicore/StructureDefinition/qicore-patient"]},"text":{"status":"generated","div":"<div xmlns=\"http://www.w3.org/1999/xhtml\"><div class=\"hapiHeaderText\">MedReasonMOInjXaDOIPCOnAnesEndTime <b>NUMERPASS </b></div><table class=\"hapiPropertyTable\"><tbody><tr><td>Identifier</td><td>2e65528d235225a29036bb2a5e6ef1d4</td></tr><tr><td>Date of birth</td><td><span>02 January 1974</span></td></tr></tbody></table></div>"},"extension":[{"url":"http://hl7.org/fhir/us/core/StructureDefinition/us-core-race","extension":[{"url":"ombCategory","valueCoding":{"system":"urn:oid:2.16.840.1.113883.6.238","code":"1002-5","display":"American Indian or Alaska Native","userSelected":true}},{"url":"text","valueString":"American Indian or Alaska Native"}]},{"url":"http://hl7.org/fhir/us/core/StructureDefinition/us-core-ethnicity","extension":[{"url":"ombCategory","valueCoding":{"system":"urn:oid:2.16.840.1.113883.6.238","code":"2135-2","display":"Hispanic or Latino","userSelected":true}},{"url":"text","valueString":"Hispanic or Latino"}]}],"identifier":[{"type":{"coding":[{"system":"http://terminology.hl7.org/CodeSystem/v2-0203","code":"MR"}]},"system":"https://bonnie-fhir.healthit.gov/","value":"612e6a9302c62a011f2ea6da"}],"active":true,"name":[{"use":"usual","family":"NUMERPass","given":["MedReasonMOInjXaDOIPCOnAnesEndTime"]}],"gender":"male","birthDate":"1974-01-02"},"request":{"method":"PUT","url":"Patient/5109af7f-4d95-4372-8857-71d800f53100"}},{"fullUrl":"https://madie.cms.gov/Encounter/5ca6295fb8484628b8de1dd5","resource":{"resourceType":"Encounter","id":"34b4112a-cb9e-493d-a93c-87d2a31be7e8","meta":{"profile":["http://hl7.org/fhir/us/qicore/StructureDefinition/qicore-encounter"]},"status":"finished","class":{"system":"http://terminology.hl7.org/CodeSystem/v3-ActCode","code":"IMP","display":"inpatient encounter"},"type":[{"coding":[{"system":"http://snomed.info/sct","code":"8715000"}]}],"subject":{"reference":"Patient/5109af7f-4d95-4372-8857-71d800f53100"},"period":{"start":"2025-11-01T08:00:00+00:00","end":"2025-11-26T08:15:00+00:00"},"length":{"value":25.0,"unit":"days"},"location":[{"location":{"reference":"Location/intensive-care-unit-2312"},"period":{"start":"2025-11-01T09:00:00.000+00:00","end":"2025-11-02T08:15:00.000+00:00"}}]},"request":{"method":"PUT","url":"Encounter/34b4112a-cb9e-493d-a93c-87d2a31be7e8"}},{"fullUrl":"https://madie.cms.gov/Coverage/5fa041501c76ba66d99591f3","resource":{"resourceType":"Coverage","id":"a5de78d1-b250-4afb-acd5-89dff43d0a4b","status":"active","beneficiary":{"reference":"Patient/5109af7f-4d95-4372-8857-71d800f53100"},"period":{"start":"1974-01-02T08:00:00+00:00"},"payor":[{"reference":"Organization/41c75c00-82d9-4ab2-98f6-cfaf7fc3381d"}]},"request":{"method":"PUT","url":"Coverage/a5de78d1-b250-4afb-acd5-89dff43d0a4b"}},{"fullUrl":"https://madie.cms.gov/ServiceRequest/intermittent-pneumatic-compression-devices-ipc-8a2e","resource":{"resourceType":"ServiceRequest","id":"c7953c97-c940-4421-9e71-aa2ba360c409","meta":{"profile":["http://hl7.org/fhir/us/qicore/StructureDefinition/qicore-servicenotrequested"]},"extension":[{"url":"http://hl7.org/fhir/us/qicore/StructureDefinition/qicore-doNotPerformReason","valueCodeableConcept":{"coding":[{"system":"http://snomed.info/sct","code":"183932001","display":"Procedure contraindicated (situation)"}]}}],"status":"completed","intent":"order","doNotPerform":true,"code":{"coding":[{"system":"http://snomed.info/sct","code":"428411000124104","display":"Intermittent pneumatic compression boot (physical object)","userSelected":true}]},"subject":{"reference":"Patient/5109af7f-4d95-4372-8857-71d800f53100"},"authoredOn":"2025-11-02T09:15:00+00:00"},"request":{"method":"PUT","url":"ServiceRequest/c7953c97-c940-4421-9e71-aa2ba360c409"}},{"fullUrl":"https://madie.cms.gov/MedicationRequest/5ca6295fb8484628b8de1dd7","resource":{"resourceType":"MedicationRequest","id":"081d5549-81e2-4cb0-b640-21ef25c6bc6a","meta":{"profile":["http://hl7.org/fhir/us/qicore/StructureDefinition/qicore-mednotrequested"]},"status":"completed","intent":"order","category":[{"coding":[{"system":"http://terminology.hl7.org/CodeSystem/medicationrequest-category","code":"community"}]}],"doNotPerform":true,"medicationCodeableConcept":{"coding":[{"system":"http://www.nlm.nih.gov/research/umls/rxnorm","code":"861363"}]},"subject":{"reference":"Patient/5109af7f-4d95-4372-8857-71d800f53100"},"authoredOn":"2025-11-02T09:15:00+00:00","requester":{"reference":"Practitioner/123456"},"reasonCode":[{"coding":[{"system":"http://snomed.info/sct","code":"183932001","display":"Procedure contraindicated (situation)","userSelected":true}]}],"dosageInstruction":[{"timing":{"repeat":{"boundsPeriod":{"start":"2025-11-03T09:00:00+00:00"}}}}]},"request":{"method":"PUT","url":"MedicationRequest/081d5549-81e2-4cb0-b640-21ef25c6bc6a"}},{"fullUrl":"https://madie.cms.gov/Procedure/5ca6295fb8484628b8de1dd8","resource":{"resourceType":"Procedure","id":"4bb18f41-3249-4f4b-a63b-c4b87af6fb4e","meta":{"profile":["http://hl7.org/fhir/us/qicore/StructureDefinition/qicore-procedure"]},"extension":[{"url":"http://hl7.org/fhir/us/qicore/StructureDefinition/qicore-recorded","valueDateTime":"2012-11-04T09:35:00-04:00"}],"status":"completed","code":{"coding":[{"system":"http://snomed.info/sct","code":"18946005"}]},"subject":{"reference":"Patient/5109af7f-4d95-4372-8857-71d800f53100"},"performedPeriod":{"start":"2025-11-02T09:00:00+00:00","end":"2025-11-02T09:15:00+00:00"}},"request":{"method":"PUT","url":"Procedure/4bb18f41-3249-4f4b-a63b-c4b87af6fb4e"}},{"fullUrl":"https://madie.cms.gov/Location/intensive-care-unit-2312","resource":{"resourceType":"Location","id":"59b1eb20-c9a0-4b8a-8225-bb2df3c5e531","meta":{"profile":["http://hl7.org/fhir/us/qicore/StructureDefinition/qicore-location"]},"identifier":[{"use":"usual","system":"http://exampleoflocation.com","value":"B1-S.F2"}],"name":"Medical Surgical East, first floor","type":[{"coding":[{"system":"https://www.cdc.gov/nhsn/cdaportal/terminology/codesystem/hsloc.html","code":"1025-6","display":"Trauma Critical Care","userSelected":true}]}]},"request":{"method":"PUT","url":"Location/59b1eb20-c9a0-4b8a-8225-bb2df3c5e531"}},{"fullUrl":"https://madie.cms.gov/Organization/123456","resource":{"resourceType":"Organization","id":"41c75c00-82d9-4ab2-98f6-cfaf7fc3381d","meta":{"profile":["http://hl7.org/fhir/us/qicore/StructureDefinition/qicore-organization"]},"identifier":[{"use":"temp","system":"urn:oid:2.16.840.1.113883.4.4","value":"21-3259825"}],"active":true,"type":[{"coding":[{"system":"http://terminology.hl7.org/CodeSystem/organization-type","code":"pay","display":"Payer"}]}],"name":"Blue Cross Blue Shield of Texas","telecom":[{"system":"phone","value":"(+1) 972-766-6900"}],"address":[{"use":"billing","type":"postal","line":["P.O. Box 660044"],"city":"Dallas","state":"TX","postalCode":"75266-0044","country":"USA"}]},"request":{"method":"PUT","url":"Organization/41c75c00-82d9-4ab2-98f6-cfaf7fc3381d"}},{"fullUrl":"https://madie.cms.gov/Practitioner/practitioner-123456","resource":{"resourceType":"Practitioner","id":"b30e53c7-aba1-4c10-9059-9f712b1ac5c4","identifier":[{"system":"http://hl7.org/fhir/sid/us-npi","value":"123456"}],"name":[{"family":"Evil","prefix":["Dr"]}]},"request":{"method":"PUT","url":"Practitioner/b30e53c7-aba1-4c10-9059-9f712b1ac5c4"}},{"fullUrl":"https://madie.cms.gov/MeasureReport/b73b56a8-40af-4503-8b7c-a38f4d4b40ac","resource":{"resourceType":"MeasureReport","id":"b73b56a8-40af-4503-8b7c-a38f4d4b40ac","meta":{"profile":["http://hl7.org/fhir/us/cqfmeasures/StructureDefinition/test-case-cqfm"]},"contained":[{"resourceType":"Parameters","id":"f18b318d-f8a5-4234-bacc-58791ee38a66-parameters","parameter":[{"name":"subject","valueString":"5109af7f-4d95-4372-8857-71d800f53100"}]}],"extension":[{"url":"http://hl7.org/fhir/us/cqfmeasures/StructureDefinition/cqfm-inputParameters","valueReference":{"reference":"#f18b318d-f8a5-4234-bacc-58791ee38a66-parameters"}},{"url":"http://hl7.org/fhir/us/cqfmeasures/StructureDefinition/cqfm-testCaseDescription","valueMarkdown":"Injectable Factor Xa and IPC  not ordered dt medical reason concurrent neuraxial anesthesia\n"}],"modifierExtension":[{"url":"http://hl7.org/fhir/us/cqfmeasures/StructureDefinition/cqfm-isTestCase","valueBoolean":true}],"status":"complete","type":"individual","measure":"https://madie.cms.gov/Measure/IntensiveCareUnitVenousThromboembolismProphylaxisFHIR","period":{"start":"2025-01-01","end":"2025-12-31"},"group":[{"population":[{"code":{"coding":[{"system":"http://terminology.hl7.org/CodeSystem/measure-population","code":"initial-population","display":"Initial Population"}]},"count":1},{"code":{"coding":[{"system":"http://terminology.hl7.org/CodeSystem/measure-population","code":"denominator","display":"Denominator"}]},"count":1},{"code":{"coding":[{"system":"http://terminology.hl7.org/CodeSystem/measure-population","code":"denominator-exclusion","display":"Denominator Exclusion"}]},"count":0},{"code":{"coding":[{"system":"http://terminology.hl7.org/CodeSystem/measure-population","code":"numerator","display":"Numerator"}]},"count":1},{"code":{"coding":[{"system":"http://terminology.hl7.org/CodeSystem/measure-population","code":"denominator-exception","display":"Denominator Exception"}]},"count":0}]}]},"request":{"method":"PUT","url":"MeasureReport/b73b56a8-40af-4503-8b7c-a38f4d4b40ac"}}]}