{"resourceType":"Bundle","id":"tests-64353924-37ba-4a43-b651-ceb3a0fa7f29-bundle","type":"transaction","entry":[{"fullUrl":"https://madie.cms.gov/Patient/64353924-37ba-4a43-b651-ceb3a0fa7f29","resource":{"resourceType":"Patient","id":"64353924-37ba-4a43-b651-ceb3a0fa7f29","meta":{"profile":["http://hl7.org/fhir/us/qicore/StructureDefinition/qicore-patient"]},"text":{"status":"generated","div":"<div xmlns=\"http://www.w3.org/1999/xhtml\"><div class=\"hapiHeaderText\">Age18AfterEncStart <b>IPFAIL </b></div><table class=\"hapiPropertyTable\"><tbody><tr><td>Identifier</td><td>a13f1f4498c2fb92e48e2a73c439593d</td></tr><tr><td>Date of birth</td><td><span>02 December 2003</span></td></tr></tbody></table></div>"},"extension":[{"url":"http://hl7.org/fhir/us/core/StructureDefinition/us-core-race","extension":[{"url":"ombCategory","valueCoding":{"system":"urn:oid:2.16.840.1.113883.6.238","code":"1002-5","display":"American Indian or Alaska Native","userSelected":true}},{"url":"text","valueString":"American Indian or Alaska Native"}]},{"url":"http://hl7.org/fhir/us/core/StructureDefinition/us-core-ethnicity","extension":[{"url":"ombCategory","valueCoding":{"system":"urn:oid:2.16.840.1.113883.6.238","code":"2135-2","display":"Hispanic or Latino","userSelected":true}},{"url":"text","valueString":"Hispanic or Latino"}]}],"identifier":[{"type":{"coding":[{"system":"http://terminology.hl7.org/CodeSystem/v2-0203","code":"MR"}]},"system":"https://bonnie-fhir.healthit.gov/","value":"612e6eaa02c62a011f2ef349"}],"active":true,"name":[{"use":"usual","family":"IPFail ","given":["Age18AfterEncStart"]}],"gender":"male","birthDate":"2007-12-02"},"request":{"method":"PUT","url":"Patient/64353924-37ba-4a43-b651-ceb3a0fa7f29"}},{"fullUrl":"https://madie.cms.gov/Encounter/5ce8096cb848467c29eaf07f","resource":{"resourceType":"Encounter","id":"a596ec31-bf69-47e5-bfa2-ddafdcbb9433","meta":{"profile":["http://hl7.org/fhir/us/qicore/StructureDefinition/qicore-encounter"]},"status":"finished","class":{"system":"http://terminology.hl7.org/CodeSystem/v3-ActCode","code":"IMP","display":"inpatient encounter"},"type":[{"coding":[{"system":"http://snomed.info/sct","code":"8715000"}]}],"subject":{"reference":"Patient/64353924-37ba-4a43-b651-ceb3a0fa7f29"},"period":{"start":"2025-12-01T00:00:00+00:00","end":"2025-12-31T23:59:00+00:00"},"length":{"value":30.0,"unit":"days"}},"request":{"method":"PUT","url":"Encounter/a596ec31-bf69-47e5-bfa2-ddafdcbb9433"}},{"fullUrl":"https://madie.cms.gov/Coverage/5fa040ea1c76ba66d9958eec","resource":{"resourceType":"Coverage","id":"eccb7eaf-61cb-4bbb-87ca-14d774fda582","status":"active","beneficiary":{"reference":"Patient/64353924-37ba-4a43-b651-ceb3a0fa7f29"},"period":{"start":"2003-12-02T23:59:00+00:00"},"payor":[{"reference":"Organization/80e3e0d1-b2aa-43a6-b1d2-00bfa3164a0f"}]},"request":{"method":"PUT","url":"Coverage/eccb7eaf-61cb-4bbb-87ca-14d774fda582"}},{"fullUrl":"https://madie.cms.gov/Organization/123456","resource":{"resourceType":"Organization","id":"80e3e0d1-b2aa-43a6-b1d2-00bfa3164a0f","meta":{"profile":["http://hl7.org/fhir/us/qicore/StructureDefinition/qicore-organization"]},"identifier":[{"use":"temp","system":"urn:oid:2.16.840.1.113883.4.4","value":"21-3259825"}],"active":true,"type":[{"coding":[{"system":"http://terminology.hl7.org/CodeSystem/organization-type","code":"pay","display":"Payer"}]}],"name":"Blue Cross Blue Shield of Texas","telecom":[{"system":"phone","value":"(+1) 972-766-6900"}],"address":[{"use":"billing","type":"postal","line":["P.O. Box 660044"],"city":"Dallas","state":"TX","postalCode":"75266-0044","country":"USA"}]},"request":{"method":"PUT","url":"Organization/80e3e0d1-b2aa-43a6-b1d2-00bfa3164a0f"}},{"fullUrl":"https://madie.cms.gov/Practitioner/practitioner-123456","resource":{"resourceType":"Practitioner","id":"bf48bd46-2881-4409-819e-a0614a84cf18","identifier":[{"system":"http://hl7.org/fhir/sid/us-npi","value":"123456"}],"name":[{"family":"Evil","prefix":["Dr"]}]},"request":{"method":"PUT","url":"Practitioner/bf48bd46-2881-4409-819e-a0614a84cf18"}},{"fullUrl":"https://madie.cms.gov/MeasureReport/ee819aba-9c83-498f-b2d1-5ac2b42bb49f","resource":{"resourceType":"MeasureReport","id":"ee819aba-9c83-498f-b2d1-5ac2b42bb49f","meta":{"profile":["http://hl7.org/fhir/us/cqfmeasures/StructureDefinition/test-case-cqfm"]},"contained":[{"resourceType":"Parameters","id":"b00563e6-4ef6-45bd-a05b-f776268df88e-parameters","parameter":[{"name":"subject","valueString":"64353924-37ba-4a43-b651-ceb3a0fa7f29"}]}],"extension":[{"url":"http://hl7.org/fhir/us/cqfmeasures/StructureDefinition/cqfm-inputParameters","valueReference":{"reference":"#b00563e6-4ef6-45bd-a05b-f776268df88e-parameters"}},{"url":"http://hl7.org/fhir/us/cqfmeasures/StructureDefinition/cqfm-testCaseDescription","valueMarkdown":"Patient turns 18 on the day after admission\n"}],"modifierExtension":[{"url":"http://hl7.org/fhir/us/cqfmeasures/StructureDefinition/cqfm-isTestCase","valueBoolean":true}],"status":"complete","type":"individual","measure":"https://madie.cms.gov/Measure/IntensiveCareUnitVenousThromboembolismProphylaxisFHIR","period":{"start":"2025-01-01","end":"2025-12-31"},"group":[{"population":[{"code":{"coding":[{"system":"http://terminology.hl7.org/CodeSystem/measure-population","code":"initial-population","display":"Initial Population"}]},"count":0},{"code":{"coding":[{"system":"http://terminology.hl7.org/CodeSystem/measure-population","code":"denominator","display":"Denominator"}]},"count":0},{"code":{"coding":[{"system":"http://terminology.hl7.org/CodeSystem/measure-population","code":"denominator-exclusion","display":"Denominator Exclusion"}]},"count":0},{"code":{"coding":[{"system":"http://terminology.hl7.org/CodeSystem/measure-population","code":"numerator","display":"Numerator"}]},"count":0},{"code":{"coding":[{"system":"http://terminology.hl7.org/CodeSystem/measure-population","code":"denominator-exception","display":"Denominator Exception"}]},"count":0}]}]},"request":{"method":"PUT","url":"MeasureReport/ee819aba-9c83-498f-b2d1-5ac2b42bb49f"}}]}