{"resourceType":"Bundle","id":"tests-4c60f97c-0043-445c-8bc0-feb3122ca35b-bundle","type":"transaction","entry":[{"fullUrl":"https://madie.cms.gov/Patient/4c60f97c-0043-445c-8bc0-feb3122ca35b","resource":{"resourceType":"Patient","id":"4c60f97c-0043-445c-8bc0-feb3122ca35b","meta":{"profile":["http://hl7.org/fhir/us/qicore/StructureDefinition/qicore-patient"]},"text":{"status":"generated","div":"<div xmlns=\"http://www.w3.org/1999/xhtml\"><div class=\"hapiHeaderText\">HipFxNotPrin <b>DENEXFAIL </b></div><table class=\"hapiPropertyTable\"><tbody><tr><td>Identifier</td><td>31862da5e01d3c5e5400146c9a207dfa</td></tr><tr><td>Date of birth</td><td><span>03 March 1974</span></td></tr></tbody></table></div>"},"extension":[{"url":"http://hl7.org/fhir/us/core/StructureDefinition/us-core-race","extension":[{"url":"ombCategory","valueCoding":{"system":"urn:oid:2.16.840.1.113883.6.238","code":"1002-5","display":"American Indian or Alaska Native","userSelected":true}},{"url":"text","valueString":"American Indian or Alaska Native"}]},{"url":"http://hl7.org/fhir/us/core/StructureDefinition/us-core-ethnicity","extension":[{"url":"ombCategory","valueCoding":{"system":"urn:oid:2.16.840.1.113883.6.238","code":"2135-2","display":"Hispanic or Latino","userSelected":true}},{"url":"text","valueString":"Hispanic or Latino"}]}],"identifier":[{"type":{"coding":[{"system":"http://terminology.hl7.org/CodeSystem/v2-0203","code":"MR"}]},"system":"https://bonnie-fhir.healthit.gov/","value":"612e6e9302c62a011f2eee8b"}],"active":true,"name":[{"use":"usual","family":"DENEXFail","given":["HipFxNotPrin"]}],"gender":"female","birthDate":"1974-03-03"},"request":{"method":"PUT","url":"Patient/4c60f97c-0043-445c-8bc0-feb3122ca35b"}},{"fullUrl":"https://madie.cms.gov/Encounter/5ce8096eb848467c29eaf10e","resource":{"resourceType":"Encounter","id":"b3c15498-5b9b-42ba-b25d-6b47c82fab78","meta":{"profile":["http://hl7.org/fhir/us/qicore/StructureDefinition/qicore-encounter"]},"status":"finished","class":{"system":"http://terminology.hl7.org/CodeSystem/v3-ActCode","code":"IMP","display":"inpatient encounter"},"type":[{"coding":[{"system":"http://snomed.info/sct","code":"8715000"}]}],"subject":{"reference":"Patient/4c60f97c-0043-445c-8bc0-feb3122ca35b"},"period":{"start":"2025-12-04T08:00:00+00:00","end":"2025-12-30T08:15:00+00:00"},"length":{"value":26.0,"unit":"days"},"location":[{"location":{"reference":"Location/intensive-care-unit-bbcc"},"period":{"start":"2025-12-06T08:00:00.000+00:00","end":"2025-12-08T08:15:00.000+00:00"}}]},"request":{"method":"PUT","url":"Encounter/b3c15498-5b9b-42ba-b25d-6b47c82fab78"}},{"fullUrl":"https://madie.cms.gov/Coverage/5fa040f41c76ba66d9958f97","resource":{"resourceType":"Coverage","id":"c0fac51c-9efb-41ef-9907-e76e5d7c100d","status":"active","beneficiary":{"reference":"Patient/4c60f97c-0043-445c-8bc0-feb3122ca35b"},"period":{"start":"1974-03-03T08:00:00+00:00"},"payor":[{"reference":"Organization/84b56847-ad40-4bf6-b612-9e42ad2a84e5"}]},"request":{"method":"PUT","url":"Coverage/c0fac51c-9efb-41ef-9907-e76e5d7c100d"}},{"fullUrl":"https://madie.cms.gov/Procedure/60380ebe5e5bfb0000d54bbf","resource":{"resourceType":"Procedure","id":"78554b61-0542-4fb6-80e2-d05f287dff91","meta":{"profile":["http://hl7.org/fhir/us/qicore/StructureDefinition/qicore-procedure"]},"extension":[{"url":"http://hl7.org/fhir/us/qicore/StructureDefinition/qicore-recorded","valueDateTime":"2012-12-06T09:35:00-04:00"}],"status":"completed","code":{"coding":[{"system":"http://www.cms.gov/Medicare/Coding/ICD10","code":"0SQ90ZZ"}]},"subject":{"reference":"Patient/4c60f97c-0043-445c-8bc0-feb3122ca35b"},"performedPeriod":{"start":"2025-12-06T08:15:00+00:00","end":"2025-12-06T11:15:00+00:00"}},"request":{"method":"PUT","url":"Procedure/78554b61-0542-4fb6-80e2-d05f287dff91"}},{"fullUrl":"https://madie.cms.gov/Location/intensive-care-unit-bbcc","resource":{"resourceType":"Location","id":"f8c693b5-7090-4390-954c-453950787c10","meta":{"profile":["http://hl7.org/fhir/us/qicore/StructureDefinition/qicore-location"]},"identifier":[{"use":"usual","system":"http://exampleoflocation.com","value":"B1-S.F2"}],"name":"Medical Surgical East, first floor","type":[{"coding":[{"system":"https://www.cdc.gov/nhsn/cdaportal/terminology/codesystem/hsloc.html","code":"1025-6","display":"Trauma Critical Care","userSelected":true}]}]},"request":{"method":"PUT","url":"Location/f8c693b5-7090-4390-954c-453950787c10"}},{"fullUrl":"https://madie.cms.gov/Organization/123456","resource":{"resourceType":"Organization","id":"84b56847-ad40-4bf6-b612-9e42ad2a84e5","meta":{"profile":["http://hl7.org/fhir/us/qicore/StructureDefinition/qicore-organization"]},"identifier":[{"use":"temp","system":"urn:oid:2.16.840.1.113883.4.4","value":"21-3259825"}],"active":true,"type":[{"coding":[{"system":"http://terminology.hl7.org/CodeSystem/organization-type","code":"pay","display":"Payer"}]}],"name":"Blue Cross Blue Shield of Texas","telecom":[{"system":"phone","value":"(+1) 972-766-6900"}],"address":[{"use":"billing","type":"postal","line":["P.O. Box 660044"],"city":"Dallas","state":"TX","postalCode":"75266-0044","country":"USA"}]},"request":{"method":"PUT","url":"Organization/84b56847-ad40-4bf6-b612-9e42ad2a84e5"}},{"fullUrl":"https://madie.cms.gov/Practitioner/practitioner-123456","resource":{"resourceType":"Practitioner","id":"1d44c553-70d1-4013-8e45-42747b861823","identifier":[{"system":"http://hl7.org/fhir/sid/us-npi","value":"123456"}],"name":[{"family":"Evil","prefix":["Dr"]}]},"request":{"method":"PUT","url":"Practitioner/1d44c553-70d1-4013-8e45-42747b861823"}},{"fullUrl":"https://madie.cms.gov/MeasureReport/f1ea6299-64af-49ac-a017-6b42fc717e9e","resource":{"resourceType":"MeasureReport","id":"f1ea6299-64af-49ac-a017-6b42fc717e9e","meta":{"profile":["http://hl7.org/fhir/us/cqfmeasures/StructureDefinition/test-case-cqfm"]},"contained":[{"resourceType":"Parameters","id":"6afe37ba-0dc9-49be-9e29-1249e1953be6-parameters","parameter":[{"name":"subject","valueString":"4c60f97c-0043-445c-8bc0-feb3122ca35b"}]}],"extension":[{"url":"http://hl7.org/fhir/us/cqfmeasures/StructureDefinition/cqfm-inputParameters","valueReference":{"reference":"#6afe37ba-0dc9-49be-9e29-1249e1953be6-parameters"}},{"url":"http://hl7.org/fhir/us/cqfmeasures/StructureDefinition/cqfm-testCaseDescription","valueMarkdown":"hip fx surgery not principal \n"}],"modifierExtension":[{"url":"http://hl7.org/fhir/us/cqfmeasures/StructureDefinition/cqfm-isTestCase","valueBoolean":true}],"status":"complete","type":"individual","measure":"https://madie.cms.gov/Measure/IntensiveCareUnitVenousThromboembolismProphylaxisFHIR","period":{"start":"2025-01-01","end":"2025-12-31"},"group":[{"population":[{"code":{"coding":[{"system":"http://terminology.hl7.org/CodeSystem/measure-population","code":"initial-population","display":"Initial Population"}]},"count":1},{"code":{"coding":[{"system":"http://terminology.hl7.org/CodeSystem/measure-population","code":"denominator","display":"Denominator"}]},"count":1},{"code":{"coding":[{"system":"http://terminology.hl7.org/CodeSystem/measure-population","code":"denominator-exclusion","display":"Denominator Exclusion"}]},"count":0},{"code":{"coding":[{"system":"http://terminology.hl7.org/CodeSystem/measure-population","code":"numerator","display":"Numerator"}]},"count":0},{"code":{"coding":[{"system":"http://terminology.hl7.org/CodeSystem/measure-population","code":"denominator-exception","display":"Denominator Exception"}]},"count":0}]}]},"request":{"method":"PUT","url":"MeasureReport/f1ea6299-64af-49ac-a017-6b42fc717e9e"}}]}