{"resourceType":"Bundle","id":"tests-d665c40d-2323-471f-9642-983472d2be7b-bundle","type":"transaction","entry":[{"fullUrl":"https://madie.cms.gov/Patient/d665c40d-2323-471f-9642-983472d2be7b","resource":{"resourceType":"Patient","id":"d665c40d-2323-471f-9642-983472d2be7b","meta":{"profile":["http://hl7.org/fhir/us/qicore/StructureDefinition/qicore-patient"]},"text":{"status":"generated","div":"<div xmlns=\"http://www.w3.org/1999/xhtml\"><div class=\"hapiHeaderText\">GeneralSurgeryEndsDayOfAfterICUStart <b>DENEXPASS </b></div><table class=\"hapiPropertyTable\"><tbody><tr><td>Identifier</td><td>9214f043f436048cfea186089d4ffb3f1663d62344799d81208efc969b033c47</td></tr><tr><td>Date of birth</td><td><span>03 March 1974</span></td></tr></tbody></table></div>"},"extension":[{"url":"http://hl7.org/fhir/us/core/StructureDefinition/us-core-race","extension":[{"url":"ombCategory","valueCoding":{"system":"urn:oid:2.16.840.1.113883.6.238","code":"1002-5","display":"American Indian or Alaska Native","userSelected":true}},{"url":"text","valueString":"American Indian or Alaska Native"}]},{"url":"http://hl7.org/fhir/us/core/StructureDefinition/us-core-ethnicity","extension":[{"url":"ombCategory","valueCoding":{"system":"urn:oid:2.16.840.1.113883.6.238","code":"2135-2","display":"Hispanic or Latino","userSelected":true}},{"url":"text","valueString":"Hispanic or Latino"}]}],"identifier":[{"type":{"coding":[{"system":"http://terminology.hl7.org/CodeSystem/v2-0203","code":"MR"}]},"system":"https://bonnie-fhir.healthit.gov/","value":"612e6f6202c62a011f2f1a06"}],"active":true,"name":[{"use":"usual","family":"DENEXPass","given":["GeneralSurgeryEndsDayOfAfterICUStart"]}],"gender":"male","birthDate":"1974-03-03"},"request":{"method":"PUT","url":"Patient/d665c40d-2323-471f-9642-983472d2be7b"}},{"fullUrl":"https://madie.cms.gov/Encounter/5ce80971b848467c29eaf2a1","resource":{"resourceType":"Encounter","id":"eed5c354-44ec-4fc2-886c-d897ac344214","meta":{"profile":["http://hl7.org/fhir/us/qicore/StructureDefinition/qicore-encounter"]},"extension":[{"url":"http://hl7.org/fhir/us/qicore/StructureDefinition/qicore-encounter-procedure","extension":[{"url":"type","valueCodeableConcept":{"coding":[{"system":"http://www.cms.gov/Medicare/Coding/ICD10","code":"0U500ZZ"}]}},{"url":"rank","valuePositiveInt":1},{"url":"procedure","valueReference":{"reference":"Procedure/5ce80971b848467c29eaf2a2"}}]}],"status":"finished","class":{"system":"http://terminology.hl7.org/CodeSystem/v3-ActCode","code":"IMP","display":"inpatient encounter"},"type":[{"coding":[{"system":"http://snomed.info/sct","code":"8715000"}]}],"subject":{"reference":"Patient/d665c40d-2323-471f-9642-983472d2be7b"},"period":{"start":"2025-12-04T08:00:00+00:00","end":"2025-12-30T08:15:00+00:00"},"length":{"value":26.0,"unit":"days"},"location":[{"location":{"reference":"Location/intensive-care-unit-02b6"},"period":{"start":"2025-12-06T05:00:00+00:00","end":"2025-12-28T08:15:00.000+00:00"}}]},"request":{"method":"PUT","url":"Encounter/eed5c354-44ec-4fc2-886c-d897ac344214"}},{"fullUrl":"https://madie.cms.gov/Coverage/5fa041061c76ba66d99590e4","resource":{"resourceType":"Coverage","id":"690e9413-b1b9-4d8d-8b32-ebf9c8fbb125","status":"active","beneficiary":{"reference":"Patient/d665c40d-2323-471f-9642-983472d2be7b"},"period":{"start":"1974-03-03T08:00:00+00:00"},"payor":[{"reference":"Organization/41c75c00-82d9-4ab2-98f6-cfaf7fc3381d"}]},"request":{"method":"PUT","url":"Coverage/690e9413-b1b9-4d8d-8b32-ebf9c8fbb125"}},{"fullUrl":"https://madie.cms.gov/Procedure/5ce80971b848467c29eaf2a2","resource":{"resourceType":"Procedure","id":"3588788c-b0a2-4098-beb8-54cb70238f88","meta":{"profile":["http://hl7.org/fhir/us/qicore/StructureDefinition/qicore-procedure"]},"extension":[{"url":"http://hl7.org/fhir/us/qicore/StructureDefinition/qicore-recorded","valueDateTime":"2012-12-04T09:35:00-04:00"}],"status":"completed","code":{"coding":[{"system":"http://www.cms.gov/Medicare/Coding/ICD10","code":"0U500ZZ"}]},"subject":{"reference":"Patient/d665c40d-2323-471f-9642-983472d2be7b"},"performedPeriod":{"start":"2025-12-06T07:00:00+00:00","end":"2025-12-06T13:00:00+00:00"}},"request":{"method":"PUT","url":"Procedure/3588788c-b0a2-4098-beb8-54cb70238f88"}},{"fullUrl":"https://madie.cms.gov/Location/intensive-care-unit-02b6","resource":{"resourceType":"Location","id":"6b656ff5-f7f6-465e-a4ba-0a6b19f060db","meta":{"profile":["http://hl7.org/fhir/us/qicore/StructureDefinition/qicore-location"]},"identifier":[{"use":"usual","system":"http://exampleoflocation.com","value":"B1-S.F2"}],"name":"Medical Surgical East, first floor","type":[{"coding":[{"system":"https://www.cdc.gov/nhsn/cdaportal/terminology/codesystem/hsloc.html","code":"1025-6","display":"Trauma Critical Care","userSelected":true}]}]},"request":{"method":"PUT","url":"Location/6b656ff5-f7f6-465e-a4ba-0a6b19f060db"}},{"fullUrl":"https://madie.cms.gov/Organization/123456","resource":{"resourceType":"Organization","id":"41c75c00-82d9-4ab2-98f6-cfaf7fc3381d","meta":{"profile":["http://hl7.org/fhir/us/qicore/StructureDefinition/qicore-organization"]},"identifier":[{"use":"temp","system":"urn:oid:2.16.840.1.113883.4.4","value":"21-3259825"}],"active":true,"type":[{"coding":[{"system":"http://terminology.hl7.org/CodeSystem/organization-type","code":"pay","display":"Payer"}]}],"name":"Blue Cross Blue Shield of Texas","telecom":[{"system":"phone","value":"(+1) 972-766-6900"}],"address":[{"use":"billing","type":"postal","line":["P.O. Box 660044"],"city":"Dallas","state":"TX","postalCode":"75266-0044","country":"USA"}]},"request":{"method":"PUT","url":"Organization/41c75c00-82d9-4ab2-98f6-cfaf7fc3381d"}},{"fullUrl":"https://madie.cms.gov/Practitioner/practitioner-123456","resource":{"resourceType":"Practitioner","id":"9f78e927-ce7b-4cd5-8f6c-5dd61e02def2","identifier":[{"system":"http://hl7.org/fhir/sid/us-npi","value":"123456"}],"name":[{"family":"Evil","prefix":["Dr"]}]},"request":{"method":"PUT","url":"Practitioner/9f78e927-ce7b-4cd5-8f6c-5dd61e02def2"}},{"fullUrl":"https://madie.cms.gov/MeasureReport/89eda95b-cae8-4b25-a511-919e4911142b","resource":{"resourceType":"MeasureReport","id":"89eda95b-cae8-4b25-a511-919e4911142b","meta":{"profile":["http://hl7.org/fhir/us/cqfmeasures/StructureDefinition/test-case-cqfm"]},"contained":[{"resourceType":"Parameters","id":"0b087dad-c3b5-4c73-a371-c356f49779e9-parameters","parameter":[{"name":"subject","valueString":"d665c40d-2323-471f-9642-983472d2be7b"}]}],"extension":[{"url":"http://hl7.org/fhir/us/cqfmeasures/StructureDefinition/cqfm-inputParameters","valueReference":{"reference":"#0b087dad-c3b5-4c73-a371-c356f49779e9-parameters"}},{"url":"http://hl7.org/fhir/us/cqfmeasures/StructureDefinition/cqfm-testCaseDescription","valueMarkdown":"gynecological surgery ends same day after start of ICU admission. \n"}],"modifierExtension":[{"url":"http://hl7.org/fhir/us/cqfmeasures/StructureDefinition/cqfm-isTestCase","valueBoolean":true}],"status":"complete","type":"individual","measure":"https://madie.cms.gov/Measure/IntensiveCareUnitVenousThromboembolismProphylaxisFHIR","period":{"start":"2025-01-01","end":"2025-12-31"},"group":[{"population":[{"code":{"coding":[{"system":"http://terminology.hl7.org/CodeSystem/measure-population","code":"initial-population","display":"Initial Population"}]},"count":1},{"code":{"coding":[{"system":"http://terminology.hl7.org/CodeSystem/measure-population","code":"denominator","display":"Denominator"}]},"count":1},{"code":{"coding":[{"system":"http://terminology.hl7.org/CodeSystem/measure-population","code":"denominator-exclusion","display":"Denominator Exclusion"}]},"count":1},{"code":{"coding":[{"system":"http://terminology.hl7.org/CodeSystem/measure-population","code":"numerator","display":"Numerator"}]},"count":0},{"code":{"coding":[{"system":"http://terminology.hl7.org/CodeSystem/measure-population","code":"denominator-exception","display":"Denominator Exception"}]},"count":0}]}]},"request":{"method":"PUT","url":"MeasureReport/89eda95b-cae8-4b25-a511-919e4911142b"}}]}