{"resourceType":"Bundle","id":"tests-f8f09c1f-37fc-4088-a39d-710971b626b7-bundle","type":"transaction","entry":[{"fullUrl":"https://madie.cms.gov/Patient/f8f09c1f-37fc-4088-a39d-710971b626b7","resource":{"resourceType":"Patient","id":"f8f09c1f-37fc-4088-a39d-710971b626b7","meta":{"profile":["http://hl7.org/fhir/us/qicore/StructureDefinition/qicore-patient"]},"text":{"status":"generated","div":"<div xmlns=\"http://www.w3.org/1999/xhtml\"><div class=\"hapiHeaderText\">CMOPerf1minB4EDEDGT1hBFAdm<b>DENEXPASS </b></div><table class=\"hapiPropertyTable\"><tbody><tr><td>Identifier</td><td>a87f61f9ee97e4d61378f0c75a641367aa32c8b61235755a5325165362b79a51</td></tr><tr><td>Date of birth</td><td><span>03 March 1974</span></td></tr></tbody></table></div>"},"extension":[{"url":"http://hl7.org/fhir/us/core/StructureDefinition/us-core-race","extension":[{"url":"ombCategory","valueCoding":{"system":"urn:oid:2.16.840.1.113883.6.238","code":"1002-5","display":"American Indian or Alaska Native","userSelected":true}},{"url":"text","valueString":"American Indian or Alaska Native"}]},{"url":"http://hl7.org/fhir/us/core/StructureDefinition/us-core-ethnicity","extension":[{"url":"ombCategory","valueCoding":{"system":"urn:oid:2.16.840.1.113883.6.238","code":"2135-2","display":"Hispanic or Latino","userSelected":true}},{"url":"text","valueString":"Hispanic or Latino"}]}],"identifier":[{"type":{"coding":[{"system":"http://terminology.hl7.org/CodeSystem/v2-0203","code":"MR"}]},"system":"https://bonnie-fhir.healthit.gov/","value":"612e6e7b02c62a011f2ee895"}],"active":true,"name":[{"use":"usual","family":"DENEXPass","given":["CMOPerf1minB4EDEDGT1hBFAdm"]}],"gender":"female","birthDate":"1974-03-03"},"request":{"method":"PUT","url":"Patient/f8f09c1f-37fc-4088-a39d-710971b626b7"}},{"fullUrl":"https://madie.cms.gov/Encounter/5ce80971b848467c29eaf2b0","resource":{"resourceType":"Encounter","id":"6798536e-86d1-4131-8170-a9838f143ce4","meta":{"profile":["http://hl7.org/fhir/us/qicore/StructureDefinition/qicore-encounter"]},"status":"finished","class":{"system":"http://terminology.hl7.org/CodeSystem/v3-ActCode","code":"EMER","display":"emergency"},"type":[{"coding":[{"system":"http://snomed.info/sct","code":"4525004"}]}],"subject":{"reference":"Patient/f8f09c1f-37fc-4088-a39d-710971b626b7"},"period":{"start":"2025-12-04T06:00:00+00:00","end":"2025-12-04T06:30:00+00:00"},"length":{"value":0.0,"unit":"days"}},"request":{"method":"PUT","url":"Encounter/6798536e-86d1-4131-8170-a9838f143ce4"}},{"fullUrl":"https://madie.cms.gov/Encounter/5ce80971b848467c29eaf2b1","resource":{"resourceType":"Encounter","id":"75c9b767-ce24-432c-a415-ef5dd7591b99","meta":{"profile":["http://hl7.org/fhir/us/qicore/StructureDefinition/qicore-encounter"]},"status":"finished","class":{"system":"http://terminology.hl7.org/CodeSystem/v3-ActCode","code":"IMP","display":"inpatient encounter"},"type":[{"coding":[{"system":"http://snomed.info/sct","code":"8715000"}]}],"subject":{"reference":"Patient/f8f09c1f-37fc-4088-a39d-710971b626b7"},"period":{"start":"2025-12-04T08:00:00+00:00","end":"2025-12-30T08:15:00+00:00"},"length":{"value":26.0,"unit":"days"},"location":[{"location":{"reference":"Location/intensive-care-unit-7627"},"period":{"start":"2025-12-26T08:00:00.000+00:00","end":"2025-12-28T08:15:00.000+00:00"}}]},"request":{"method":"PUT","url":"Encounter/75c9b767-ce24-432c-a415-ef5dd7591b99"}},{"fullUrl":"https://madie.cms.gov/Procedure/5ce80971b848467c29eaf2b2","resource":{"resourceType":"Procedure","id":"e4b65db4-acbe-4bcd-9e52-3aa3e9e59910","meta":{"profile":["http://hl7.org/fhir/us/qicore/StructureDefinition/qicore-procedure"]},"extension":[{"url":"http://hl7.org/fhir/us/qicore/StructureDefinition/qicore-recorded","valueDateTime":"2012-12-04T09:35:00-04:00"}],"status":"completed","code":{"coding":[{"system":"http://snomed.info/sct","code":"133918004"}]},"subject":{"reference":"Patient/f8f09c1f-37fc-4088-a39d-710971b626b7"},"performedPeriod":{"start":"2025-12-04T05:59:00+00:00"}},"request":{"method":"PUT","url":"Procedure/e4b65db4-acbe-4bcd-9e52-3aa3e9e59910"}},{"fullUrl":"https://madie.cms.gov/Coverage/5fa041071c76ba66d99590f6","resource":{"resourceType":"Coverage","id":"97afefd3-48cd-43ba-bd8f-54eb674c20be","status":"active","beneficiary":{"reference":"Patient/f8f09c1f-37fc-4088-a39d-710971b626b7"},"period":{"start":"1974-03-03T08:00:00+00:00"},"payor":[{"reference":"Organization/77e4d06f-5e3c-436a-a598-80cefcca5028"}]},"request":{"method":"PUT","url":"Coverage/97afefd3-48cd-43ba-bd8f-54eb674c20be"}},{"fullUrl":"https://madie.cms.gov/Location/intensive-care-unit-7627","resource":{"resourceType":"Location","id":"a774f332-8ba5-40d6-b8df-0d57662a5d1b","meta":{"profile":["http://hl7.org/fhir/us/qicore/StructureDefinition/qicore-location"]},"identifier":[{"use":"usual","system":"http://exampleoflocation.com","value":"B1-S.F2"}],"name":"Medical Surgical East, first floor","type":[{"coding":[{"system":"https://www.cdc.gov/nhsn/cdaportal/terminology/codesystem/hsloc.html","code":"1025-6","display":"Trauma Critical Care","userSelected":true}]}]},"request":{"method":"PUT","url":"Location/a774f332-8ba5-40d6-b8df-0d57662a5d1b"}},{"fullUrl":"https://madie.cms.gov/Organization/123456","resource":{"resourceType":"Organization","id":"77e4d06f-5e3c-436a-a598-80cefcca5028","meta":{"profile":["http://hl7.org/fhir/us/qicore/StructureDefinition/qicore-organization"]},"identifier":[{"use":"temp","system":"urn:oid:2.16.840.1.113883.4.4","value":"21-3259825"}],"active":true,"type":[{"coding":[{"system":"http://terminology.hl7.org/CodeSystem/organization-type","code":"pay","display":"Payer"}]}],"name":"Blue Cross Blue Shield of Texas","telecom":[{"system":"phone","value":"(+1) 972-766-6900"}],"address":[{"use":"billing","type":"postal","line":["P.O. Box 660044"],"city":"Dallas","state":"TX","postalCode":"75266-0044","country":"USA"}]},"request":{"method":"PUT","url":"Organization/77e4d06f-5e3c-436a-a598-80cefcca5028"}},{"fullUrl":"https://madie.cms.gov/Practitioner/practitioner-123456","resource":{"resourceType":"Practitioner","id":"5091f580-494b-4328-9e14-3e5c73f6a12c","identifier":[{"system":"http://hl7.org/fhir/sid/us-npi","value":"123456"}],"name":[{"family":"Evil","prefix":["Dr"]}]},"request":{"method":"PUT","url":"Practitioner/5091f580-494b-4328-9e14-3e5c73f6a12c"}},{"fullUrl":"https://madie.cms.gov/MeasureReport/d3fc9deb-e656-4908-a626-3ce06dfe7e01","resource":{"resourceType":"MeasureReport","id":"d3fc9deb-e656-4908-a626-3ce06dfe7e01","meta":{"profile":["http://hl7.org/fhir/us/cqfmeasures/StructureDefinition/test-case-cqfm"]},"contained":[{"resourceType":"Parameters","id":"4d857bce-bbf3-4bf7-ae02-8ca9130280ce-parameters","parameter":[{"name":"subject","valueString":"f8f09c1f-37fc-4088-a39d-710971b626b7"}]}],"extension":[{"url":"http://hl7.org/fhir/us/cqfmeasures/StructureDefinition/cqfm-inputParameters","valueReference":{"reference":"#4d857bce-bbf3-4bf7-ae02-8ca9130280ce-parameters"}},{"url":"http://hl7.org/fhir/us/cqfmeasures/StructureDefinition/cqfm-testCaseDescription","valueMarkdown":"meets IPP and Denominator, inpatient visit starts >1 hour after the end of ED visit(Global Hosp without Ed) AND Comfort Measures are performed 1 min before Ed. This case pass DenExcl because CM is on the same day as Adm even ED > 1 hr before Adm\n"}],"modifierExtension":[{"url":"http://hl7.org/fhir/us/cqfmeasures/StructureDefinition/cqfm-isTestCase","valueBoolean":true}],"status":"complete","type":"individual","measure":"https://madie.cms.gov/Measure/IntensiveCareUnitVenousThromboembolismProphylaxisFHIR","period":{"start":"2025-01-01","end":"2025-12-31"},"group":[{"population":[{"code":{"coding":[{"system":"http://terminology.hl7.org/CodeSystem/measure-population","code":"initial-population","display":"Initial Population"}]},"count":1},{"code":{"coding":[{"system":"http://terminology.hl7.org/CodeSystem/measure-population","code":"denominator","display":"Denominator"}]},"count":1},{"code":{"coding":[{"system":"http://terminology.hl7.org/CodeSystem/measure-population","code":"denominator-exclusion","display":"Denominator Exclusion"}]},"count":1},{"code":{"coding":[{"system":"http://terminology.hl7.org/CodeSystem/measure-population","code":"numerator","display":"Numerator"}]},"count":0},{"code":{"coding":[{"system":"http://terminology.hl7.org/CodeSystem/measure-population","code":"denominator-exception","display":"Denominator Exception"}]},"count":0}]}]},"request":{"method":"PUT","url":"MeasureReport/d3fc9deb-e656-4908-a626-3ce06dfe7e01"}}]}