{"resourceType":"Bundle","id":"tests-9ddea16c-55d3-4dda-a1d8-a256fbff0b64-bundle","type":"transaction","entry":[{"fullUrl":"https://madie.cms.gov/Patient/9ddea16c-55d3-4dda-a1d8-a256fbff0b64","resource":{"resourceType":"Patient","id":"9ddea16c-55d3-4dda-a1d8-a256fbff0b64","meta":{"profile":["http://hl7.org/fhir/us/qicore/StructureDefinition/qicore-patient"]},"text":{"status":"generated","div":"<div xmlns=\"http://www.w3.org/1999/xhtml\"><div class=\"hapiHeaderText\">MedRsnLDUHVFP1MinAFAnesEnds1DayAFICU <b>NUMERPASS </b></div><table class=\"hapiPropertyTable\"><tbody><tr><td>Identifier</td><td>c46ac45885afaf33533a822506cc9d0e</td></tr><tr><td>Date of birth</td><td><span>03 March 1974</span></td></tr></tbody></table></div>"},"extension":[{"url":"http://hl7.org/fhir/us/core/StructureDefinition/us-core-race","extension":[{"url":"ombCategory","valueCoding":{"system":"urn:oid:2.16.840.1.113883.6.238","code":"1002-5","display":"American Indian or Alaska Native","userSelected":true}},{"url":"text","valueString":"American Indian or Alaska Native"}]},{"url":"http://hl7.org/fhir/us/core/StructureDefinition/us-core-ethnicity","extension":[{"url":"ombCategory","valueCoding":{"system":"urn:oid:2.16.840.1.113883.6.238","code":"2135-2","display":"Hispanic or Latino","userSelected":true}},{"url":"text","valueString":"Hispanic or Latino"}]}],"identifier":[{"type":{"coding":[{"system":"http://terminology.hl7.org/CodeSystem/v2-0203","code":"MR"}]},"system":"https://bonnie-fhir.healthit.gov/","value":"612e6f2702c62a011f2f0db5"}],"active":true,"name":[{"use":"usual","family":"NUMERPass","given":["MedRsnLDUHVFP1MinAFAnesEnds1DayAFICU"]}],"gender":"female","birthDate":"1974-03-03"},"request":{"method":"PUT","url":"Patient/9ddea16c-55d3-4dda-a1d8-a256fbff0b64"}},{"fullUrl":"https://madie.cms.gov/Encounter/5ce8096fb848467c29eaf174","resource":{"resourceType":"Encounter","id":"fed1db50-ec14-49fd-b153-476a0a477fce","meta":{"profile":["http://hl7.org/fhir/us/qicore/StructureDefinition/qicore-encounter"]},"status":"finished","class":{"system":"http://terminology.hl7.org/CodeSystem/v3-ActCode","code":"IMP","display":"inpatient encounter"},"type":[{"coding":[{"system":"http://snomed.info/sct","code":"8715000"}]}],"subject":{"reference":"Patient/9ddea16c-55d3-4dda-a1d8-a256fbff0b64"},"period":{"start":"2025-12-01T00:00:00+00:00","end":"2025-12-31T23:59:00+00:00"},"length":{"value":30.0,"unit":"days"},"location":[{"location":{"reference":"Location/intensive-care-unit-09f8"},"period":{"start":"2025-12-01T05:00:00.000+00:00","end":"2025-12-15T23:59:00.000+00:00"}}]},"request":{"method":"PUT","url":"Encounter/fed1db50-ec14-49fd-b153-476a0a477fce"}},{"fullUrl":"https://madie.cms.gov/Coverage/5fa040fe1c76ba66d9959060","resource":{"resourceType":"Coverage","id":"63633692-7aeb-499c-96ab-b488f4bc53ce","status":"active","beneficiary":{"reference":"Patient/9ddea16c-55d3-4dda-a1d8-a256fbff0b64"},"period":{"start":"1974-03-03T08:00:00+00:00"},"payor":[{"reference":"Organization/024e2731-b045-43bf-80d2-684774c5b51c"}]},"request":{"method":"PUT","url":"Coverage/63633692-7aeb-499c-96ab-b488f4bc53ce"}},{"fullUrl":"https://madie.cms.gov/MedicationAdministration/5ce8096fb848467c29eaf176","resource":{"resourceType":"MedicationAdministration","id":"8a710242-206c-4aeb-8b77-be9d21b486d1","meta":{"profile":["http://hl7.org/fhir/us/qicore/StructureDefinition/qicore-mednotadministered"]},"extension":[{"url":"http://hl7.org/fhir/us/qicore/StructureDefinition/qicore-recorded","valueDateTime":"2025-12-02T15:11:00+00:00"}],"status":"not-done","statusReason":[{"coding":[{"system":"http://snomed.info/sct","code":"183932001","display":"Procedure contraindicated (situation)"}]}],"medicationCodeableConcept":{"coding":[{"system":"http://www.nlm.nih.gov/research/umls/rxnorm","code":"854228"}]},"subject":{"reference":"Patient/9ddea16c-55d3-4dda-a1d8-a256fbff0b64"},"effectivePeriod":{"start":"2025-12-02T15:11:00+00:00"}},"request":{"method":"PUT","url":"MedicationAdministration/8a710242-206c-4aeb-8b77-be9d21b486d1"}},{"fullUrl":"https://madie.cms.gov/Procedure/5ce8096fb848467c29eaf177","resource":{"resourceType":"Procedure","id":"8d4a9dba-5de4-485b-9961-d39853b69fa2","meta":{"profile":["http://hl7.org/fhir/us/qicore/StructureDefinition/qicore-procedure"]},"extension":[{"url":"http://hl7.org/fhir/us/qicore/StructureDefinition/qicore-recorded","valueDateTime":"2012-12-04T09:35:00-04:00"}],"status":"completed","code":{"coding":[{"system":"http://snomed.info/sct","code":"18946005"}]},"subject":{"reference":"Patient/9ddea16c-55d3-4dda-a1d8-a256fbff0b64"},"performedPeriod":{"start":"2025-12-02T10:59:00+00:00","end":"2025-12-02T15:10:00+00:00"}},"request":{"method":"PUT","url":"Procedure/8d4a9dba-5de4-485b-9961-d39853b69fa2"}},{"fullUrl":"https://madie.cms.gov/Location/intensive-care-unit-09f8","resource":{"resourceType":"Location","id":"a53467fc-6759-41f6-b4b0-fa85e28b0aa9","meta":{"profile":["http://hl7.org/fhir/us/qicore/StructureDefinition/qicore-location"]},"identifier":[{"use":"usual","system":"http://exampleoflocation.com","value":"B1-S.F2"}],"name":"Medical Surgical East, first floor","type":[{"coding":[{"system":"https://www.cdc.gov/nhsn/cdaportal/terminology/codesystem/hsloc.html","code":"1025-6","display":"Trauma Critical Care","userSelected":true}]}]},"request":{"method":"PUT","url":"Location/a53467fc-6759-41f6-b4b0-fa85e28b0aa9"}},{"fullUrl":"https://madie.cms.gov/Procedure/device-application-557b","resource":{"resourceType":"Procedure","id":"6a570fae-b5dd-48ce-a3a2-371b36094202","meta":{"profile":["http://hl7.org/fhir/us/qicore/StructureDefinition/qicore-procedurenotdone"]},"extension":[{"url":"http://hl7.org/fhir/us/qicore/StructureDefinition/qicore-recorded","valueDateTime":"2025-12-02T15:11:00.000+00:00"}],"status":"not-done","statusReason":{"coding":[{"system":"http://snomed.info/sct","code":"183932001","display":"Procedure contraindicated (situation)","userSelected":true}]},"code":{"coding":[{"system":"http://snomed.info/sct","code":"442410008","display":"Application of venous foot pump (procedure)","userSelected":true}]},"subject":{"reference":"Patient/9ddea16c-55d3-4dda-a1d8-a256fbff0b64"},"_performedDateTime":{"extension":[{"url":"http://hl7.org/fhir/StructureDefinition/data-absent-reason","valueCode":"not-performed"}]}},"request":{"method":"PUT","url":"Procedure/6a570fae-b5dd-48ce-a3a2-371b36094202"}},{"fullUrl":"https://madie.cms.gov/Organization/123456","resource":{"resourceType":"Organization","id":"024e2731-b045-43bf-80d2-684774c5b51c","meta":{"profile":["http://hl7.org/fhir/us/qicore/StructureDefinition/qicore-organization"]},"identifier":[{"use":"temp","system":"urn:oid:2.16.840.1.113883.4.4","value":"21-3259825"}],"active":true,"type":[{"coding":[{"system":"http://terminology.hl7.org/CodeSystem/organization-type","code":"pay","display":"Payer"}]}],"name":"Blue Cross Blue Shield of Texas","telecom":[{"system":"phone","value":"(+1) 972-766-6900"}],"address":[{"use":"billing","type":"postal","line":["P.O. Box 660044"],"city":"Dallas","state":"TX","postalCode":"75266-0044","country":"USA"}]},"request":{"method":"PUT","url":"Organization/024e2731-b045-43bf-80d2-684774c5b51c"}},{"fullUrl":"https://madie.cms.gov/Practitioner/practitioner-123456","resource":{"resourceType":"Practitioner","id":"71fc9534-d7fd-4963-96e9-4d628db66cc7","identifier":[{"system":"http://hl7.org/fhir/sid/us-npi","value":"123456"}],"name":[{"family":"Evil","prefix":["Dr"]}]},"request":{"method":"PUT","url":"Practitioner/71fc9534-d7fd-4963-96e9-4d628db66cc7"}},{"fullUrl":"https://madie.cms.gov/MeasureReport/872e581e-8feb-4f98-83c9-b6f3e52d4aa1","resource":{"resourceType":"MeasureReport","id":"872e581e-8feb-4f98-83c9-b6f3e52d4aa1","meta":{"profile":["http://hl7.org/fhir/us/cqfmeasures/StructureDefinition/test-case-cqfm"]},"contained":[{"resourceType":"Parameters","id":"d0d6ad41-5761-4b0b-8b65-23e6855e086e-parameters","parameter":[{"name":"subject","valueString":"9ddea16c-55d3-4dda-a1d8-a256fbff0b64"}]}],"extension":[{"url":"http://hl7.org/fhir/us/cqfmeasures/StructureDefinition/cqfm-inputParameters","valueReference":{"reference":"#d0d6ad41-5761-4b0b-8b65-23e6855e086e-parameters"}},{"url":"http://hl7.org/fhir/us/cqfmeasures/StructureDefinition/cqfm-testCaseDescription","valueMarkdown":"Patient has a documented reason for no LDUH and a medical reason for no IPC 1 min after anesthesia end (and anesthesia ends 1 day after ICU admission). This case will also satisfy no VTE prophylaxis due to medical reason <=1 day after ICU.start\n"}],"modifierExtension":[{"url":"http://hl7.org/fhir/us/cqfmeasures/StructureDefinition/cqfm-isTestCase","valueBoolean":true}],"status":"complete","type":"individual","measure":"https://madie.cms.gov/Measure/IntensiveCareUnitVenousThromboembolismProphylaxisFHIR","period":{"start":"2025-01-01","end":"2025-12-31"},"group":[{"population":[{"code":{"coding":[{"system":"http://terminology.hl7.org/CodeSystem/measure-population","code":"initial-population","display":"Initial Population"}]},"count":1},{"code":{"coding":[{"system":"http://terminology.hl7.org/CodeSystem/measure-population","code":"denominator","display":"Denominator"}]},"count":1},{"code":{"coding":[{"system":"http://terminology.hl7.org/CodeSystem/measure-population","code":"denominator-exclusion","display":"Denominator Exclusion"}]},"count":0},{"code":{"coding":[{"system":"http://terminology.hl7.org/CodeSystem/measure-population","code":"numerator","display":"Numerator"}]},"count":1},{"code":{"coding":[{"system":"http://terminology.hl7.org/CodeSystem/measure-population","code":"denominator-exception","display":"Denominator Exception"}]},"count":0}]}]},"request":{"method":"PUT","url":"MeasureReport/872e581e-8feb-4f98-83c9-b6f3e52d4aa1"}}]}