{"resourceType":"Bundle","id":"tests-7c2abf9a-4d88-48a4-b962-b20c4b470842-bundle","type":"transaction","entry":[{"fullUrl":"https://madie.cms.gov/Patient/7c2abf9a-4d88-48a4-b962-b20c4b470842","resource":{"resourceType":"Patient","id":"7c2abf9a-4d88-48a4-b962-b20c4b470842","meta":{"profile":["http://hl7.org/fhir/us/qicore/StructureDefinition/qicore-patient"]},"text":{"status":"generated","div":"<div xmlns=\"http://www.w3.org/1999/xhtml\"><div class=\"hapiHeaderText\">CMOPerf1minB4EdED1DayBFAdmAndGT1hr <b>DENEXFAIL </b></div><table class=\"hapiPropertyTable\"><tbody><tr><td>Identifier</td><td>19362d12dad92b89d616cce95b9dd94b08155ace603af08b2c07f3c1a79b307f</td></tr><tr><td>Date of birth</td><td><span>01 October 1954</span></td></tr></tbody></table></div>"},"extension":[{"url":"http://hl7.org/fhir/us/core/StructureDefinition/us-core-race","extension":[{"url":"ombCategory","valueCoding":{"system":"urn:oid:2.16.840.1.113883.6.238","code":"1002-5","display":"American Indian or Alaska Native","userSelected":true}},{"url":"text","valueString":"American Indian or Alaska Native"}]},{"url":"http://hl7.org/fhir/us/core/StructureDefinition/us-core-ethnicity","extension":[{"url":"ombCategory","valueCoding":{"system":"urn:oid:2.16.840.1.113883.6.238","code":"2135-2","display":"Hispanic or Latino","userSelected":true}},{"url":"text","valueString":"Hispanic or Latino"}]}],"identifier":[{"type":{"coding":[{"system":"http://terminology.hl7.org/CodeSystem/v2-0203","code":"MR"}]},"system":"https://bonnie-fhir.healthit.gov/","value":"612e6f6702c62a011f2f1b06"}],"active":true,"name":[{"use":"usual","family":"DENEXFail","given":["CMOPerf1minB4EdED1DayBFAdmAndGT1hr"]}],"gender":"male","birthDate":"1954-10-01"},"request":{"method":"PUT","url":"Patient/7c2abf9a-4d88-48a4-b962-b20c4b470842"}},{"fullUrl":"https://madie.cms.gov/Encounter/5ce80971b848467c29eaf2b3","resource":{"resourceType":"Encounter","id":"7cb19371-e61d-415a-92e4-205c0fceed65","meta":{"profile":["http://hl7.org/fhir/us/qicore/StructureDefinition/qicore-encounter"]},"status":"finished","class":{"system":"http://terminology.hl7.org/CodeSystem/v3-ActCode","code":"EMER","display":"emergency"},"type":[{"coding":[{"system":"http://snomed.info/sct","code":"4525004"}]}],"subject":{"reference":"Patient/7c2abf9a-4d88-48a4-b962-b20c4b470842"},"period":{"start":"2025-12-03T15:00:00+00:00","end":"2025-12-04T02:00:00+00:00"},"length":{"value":1.0,"unit":"days"}},"request":{"method":"PUT","url":"Encounter/7cb19371-e61d-415a-92e4-205c0fceed65"}},{"fullUrl":"https://madie.cms.gov/Encounter/5ce80971b848467c29eaf2b4","resource":{"resourceType":"Encounter","id":"10fc88c6-126a-4740-ade3-b4ad18fdf155","meta":{"profile":["http://hl7.org/fhir/us/qicore/StructureDefinition/qicore-encounter"]},"status":"finished","class":{"system":"http://terminology.hl7.org/CodeSystem/v3-ActCode","code":"IMP","display":"inpatient encounter"},"type":[{"coding":[{"system":"http://snomed.info/sct","code":"8715000"}]}],"subject":{"reference":"Patient/7c2abf9a-4d88-48a4-b962-b20c4b470842"},"period":{"start":"2025-12-04T06:40:00+00:00","end":"2025-12-30T08:15:00+00:00"},"length":{"value":26.0,"unit":"days"},"location":[{"location":{"reference":"Location/Location-1"},"period":{"start":"2025-12-26T08:00:00.000+00:00","end":"2025-12-28T08:15:00.000+00:00"}}]},"request":{"method":"PUT","url":"Encounter/10fc88c6-126a-4740-ade3-b4ad18fdf155"}},{"fullUrl":"https://madie.cms.gov/Procedure/5ce80971b848467c29eaf2b5","resource":{"resourceType":"Procedure","id":"4d2e5936-7672-4ed4-a7b9-6205fbcb0c29","meta":{"profile":["http://hl7.org/fhir/us/qicore/StructureDefinition/qicore-procedure"]},"extension":[{"url":"http://hl7.org/fhir/us/qicore/StructureDefinition/qicore-recorded","valueDateTime":"2012-12-04T09:35:00-04:00"}],"status":"completed","code":{"coding":[{"system":"http://snomed.info/sct","code":"133918004"}]},"subject":{"reference":"Patient/7c2abf9a-4d88-48a4-b962-b20c4b470842"},"performedPeriod":{"start":"2025-12-03T14:59:00+00:00"}},"request":{"method":"PUT","url":"Procedure/4d2e5936-7672-4ed4-a7b9-6205fbcb0c29"}},{"fullUrl":"https://madie.cms.gov/Coverage/5fa041071c76ba66d99590f9","resource":{"resourceType":"Coverage","id":"b1897b47-cc43-423b-ba81-a0e7e44bfd76","status":"active","beneficiary":{"reference":"Patient/7c2abf9a-4d88-48a4-b962-b20c4b470842"},"period":{"start":"1974-03-03T08:00:00+00:00"},"payor":[{"reference":"Organization/5224cb12-ed64-4d6d-ab28-40a64f0800f1"}]},"request":{"method":"PUT","url":"Coverage/b1897b47-cc43-423b-ba81-a0e7e44bfd76"}},{"fullUrl":"https://madie.cms.gov/Location/Location-1","resource":{"resourceType":"Location","id":"4903893f-7310-4e7d-936d-59f9dc3ec39c","meta":{"profile":["http://hl7.org/fhir/us/qicore/StructureDefinition/qicore-location"]},"identifier":[{"use":"usual","system":"http://exampleoflocation.com","value":"B1-S.F2"}],"name":"Medical Surgical East, first floor","type":[{"coding":[{"system":"https://www.cdc.gov/nhsn/cdaportal/terminology/codesystem/hsloc.html","code":"1025-6","display":"Trauma Critical Care","userSelected":true}]}]},"request":{"method":"PUT","url":"Location/4903893f-7310-4e7d-936d-59f9dc3ec39c"}},{"fullUrl":"https://madie.cms.gov/Organization/123456","resource":{"resourceType":"Organization","id":"5224cb12-ed64-4d6d-ab28-40a64f0800f1","meta":{"profile":["http://hl7.org/fhir/us/qicore/StructureDefinition/qicore-organization"]},"identifier":[{"use":"temp","system":"urn:oid:2.16.840.1.113883.4.4","value":"21-3259825"}],"active":true,"type":[{"coding":[{"system":"http://terminology.hl7.org/CodeSystem/organization-type","code":"pay","display":"Payer"}]}],"name":"Blue Cross Blue Shield of Texas","telecom":[{"system":"phone","value":"(+1) 972-766-6900"}],"address":[{"use":"billing","type":"postal","line":["P.O. Box 660044"],"city":"Dallas","state":"TX","postalCode":"75266-0044","country":"USA"}]},"request":{"method":"PUT","url":"Organization/5224cb12-ed64-4d6d-ab28-40a64f0800f1"}},{"fullUrl":"https://madie.cms.gov/Practitioner/practitioner-123456","resource":{"resourceType":"Practitioner","id":"b41b55ae-8bc4-4f91-9b2c-c6a0dcd580df","identifier":[{"system":"http://hl7.org/fhir/sid/us-npi","value":"123456"}],"name":[{"family":"Evil","prefix":["Dr"]}]},"request":{"method":"PUT","url":"Practitioner/b41b55ae-8bc4-4f91-9b2c-c6a0dcd580df"}},{"fullUrl":"https://madie.cms.gov/MeasureReport/f2854adf-ed18-4f3e-9477-a80b00a9497a","resource":{"resourceType":"MeasureReport","id":"f2854adf-ed18-4f3e-9477-a80b00a9497a","meta":{"profile":["http://hl7.org/fhir/us/cqfmeasures/StructureDefinition/test-case-cqfm"]},"contained":[{"resourceType":"Parameters","id":"3e4a610a-0511-481a-819b-37dd8a19f860-parameters","parameter":[{"name":"subject","valueString":"7c2abf9a-4d88-48a4-b962-b20c4b470842"}]}],"extension":[{"url":"http://hl7.org/fhir/us/cqfmeasures/StructureDefinition/cqfm-inputParameters","valueReference":{"reference":"#3e4a610a-0511-481a-819b-37dd8a19f860-parameters"}},{"url":"http://hl7.org/fhir/us/cqfmeasures/StructureDefinition/cqfm-testCaseDescription","valueMarkdown":"inpatient visit starts >1 hour after the end of ED visit(Global Hosp with Ed, Ed cross midnight) AND Comfort Measures are performed 1 min before ED. This case failed DENExcl because CMO is on ED day1 and ED is NOT qualified\n"}],"modifierExtension":[{"url":"http://hl7.org/fhir/us/cqfmeasures/StructureDefinition/cqfm-isTestCase","valueBoolean":true}],"status":"complete","type":"individual","measure":"https://madie.cms.gov/Measure/IntensiveCareUnitVenousThromboembolismProphylaxisFHIR","period":{"start":"2025-01-01","end":"2025-12-31"},"group":[{"population":[{"code":{"coding":[{"system":"http://terminology.hl7.org/CodeSystem/measure-population","code":"initial-population","display":"Initial Population"}]},"count":1},{"code":{"coding":[{"system":"http://terminology.hl7.org/CodeSystem/measure-population","code":"denominator","display":"Denominator"}]},"count":1},{"code":{"coding":[{"system":"http://terminology.hl7.org/CodeSystem/measure-population","code":"denominator-exclusion","display":"Denominator Exclusion"}]},"count":0},{"code":{"coding":[{"system":"http://terminology.hl7.org/CodeSystem/measure-population","code":"numerator","display":"Numerator"}]},"count":0},{"code":{"coding":[{"system":"http://terminology.hl7.org/CodeSystem/measure-population","code":"denominator-exception","display":"Denominator Exception"}]},"count":0}]}]},"request":{"method":"PUT","url":"MeasureReport/f2854adf-ed18-4f3e-9477-a80b00a9497a"}}]}