{"resourceType":"Bundle","id":"tests-a1a991db-e4b4-46d4-bb51-befa8e7feaad-bundle","type":"transaction","entry":[{"fullUrl":"https://madie.cms.gov/Patient/a1a991db-e4b4-46d4-bb51-befa8e7feaad","resource":{"resourceType":"Patient","id":"a1a991db-e4b4-46d4-bb51-befa8e7feaad","meta":{"profile":["http://hl7.org/fhir/us/qicore/StructureDefinition/qicore-patient"]},"text":{"status":"generated","div":"<div xmlns=\"http://www.w3.org/1999/xhtml\"><div class=\"hapiHeaderText\">ThrombinDayAfterAneWRvlntDT <b>NUMERPASS </b></div><table class=\"hapiPropertyTable\"><tbody><tr><td>Identifier</td><td>477ee240f9d3831dbb4bc572c0c7b010</td></tr><tr><td>Date of birth</td><td><span>03 March 1974</span></td></tr></tbody></table></div>"},"extension":[{"url":"http://hl7.org/fhir/us/core/StructureDefinition/us-core-race","extension":[{"url":"ombCategory","valueCoding":{"system":"urn:oid:2.16.840.1.113883.6.238","code":"1002-5","display":"American Indian or Alaska Native","userSelected":true}},{"url":"text","valueString":"American Indian or Alaska Native"}]},{"url":"http://hl7.org/fhir/us/core/StructureDefinition/us-core-ethnicity","extension":[{"url":"ombCategory","valueCoding":{"system":"urn:oid:2.16.840.1.113883.6.238","code":"2135-2","display":"Hispanic or Latino","userSelected":true}},{"url":"text","valueString":"Hispanic or Latino"}]}],"identifier":[{"type":{"coding":[{"system":"http://terminology.hl7.org/CodeSystem/v2-0203","code":"MR"}]},"system":"https://bonnie-fhir.healthit.gov/","value":"612e6f9102c62a011f2f24d3"}],"active":true,"name":[{"use":"usual","family":"NUMERPass","given":["ThrombinDayAfterAneWRvlntDT"]}],"gender":"female","birthDate":"1974-03-03"},"request":{"method":"PUT","url":"Patient/a1a991db-e4b4-46d4-bb51-befa8e7feaad"}},{"fullUrl":"https://madie.cms.gov/Encounter/5ce8096db848467c29eaf0d0","resource":{"resourceType":"Encounter","id":"f3c8c015-daa2-4782-8dc3-5cab3126d1ed","meta":{"profile":["http://hl7.org/fhir/us/qicore/StructureDefinition/qicore-encounter"]},"status":"finished","class":{"system":"http://terminology.hl7.org/CodeSystem/v3-ActCode","code":"IMP","display":"inpatient encounter"},"type":[{"coding":[{"system":"http://snomed.info/sct","code":"8715000"}]}],"subject":{"reference":"Patient/a1a991db-e4b4-46d4-bb51-befa8e7feaad"},"period":{"start":"2025-12-04T08:00:00+00:00","end":"2025-12-30T08:15:00+00:00"},"length":{"value":26.0,"unit":"days"},"location":[{"location":{"reference":"Location/Location-1"},"period":{"start":"2025-12-06T08:00:00.000+00:00","end":"2025-12-12T08:15:00.000+00:00"}}]},"request":{"method":"PUT","url":"Encounter/f3c8c015-daa2-4782-8dc3-5cab3126d1ed"}},{"fullUrl":"https://madie.cms.gov/Coverage/5fa040ee1c76ba66d9958f25","resource":{"resourceType":"Coverage","id":"db0bd95c-21b7-4577-b640-3e03fbc00281","status":"active","beneficiary":{"reference":"Patient/a1a991db-e4b4-46d4-bb51-befa8e7feaad"},"period":{"start":"1974-03-03T08:00:00+00:00"},"payor":[{"reference":"Organization/42846cc3-1db0-4bf7-b9ff-8b81fa6e835d"}]},"request":{"method":"PUT","url":"Coverage/db0bd95c-21b7-4577-b640-3e03fbc00281"}},{"fullUrl":"https://madie.cms.gov/MedicationAdministration/5ce8096db848467c29eaf0d1","resource":{"resourceType":"MedicationAdministration","id":"94c97ca1-cf60-4835-9393-778662966088","meta":{"profile":["http://hl7.org/fhir/us/qicore/StructureDefinition/qicore-medicationadministration"]},"status":"completed","medicationCodeableConcept":{"coding":[{"system":"http://www.nlm.nih.gov/research/umls/rxnorm","code":"308351"}]},"subject":{"reference":"Patient/a1a991db-e4b4-46d4-bb51-befa8e7feaad"},"effectiveDateTime":"2025-12-08T11:30:00.000+00:00"},"request":{"method":"PUT","url":"MedicationAdministration/94c97ca1-cf60-4835-9393-778662966088"}},{"fullUrl":"https://madie.cms.gov/Procedure/5ce8096db848467c29eaf0d2","resource":{"resourceType":"Procedure","id":"5e49d435-5fe1-4867-acf3-a8a10a3b9231","meta":{"profile":["http://hl7.org/fhir/us/qicore/StructureDefinition/qicore-procedure"]},"extension":[{"url":"http://hl7.org/fhir/us/qicore/StructureDefinition/qicore-recorded","valueDateTime":"2012-12-07T09:35:00-04:00"}],"status":"completed","code":{"coding":[{"system":"http://www.cms.gov/Medicare/Coding/ICD10","code":"3E030FZ"}]},"subject":{"reference":"Patient/a1a991db-e4b4-46d4-bb51-befa8e7feaad"},"performedDateTime":"2025-12-07T11:15:00.000+00:00"},"request":{"method":"PUT","url":"Procedure/5e49d435-5fe1-4867-acf3-a8a10a3b9231"}},{"fullUrl":"https://madie.cms.gov/Location/Location-1","resource":{"resourceType":"Location","id":"415f4446-a82e-4897-9593-4b5d4c3c8609","meta":{"profile":["http://hl7.org/fhir/us/qicore/StructureDefinition/qicore-location"]},"identifier":[{"use":"usual","system":"http://exampleoflocation.com","value":"B1-S.F2"}],"name":"Medical Surgical East, first floor","type":[{"coding":[{"system":"https://www.cdc.gov/nhsn/cdaportal/terminology/codesystem/hsloc.html","code":"1025-6","display":"Trauma Critical Care","userSelected":true}]}]},"request":{"method":"PUT","url":"Location/415f4446-a82e-4897-9593-4b5d4c3c8609"}},{"fullUrl":"https://madie.cms.gov/Organization/123456","resource":{"resourceType":"Organization","id":"42846cc3-1db0-4bf7-b9ff-8b81fa6e835d","meta":{"profile":["http://hl7.org/fhir/us/qicore/StructureDefinition/qicore-organization"]},"identifier":[{"use":"temp","system":"urn:oid:2.16.840.1.113883.4.4","value":"21-3259825"}],"active":true,"type":[{"coding":[{"system":"http://terminology.hl7.org/CodeSystem/organization-type","code":"pay","display":"Payer"}]}],"name":"Blue Cross Blue Shield of Texas","telecom":[{"system":"phone","value":"(+1) 972-766-6900"}],"address":[{"use":"billing","type":"postal","line":["P.O. Box 660044"],"city":"Dallas","state":"TX","postalCode":"75266-0044","country":"USA"}]},"request":{"method":"PUT","url":"Organization/42846cc3-1db0-4bf7-b9ff-8b81fa6e835d"}},{"fullUrl":"https://madie.cms.gov/Practitioner/practitioner-123456","resource":{"resourceType":"Practitioner","id":"aa51a626-0309-4034-a957-f73e59c26b67","identifier":[{"system":"http://hl7.org/fhir/sid/us-npi","value":"123456"}],"name":[{"family":"Evil","prefix":["Dr"]}]},"request":{"method":"PUT","url":"Practitioner/aa51a626-0309-4034-a957-f73e59c26b67"}},{"fullUrl":"https://madie.cms.gov/MeasureReport/d77e42a2-9c2a-4112-82e2-305feff9d4f9","resource":{"resourceType":"MeasureReport","id":"d77e42a2-9c2a-4112-82e2-305feff9d4f9","meta":{"profile":["http://hl7.org/fhir/us/cqfmeasures/StructureDefinition/test-case-cqfm"]},"contained":[{"resourceType":"Parameters","id":"8a61c46b-a90b-40e7-ae15-ab9bcd2c5ebd-parameters","parameter":[{"name":"subject","valueString":"a1a991db-e4b4-46d4-bb51-befa8e7feaad"}]}],"extension":[{"url":"http://hl7.org/fhir/us/cqfmeasures/StructureDefinition/cqfm-inputParameters","valueReference":{"reference":"#8a61c46b-a90b-40e7-ae15-ab9bcd2c5ebd-parameters"}},{"url":"http://hl7.org/fhir/us/cqfmeasures/StructureDefinition/cqfm-testCaseDescription","valueMarkdown":"ThrombinDayAfterAnes_MedAdmRvlntDT_PorcRvlntDT\n"}],"modifierExtension":[{"url":"http://hl7.org/fhir/us/cqfmeasures/StructureDefinition/cqfm-isTestCase","valueBoolean":true}],"status":"complete","type":"individual","measure":"https://madie.cms.gov/Measure/IntensiveCareUnitVenousThromboembolismProphylaxisFHIR","period":{"start":"2025-01-01","end":"2025-12-31"},"group":[{"population":[{"code":{"coding":[{"system":"http://terminology.hl7.org/CodeSystem/measure-population","code":"initial-population","display":"Initial Population"}]},"count":1},{"code":{"coding":[{"system":"http://terminology.hl7.org/CodeSystem/measure-population","code":"denominator","display":"Denominator"}]},"count":1},{"code":{"coding":[{"system":"http://terminology.hl7.org/CodeSystem/measure-population","code":"denominator-exclusion","display":"Denominator Exclusion"}]},"count":0},{"code":{"coding":[{"system":"http://terminology.hl7.org/CodeSystem/measure-population","code":"numerator","display":"Numerator"}]},"count":1},{"code":{"coding":[{"system":"http://terminology.hl7.org/CodeSystem/measure-population","code":"denominator-exception","display":"Denominator Exception"}]},"count":0}]}]},"request":{"method":"PUT","url":"MeasureReport/d77e42a2-9c2a-4112-82e2-305feff9d4f9"}}]}