{"resourceType":"Bundle","id":"tests-362755f7-cf57-4178-b0c0-a0fc22b376fe-bundle","type":"transaction","entry":[{"fullUrl":"https://madie.cms.gov/Patient/362755f7-cf57-4178-b0c0-a0fc22b376fe","resource":{"resourceType":"Patient","id":"362755f7-cf57-4178-b0c0-a0fc22b376fe","meta":{"profile":["http://hl7.org/fhir/us/qicore/StructureDefinition/qicore-patient"]},"text":{"status":"generated","div":"<div xmlns=\"http://www.w3.org/1999/xhtml\"><div class=\"hapiHeaderText\">OralXa2DaysAFICU1DayAfAnesHipWRvlntDT <b>NUMERPASS </b></div><table class=\"hapiPropertyTable\"><tbody><tr><td>Identifier</td><td>8693e02c1b94abdc9b9428b41412eae6</td></tr><tr><td>Date of birth</td><td><span>03 March 1974</span></td></tr></tbody></table></div>"},"extension":[{"url":"http://hl7.org/fhir/us/core/StructureDefinition/us-core-race","extension":[{"url":"ombCategory","valueCoding":{"system":"urn:oid:2.16.840.1.113883.6.238","code":"1002-5","display":"American Indian or Alaska Native","userSelected":true}},{"url":"text","valueString":"American Indian or Alaska Native"}]},{"url":"http://hl7.org/fhir/us/core/StructureDefinition/us-core-ethnicity","extension":[{"url":"ombCategory","valueCoding":{"system":"urn:oid:2.16.840.1.113883.6.238","code":"2135-2","display":"Hispanic or Latino","userSelected":true}},{"url":"text","valueString":"Hispanic or Latino"}]}],"identifier":[{"type":{"coding":[{"system":"http://terminology.hl7.org/CodeSystem/v2-0203","code":"MR"}]},"system":"https://bonnie-fhir.healthit.gov/","value":"612e6ea302c62a011f2ef23d"}],"active":true,"name":[{"use":"usual","family":"NUMERPass","given":["OralXa2DaysAFICU1DayAfAnesHipWRvlntDT"]}],"gender":"female","birthDate":"1974-03-03"},"request":{"method":"PUT","url":"Patient/362755f7-cf57-4178-b0c0-a0fc22b376fe"}},{"fullUrl":"https://madie.cms.gov/Encounter/5ce8096db848467c29eaf0d3","resource":{"resourceType":"Encounter","id":"31e43938-59f2-4328-ac6a-0e691e52bead","meta":{"profile":["http://hl7.org/fhir/us/qicore/StructureDefinition/qicore-encounter"]},"status":"finished","class":{"system":"http://terminology.hl7.org/CodeSystem/v3-ActCode","code":"IMP","display":"inpatient encounter"},"type":[{"coding":[{"system":"http://snomed.info/sct","code":"8715000"}]}],"subject":{"reference":"Patient/362755f7-cf57-4178-b0c0-a0fc22b376fe"},"period":{"start":"2025-12-04T08:00:00+00:00","end":"2025-12-30T08:15:00+00:00"},"length":{"value":26.0,"unit":"days"},"location":[{"location":{"reference":"Location/Location-1"},"period":{"start":"2025-12-06T08:00:00.000+00:00","end":"2025-12-08T08:15:00.000+00:00"}}]},"request":{"method":"PUT","url":"Encounter/31e43938-59f2-4328-ac6a-0e691e52bead"}},{"fullUrl":"https://madie.cms.gov/Coverage/5fa040ee1c76ba66d9958f2b","resource":{"resourceType":"Coverage","id":"d0108d47-e76e-4804-b1be-6c30b77cc93e","status":"active","beneficiary":{"reference":"Patient/362755f7-cf57-4178-b0c0-a0fc22b376fe"},"period":{"start":"1974-03-03T08:00:00+00:00"},"payor":[{"reference":"Organization/9e9b3f13-a353-4173-b29b-947d6f1f2031"}]},"request":{"method":"PUT","url":"Coverage/d0108d47-e76e-4804-b1be-6c30b77cc93e"}},{"fullUrl":"https://madie.cms.gov/MedicationAdministration/5ce8096db848467c29eaf0d4","resource":{"resourceType":"MedicationAdministration","id":"43eb01a8-be4d-485b-829d-28d5daad4db9","meta":{"profile":["http://hl7.org/fhir/us/qicore/StructureDefinition/qicore-medicationadministration"]},"status":"completed","medicationCodeableConcept":{"coding":[{"system":"http://www.nlm.nih.gov/research/umls/rxnorm","code":"1364435","display":"apixaban 2.5 MG Oral Tablet","userSelected":true}]},"subject":{"reference":"Patient/362755f7-cf57-4178-b0c0-a0fc22b376fe"},"effectiveDateTime":"2025-12-08T08:00:00.000+00:00"},"request":{"method":"PUT","url":"MedicationAdministration/43eb01a8-be4d-485b-829d-28d5daad4db9"}},{"fullUrl":"https://madie.cms.gov/Procedure/5ce8096db848467c29eaf0d5","resource":{"resourceType":"Procedure","id":"33dcb576-08a8-4994-8247-a21665a9d54a","meta":{"profile":["http://hl7.org/fhir/us/qicore/StructureDefinition/qicore-procedure"]},"extension":[{"url":"http://hl7.org/fhir/us/qicore/StructureDefinition/qicore-recorded","valueDateTime":"2012-12-04T09:35:00-04:00"}],"status":"completed","code":{"coding":[{"system":"http://snomed.info/sct","code":"7989006"}]},"subject":{"reference":"Patient/362755f7-cf57-4178-b0c0-a0fc22b376fe"},"performedPeriod":{"start":"2025-12-07T05:00:00+00:00","end":"2025-12-07T08:15:00+00:00"}},"request":{"method":"PUT","url":"Procedure/33dcb576-08a8-4994-8247-a21665a9d54a"}},{"fullUrl":"https://madie.cms.gov/Procedure/5ce8096db848467c29eaf0d6","resource":{"resourceType":"Procedure","id":"897f7881-8462-4436-ae98-f67c6d1b4cf8","meta":{"profile":["http://hl7.org/fhir/us/qicore/StructureDefinition/qicore-procedure"]},"extension":[{"url":"http://hl7.org/fhir/us/qicore/StructureDefinition/qicore-recorded","valueDateTime":"2012-12-08T09:35:00-04:00"}],"status":"completed","code":{"coding":[{"system":"http://snomed.info/sct","code":"18946005"}]},"subject":{"reference":"Patient/362755f7-cf57-4178-b0c0-a0fc22b376fe"},"performedDateTime":"2025-12-07T05:00:00+00:00"},"request":{"method":"PUT","url":"Procedure/897f7881-8462-4436-ae98-f67c6d1b4cf8"}},{"fullUrl":"https://madie.cms.gov/Location/Location-1","resource":{"resourceType":"Location","id":"4f8647a9-d063-429f-b024-8780451c83ad","meta":{"profile":["http://hl7.org/fhir/us/qicore/StructureDefinition/qicore-location"]},"identifier":[{"use":"usual","system":"http://exampleoflocation.com","value":"B1-S.F2"}],"name":"Medical Surgical East, first floor","type":[{"coding":[{"system":"https://www.cdc.gov/nhsn/cdaportal/terminology/codesystem/hsloc.html","code":"1025-6","display":"Trauma Critical Care","userSelected":true}]}]},"request":{"method":"PUT","url":"Location/4f8647a9-d063-429f-b024-8780451c83ad"}},{"fullUrl":"https://madie.cms.gov/Organization/123456","resource":{"resourceType":"Organization","id":"9e9b3f13-a353-4173-b29b-947d6f1f2031","meta":{"profile":["http://hl7.org/fhir/us/qicore/StructureDefinition/qicore-organization"]},"identifier":[{"use":"temp","system":"urn:oid:2.16.840.1.113883.4.4","value":"21-3259825"}],"active":true,"type":[{"coding":[{"system":"http://terminology.hl7.org/CodeSystem/organization-type","code":"pay","display":"Payer"}]}],"name":"Blue Cross Blue Shield of Texas","telecom":[{"system":"phone","value":"(+1) 972-766-6900"}],"address":[{"use":"billing","type":"postal","line":["P.O. Box 660044"],"city":"Dallas","state":"TX","postalCode":"75266-0044","country":"USA"}]},"request":{"method":"PUT","url":"Organization/9e9b3f13-a353-4173-b29b-947d6f1f2031"}},{"fullUrl":"https://madie.cms.gov/Practitioner/practitioner-123456","resource":{"resourceType":"Practitioner","id":"38656657-4eb7-4b37-8678-ed618e31f084","identifier":[{"system":"http://hl7.org/fhir/sid/us-npi","value":"123456"}],"name":[{"family":"Evil","prefix":["Dr"]}]},"request":{"method":"PUT","url":"Practitioner/38656657-4eb7-4b37-8678-ed618e31f084"}},{"fullUrl":"https://madie.cms.gov/MeasureReport/7b94cfd6-1c17-4b48-82d9-1cfe5456d42c","resource":{"resourceType":"MeasureReport","id":"7b94cfd6-1c17-4b48-82d9-1cfe5456d42c","meta":{"profile":["http://hl7.org/fhir/us/cqfmeasures/StructureDefinition/test-case-cqfm"]},"contained":[{"resourceType":"Parameters","id":"1af8d0d6-f5bf-4483-a64c-f3ad7a2cb534-parameters","parameter":[{"name":"subject","valueString":"362755f7-cf57-4178-b0c0-a0fc22b376fe"}]}],"extension":[{"url":"http://hl7.org/fhir/us/cqfmeasures/StructureDefinition/cqfm-inputParameters","valueReference":{"reference":"#1af8d0d6-f5bf-4483-a64c-f3ad7a2cb534-parameters"}},{"url":"http://hl7.org/fhir/us/cqfmeasures/StructureDefinition/cqfm-testCaseDescription","valueMarkdown":"Oral Factor Xa Inhibitor administered 1 day after neuraxial anesthesia, which is 1 day after ICU start. Hip Fx not principal by using Medication Adm and Procedure performed anesthesia  relevant Datetime\n"}],"modifierExtension":[{"url":"http://hl7.org/fhir/us/cqfmeasures/StructureDefinition/cqfm-isTestCase","valueBoolean":true}],"status":"complete","type":"individual","measure":"https://madie.cms.gov/Measure/IntensiveCareUnitVenousThromboembolismProphylaxisFHIR","period":{"start":"2025-01-01","end":"2025-12-31"},"group":[{"population":[{"code":{"coding":[{"system":"http://terminology.hl7.org/CodeSystem/measure-population","code":"initial-population","display":"Initial Population"}]},"count":1},{"code":{"coding":[{"system":"http://terminology.hl7.org/CodeSystem/measure-population","code":"denominator","display":"Denominator"}]},"count":1},{"code":{"coding":[{"system":"http://terminology.hl7.org/CodeSystem/measure-population","code":"denominator-exclusion","display":"Denominator Exclusion"}]},"count":0},{"code":{"coding":[{"system":"http://terminology.hl7.org/CodeSystem/measure-population","code":"numerator","display":"Numerator"}]},"count":1},{"code":{"coding":[{"system":"http://terminology.hl7.org/CodeSystem/measure-population","code":"denominator-exception","display":"Denominator Exception"}]},"count":0}]}]},"request":{"method":"PUT","url":"MeasureReport/7b94cfd6-1c17-4b48-82d9-1cfe5456d42c"}}]}