{"resourceType":"Bundle","id":"tests-8de031c4-05db-42db-b0e5-902696c6e495-bundle","type":"transaction","entry":[{"fullUrl":"https://madie.cms.gov/Patient/8de031c4-05db-42db-b0e5-902696c6e495","resource":{"resourceType":"Patient","id":"8de031c4-05db-42db-b0e5-902696c6e495","meta":{"profile":["http://hl7.org/fhir/us/qicore/StructureDefinition/qicore-patient"]},"text":{"status":"generated","div":"<div xmlns=\"http://www.w3.org/1999/xhtml\"><div class=\"hapiHeaderText\">CMPerfRvltPerStartDayOfICUEndNULL<b>DENEXPASS </b></div><table class=\"hapiPropertyTable\"><tbody><tr><td>Identifier</td><td>2a65a26f9f7578ed1148174b365eff5a</td></tr><tr><td>Date of birth</td><td><span>03 March 1974</span></td></tr></tbody></table></div>"},"extension":[{"url":"http://hl7.org/fhir/us/core/StructureDefinition/us-core-race","extension":[{"url":"ombCategory","valueCoding":{"system":"urn:oid:2.16.840.1.113883.6.238","code":"1002-5","display":"American Indian or Alaska Native","userSelected":true}},{"url":"text","valueString":"American Indian or Alaska Native"}]},{"url":"http://hl7.org/fhir/us/core/StructureDefinition/us-core-ethnicity","extension":[{"url":"ombCategory","valueCoding":{"system":"urn:oid:2.16.840.1.113883.6.238","code":"2135-2","display":"Hispanic or Latino","userSelected":true}},{"url":"text","valueString":"Hispanic or Latino"}]}],"identifier":[{"type":{"coding":[{"system":"http://terminology.hl7.org/CodeSystem/v2-0203","code":"MR"}]},"system":"https://bonnie-fhir.healthit.gov/","value":"612e6f8b02c62a011f2f239e"}],"active":true,"name":[{"use":"usual","family":"DENEXPass","given":["CMPerfRvltPerStartDayOfICUEndNULL"]}],"gender":"female","birthDate":"1974-03-03"},"request":{"method":"PUT","url":"Patient/8de031c4-05db-42db-b0e5-902696c6e495"}},{"fullUrl":"https://madie.cms.gov/Encounter/5ce80970b848467c29eaf1f8","resource":{"resourceType":"Encounter","id":"ddfc03ed-ee2a-4d2c-abbb-f6535a8fd3ea","meta":{"profile":["http://hl7.org/fhir/us/qicore/StructureDefinition/qicore-encounter"]},"status":"finished","class":{"system":"http://terminology.hl7.org/CodeSystem/v3-ActCode","code":"IMP","display":"inpatient encounter"},"type":[{"coding":[{"system":"http://snomed.info/sct","code":"8715000"}]}],"subject":{"reference":"Patient/8de031c4-05db-42db-b0e5-902696c6e495"},"period":{"start":"2025-12-04T08:00:00+00:00","end":"2025-12-30T08:15:00+00:00"},"length":{"value":26.0,"unit":"days"},"location":[{"location":{"reference":"Location/Location-1"},"period":{"start":"2025-12-06T08:00:00.000+00:00","end":"2025-12-12T08:15:00.000+00:00"}}]},"request":{"method":"PUT","url":"Encounter/ddfc03ed-ee2a-4d2c-abbb-f6535a8fd3ea"}},{"fullUrl":"https://madie.cms.gov/Procedure/5ce80970b848467c29eaf1f9","resource":{"resourceType":"Procedure","id":"3646a1a9-d583-4011-9d5b-56370afd0d0d","meta":{"profile":["http://hl7.org/fhir/us/qicore/StructureDefinition/qicore-procedure"]},"extension":[{"url":"http://hl7.org/fhir/us/qicore/StructureDefinition/qicore-recorded","valueDateTime":"2012-12-07T09:35:00-04:00"}],"status":"completed","code":{"coding":[{"system":"http://snomed.info/sct","code":"133918004","display":"Comfort measures (regime/therapy)"}]},"subject":{"reference":"Patient/8de031c4-05db-42db-b0e5-902696c6e495"},"performedPeriod":{"start":"2025-12-06T09:00:00.000+00:00"}},"request":{"method":"PUT","url":"Procedure/3646a1a9-d583-4011-9d5b-56370afd0d0d"}},{"fullUrl":"https://madie.cms.gov/Coverage/5fa040ef1c76ba66d9958f34","resource":{"resourceType":"Coverage","id":"2acf9690-a5f4-4046-b5a7-fadf73c26fa8","status":"active","beneficiary":{"reference":"Patient/8de031c4-05db-42db-b0e5-902696c6e495"},"period":{"start":"1974-03-03T08:00:00+00:00"},"payor":[{"reference":"Organization/5224cb12-ed64-4d6d-ab28-40a64f0800f1"}]},"request":{"method":"PUT","url":"Coverage/2acf9690-a5f4-4046-b5a7-fadf73c26fa8"}},{"fullUrl":"https://madie.cms.gov/Location/Location-1","resource":{"resourceType":"Location","id":"bb4d401d-45a3-4175-8195-8dfbefb5bf3a","meta":{"profile":["http://hl7.org/fhir/us/qicore/StructureDefinition/qicore-location"]},"identifier":[{"use":"usual","system":"http://exampleoflocation.com","value":"B1-S.F2"}],"name":"Medical Surgical East, first floor","type":[{"coding":[{"system":"https://www.cdc.gov/nhsn/cdaportal/terminology/codesystem/hsloc.html","code":"1025-6","display":"Trauma Critical Care","userSelected":true}]}]},"request":{"method":"PUT","url":"Location/bb4d401d-45a3-4175-8195-8dfbefb5bf3a"}},{"fullUrl":"https://madie.cms.gov/Organization/123456","resource":{"resourceType":"Organization","id":"5224cb12-ed64-4d6d-ab28-40a64f0800f1","meta":{"profile":["http://hl7.org/fhir/us/qicore/StructureDefinition/qicore-organization"]},"identifier":[{"use":"temp","system":"urn:oid:2.16.840.1.113883.4.4","value":"21-3259825"}],"active":true,"type":[{"coding":[{"system":"http://terminology.hl7.org/CodeSystem/organization-type","code":"pay","display":"Payer"}]}],"name":"Blue Cross Blue Shield of Texas","telecom":[{"system":"phone","value":"(+1) 972-766-6900"}],"address":[{"use":"billing","type":"postal","line":["P.O. Box 660044"],"city":"Dallas","state":"TX","postalCode":"75266-0044","country":"USA"}]},"request":{"method":"PUT","url":"Organization/5224cb12-ed64-4d6d-ab28-40a64f0800f1"}},{"fullUrl":"https://madie.cms.gov/Practitioner/practitioner-123456","resource":{"resourceType":"Practitioner","id":"62076c2f-95eb-43d4-a1b3-8c05f6c95013","identifier":[{"system":"http://hl7.org/fhir/sid/us-npi","value":"123456"}],"name":[{"family":"Evil","prefix":["Dr"]}]},"request":{"method":"PUT","url":"Practitioner/62076c2f-95eb-43d4-a1b3-8c05f6c95013"}},{"fullUrl":"https://madie.cms.gov/MeasureReport/89b69a41-d4dd-49ac-be2b-a1b3763741f9","resource":{"resourceType":"MeasureReport","id":"89b69a41-d4dd-49ac-be2b-a1b3763741f9","meta":{"profile":["http://hl7.org/fhir/us/cqfmeasures/StructureDefinition/test-case-cqfm"]},"contained":[{"resourceType":"Parameters","id":"73e5b806-dcca-44ad-82ae-972d06f4d8da-parameters","parameter":[{"name":"subject","valueString":"8de031c4-05db-42db-b0e5-902696c6e495"}]}],"extension":[{"url":"http://hl7.org/fhir/us/cqfmeasures/StructureDefinition/cqfm-inputParameters","valueReference":{"reference":"#73e5b806-dcca-44ad-82ae-972d06f4d8da-parameters"}},{"url":"http://hl7.org/fhir/us/cqfmeasures/StructureDefinition/cqfm-testCaseDescription","valueMarkdown":"comfort measures Intervention Performed relevant period start time on day of ICU but and ends is null. The case passes\n"}],"modifierExtension":[{"url":"http://hl7.org/fhir/us/cqfmeasures/StructureDefinition/cqfm-isTestCase","valueBoolean":true}],"status":"complete","type":"individual","measure":"https://madie.cms.gov/Measure/IntensiveCareUnitVenousThromboembolismProphylaxisFHIR","period":{"start":"2025-01-01","end":"2025-12-31"},"group":[{"population":[{"code":{"coding":[{"system":"http://terminology.hl7.org/CodeSystem/measure-population","code":"initial-population","display":"Initial Population"}]},"count":1},{"code":{"coding":[{"system":"http://terminology.hl7.org/CodeSystem/measure-population","code":"denominator","display":"Denominator"}]},"count":1},{"code":{"coding":[{"system":"http://terminology.hl7.org/CodeSystem/measure-population","code":"denominator-exclusion","display":"Denominator Exclusion"}]},"count":1},{"code":{"coding":[{"system":"http://terminology.hl7.org/CodeSystem/measure-population","code":"numerator","display":"Numerator"}]},"count":0},{"code":{"coding":[{"system":"http://terminology.hl7.org/CodeSystem/measure-population","code":"denominator-exception","display":"Denominator Exception"}]},"count":0}]}]},"request":{"method":"PUT","url":"MeasureReport/89b69a41-d4dd-49ac-be2b-a1b3763741f9"}}]}