{"resourceType":"Bundle","id":"tests-52586dcc-cfef-46c3-988c-75e6c25dea03-bundle","type":"transaction","entry":[{"fullUrl":"https://madie.cms.gov/Patient/52586dcc-cfef-46c3-988c-75e6c25dea03","resource":{"resourceType":"Patient","id":"52586dcc-cfef-46c3-988c-75e6c25dea03","meta":{"profile":["http://hl7.org/fhir/us/qicore/StructureDefinition/qicore-patient"]},"text":{"status":"generated","div":"<div xmlns=\"http://www.w3.org/1999/xhtml\"><div class=\"hapiHeaderText\">INR4DayOfICU <b>NUMERPASS </b></div><table class=\"hapiPropertyTable\"><tbody><tr><td>Identifier</td><td>fca47da882d926b4d35fe7546e16b627</td></tr><tr><td>Date of birth</td><td><span>03 March 1974</span></td></tr></tbody></table></div>"},"extension":[{"url":"http://hl7.org/fhir/us/core/StructureDefinition/us-core-race","extension":[{"url":"ombCategory","valueCoding":{"system":"urn:oid:2.16.840.1.113883.6.238","code":"1002-5","display":"American Indian or Alaska Native","userSelected":true}},{"url":"text","valueString":"American Indian or Alaska Native"}]},{"url":"http://hl7.org/fhir/us/core/StructureDefinition/us-core-ethnicity","extension":[{"url":"ombCategory","valueCoding":{"system":"urn:oid:2.16.840.1.113883.6.238","code":"2135-2","display":"Hispanic or Latino","userSelected":true}},{"url":"text","valueString":"Hispanic or Latino"}]}],"identifier":[{"type":{"coding":[{"system":"http://terminology.hl7.org/CodeSystem/v2-0203","code":"MR"}]},"system":"https://bonnie-fhir.healthit.gov/","value":"612e6eea02c62a011f2f0095"}],"active":true,"name":[{"use":"usual","family":"NUMERPass","given":["INR4DayOfICU"]}],"gender":"female","birthDate":"1974-03-03"},"request":{"method":"PUT","url":"Patient/52586dcc-cfef-46c3-988c-75e6c25dea03"}},{"fullUrl":"https://madie.cms.gov/Encounter/5ce8096eb848467c29eaf123","resource":{"resourceType":"Encounter","id":"d174cbdf-4055-4436-857c-1bdcf6130e02","meta":{"profile":["http://hl7.org/fhir/us/qicore/StructureDefinition/qicore-encounter"]},"status":"finished","class":{"system":"http://terminology.hl7.org/CodeSystem/v3-ActCode","code":"IMP","display":"inpatient encounter"},"type":[{"coding":[{"system":"http://snomed.info/sct","code":"8715000"}]}],"subject":{"reference":"Patient/52586dcc-cfef-46c3-988c-75e6c25dea03"},"period":{"start":"2025-12-04T08:00:00+00:00","end":"2025-12-30T08:15:00+00:00"},"length":{"value":26.0,"unit":"days"},"location":[{"location":{"reference":"Location/intensive-care-unit-6442"},"period":{"start":"2025-12-06T09:00:00+00:00","end":"2025-12-12T08:15:00+00:00"}}]},"request":{"method":"PUT","url":"Encounter/d174cbdf-4055-4436-857c-1bdcf6130e02"}},{"fullUrl":"https://madie.cms.gov/Coverage/5fa040f61c76ba66d9958fbb","resource":{"resourceType":"Coverage","id":"eabe5629-0c3a-4875-93ff-93ecdef983b3","status":"active","beneficiary":{"reference":"Patient/52586dcc-cfef-46c3-988c-75e6c25dea03"},"period":{"start":"1974-03-03T08:00:00+00:00"},"payor":[{"reference":"Organization/41c75c00-82d9-4ab2-98f6-cfaf7fc3381d"}]},"request":{"method":"PUT","url":"Coverage/eabe5629-0c3a-4875-93ff-93ecdef983b3"}},{"fullUrl":"https://madie.cms.gov/Observation/5ce8096eb848467c29eaf124","resource":{"resourceType":"Observation","id":"58d9ac62-13d7-4743-a238-d459b385746c","meta":{"profile":["http://hl7.org/fhir/us/core/StructureDefinition/us-core-observation-lab"]},"status":"final","category":[{"coding":[{"system":"http://terminology.hl7.org/CodeSystem/observation-category","code":"laboratory","display":"Laboratory"}]}],"code":{"coding":[{"system":"http://loinc.org","code":"34714-6"}]},"subject":{"reference":"Patient/52586dcc-cfef-46c3-988c-75e6c25dea03"},"issued":"2025-12-06T11:30:00+00:00","valueQuantity":{"value":4.0,"unit":"{INR}"}},"request":{"method":"PUT","url":"Observation/58d9ac62-13d7-4743-a238-d459b385746c"}},{"fullUrl":"https://madie.cms.gov/Location/intensive-care-unit-6442","resource":{"resourceType":"Location","id":"0ab6c7ff-0525-455e-8cdc-53b3fd38c03c","meta":{"profile":["http://hl7.org/fhir/us/qicore/StructureDefinition/qicore-location"]},"identifier":[{"use":"usual","system":"http://exampleoflocation.com","value":"B1-S.F2"}],"name":"Medical Surgical East, first floor","type":[{"coding":[{"system":"https://www.cdc.gov/nhsn/cdaportal/terminology/codesystem/hsloc.html","code":"1025-6","display":"Trauma Critical Care","userSelected":true}]}]},"request":{"method":"PUT","url":"Location/0ab6c7ff-0525-455e-8cdc-53b3fd38c03c"}},{"fullUrl":"https://madie.cms.gov/Organization/123456","resource":{"resourceType":"Organization","id":"41c75c00-82d9-4ab2-98f6-cfaf7fc3381d","meta":{"profile":["http://hl7.org/fhir/us/qicore/StructureDefinition/qicore-organization"]},"identifier":[{"use":"temp","system":"urn:oid:2.16.840.1.113883.4.4","value":"21-3259825"}],"active":true,"type":[{"coding":[{"system":"http://terminology.hl7.org/CodeSystem/organization-type","code":"pay","display":"Payer"}]}],"name":"Blue Cross Blue Shield of Texas","telecom":[{"system":"phone","value":"(+1) 972-766-6900"}],"address":[{"use":"billing","type":"postal","line":["P.O. Box 660044"],"city":"Dallas","state":"TX","postalCode":"75266-0044","country":"USA"}]},"request":{"method":"PUT","url":"Organization/41c75c00-82d9-4ab2-98f6-cfaf7fc3381d"}},{"fullUrl":"https://madie.cms.gov/Practitioner/practitioner-123456","resource":{"resourceType":"Practitioner","id":"9f4d091c-9fcf-403b-b94a-309d1434b504","identifier":[{"system":"http://hl7.org/fhir/sid/us-npi","value":"123456"}],"name":[{"family":"Evil","prefix":["Dr"]}]},"request":{"method":"PUT","url":"Practitioner/9f4d091c-9fcf-403b-b94a-309d1434b504"}},{"fullUrl":"https://madie.cms.gov/MeasureReport/e7714606-a5be-4f77-88f6-e9e6f00c92d0","resource":{"resourceType":"MeasureReport","id":"e7714606-a5be-4f77-88f6-e9e6f00c92d0","meta":{"profile":["http://hl7.org/fhir/us/cqfmeasures/StructureDefinition/test-case-cqfm"]},"contained":[{"resourceType":"Parameters","id":"8b7aa28f-2088-47b5-97e2-38c5e003d1d9-parameters","parameter":[{"name":"subject","valueString":"52586dcc-cfef-46c3-988c-75e6c25dea03"}]}],"extension":[{"url":"http://hl7.org/fhir/us/cqfmeasures/StructureDefinition/cqfm-inputParameters","valueReference":{"reference":"#8b7aa28f-2088-47b5-97e2-38c5e003d1d9-parameters"}},{"url":"http://hl7.org/fhir/us/cqfmeasures/StructureDefinition/cqfm-testCaseDescription","valueMarkdown":"meets IPP, meets Denominator, INR>3 starts after start ICU\n"}],"modifierExtension":[{"url":"http://hl7.org/fhir/us/cqfmeasures/StructureDefinition/cqfm-isTestCase","valueBoolean":true}],"status":"complete","type":"individual","measure":"https://madie.cms.gov/Measure/IntensiveCareUnitVenousThromboembolismProphylaxisFHIR","period":{"start":"2025-01-01","end":"2025-12-31"},"group":[{"population":[{"code":{"coding":[{"system":"http://terminology.hl7.org/CodeSystem/measure-population","code":"initial-population","display":"Initial Population"}]},"count":1},{"code":{"coding":[{"system":"http://terminology.hl7.org/CodeSystem/measure-population","code":"denominator","display":"Denominator"}]},"count":1},{"code":{"coding":[{"system":"http://terminology.hl7.org/CodeSystem/measure-population","code":"denominator-exclusion","display":"Denominator Exclusion"}]},"count":0},{"code":{"coding":[{"system":"http://terminology.hl7.org/CodeSystem/measure-population","code":"numerator","display":"Numerator"}]},"count":1},{"code":{"coding":[{"system":"http://terminology.hl7.org/CodeSystem/measure-population","code":"denominator-exception","display":"Denominator Exception"}]},"count":0}]}]},"request":{"method":"PUT","url":"MeasureReport/e7714606-a5be-4f77-88f6-e9e6f00c92d0"}}]}