{"resourceType":"Bundle","id":"tests-67df96df-45ff-4387-bc4d-04055a95483f-bundle","type":"transaction","entry":[{"fullUrl":"https://madie.cms.gov/Patient/67df96df-45ff-4387-bc4d-04055a95483f","resource":{"resourceType":"Patient","id":"67df96df-45ff-4387-bc4d-04055a95483f","meta":{"profile":["http://hl7.org/fhir/us/qicore/StructureDefinition/qicore-patient"]},"text":{"status":"generated","div":"<div xmlns=\"http://www.w3.org/1999/xhtml\"><div class=\"hapiHeaderText\">TestMultipleOccur1inDen1inNum <b>NUMERPASS </b></div><table class=\"hapiPropertyTable\"><tbody><tr><td>Identifier</td><td>9a2b10a8b5b2082e23f2748100ecbdeaeee7f4e84632ea8fa273e55b42847316</td></tr><tr><td>Date of birth</td><td><span>03 March 1974</span></td></tr></tbody></table></div>"},"extension":[{"url":"http://hl7.org/fhir/us/core/StructureDefinition/us-core-race","extension":[{"url":"ombCategory","valueCoding":{"system":"urn:oid:2.16.840.1.113883.6.238","code":"1002-5","display":"American Indian or Alaska Native","userSelected":true}},{"url":"text","valueString":"American Indian or Alaska Native"}]},{"url":"http://hl7.org/fhir/us/core/StructureDefinition/us-core-ethnicity","extension":[{"url":"ombCategory","valueCoding":{"system":"urn:oid:2.16.840.1.113883.6.238","code":"2135-2","display":"Hispanic or Latino","userSelected":true}},{"url":"text","valueString":"Hispanic or Latino"}]}],"identifier":[{"type":{"coding":[{"system":"http://terminology.hl7.org/CodeSystem/v2-0203","code":"MR"}]},"system":"https://bonnie-fhir.healthit.gov/","value":"612e6f6d02c62a011f2f1cad"}],"active":true,"name":[{"use":"usual","family":"NUMERPass","given":["TestMultipleOccur1inDen1inNum"]}],"gender":"female","birthDate":"1974-03-03"},"request":{"method":"PUT","url":"Patient/67df96df-45ff-4387-bc4d-04055a95483f"}},{"fullUrl":"https://madie.cms.gov/Encounter/5ce80971b848467c29eaf2bd","resource":{"resourceType":"Encounter","id":"478fda29-3c0b-4d11-83a5-dcac0e4aa995","meta":{"profile":["http://hl7.org/fhir/us/qicore/StructureDefinition/qicore-encounter"]},"status":"finished","class":{"system":"http://terminology.hl7.org/CodeSystem/v3-ActCode","code":"IMP","display":"inpatient encounter"},"type":[{"coding":[{"system":"http://snomed.info/sct","code":"183452005"}]}],"subject":{"reference":"Patient/67df96df-45ff-4387-bc4d-04055a95483f"},"period":{"start":"2025-03-22T08:00:00+00:00","end":"2025-03-22T08:15:00+00:00"},"length":{"value":0.0,"unit":"days"}},"request":{"method":"PUT","url":"Encounter/478fda29-3c0b-4d11-83a5-dcac0e4aa995"}},{"fullUrl":"https://madie.cms.gov/Encounter/5ce80971b848467c29eaf2be","resource":{"resourceType":"Encounter","id":"96453d3b-5a90-4bc7-a64e-4aaf7aa5ec16","meta":{"profile":["http://hl7.org/fhir/us/qicore/StructureDefinition/qicore-encounter"]},"status":"finished","class":{"system":"http://terminology.hl7.org/CodeSystem/v3-ActCode","code":"EMER","display":"emergency"},"type":[{"coding":[{"system":"http://snomed.info/sct","code":"4525004"}]}],"subject":{"reference":"Patient/67df96df-45ff-4387-bc4d-04055a95483f"},"period":{"start":"2025-12-06T02:00:00+00:00","end":"2025-12-06T08:15:00+00:00"},"length":{"value":0.0,"unit":"days"}},"request":{"method":"PUT","url":"Encounter/96453d3b-5a90-4bc7-a64e-4aaf7aa5ec16"}},{"fullUrl":"https://madie.cms.gov/Encounter/5ce80971b848467c29eaf2bf","resource":{"resourceType":"Encounter","id":"749ef3f6-ea69-4485-a4f4-ea103780e2c0","meta":{"profile":["http://hl7.org/fhir/us/qicore/StructureDefinition/qicore-encounter"]},"status":"finished","class":{"system":"http://terminology.hl7.org/CodeSystem/v3-ActCode","code":"IMP","display":"inpatient encounter"},"type":[{"coding":[{"system":"http://snomed.info/sct","code":"8715000"}]}],"subject":{"reference":"Patient/67df96df-45ff-4387-bc4d-04055a95483f"},"period":{"start":"2025-12-06T08:45:00+00:00","end":"2025-12-30T08:15:00+00:00"},"length":{"value":24.0,"unit":"days"},"location":[{"location":{"reference":"Location/intensive-care-unit-0f90"},"period":{"start":"2025-12-06T09:00:00.000+00:00","end":"2025-12-12T08:15:00.000+00:00"}}]},"request":{"method":"PUT","url":"Encounter/749ef3f6-ea69-4485-a4f4-ea103780e2c0"}},{"fullUrl":"https://madie.cms.gov/Coverage/5fa041081c76ba66d9959108","resource":{"resourceType":"Coverage","id":"0c57028a-b3f8-46a9-8226-2f0f84313eb6","status":"active","beneficiary":{"reference":"Patient/67df96df-45ff-4387-bc4d-04055a95483f"},"period":{"start":"1974-03-03T08:00:00+00:00"},"payor":[{"reference":"Organization/42846cc3-1db0-4bf7-b9ff-8b81fa6e835d"}]},"request":{"method":"PUT","url":"Coverage/0c57028a-b3f8-46a9-8226-2f0f84313eb6"}},{"fullUrl":"https://madie.cms.gov/MedicationAdministration/5ce80971b848467c29eaf2c0","resource":{"resourceType":"MedicationAdministration","id":"4baf3a00-0650-4883-93c7-59ed81d7a4f2","meta":{"profile":["http://hl7.org/fhir/us/qicore/StructureDefinition/qicore-medicationadministration"]},"status":"completed","medicationCodeableConcept":{"coding":[{"system":"http://www.nlm.nih.gov/research/umls/rxnorm","code":"308351"}]},"subject":{"reference":"Patient/67df96df-45ff-4387-bc4d-04055a95483f"},"effectivePeriod":{"start":"2025-12-06T06:30:00+00:00"}},"request":{"method":"PUT","url":"MedicationAdministration/4baf3a00-0650-4883-93c7-59ed81d7a4f2"}},{"fullUrl":"https://madie.cms.gov/Location/intensive-care-unit-0f90","resource":{"resourceType":"Location","id":"12a82e2d-6e86-4e7d-9c0d-30887c7e2bd8","meta":{"profile":["http://hl7.org/fhir/us/qicore/StructureDefinition/qicore-location"]},"identifier":[{"use":"usual","system":"http://exampleoflocation.com","value":"B1-S.F2"}],"name":"Medical Surgical East, first floor","type":[{"coding":[{"system":"https://www.cdc.gov/nhsn/cdaportal/terminology/codesystem/hsloc.html","code":"1025-6","display":"Trauma Critical Care","userSelected":true}]}]},"request":{"method":"PUT","url":"Location/12a82e2d-6e86-4e7d-9c0d-30887c7e2bd8"}},{"fullUrl":"https://madie.cms.gov/Organization/123456","resource":{"resourceType":"Organization","id":"42846cc3-1db0-4bf7-b9ff-8b81fa6e835d","meta":{"profile":["http://hl7.org/fhir/us/qicore/StructureDefinition/qicore-organization"]},"identifier":[{"use":"temp","system":"urn:oid:2.16.840.1.113883.4.4","value":"21-3259825"}],"active":true,"type":[{"coding":[{"system":"http://terminology.hl7.org/CodeSystem/organization-type","code":"pay","display":"Payer"}]}],"name":"Blue Cross Blue Shield of Texas","telecom":[{"system":"phone","value":"(+1) 972-766-6900"}],"address":[{"use":"billing","type":"postal","line":["P.O. Box 660044"],"city":"Dallas","state":"TX","postalCode":"75266-0044","country":"USA"}]},"request":{"method":"PUT","url":"Organization/42846cc3-1db0-4bf7-b9ff-8b81fa6e835d"}},{"fullUrl":"https://madie.cms.gov/Practitioner/practitioner-123456","resource":{"resourceType":"Practitioner","id":"f629b409-ebb9-4c9d-a67b-1ceadfcc3bca","identifier":[{"system":"http://hl7.org/fhir/sid/us-npi","value":"123456"}],"name":[{"family":"Evil","prefix":["Dr"]}]},"request":{"method":"PUT","url":"Practitioner/f629b409-ebb9-4c9d-a67b-1ceadfcc3bca"}},{"fullUrl":"https://madie.cms.gov/MeasureReport/490fbef9-1e27-4916-9eba-942b15b3fb8e","resource":{"resourceType":"MeasureReport","id":"490fbef9-1e27-4916-9eba-942b15b3fb8e","meta":{"profile":["http://hl7.org/fhir/us/cqfmeasures/StructureDefinition/test-case-cqfm"]},"contained":[{"resourceType":"Parameters","id":"3dca67b4-0c9e-4312-b0fa-474d60949e52-parameters","parameter":[{"name":"subject","valueString":"67df96df-45ff-4387-bc4d-04055a95483f"}]}],"extension":[{"url":"http://hl7.org/fhir/us/cqfmeasures/StructureDefinition/cqfm-inputParameters","valueReference":{"reference":"#3dca67b4-0c9e-4312-b0fa-474d60949e52-parameters"}},{"url":"http://hl7.org/fhir/us/cqfmeasures/StructureDefinition/cqfm-testCaseDescription","valueMarkdown":" Patient has 2 encounters, first encounter has NO ICU, but second encounter  meets IPP, meets Denominator, medication administered:Thrombin during ED, ED endTime less than 1 hour before Start of ICU\n"}],"modifierExtension":[{"url":"http://hl7.org/fhir/us/cqfmeasures/StructureDefinition/cqfm-isTestCase","valueBoolean":true}],"status":"complete","type":"individual","measure":"https://madie.cms.gov/Measure/IntensiveCareUnitVenousThromboembolismProphylaxisFHIR","period":{"start":"2025-01-01","end":"2025-12-31"},"group":[{"population":[{"code":{"coding":[{"system":"http://terminology.hl7.org/CodeSystem/measure-population","code":"initial-population","display":"Initial Population"}]},"count":2},{"code":{"coding":[{"system":"http://terminology.hl7.org/CodeSystem/measure-population","code":"denominator","display":"Denominator"}]},"count":1},{"code":{"coding":[{"system":"http://terminology.hl7.org/CodeSystem/measure-population","code":"denominator-exclusion","display":"Denominator Exclusion"}]},"count":0},{"code":{"coding":[{"system":"http://terminology.hl7.org/CodeSystem/measure-population","code":"numerator","display":"Numerator"}]},"count":1},{"code":{"coding":[{"system":"http://terminology.hl7.org/CodeSystem/measure-population","code":"denominator-exception","display":"Denominator Exception"}]},"count":0}]}]},"request":{"method":"PUT","url":"MeasureReport/490fbef9-1e27-4916-9eba-942b15b3fb8e"}}]}