{"resourceType":"Bundle","id":"tests-f556e7de-9a74-4ea8-8a25-ca7ab8b97ef3-bundle","type":"transaction","entry":[{"fullUrl":"https://madie.cms.gov/Patient/f556e7de-9a74-4ea8-8a25-ca7ab8b97ef3","resource":{"resourceType":"Patient","id":"f556e7de-9a74-4ea8-8a25-ca7ab8b97ef3","meta":{"profile":["http://hl7.org/fhir/us/qicore/StructureDefinition/qicore-patient"]},"text":{"status":"generated","div":"<div xmlns=\"http://www.w3.org/1999/xhtml\"><div class=\"hapiHeaderText\">AssPrfDELRsltDtTime_EQIPStartPlus1Min <b>DENOMPASS </b></div><table class=\"hapiPropertyTable\"><tbody><tr><td>Date of birth</td><td><span>01 February 2004</span></td></tr></tbody></table></div>"},"extension":[{"url":"http://hl7.org/fhir/us/core/StructureDefinition/us-core-race","extension":[{"url":"ombCategory","valueCoding":{"system":"urn:oid:2.16.840.1.113883.6.238","code":"1002-5","display":"American Indian or Alaska Native","userSelected":true}},{"url":"text","valueString":"American Indian or Alaska Native"}]},{"url":"http://hl7.org/fhir/us/core/StructureDefinition/us-core-ethnicity","extension":[{"url":"ombCategory","valueCoding":{"system":"urn:oid:2.16.840.1.113883.6.238","code":"2135-2","display":"Hispanic or Latino","userSelected":true}},{"url":"text","valueString":"Hispanic or Latino"}]}],"identifier":[{"type":{"coding":[{"system":"http://terminology.hl7.org/CodeSystem/v2-0203","code":"MR"}]},"system":"https://bonnie-fhir.healthit.gov/","value":"633b3f9e0968f80122503ccf"}],"active":true,"name":[{"use":"usual","family":"DENOMPass","given":["AssPrfDELRsltDtTime_EQIPStartPlus1Min"]}],"gender":"female","birthDate":"2004-02-01"},"request":{"method":"PUT","url":"Patient/f556e7de-9a74-4ea8-8a25-ca7ab8b97ef3"}},{"fullUrl":"https://madie.cms.gov/Observation/83ed61a5-3bc7-4466-a21a-716cddc0a273","resource":{"resourceType":"Observation","id":"83ed61a5-3bc7-4466-a21a-716cddc0a273","meta":{"profile":["http://hl7.org/fhir/us/qicore/StructureDefinition/qicore-observation"]},"status":"final","category":[{"coding":[{"system":"http://terminology.hl7.org/CodeSystem/observation-category","code":"exam","display":"Exam","userSelected":true}]}],"code":{"coding":[{"system":"http://loinc.org","code":"93857-1"}]},"subject":{"reference":"Patient/f556e7de-9a74-4ea8-8a25-ca7ab8b97ef3"},"effectiveDateTime":"2025-02-01T08:01:00.000+00:00","valueDateTime":"2025-02-01T08:01:00+00:00"},"request":{"method":"PUT","url":"Observation/83ed61a5-3bc7-4466-a21a-716cddc0a273"}},{"fullUrl":"https://madie.cms.gov/Observation/7fa6ad63-c53d-4a22-b04b-733e94e01572","resource":{"resourceType":"Observation","id":"7fa6ad63-c53d-4a22-b04b-733e94e01572","meta":{"profile":["http://hl7.org/fhir/us/qicore/StructureDefinition/qicore-observation"]},"status":"final","category":[{"coding":[{"system":"http://terminology.hl7.org/CodeSystem/observation-category","code":"exam","display":"Exam","userSelected":true}]}],"code":{"coding":[{"system":"http://loinc.org","code":"11778-8"}]},"subject":{"reference":"Patient/f556e7de-9a74-4ea8-8a25-ca7ab8b97ef3"},"effectiveDateTime":"2025-02-01T08:00:00.000+00:00","valueDateTime":"2025-02-01T08:00:00.000+00:00"},"request":{"method":"PUT","url":"Observation/7fa6ad63-c53d-4a22-b04b-733e94e01572"}},{"fullUrl":"https://madie.cms.gov/Encounter/f0fbee12-1327-448b-b65a-a8353b0fc299","resource":{"resourceType":"Encounter","id":"f0fbee12-1327-448b-b65a-a8353b0fc299","meta":{"profile":["http://hl7.org/fhir/us/qicore/StructureDefinition/qicore-encounter"]},"status":"finished","class":{"system":"http://terminology.hl7.org/CodeSystem/v3-ActCode","code":"IMP","display":"inpatient encounter"},"type":[{"coding":[{"system":"http://snomed.info/sct","code":"183452005"}]}],"subject":{"reference":"Patient/f556e7de-9a74-4ea8-8a25-ca7ab8b97ef3"},"period":{"start":"2025-02-01T08:00:00.000Z","end":"2025-02-05T08:15:00.000Z"}},"request":{"method":"PUT","url":"Encounter/f0fbee12-1327-448b-b65a-a8353b0fc299"}},{"fullUrl":"https://madie.cms.gov/Procedure/cdee0440-8797-4b53-a408-cc2780d8171b","resource":{"resourceType":"Procedure","id":"cdee0440-8797-4b53-a408-cc2780d8171b","meta":{"profile":["http://hl7.org/fhir/us/qicore/StructureDefinition/qicore-procedure"]},"extension":[{"url":"http://hl7.org/fhir/us/qicore/StructureDefinition/qicore-recorded","valueDateTime":"2013-04-05T09:35:00-04:00"}],"status":"completed","code":{"coding":[{"system":"http://snomed.info/sct","code":"10745001"}]},"subject":{"reference":"Patient/f556e7de-9a74-4ea8-8a25-ca7ab8b97ef3"},"performedPeriod":{"start":"2025-02-01T08:00:00.000Z","end":"2025-02-05T08:15:00.000Z"}},"request":{"method":"PUT","url":"Procedure/cdee0440-8797-4b53-a408-cc2780d8171b"}},{"fullUrl":"https://madie.cms.gov/Coverage/d5ee5a81-c739-41c5-a706-95812a84dd4c","resource":{"resourceType":"Coverage","id":"d5ee5a81-c739-41c5-a706-95812a84dd4c","meta":{"profile":["http://hl7.org/fhir/us/qicore/StructureDefinition/qicore-coverage"]},"status":"active","beneficiary":{"reference":"Patient/f556e7de-9a74-4ea8-8a25-ca7ab8b97ef3"},"payor":[{"reference":"Organization/db141f66-a1cc-407b-9e95-adac27adee14"}]},"request":{"method":"PUT","url":"Coverage/d5ee5a81-c739-41c5-a706-95812a84dd4c"}},{"fullUrl":"https://madie.cms.gov/Organization/f16d4848-d9f8-4285-a4e8-4125f2a0ba33","resource":{"resourceType":"Organization","id":"db141f66-a1cc-407b-9e95-adac27adee14","meta":{"profile":["http://hl7.org/fhir/us/qicore/StructureDefinition/qicore-organization"]},"identifier":[{"use":"temp","system":"urn:oid:2.16.840.1.113883.4.4","value":"21-3259825"}],"active":true,"type":[{"coding":[{"system":"http://terminology.hl7.org/CodeSystem/organization-type","code":"pay","display":"Payer"}]}],"name":"Blue Cross Blue Shield of Texas","telecom":[{"system":"phone","value":"(+1) 972-766-6900"}],"address":[{"use":"billing","type":"postal","line":["P.O. Box 660044"],"city":"Dallas","state":"TX","postalCode":"75266-0044","country":"USA"}]},"request":{"method":"PUT","url":"Organization/db141f66-a1cc-407b-9e95-adac27adee14"}},{"fullUrl":"https://madie.cms.gov/Practitioner/0e7936d8-9736-4a54-9143-22c6b7fd3f4e","resource":{"resourceType":"Practitioner","id":"0e7936d8-9736-4a54-9143-22c6b7fd3f4e","identifier":[{"system":"http://hl7.org/fhir/sid/us-npi","value":"123456"}],"name":[{"family":"Evil","prefix":["Dr"]}]},"request":{"method":"PUT","url":"Practitioner/0e7936d8-9736-4a54-9143-22c6b7fd3f4e"}},{"fullUrl":"https://madie.cms.gov/MeasureReport/907996f6-6b62-4344-bbcb-090e71de3c89","resource":{"resourceType":"MeasureReport","id":"907996f6-6b62-4344-bbcb-090e71de3c89","meta":{"profile":["http://hl7.org/fhir/us/cqfmeasures/StructureDefinition/test-case-cqfm"]},"contained":[{"resourceType":"Parameters","id":"cae13a4f-0dc6-4bdc-9f46-f38275cb5ba9-parameters","parameter":[{"name":"subject","valueString":"f556e7de-9a74-4ea8-8a25-ca7ab8b97ef3"}]}],"extension":[{"url":"http://hl7.org/fhir/us/cqfmeasures/StructureDefinition/cqfm-inputParameters","valueReference":{"reference":"#cae13a4f-0dc6-4bdc-9f46-f38275cb5ba9-parameters"}},{"url":"http://hl7.org/fhir/us/cqfmeasures/StructureDefinition/cqfm-testCaseDescription","valueMarkdown":"\"Result date/Time of delivery (based on assessment performed) is equal to encounter start plus one minute\n.\"\n"}],"modifierExtension":[{"url":"http://hl7.org/fhir/us/cqfmeasures/StructureDefinition/cqfm-isTestCase","valueBoolean":true}],"status":"complete","type":"individual","measure":"https://madie.cms.gov/Measure/CMS1028FHIRPCSevereOBComps","period":{"start":"2025-01-01","end":"2025-12-31"},"group":[{"population":[{"code":{"coding":[{"system":"http://terminology.hl7.org/CodeSystem/measure-population","code":"initial-population","display":"Initial Population"}]},"count":1},{"code":{"coding":[{"system":"http://terminology.hl7.org/CodeSystem/measure-population","code":"denominator","display":"Denominator"}]},"count":1},{"code":{"coding":[{"system":"http://terminology.hl7.org/CodeSystem/measure-population","code":"numerator","display":"Numerator"}]},"count":0},{"code":{"coding":[{"system":"http://terminology.hl7.org/CodeSystem/measure-population","code":"numerator-exclusion","display":"Numerator Exclusion"}]},"count":0}]},{"population":[{"code":{"coding":[{"system":"http://terminology.hl7.org/CodeSystem/measure-population","code":"initial-population","display":"Initial Population"}]},"count":1},{"code":{"coding":[{"system":"http://terminology.hl7.org/CodeSystem/measure-population","code":"denominator","display":"Denominator"}]},"count":1},{"code":{"coding":[{"system":"http://terminology.hl7.org/CodeSystem/measure-population","code":"numerator","display":"Numerator"}]},"count":0},{"code":{"coding":[{"system":"http://terminology.hl7.org/CodeSystem/measure-population","code":"numerator-exclusion","display":"Numerator Exclusion"}]},"count":0}]}]},"request":{"method":"PUT","url":"MeasureReport/907996f6-6b62-4344-bbcb-090e71de3c89"}}]}