{"resourceType":"Bundle","id":"tests-255bb207-c5b4-470f-8b40-bca6506cc159-bundle","type":"transaction","entry":[{"fullUrl":"https://madie.cms.gov/Patient/255bb207-c5b4-470f-8b40-bca6506cc159","resource":{"resourceType":"Patient","id":"255bb207-c5b4-470f-8b40-bca6506cc159","meta":{"profile":["http://hl7.org/fhir/us/qicore/StructureDefinition/qicore-patient"]},"extension":[{"url":"http://hl7.org/fhir/us/core/StructureDefinition/us-core-race","extension":[{"url":"ombCategory","valueCoding":{"system":"urn:oid:2.16.840.1.113883.6.238","code":"1002-5","display":"American Indian or Alaska Native","userSelected":true}},{"url":"text","valueString":"American Indian or Alaska Native"}]},{"url":"http://hl7.org/fhir/us/core/StructureDefinition/us-core-ethnicity","extension":[{"url":"ombCategory","valueCoding":{"system":"urn:oid:2.16.840.1.113883.6.238","code":"2135-2","display":"Hispanic or Latino","userSelected":true}},{"url":"text","valueString":"Hispanic or Latino"}]}],"identifier":[{"type":{"coding":[{"system":"http://terminology.hl7.org/CodeSystem/v2-0203","code":"MR"}]},"system":"https://bonnie-fhir.healthit.gov/","value":"635307b6224f3b053967124e"}],"name":[{"family":"DENOMPass","given":["LastAssPrfEDDRelvTm1MinShortOf42WksB4DELRsltDtTime "]}],"gender":"female","birthDate":"2000-02-01"},"request":{"method":"PUT","url":"Patient/255bb207-c5b4-470f-8b40-bca6506cc159"}},{"fullUrl":"https://madie.cms.gov/Encounter/e9fb87a9-5fe3-42bd-87b9-1a02bd0f2437","resource":{"resourceType":"Encounter","id":"e9fb87a9-5fe3-42bd-87b9-1a02bd0f2437","meta":{"profile":["http://hl7.org/fhir/us/qicore/StructureDefinition/qicore-encounter"]},"status":"finished","class":{"system":"http://terminology.hl7.org/CodeSystem/v3-ActCode","code":"IMP","display":"inpatient encounter"},"type":[{"coding":[{"system":"http://snomed.info/sct","version":"2022-09","code":"183452005","display":"Emergency hospital admission (procedure)","userSelected":true}]}],"subject":{"reference":"Patient/255bb207-c5b4-470f-8b40-bca6506cc159"},"period":{"start":"2025-01-30T08:00:00.000+00:00","end":"2025-02-05T08:15:00.000+00:00"}},"request":{"method":"PUT","url":"Encounter/e9fb87a9-5fe3-42bd-87b9-1a02bd0f2437"}},{"fullUrl":"https://madie.cms.gov/Procedure/484bdbdb-3c99-4635-bf05-f6c56d344c55","resource":{"resourceType":"Procedure","id":"484bdbdb-3c99-4635-bf05-f6c56d344c55","meta":{"profile":["http://hl7.org/fhir/us/qicore/StructureDefinition/qicore-procedure"]},"extension":[{"url":"http://hl7.org/fhir/us/qicore/StructureDefinition/qicore-recorded","valueDateTime":"2013-04-05T09:35:00-04:00"}],"status":"completed","code":{"coding":[{"system":"http://snomed.info/sct","version":"2022-09","code":"10745001","display":"Delivery of transverse presentation (procedure)","userSelected":true}]},"subject":{"reference":"Patient/255bb207-c5b4-470f-8b40-bca6506cc159"},"performedPeriod":{"start":"2025-02-01T08:00:00.000+00:00","end":"2025-02-05T08:15:00.000+00:00"}},"request":{"method":"PUT","url":"Procedure/484bdbdb-3c99-4635-bf05-f6c56d344c55"}},{"fullUrl":"https://madie.cms.gov/Observation/5cd595d0-71a1-4aae-817b-4b70a115163f","resource":{"resourceType":"Observation","id":"5cd595d0-71a1-4aae-817b-4b70a115163f","meta":{"profile":["http://hl7.org/fhir/us/qicore/StructureDefinition/qicore-observation"]},"status":"final","category":[{"coding":[{"system":"http://terminology.hl7.org/CodeSystem/observation-category","code":"exam","display":"exam","userSelected":true}]}],"code":{"coding":[{"system":"http://loinc.org","code":"93857-1","display":"Date and time of obstetric delivery","userSelected":true}]},"subject":{"reference":"Patient/255bb207-c5b4-470f-8b40-bca6506cc159"},"effectiveDateTime":"2025-02-01T08:00:00.000+00:00","valueDateTime":"2025-02-01T08:00:00.000+00:00"},"request":{"method":"PUT","url":"Observation/5cd595d0-71a1-4aae-817b-4b70a115163f"}},{"fullUrl":"https://madie.cms.gov/Observation/75fe253b-b260-4f93-aedc-6e7816ee0a0c","resource":{"resourceType":"Observation","id":"75fe253b-b260-4f93-aedc-6e7816ee0a0c","meta":{"profile":["http://hl7.org/fhir/us/qicore/StructureDefinition/qicore-observation"]},"status":"final","category":[{"coding":[{"system":"http://terminology.hl7.org/CodeSystem/observation-category","code":"exam","display":"exam","userSelected":true}]}],"code":{"coding":[{"system":"http://loinc.org","code":"11778-8","display":"Delivery date Estimated","userSelected":true}]},"subject":{"reference":"Patient/255bb207-c5b4-470f-8b40-bca6506cc159"},"effectiveDateTime":"2024-04-13T08:01:00.000+00:00","valueDateTime":"2025-02-01T08:00:00.000+00:00"},"request":{"method":"PUT","url":"Observation/75fe253b-b260-4f93-aedc-6e7816ee0a0c"}},{"fullUrl":"https://madie.cms.gov/Coverage/09d22963-a529-4a1c-aef5-da500eb904c3","resource":{"resourceType":"Coverage","id":"09d22963-a529-4a1c-aef5-da500eb904c3","meta":{"profile":["http://hl7.org/fhir/us/qicore/StructureDefinition/qicore-coverage"]},"status":"active","beneficiary":{"reference":"Patient/255bb207-c5b4-470f-8b40-bca6506cc159"},"payor":[{"reference":"Organization/db141f66-a1cc-407b-9e95-adac27adee14"}]},"request":{"method":"PUT","url":"Coverage/09d22963-a529-4a1c-aef5-da500eb904c3"}},{"fullUrl":"https://madie.cms.gov/Organization/5326a608-713d-4e98-96a9-249cc45a91ed","resource":{"resourceType":"Organization","id":"db141f66-a1cc-407b-9e95-adac27adee14","meta":{"profile":["http://hl7.org/fhir/us/qicore/StructureDefinition/qicore-organization"]},"identifier":[{"use":"temp","system":"urn:oid:2.16.840.1.113883.4.4","value":"21-3259825"}],"active":true,"type":[{"coding":[{"system":"http://terminology.hl7.org/CodeSystem/organization-type","code":"pay","display":"Payer"}]}],"name":"Blue Cross Blue Shield of Texas","telecom":[{"system":"phone","value":"(+1) 972-766-6900"}],"address":[{"use":"billing","type":"postal","line":["P.O. Box 660044"],"city":"Dallas","state":"TX","postalCode":"75266-0044","country":"USA"}]},"request":{"method":"PUT","url":"Organization/db141f66-a1cc-407b-9e95-adac27adee14"}},{"fullUrl":"https://madie.cms.gov/Practitioner/5bf7ee46-03c2-4664-9a26-b00e43078ac0","resource":{"resourceType":"Practitioner","id":"5bf7ee46-03c2-4664-9a26-b00e43078ac0","identifier":[{"system":"http://hl7.org/fhir/sid/us-npi","value":"123456"}],"name":[{"family":"Evil","prefix":["Dr"]}]},"request":{"method":"PUT","url":"Practitioner/5bf7ee46-03c2-4664-9a26-b00e43078ac0"}},{"fullUrl":"https://madie.cms.gov/MeasureReport/52d29a0d-66c7-413b-a43d-743b6f13e39b","resource":{"resourceType":"MeasureReport","id":"52d29a0d-66c7-413b-a43d-743b6f13e39b","meta":{"profile":["http://hl7.org/fhir/us/cqfmeasures/StructureDefinition/test-case-cqfm"]},"contained":[{"resourceType":"Parameters","id":"9aa2e9c9-1f5e-4ee2-adca-ee95b17590fa-parameters","parameter":[{"name":"subject","valueString":"255bb207-c5b4-470f-8b40-bca6506cc159"}]}],"extension":[{"url":"http://hl7.org/fhir/us/cqfmeasures/StructureDefinition/cqfm-inputParameters","valueReference":{"reference":"#9aa2e9c9-1f5e-4ee2-adca-ee95b17590fa-parameters"}},{"url":"http://hl7.org/fhir/us/cqfmeasures/StructureDefinition/cqfm-testCaseDescription","valueMarkdown":"Last assessment Performed, Estimated Delivery Date, Relevant time, 1 minute short of 42 weeks before Delivery Result Date/Time\n"}],"modifierExtension":[{"url":"http://hl7.org/fhir/us/cqfmeasures/StructureDefinition/cqfm-isTestCase","valueBoolean":true}],"status":"complete","type":"individual","measure":"https://madie.cms.gov/Measure/CMS1028FHIRPCSevereOBComps","period":{"start":"2025-01-01","end":"2025-12-31"},"group":[{"population":[{"code":{"coding":[{"system":"http://terminology.hl7.org/CodeSystem/measure-population","code":"initial-population","display":"Initial Population"}]},"count":1},{"code":{"coding":[{"system":"http://terminology.hl7.org/CodeSystem/measure-population","code":"denominator","display":"Denominator"}]},"count":1},{"code":{"coding":[{"system":"http://terminology.hl7.org/CodeSystem/measure-population","code":"numerator","display":"Numerator"}]},"count":0},{"code":{"coding":[{"system":"http://terminology.hl7.org/CodeSystem/measure-population","code":"numerator-exclusion","display":"Numerator Exclusion"}]},"count":0}]},{"population":[{"code":{"coding":[{"system":"http://terminology.hl7.org/CodeSystem/measure-population","code":"initial-population","display":"Initial Population"}]},"count":1},{"code":{"coding":[{"system":"http://terminology.hl7.org/CodeSystem/measure-population","code":"denominator","display":"Denominator"}]},"count":1},{"code":{"coding":[{"system":"http://terminology.hl7.org/CodeSystem/measure-population","code":"numerator","display":"Numerator"}]},"count":0},{"code":{"coding":[{"system":"http://terminology.hl7.org/CodeSystem/measure-population","code":"numerator-exclusion","display":"Numerator Exclusion"}]},"count":0}]}]},"request":{"method":"PUT","url":"MeasureReport/52d29a0d-66c7-413b-a43d-743b6f13e39b"}}]}