{"resourceType":"Bundle","id":"tests-0d5cd646-0816-4d3e-84df-d03e4a656e85-bundle","type":"transaction","entry":[{"fullUrl":"https://madie.cms.gov/Patient/0d5cd646-0816-4d3e-84df-d03e4a656e85","resource":{"resourceType":"Patient","id":"0d5cd646-0816-4d3e-84df-d03e4a656e85","meta":{"profile":["http://hl7.org/fhir/us/qicore/StructureDefinition/qicore-patient"]},"text":{"status":"generated","div":"<div xmlns=\"http://www.w3.org/1999/xhtml\"><div class=\"hapiHeaderText\">Age8OnDayAftEncStart <b>IPFAIL </b></div><table class=\"hapiPropertyTable\"><tbody><tr><td>Date of birth</td><td><span>02 February 2004</span></td></tr></tbody></table></div>"},"extension":[{"url":"http://hl7.org/fhir/us/core/StructureDefinition/us-core-race","extension":[{"url":"ombCategory","valueCoding":{"system":"urn:oid:2.16.840.1.113883.6.238","code":"1002-5","display":"American Indian or Alaska Native","userSelected":true}},{"url":"text","valueString":"American Indian or Alaska Native"}]},{"url":"http://hl7.org/fhir/us/core/StructureDefinition/us-core-ethnicity","extension":[{"url":"ombCategory","valueCoding":{"system":"urn:oid:2.16.840.1.113883.6.238","code":"2135-2","display":"Hispanic or Latino","userSelected":true}},{"url":"text","valueString":"Hispanic or Latino"}]}],"identifier":[{"type":{"coding":[{"system":"http://terminology.hl7.org/CodeSystem/v2-0203","code":"MR"}]},"system":"https://bonnie-fhir.healthit.gov/","value":"633b3f9e0968f80122503cbd"}],"active":true,"name":[{"use":"usual","family":"IPFail","given":["Age8OnDayAftEncStart"]}],"gender":"female","birthDate":"2017-02-02"},"request":{"method":"PUT","url":"Patient/0d5cd646-0816-4d3e-84df-d03e4a656e85"}},{"fullUrl":"https://madie.cms.gov/Encounter/cb2f851a-28ab-4b1a-b75c-d0c2d1f2cb0a","resource":{"resourceType":"Encounter","id":"cb2f851a-28ab-4b1a-b75c-d0c2d1f2cb0a","meta":{"profile":["http://hl7.org/fhir/us/qicore/StructureDefinition/qicore-encounter"]},"status":"finished","class":{"system":"http://terminology.hl7.org/CodeSystem/v3-ActCode","code":"IMP","display":"inpatient encounter"},"type":[{"coding":[{"system":"http://snomed.info/sct","code":"183452005"}]}],"subject":{"reference":"Patient/0d5cd646-0816-4d3e-84df-d03e4a656e85"},"period":{"start":"2025-02-01T08:00:00.000Z","end":"2025-02-05T08:15:00.000Z"}},"request":{"method":"PUT","url":"Encounter/cb2f851a-28ab-4b1a-b75c-d0c2d1f2cb0a"}},{"fullUrl":"https://madie.cms.gov/Procedure/ec22e1dd-8b9d-46ef-9678-1969ec2bcbb1","resource":{"resourceType":"Procedure","id":"ec22e1dd-8b9d-46ef-9678-1969ec2bcbb1","meta":{"profile":["http://hl7.org/fhir/us/qicore/StructureDefinition/qicore-procedure"]},"extension":[{"url":"http://hl7.org/fhir/us/qicore/StructureDefinition/qicore-recorded","valueDateTime":"2013-04-05T09:35:00-04:00"}],"status":"completed","code":{"coding":[{"system":"http://snomed.info/sct","code":"10745001"}]},"subject":{"reference":"Patient/0d5cd646-0816-4d3e-84df-d03e4a656e85"},"performedPeriod":{"start":"2025-02-01T08:00:00.000Z","end":"2025-02-05T08:15:00.000Z"}},"request":{"method":"PUT","url":"Procedure/ec22e1dd-8b9d-46ef-9678-1969ec2bcbb1"}},{"fullUrl":"https://madie.cms.gov/Coverage/29d25d88-8a92-4c28-a744-3f7d43b446b9","resource":{"resourceType":"Coverage","id":"29d25d88-8a92-4c28-a744-3f7d43b446b9","meta":{"profile":["http://hl7.org/fhir/us/qicore/StructureDefinition/qicore-coverage"]},"status":"active","beneficiary":{"reference":"Patient/0d5cd646-0816-4d3e-84df-d03e4a656e85"},"payor":[{"reference":"Organization/5ad6ea38-07e9-4482-9e1b-c09eee595be9"}]},"request":{"method":"PUT","url":"Coverage/29d25d88-8a92-4c28-a744-3f7d43b446b9"}},{"fullUrl":"https://madie.cms.gov/Organization/f4ba06c0-15dc-4f82-adea-148a5468c030","resource":{"resourceType":"Organization","id":"5ad6ea38-07e9-4482-9e1b-c09eee595be9","meta":{"profile":["http://hl7.org/fhir/us/qicore/StructureDefinition/qicore-organization"]},"identifier":[{"use":"temp","system":"urn:oid:2.16.840.1.113883.4.4","value":"21-3259825"}],"active":true,"type":[{"coding":[{"system":"http://terminology.hl7.org/CodeSystem/organization-type","code":"pay","display":"Payer"}]}],"name":"Blue Cross Blue Shield of Texas","telecom":[{"system":"phone","value":"(+1) 972-766-6900"}],"address":[{"use":"billing","type":"postal","line":["P.O. Box 660044"],"city":"Dallas","state":"TX","postalCode":"75266-0044","country":"USA"}]},"request":{"method":"PUT","url":"Organization/5ad6ea38-07e9-4482-9e1b-c09eee595be9"}},{"fullUrl":"https://madie.cms.gov/Practitioner/0c345c9a-872c-4872-865f-c4e42aa76e68","resource":{"resourceType":"Practitioner","id":"0c345c9a-872c-4872-865f-c4e42aa76e68","identifier":[{"system":"http://hl7.org/fhir/sid/us-npi","value":"123456"}],"name":[{"family":"Evil","prefix":["Dr"]}]},"request":{"method":"PUT","url":"Practitioner/0c345c9a-872c-4872-865f-c4e42aa76e68"}},{"fullUrl":"https://madie.cms.gov/MeasureReport/69b0c2d1-26a7-4696-84cd-48717846b064","resource":{"resourceType":"MeasureReport","id":"69b0c2d1-26a7-4696-84cd-48717846b064","meta":{"profile":["http://hl7.org/fhir/us/cqfmeasures/StructureDefinition/test-case-cqfm"]},"contained":[{"resourceType":"Parameters","id":"0ef0ee9e-4da2-433c-87d6-33d09d748af4-parameters","parameter":[{"name":"subject","valueString":"0d5cd646-0816-4d3e-84df-d03e4a656e85"}]}],"extension":[{"url":"http://hl7.org/fhir/us/cqfmeasures/StructureDefinition/cqfm-inputParameters","valueReference":{"reference":"#0ef0ee9e-4da2-433c-87d6-33d09d748af4-parameters"}},{"url":"http://hl7.org/fhir/us/cqfmeasures/StructureDefinition/cqfm-testCaseDescription","valueMarkdown":"Patient is 8 years of age on day after encounter start.\n"}],"modifierExtension":[{"url":"http://hl7.org/fhir/us/cqfmeasures/StructureDefinition/cqfm-isTestCase","valueBoolean":true}],"status":"complete","type":"individual","measure":"https://madie.cms.gov/Measure/CMS1028FHIRPCSevereOBComps","period":{"start":"2025-01-01","end":"2025-12-31"},"group":[{"population":[{"code":{"coding":[{"system":"http://terminology.hl7.org/CodeSystem/measure-population","code":"initial-population","display":"Initial Population"}]},"count":0},{"code":{"coding":[{"system":"http://terminology.hl7.org/CodeSystem/measure-population","code":"denominator","display":"Denominator"}]},"count":0},{"code":{"coding":[{"system":"http://terminology.hl7.org/CodeSystem/measure-population","code":"numerator","display":"Numerator"}]},"count":0},{"code":{"coding":[{"system":"http://terminology.hl7.org/CodeSystem/measure-population","code":"numerator-exclusion","display":"Numerator Exclusion"}]},"count":0}]}]},"request":{"method":"PUT","url":"MeasureReport/69b0c2d1-26a7-4696-84cd-48717846b064"}}]}