{"resourceType":"Bundle","id":"tests-d55a27c2-877b-471c-ad1d-92a9ea233c61-bundle","type":"transaction","entry":[{"fullUrl":"https://madie.cms.gov/Patient/d55a27c2-877b-471c-ad1d-92a9ea233c61","resource":{"resourceType":"Patient","id":"d55a27c2-877b-471c-ad1d-92a9ea233c61","meta":{"profile":["http://hl7.org/fhir/us/qicore/StructureDefinition/qicore-patient"]},"text":{"status":"generated","div":"<div xmlns=\"http://www.w3.org/1999/xhtml\"><div class=\"hapiHeaderText\">AssPrfDelRelvDt1MinB4EncIPStarts <b>DENOMFAIL </b></div><table class=\"hapiPropertyTable\"><tbody><tr><td>Date of birth</td><td><span>01 February 2004</span></td></tr></tbody></table></div>"},"extension":[{"url":"http://hl7.org/fhir/us/core/StructureDefinition/us-core-race","extension":[{"url":"ombCategory","valueCoding":{"system":"urn:oid:2.16.840.1.113883.6.238","code":"1002-5","display":"American Indian or Alaska Native","userSelected":true}},{"url":"text","valueString":"American Indian or Alaska Native"}]},{"url":"http://hl7.org/fhir/us/core/StructureDefinition/us-core-ethnicity","extension":[{"url":"ombCategory","valueCoding":{"system":"urn:oid:2.16.840.1.113883.6.238","code":"2135-2","display":"Hispanic or Latino","userSelected":true}},{"url":"text","valueString":"Hispanic or Latino"}]}],"identifier":[{"type":{"coding":[{"system":"http://terminology.hl7.org/CodeSystem/v2-0203","code":"MR"}]},"system":"https://bonnie-fhir.healthit.gov/","value":"633b3f9e0968f80122503cca"}],"active":true,"name":[{"use":"usual","family":"DENOMFail","given":["AssPrfDelRelvDt1MinB4EncIPStarts"]}],"gender":"female","birthDate":"2004-02-01"},"request":{"method":"PUT","url":"Patient/d55a27c2-877b-471c-ad1d-92a9ea233c61"}},{"fullUrl":"https://madie.cms.gov/Observation/78e929ce-76c6-429c-ad98-8b3ae9275559","resource":{"resourceType":"Observation","id":"78e929ce-76c6-429c-ad98-8b3ae9275559","meta":{"profile":["http://hl7.org/fhir/us/qicore/StructureDefinition/qicore-observation"]},"status":"final","category":[{"coding":[{"system":"http://terminology.hl7.org/CodeSystem/observation-category","code":"exam","display":"exam","userSelected":true}]}],"code":{"coding":[{"system":"http://loinc.org","code":"93857-1"}]},"subject":{"reference":"Patient/d55a27c2-877b-471c-ad1d-92a9ea233c61"},"effectiveDateTime":"2025-02-01T07:59:00.000+00:00","valueDateTime":"2025-02-01T08:00:00+00:00"},"request":{"method":"PUT","url":"Observation/78e929ce-76c6-429c-ad98-8b3ae9275559"}},{"fullUrl":"https://madie.cms.gov/Observation/38b7c9cf-a9ee-4d54-b969-74fb17d7d822","resource":{"resourceType":"Observation","id":"38b7c9cf-a9ee-4d54-b969-74fb17d7d822","meta":{"profile":["http://hl7.org/fhir/us/qicore/StructureDefinition/qicore-observation"]},"status":"final","category":[{"coding":[{"system":"http://terminology.hl7.org/CodeSystem/observation-category","code":"exam","display":"exam","userSelected":true}]}],"code":{"coding":[{"system":"http://loinc.org","code":"11778-8"}]},"subject":{"reference":"Patient/d55a27c2-877b-471c-ad1d-92a9ea233c61"},"effectiveDateTime":"2025-02-01T08:00:00.000+00:00","valueDateTime":"2025-02-01T08:00:00.000+00:00"},"request":{"method":"PUT","url":"Observation/38b7c9cf-a9ee-4d54-b969-74fb17d7d822"}},{"fullUrl":"https://madie.cms.gov/Encounter/02869936-74f8-4eb1-923f-9c8c1e68577e","resource":{"resourceType":"Encounter","id":"02869936-74f8-4eb1-923f-9c8c1e68577e","meta":{"profile":["http://hl7.org/fhir/us/qicore/StructureDefinition/qicore-encounter"]},"status":"finished","class":{"system":"http://terminology.hl7.org/CodeSystem/v3-ActCode","code":"IMP","display":"inpatient encounter"},"type":[{"coding":[{"system":"http://snomed.info/sct","code":"183452005"}]}],"subject":{"reference":"Patient/d55a27c2-877b-471c-ad1d-92a9ea233c61"},"period":{"start":"2025-02-01T08:00:00.000Z","end":"2025-02-05T08:15:00.000Z"}},"request":{"method":"PUT","url":"Encounter/02869936-74f8-4eb1-923f-9c8c1e68577e"}},{"fullUrl":"https://madie.cms.gov/Coverage/1a1499a9-9e29-4db5-befd-1623ffc31084","resource":{"resourceType":"Coverage","id":"1a1499a9-9e29-4db5-befd-1623ffc31084","status":"active","beneficiary":{"reference":"Patient/d55a27c2-877b-471c-ad1d-92a9ea233c61"},"period":{"start":"2004-02-01T08:00:00.000Z"},"payor":[{"reference":"Organization/db141f66-a1cc-407b-9e95-adac27adee14"}]},"request":{"method":"PUT","url":"Coverage/1a1499a9-9e29-4db5-befd-1623ffc31084"}},{"fullUrl":"https://madie.cms.gov/Procedure/dbcadb4a-46b3-47a1-89cd-2fb7ad896500","resource":{"resourceType":"Procedure","id":"dbcadb4a-46b3-47a1-89cd-2fb7ad896500","meta":{"profile":["http://hl7.org/fhir/us/qicore/StructureDefinition/qicore-procedure"]},"extension":[{"url":"http://hl7.org/fhir/us/qicore/StructureDefinition/qicore-recorded","valueDateTime":"2013-04-05T09:35:00-04:00"}],"status":"completed","code":{"coding":[{"system":"http://snomed.info/sct","code":"10745001"}]},"subject":{"reference":"Patient/d55a27c2-877b-471c-ad1d-92a9ea233c61"},"performedPeriod":{"start":"2025-02-01T08:00:00.000Z","end":"2025-02-05T08:15:00.000Z"}},"request":{"method":"PUT","url":"Procedure/dbcadb4a-46b3-47a1-89cd-2fb7ad896500"}},{"fullUrl":"https://madie.cms.gov/Organization/6254b67d-6084-423e-831c-a3472376faa2","resource":{"resourceType":"Organization","id":"db141f66-a1cc-407b-9e95-adac27adee14","meta":{"profile":["http://hl7.org/fhir/us/qicore/StructureDefinition/qicore-organization"]},"identifier":[{"use":"temp","system":"urn:oid:2.16.840.1.113883.4.4","value":"21-3259825"}],"active":true,"type":[{"coding":[{"system":"http://terminology.hl7.org/CodeSystem/organization-type","code":"pay","display":"Payer"}]}],"name":"Blue Cross Blue Shield of Texas","telecom":[{"system":"phone","value":"(+1) 972-766-6900"}],"address":[{"use":"billing","type":"postal","line":["P.O. Box 660044"],"city":"Dallas","state":"TX","postalCode":"75266-0044","country":"USA"}]},"request":{"method":"PUT","url":"Organization/db141f66-a1cc-407b-9e95-adac27adee14"}},{"fullUrl":"https://madie.cms.gov/Practitioner/e2428de9-3df7-44c4-8090-d2a47fb68263","resource":{"resourceType":"Practitioner","id":"e2428de9-3df7-44c4-8090-d2a47fb68263","identifier":[{"system":"http://hl7.org/fhir/sid/us-npi","value":"123456"}],"name":[{"family":"Evil","prefix":["Dr"]}]},"request":{"method":"PUT","url":"Practitioner/e2428de9-3df7-44c4-8090-d2a47fb68263"}},{"fullUrl":"https://madie.cms.gov/MeasureReport/e1c8eb7c-ef00-44a8-b62d-6435c24eb6d0","resource":{"resourceType":"MeasureReport","id":"e1c8eb7c-ef00-44a8-b62d-6435c24eb6d0","meta":{"profile":["http://hl7.org/fhir/us/cqfmeasures/StructureDefinition/test-case-cqfm"]},"contained":[{"resourceType":"Parameters","id":"0984abb2-016e-440c-8277-2dcbd5dd2ac8-parameters","parameter":[{"name":"subject","valueString":"d55a27c2-877b-471c-ad1d-92a9ea233c61"}]}],"extension":[{"url":"http://hl7.org/fhir/us/cqfmeasures/StructureDefinition/cqfm-inputParameters","valueReference":{"reference":"#0984abb2-016e-440c-8277-2dcbd5dd2ac8-parameters"}},{"url":"http://hl7.org/fhir/us/cqfmeasures/StructureDefinition/cqfm-testCaseDescription","valueMarkdown":"Relevant date/Time of delivery (based on assessment performed) is equal to 1 minute before the encounter starts\n"}],"modifierExtension":[{"url":"http://hl7.org/fhir/us/cqfmeasures/StructureDefinition/cqfm-isTestCase","valueBoolean":true}],"status":"complete","type":"individual","measure":"https://madie.cms.gov/Measure/CMS1028FHIRPCSevereOBComps","period":{"start":"2025-01-01","end":"2025-12-31"},"group":[{"population":[{"code":{"coding":[{"system":"http://terminology.hl7.org/CodeSystem/measure-population","code":"initial-population","display":"Initial Population"}]},"count":1},{"code":{"coding":[{"system":"http://terminology.hl7.org/CodeSystem/measure-population","code":"denominator","display":"Denominator"}]},"count":0},{"code":{"coding":[{"system":"http://terminology.hl7.org/CodeSystem/measure-population","code":"numerator","display":"Numerator"}]},"count":0},{"code":{"coding":[{"system":"http://terminology.hl7.org/CodeSystem/measure-population","code":"numerator-exclusion","display":"Numerator Exclusion"}]},"count":0}]},{"population":[{"code":{"coding":[{"system":"http://terminology.hl7.org/CodeSystem/measure-population","code":"initial-population","display":"Initial Population"}]},"count":1},{"code":{"coding":[{"system":"http://terminology.hl7.org/CodeSystem/measure-population","code":"denominator","display":"Denominator"}]},"count":0},{"code":{"coding":[{"system":"http://terminology.hl7.org/CodeSystem/measure-population","code":"numerator","display":"Numerator"}]},"count":0},{"code":{"coding":[{"system":"http://terminology.hl7.org/CodeSystem/measure-population","code":"numerator-exclusion","display":"Numerator Exclusion"}]},"count":0}]}]},"request":{"method":"PUT","url":"MeasureReport/e1c8eb7c-ef00-44a8-b62d-6435c24eb6d0"}}]}