{"resourceType":"Bundle","id":"tests-94236514-cb6c-4e1b-8235-69e8ccc4ad05-bundle","type":"transaction","entry":[{"fullUrl":"https://madie.cms.gov/Patient/94236514-cb6c-4e1b-8235-69e8ccc4ad05","resource":{"resourceType":"Patient","id":"94236514-cb6c-4e1b-8235-69e8ccc4ad05","meta":{"profile":["http://hl7.org/fhir/us/qicore/StructureDefinition/qicore-patient"]},"text":{"status":"generated","div":"<div xmlns=\"http://www.w3.org/1999/xhtml\"><div class=\"hapiHeaderText\">LastAssPrfDELRsltDtTime_AftIPEnd <b>DENOMPASS </b></div><table class=\"hapiPropertyTable\"><tbody><tr><td>Date of birth</td><td><span>01 February 2004</span></td></tr></tbody></table></div>"},"extension":[{"url":"http://hl7.org/fhir/us/core/StructureDefinition/us-core-race","extension":[{"url":"ombCategory","valueCoding":{"system":"urn:oid:2.16.840.1.113883.6.238","code":"1002-5","display":"American Indian or Alaska Native","userSelected":true}},{"url":"text","valueString":"American Indian or Alaska Native"}]},{"url":"http://hl7.org/fhir/us/core/StructureDefinition/us-core-ethnicity","extension":[{"url":"ombCategory","valueCoding":{"system":"urn:oid:2.16.840.1.113883.6.238","code":"2135-2","display":"Hispanic or Latino","userSelected":true}},{"url":"text","valueString":"Hispanic or Latino"}]}],"identifier":[{"type":{"coding":[{"system":"http://terminology.hl7.org/CodeSystem/v2-0203","code":"MR"}]},"system":"https://bonnie-fhir.healthit.gov/","value":"633b3f9e0968f80122503cd2"}],"active":true,"name":[{"use":"usual","family":"DENOMPass","given":["LastAssPrfDELRsltDtTime_AftIPEnd"]}],"gender":"female","birthDate":"2004-02-01"},"request":{"method":"PUT","url":"Patient/94236514-cb6c-4e1b-8235-69e8ccc4ad05"}},{"fullUrl":"https://madie.cms.gov/Observation/bb931816-fafa-4b14-82da-8a71588b9b2e","resource":{"resourceType":"Observation","id":"bb931816-fafa-4b14-82da-8a71588b9b2e","meta":{"profile":["http://hl7.org/fhir/us/qicore/StructureDefinition/qicore-observation"]},"status":"final","category":[{"coding":[{"system":"http://terminology.hl7.org/CodeSystem/observation-category","code":"exam","display":"exam","userSelected":true}]}],"code":{"coding":[{"system":"http://loinc.org","code":"93857-1"}]},"subject":{"reference":"Patient/94236514-cb6c-4e1b-8235-69e8ccc4ad05"},"effectiveDateTime":"2025-02-01T08:00:00.000+00:00","valueDateTime":"2025-02-05T08:15:00+00:00"},"request":{"method":"PUT","url":"Observation/bb931816-fafa-4b14-82da-8a71588b9b2e"}},{"fullUrl":"https://madie.cms.gov/Observation/3b0dfd2a-7547-430b-a179-a2598abd562f","resource":{"resourceType":"Observation","id":"3b0dfd2a-7547-430b-a179-a2598abd562f","meta":{"profile":["http://hl7.org/fhir/us/qicore/StructureDefinition/qicore-observation"]},"status":"final","category":[{"coding":[{"system":"http://terminology.hl7.org/CodeSystem/observation-category","code":"exam","display":"exam","userSelected":true}]}],"code":{"coding":[{"system":"http://loinc.org","code":"11778-8"}]},"subject":{"reference":"Patient/94236514-cb6c-4e1b-8235-69e8ccc4ad05"},"effectiveDateTime":"2025-02-05T08:00:00.000+00:00","valueDateTime":"2025-02-01T08:00:00.000+00:00"},"request":{"method":"PUT","url":"Observation/3b0dfd2a-7547-430b-a179-a2598abd562f"}},{"fullUrl":"https://madie.cms.gov/Observation/7f9abcba-3149-4b18-aab0-474ef1df77c6","resource":{"resourceType":"Observation","id":"7f9abcba-3149-4b18-aab0-474ef1df77c6","meta":{"profile":["http://hl7.org/fhir/us/qicore/StructureDefinition/qicore-observation"]},"status":"final","category":[{"coding":[{"system":"http://terminology.hl7.org/CodeSystem/observation-category","code":"exam","display":"exam","userSelected":true}]}],"code":{"coding":[{"system":"http://loinc.org","code":"93857-1"}]},"subject":{"reference":"Patient/94236514-cb6c-4e1b-8235-69e8ccc4ad05"},"effectiveDateTime":"2025-02-01T08:00:00.000+00:00","valueDateTime":"2025-08-05T08:00:00+00:00"},"request":{"method":"PUT","url":"Observation/7f9abcba-3149-4b18-aab0-474ef1df77c6"}},{"fullUrl":"https://madie.cms.gov/Encounter/e8cd464a-ae84-44a2-9efd-84c5b4fcb430","resource":{"resourceType":"Encounter","id":"e8cd464a-ae84-44a2-9efd-84c5b4fcb430","meta":{"profile":["http://hl7.org/fhir/us/qicore/StructureDefinition/qicore-encounter"]},"status":"finished","class":{"system":"http://terminology.hl7.org/CodeSystem/v3-ActCode","code":"IMP","display":"inpatient encounter"},"type":[{"coding":[{"system":"http://snomed.info/sct","code":"183452005"}]}],"subject":{"reference":"Patient/94236514-cb6c-4e1b-8235-69e8ccc4ad05"},"period":{"start":"2025-02-01T08:00:00.000Z","end":"2025-02-05T08:15:00.000Z"}},"request":{"method":"PUT","url":"Encounter/e8cd464a-ae84-44a2-9efd-84c5b4fcb430"}},{"fullUrl":"https://madie.cms.gov/Procedure/e7f65af3-dc8a-4d11-8a3c-fd373554d92e","resource":{"resourceType":"Procedure","id":"e7f65af3-dc8a-4d11-8a3c-fd373554d92e","meta":{"profile":["http://hl7.org/fhir/us/qicore/StructureDefinition/qicore-procedure"]},"extension":[{"url":"http://hl7.org/fhir/us/qicore/StructureDefinition/qicore-recorded","valueDateTime":"2013-04-05T09:35:00-04:00"}],"status":"completed","code":{"coding":[{"system":"http://snomed.info/sct","code":"10745001"}]},"subject":{"reference":"Patient/94236514-cb6c-4e1b-8235-69e8ccc4ad05"},"performedPeriod":{"start":"2025-02-01T08:00:00.000Z","end":"2025-02-05T08:15:00.000Z"}},"request":{"method":"PUT","url":"Procedure/e7f65af3-dc8a-4d11-8a3c-fd373554d92e"}},{"fullUrl":"https://madie.cms.gov/Coverage/cea13fd3-81ee-43a6-b748-c1d6189cec2e","resource":{"resourceType":"Coverage","id":"cea13fd3-81ee-43a6-b748-c1d6189cec2e","meta":{"profile":["http://hl7.org/fhir/us/qicore/StructureDefinition/qicore-coverage"]},"status":"active","beneficiary":{"reference":"Patient/94236514-cb6c-4e1b-8235-69e8ccc4ad05"},"payor":[{"reference":"Organization/5ad6ea38-07e9-4482-9e1b-c09eee595be9"}]},"request":{"method":"PUT","url":"Coverage/cea13fd3-81ee-43a6-b748-c1d6189cec2e"}},{"fullUrl":"https://madie.cms.gov/Organization/8b562630-3b44-49c4-87bc-4ef4dfccf689","resource":{"resourceType":"Organization","id":"5ad6ea38-07e9-4482-9e1b-c09eee595be9","meta":{"profile":["http://hl7.org/fhir/us/qicore/StructureDefinition/qicore-organization"]},"identifier":[{"use":"temp","system":"urn:oid:2.16.840.1.113883.4.4","value":"21-3259825"}],"active":true,"type":[{"coding":[{"system":"http://terminology.hl7.org/CodeSystem/organization-type","code":"pay","display":"Payer"}]}],"name":"Blue Cross Blue Shield of Texas","telecom":[{"system":"phone","value":"(+1) 972-766-6900"}],"address":[{"use":"billing","type":"postal","line":["P.O. Box 660044"],"city":"Dallas","state":"TX","postalCode":"75266-0044","country":"USA"}]},"request":{"method":"PUT","url":"Organization/5ad6ea38-07e9-4482-9e1b-c09eee595be9"}},{"fullUrl":"https://madie.cms.gov/Practitioner/d0b964eb-2db4-4eb3-a7b5-97dffb863b2c","resource":{"resourceType":"Practitioner","id":"d0b964eb-2db4-4eb3-a7b5-97dffb863b2c","identifier":[{"system":"http://hl7.org/fhir/sid/us-npi","value":"123456"}],"name":[{"family":"Evil","prefix":["Dr"]}]},"request":{"method":"PUT","url":"Practitioner/d0b964eb-2db4-4eb3-a7b5-97dffb863b2c"}},{"fullUrl":"https://madie.cms.gov/MeasureReport/6f41e6ad-2ddd-469e-a536-c8b2490e7df1","resource":{"resourceType":"MeasureReport","id":"6f41e6ad-2ddd-469e-a536-c8b2490e7df1","meta":{"profile":["http://hl7.org/fhir/us/cqfmeasures/StructureDefinition/test-case-cqfm"]},"contained":[{"resourceType":"Parameters","id":"7ca6f233-c946-4142-a479-aa2c3214d25d-parameters","parameter":[{"name":"subject","valueString":"94236514-cb6c-4e1b-8235-69e8ccc4ad05"}]}],"extension":[{"url":"http://hl7.org/fhir/us/cqfmeasures/StructureDefinition/cqfm-inputParameters","valueReference":{"reference":"#7ca6f233-c946-4142-a479-aa2c3214d25d-parameters"}},{"url":"http://hl7.org/fhir/us/cqfmeasures/StructureDefinition/cqfm-testCaseDescription","valueMarkdown":"2 Time of Delivery assessments.  1st one is during the encounter.  The 2nd one is after the encounter.  1st:  Result date/Time of delivery (based on assessment performed) is equal to encounter end. 2nd:  Result date/time after encounter.\n"}],"modifierExtension":[{"url":"http://hl7.org/fhir/us/cqfmeasures/StructureDefinition/cqfm-isTestCase","valueBoolean":true}],"status":"complete","type":"individual","measure":"https://madie.cms.gov/Measure/CMS1028FHIRPCSevereOBComps","period":{"start":"2025-01-01","end":"2025-12-31"},"group":[{"population":[{"code":{"coding":[{"system":"http://terminology.hl7.org/CodeSystem/measure-population","code":"initial-population","display":"Initial Population"}]},"count":1},{"code":{"coding":[{"system":"http://terminology.hl7.org/CodeSystem/measure-population","code":"denominator","display":"Denominator"}]},"count":1},{"code":{"coding":[{"system":"http://terminology.hl7.org/CodeSystem/measure-population","code":"numerator","display":"Numerator"}]},"count":0},{"code":{"coding":[{"system":"http://terminology.hl7.org/CodeSystem/measure-population","code":"numerator-exclusion","display":"Numerator Exclusion"}]},"count":0}]},{"population":[{"code":{"coding":[{"system":"http://terminology.hl7.org/CodeSystem/measure-population","code":"initial-population","display":"Initial Population"}]},"count":1},{"code":{"coding":[{"system":"http://terminology.hl7.org/CodeSystem/measure-population","code":"denominator","display":"Denominator"}]},"count":1},{"code":{"coding":[{"system":"http://terminology.hl7.org/CodeSystem/measure-population","code":"numerator","display":"Numerator"}]},"count":0},{"code":{"coding":[{"system":"http://terminology.hl7.org/CodeSystem/measure-population","code":"numerator-exclusion","display":"Numerator Exclusion"}]},"count":0}]}]},"request":{"method":"PUT","url":"MeasureReport/6f41e6ad-2ddd-469e-a536-c8b2490e7df1"}}]}