{"resourceType":"Bundle","id":"tests-bf104ec1-2d51-4709-ae27-b3ae475454e4-bundle","type":"transaction","entry":[{"fullUrl":"https://madie.cms.gov/Patient/bf104ec1-2d51-4709-ae27-b3ae475454e4","resource":{"resourceType":"Patient","id":"bf104ec1-2d51-4709-ae27-b3ae475454e4","meta":{"profile":["http://hl7.org/fhir/us/qicore/StructureDefinition/qicore-patient"]},"text":{"status":"generated","div":"<div xmlns=\"http://www.w3.org/1999/xhtml\"><div class=\"hapiHeaderText\">RISKWBC24hoursB4EDOTTriageEnc <b>RISKPass </b></div><table class=\"hapiPropertyTable\"><tbody><tr><td>Date of birth</td><td><span>01 February 2004</span></td></tr></tbody></table></div>"},"extension":[{"url":"http://hl7.org/fhir/us/core/StructureDefinition/us-core-race","extension":[{"url":"ombCategory","valueCoding":{"system":"urn:oid:2.16.840.1.113883.6.238","code":"1002-5","display":"American Indian or Alaska Native","userSelected":true}},{"url":"text","valueString":"American Indian or Alaska Native"}]},{"url":"http://hl7.org/fhir/us/core/StructureDefinition/us-core-ethnicity","extension":[{"url":"ombCategory","valueCoding":{"system":"urn:oid:2.16.840.1.113883.6.238","code":"2135-2","display":"Hispanic or Latino","userSelected":true}},{"url":"text","valueString":"Hispanic or Latino"}]}],"identifier":[{"type":{"coding":[{"system":"http://terminology.hl7.org/CodeSystem/v2-0203","code":"MR"}]},"system":"https://bonnie-fhir.healthit.gov/","value":"6359776b6aee9629c8298235"}],"active":true,"name":[{"use":"usual","family":"RiskPassWBC","given":["RISKWBC24hoursB4EDOTTriageEnc"]}],"gender":"female","birthDate":"2004-02-01"},"request":{"method":"PUT","url":"Patient/bf104ec1-2d51-4709-ae27-b3ae475454e4"}},{"fullUrl":"https://madie.cms.gov/Observation/6270971f-a6c5-493f-a3e0-14fdad4ffd46","resource":{"resourceType":"Observation","id":"6270971f-a6c5-493f-a3e0-14fdad4ffd46","meta":{"profile":["http://hl7.org/fhir/us/qicore/StructureDefinition/qicore-observation"]},"status":"final","category":[{"coding":[{"system":"http://terminology.hl7.org/CodeSystem/observation-category","code":"exam","display":"exam","userSelected":true}]}],"code":{"coding":[{"system":"http://loinc.org","code":"93857-1"}]},"subject":{"reference":"Patient/bf104ec1-2d51-4709-ae27-b3ae475454e4"},"effectiveDateTime":"2025-02-01T08:00:00.000+00:00","valueDateTime":"2025-02-01T08:00:00+00:00"},"request":{"method":"PUT","url":"Observation/6270971f-a6c5-493f-a3e0-14fdad4ffd46"}},{"fullUrl":"https://madie.cms.gov/Observation/158f6066-ef63-414c-8623-8d2c723e5267","resource":{"resourceType":"Observation","id":"158f6066-ef63-414c-8623-8d2c723e5267","meta":{"profile":["http://hl7.org/fhir/us/qicore/StructureDefinition/qicore-observation"]},"status":"final","category":[{"coding":[{"system":"http://terminology.hl7.org/CodeSystem/observation-category","code":"exam","display":"exam","userSelected":true}]}],"code":{"coding":[{"system":"http://loinc.org","code":"11884-4"}]},"subject":{"reference":"Patient/bf104ec1-2d51-4709-ae27-b3ae475454e4"},"effectiveDateTime":"2025-02-01T08:00:00.000+00:00","valueQuantity":{"value":21,"system":"http://unitsofmeasure.org","code":"wk"}},"request":{"method":"PUT","url":"Observation/158f6066-ef63-414c-8623-8d2c723e5267"}},{"fullUrl":"https://madie.cms.gov/Encounter/81011cde-e4fb-4c9e-930e-29c7738a653a","resource":{"resourceType":"Encounter","id":"81011cde-e4fb-4c9e-930e-29c7738a653a","meta":{"profile":["http://hl7.org/fhir/us/qicore/StructureDefinition/qicore-encounter"]},"status":"finished","class":{"system":"http://terminology.hl7.org/CodeSystem/v3-ActCode","code":"IMP","display":"inpatient encounter"},"type":[{"coding":[{"system":"http://snomed.info/sct","code":"183452005"}]}],"subject":{"reference":"Patient/bf104ec1-2d51-4709-ae27-b3ae475454e4"},"period":{"start":"2025-02-01T08:00:00.000+00:00","end":"2025-02-05T08:15:00.000+00:00"}},"request":{"method":"PUT","url":"Encounter/81011cde-e4fb-4c9e-930e-29c7738a653a"}},{"fullUrl":"https://madie.cms.gov/Encounter/8d6b073d-863e-477b-9c6d-dc6abc5812df","resource":{"resourceType":"Encounter","id":"8d6b073d-863e-477b-9c6d-dc6abc5812df","meta":{"profile":["http://hl7.org/fhir/us/qicore/StructureDefinition/qicore-encounter"]},"status":"finished","class":{"system":"http://terminology.hl7.org/CodeSystem/v3-ActCode","code":"EMER","display":"emergency"},"type":[{"coding":[{"system":"http://snomed.info/sct","code":"4525004"}]}],"subject":{"reference":"Patient/bf104ec1-2d51-4709-ae27-b3ae475454e4"},"period":{"start":"2025-02-01T07:00:00.000+00:00","end":"2025-02-01T07:59:00.000+00:00"}},"request":{"method":"PUT","url":"Encounter/8d6b073d-863e-477b-9c6d-dc6abc5812df"}},{"fullUrl":"https://madie.cms.gov/Procedure/231c58f4-b566-4439-836b-82b0eb079ab8","resource":{"resourceType":"Procedure","id":"231c58f4-b566-4439-836b-82b0eb079ab8","meta":{"profile":["http://hl7.org/fhir/us/qicore/StructureDefinition/qicore-procedure"]},"extension":[{"url":"http://hl7.org/fhir/us/qicore/StructureDefinition/qicore-recorded","valueDateTime":"2025-02-04T09:35:00-04:00"}],"status":"completed","code":{"coding":[{"system":"http://snomed.info/sct","code":"10745001"}]},"subject":{"reference":"Patient/bf104ec1-2d51-4709-ae27-b3ae475454e4"},"performedPeriod":{"start":"2025-02-01T08:00:00.000+00:00","end":"2025-02-05T08:15:00.000+00:00"}},"request":{"method":"PUT","url":"Procedure/231c58f4-b566-4439-836b-82b0eb079ab8"}},{"fullUrl":"https://madie.cms.gov/Observation/2a317aa4-23be-42b1-a9cd-6fd32cf3100f","resource":{"resourceType":"Observation","id":"2a317aa4-23be-42b1-a9cd-6fd32cf3100f","meta":{"profile":["http://hl7.org/fhir/us/core/StructureDefinition/us-core-observation-lab"]},"status":"final","category":[{"coding":[{"system":"http://terminology.hl7.org/CodeSystem/observation-category","code":"laboratory","display":"laboratory","userSelected":true}]}],"code":{"coding":[{"system":"http://loinc.org","version":"2.73","code":"26464-8","display":"Leukocytes [#/volume] in Blood","userSelected":true}]},"subject":{"reference":"Patient/bf104ec1-2d51-4709-ae27-b3ae475454e4"},"effectiveDateTime":"2025-01-31T07:00:00.000+00:00","issued":"2025-01-31T07:00:00.000+00:00","valueQuantity":{"value":20,"unit":"10*3/u"}},"request":{"method":"PUT","url":"Observation/2a317aa4-23be-42b1-a9cd-6fd32cf3100f"}},{"fullUrl":"https://madie.cms.gov/MeasureReport/d3b92196-5da4-435a-86ee-d58df8cdb0b4","resource":{"resourceType":"MeasureReport","id":"d3b92196-5da4-435a-86ee-d58df8cdb0b4","meta":{"profile":["http://hl7.org/fhir/us/cqfmeasures/StructureDefinition/test-case-cqfm"]},"contained":[{"resourceType":"Parameters","id":"bad02482-5d47-4907-abf6-b809a4275e95-parameters","parameter":[{"name":"subject","valueString":"bf104ec1-2d51-4709-ae27-b3ae475454e4"}]}],"extension":[{"url":"http://hl7.org/fhir/us/cqfmeasures/StructureDefinition/cqfm-inputParameters","valueReference":{"reference":"#bad02482-5d47-4907-abf6-b809a4275e95-parameters"}},{"url":"http://hl7.org/fhir/us/cqfmeasures/StructureDefinition/cqfm-testCaseDescription","valueMarkdown":"Patient with WBC that starts 24 hours before ED OB Triage encounter.  \n"}],"modifierExtension":[{"url":"http://hl7.org/fhir/us/cqfmeasures/StructureDefinition/cqfm-isTestCase","valueBoolean":true}],"status":"complete","type":"individual","measure":"https://madie.cms.gov/Measure/CMS1028FHIRPCSevereOBComps","period":{"start":"2025-01-01","end":"2025-12-31"},"group":[{"population":[{"code":{"coding":[{"system":"http://terminology.hl7.org/CodeSystem/measure-population","code":"initial-population","display":"Initial Population"}]},"count":1},{"code":{"coding":[{"system":"http://terminology.hl7.org/CodeSystem/measure-population","code":"denominator","display":"Denominator"}]},"count":1},{"code":{"coding":[{"system":"http://terminology.hl7.org/CodeSystem/measure-population","code":"numerator","display":"Numerator"}]},"count":0},{"code":{"coding":[{"system":"http://terminology.hl7.org/CodeSystem/measure-population","code":"numerator-exclusion","display":"Numerator Exclusion"}]},"count":0}]},{"population":[{"code":{"coding":[{"system":"http://terminology.hl7.org/CodeSystem/measure-population","code":"initial-population","display":"Initial Population"}]},"count":1},{"code":{"coding":[{"system":"http://terminology.hl7.org/CodeSystem/measure-population","code":"denominator","display":"Denominator"}]},"count":1},{"code":{"coding":[{"system":"http://terminology.hl7.org/CodeSystem/measure-population","code":"numerator","display":"Numerator"}]},"count":0},{"code":{"coding":[{"system":"http://terminology.hl7.org/CodeSystem/measure-population","code":"numerator-exclusion","display":"Numerator Exclusion"}]},"count":0}]}]},"request":{"method":"PUT","url":"MeasureReport/d3b92196-5da4-435a-86ee-d58df8cdb0b4"}}]}