{"resourceType":"Bundle","id":"tests-88bf07ab-7d0d-4610-a2f1-15b1774d33fa-bundle","type":"transaction","entry":[{"fullUrl":"https://madie.cms.gov/Patient/88bf07ab-7d0d-4610-a2f1-15b1774d33fa","resource":{"resourceType":"Patient","id":"88bf07ab-7d0d-4610-a2f1-15b1774d33fa","meta":{"profile":["http://hl7.org/fhir/us/qicore/StructureDefinition/qicore-patient"]},"text":{"status":"generated","div":"<div xmlns=\"http://www.w3.org/1999/xhtml\"><div class=\"hapiHeaderText\">HystWithAccreta <b>NUMEXCFail </b></div><table class=\"hapiPropertyTable\"><tbody><tr><td>Date of birth</td><td><span>01 February 2004</span></td></tr></tbody></table></div>"},"extension":[{"url":"http://hl7.org/fhir/us/core/StructureDefinition/us-core-race","extension":[{"url":"ombCategory","valueCoding":{"system":"urn:oid:2.16.840.1.113883.6.238","code":"1002-5","display":"American Indian or Alaska Native","userSelected":true}},{"url":"text","valueString":"American Indian or Alaska Native"}]},{"url":"http://hl7.org/fhir/us/core/StructureDefinition/us-core-ethnicity","extension":[{"url":"ombCategory","valueCoding":{"system":"urn:oid:2.16.840.1.113883.6.238","code":"2135-2","display":"Hispanic or Latino","userSelected":true}},{"url":"text","valueString":"Hispanic or Latino"}]}],"identifier":[{"type":{"coding":[{"system":"http://terminology.hl7.org/CodeSystem/v2-0203","code":"MR"}]},"system":"https://bonnie-fhir.healthit.gov/","value":"633b3f9f0968f80122503cdb"}],"active":true,"name":[{"use":"usual","family":"NUMEXCFail","given":["HystWithAccreta"]}],"gender":"female","birthDate":"2004-02-01"},"request":{"method":"PUT","url":"Patient/88bf07ab-7d0d-4610-a2f1-15b1774d33fa"}},{"fullUrl":"https://madie.cms.gov/Observation/bb9ba2ef-3f9c-45b1-a9aa-368605b97ab1","resource":{"resourceType":"Observation","id":"bb9ba2ef-3f9c-45b1-a9aa-368605b97ab1","meta":{"profile":["http://hl7.org/fhir/us/qicore/StructureDefinition/qicore-observation"]},"status":"final","category":[{"coding":[{"system":"http://terminology.hl7.org/CodeSystem/observation-category","code":"exam","display":"exam","userSelected":true}]}],"code":{"coding":[{"system":"http://loinc.org","code":"93857-1"}]},"subject":{"reference":"Patient/88bf07ab-7d0d-4610-a2f1-15b1774d33fa"},"effectiveDateTime":"2025-02-01T08:00:00.000+00:00","valueDateTime":"2025-02-01T08:00:00+00:00"},"request":{"method":"PUT","url":"Observation/bb9ba2ef-3f9c-45b1-a9aa-368605b97ab1"}},{"fullUrl":"https://madie.cms.gov/Observation/3a27fa89-d476-413f-a568-eb435ea1a691","resource":{"resourceType":"Observation","id":"3a27fa89-d476-413f-a568-eb435ea1a691","meta":{"profile":["http://hl7.org/fhir/us/qicore/StructureDefinition/qicore-observation"]},"status":"final","category":[{"coding":[{"system":"http://terminology.hl7.org/CodeSystem/observation-category","code":"exam","display":"exam","userSelected":true}]}],"code":{"coding":[{"system":"http://loinc.org","code":"11884-4"}]},"subject":{"reference":"Patient/88bf07ab-7d0d-4610-a2f1-15b1774d33fa"},"effectiveDateTime":"2025-02-01T08:00:00.000+00:00","valueQuantity":{"value":20,"system":"http://unitsofmeasure.org","code":"wk"}},"request":{"method":"PUT","url":"Observation/3a27fa89-d476-413f-a568-eb435ea1a691"}},{"fullUrl":"https://madie.cms.gov/Observation/252cabbd-2b87-4cd6-8be5-9a36f8a06790","resource":{"resourceType":"Observation","id":"252cabbd-2b87-4cd6-8be5-9a36f8a06790","meta":{"profile":["http://hl7.org/fhir/us/qicore/StructureDefinition/qicore-observation"]},"status":"final","category":[{"coding":[{"system":"http://terminology.hl7.org/CodeSystem/observation-category","code":"exam","display":"exam","userSelected":true}]}],"code":{"coding":[{"system":"https://www.cms.gov/medicare/coding-billing/icd-10-codes","code":"O43.219"}]},"subject":{"reference":"Patient/88bf07ab-7d0d-4610-a2f1-15b1774d33fa"},"effectiveDateTime":"2025-02-01T08:00:00.000+00:00"},"request":{"method":"PUT","url":"Observation/252cabbd-2b87-4cd6-8be5-9a36f8a06790"}},{"fullUrl":"https://madie.cms.gov/Encounter/28de9ae3-1665-4f43-afa0-76d1f68881d1","resource":{"resourceType":"Encounter","id":"28de9ae3-1665-4f43-afa0-76d1f68881d1","meta":{"profile":["http://hl7.org/fhir/us/qicore/StructureDefinition/qicore-encounter"]},"status":"finished","class":{"system":"http://terminology.hl7.org/CodeSystem/v3-ActCode","code":"IMP","display":"inpatient encounter"},"type":[{"coding":[{"system":"http://snomed.info/sct","code":"183452005"}]}],"subject":{"reference":"Patient/88bf07ab-7d0d-4610-a2f1-15b1774d33fa"},"period":{"start":"2025-02-01T08:00:00.000Z","end":"2025-02-05T08:15:00.000Z"}},"request":{"method":"PUT","url":"Encounter/28de9ae3-1665-4f43-afa0-76d1f68881d1"}},{"fullUrl":"https://madie.cms.gov/Coverage/4dc0844f-4d16-460d-b77a-3e4df343c1e9","resource":{"resourceType":"Coverage","id":"4dc0844f-4d16-460d-b77a-3e4df343c1e9","status":"active","beneficiary":{"reference":"Patient/88bf07ab-7d0d-4610-a2f1-15b1774d33fa"},"period":{"start":"2004-02-01T08:00:00.000Z"},"payor":[{"reference":"Organization/5ad6ea38-07e9-4482-9e1b-c09eee595be9"}]},"request":{"method":"PUT","url":"Coverage/4dc0844f-4d16-460d-b77a-3e4df343c1e9"}},{"fullUrl":"https://madie.cms.gov/Procedure/4875f785-abcb-40f3-8018-d27c09b95b1a","resource":{"resourceType":"Procedure","id":"4875f785-abcb-40f3-8018-d27c09b95b1a","meta":{"profile":["http://hl7.org/fhir/us/qicore/StructureDefinition/qicore-procedure"]},"extension":[{"url":"http://hl7.org/fhir/us/qicore/StructureDefinition/qicore-recorded","valueDateTime":"2013-04-05T09:35:00-04:00"}],"status":"completed","code":{"coding":[{"system":"http://snomed.info/sct","code":"10745001"}]},"subject":{"reference":"Patient/88bf07ab-7d0d-4610-a2f1-15b1774d33fa"},"performedPeriod":{"start":"2025-02-01T08:00:00.000Z","end":"2025-02-05T08:15:00.000Z"}},"request":{"method":"PUT","url":"Procedure/4875f785-abcb-40f3-8018-d27c09b95b1a"}},{"fullUrl":"https://madie.cms.gov/Procedure/8ea2fed0-0832-4b14-84e8-11b0f020b209","resource":{"resourceType":"Procedure","id":"8ea2fed0-0832-4b14-84e8-11b0f020b209","meta":{"profile":["http://hl7.org/fhir/us/qicore/StructureDefinition/qicore-procedure"]},"extension":[{"url":"http://hl7.org/fhir/us/qicore/StructureDefinition/qicore-recorded","valueDateTime":"2025-02-01T00:01:00-04:00"}],"status":"completed","code":{"coding":[{"system":"http://snomed.info/sct","code":"11050006"}]},"subject":{"reference":"Patient/88bf07ab-7d0d-4610-a2f1-15b1774d33fa"},"performedPeriod":{"start":"2025-02-04T00:00:00.000Z","end":"2025-02-04T11:59:00.000Z"}},"request":{"method":"PUT","url":"Procedure/8ea2fed0-0832-4b14-84e8-11b0f020b209"}},{"fullUrl":"https://madie.cms.gov/Organization/1ffd682b-24bd-4382-9e83-bf96d50bc1ca","resource":{"resourceType":"Organization","id":"5ad6ea38-07e9-4482-9e1b-c09eee595be9","meta":{"profile":["http://hl7.org/fhir/us/qicore/StructureDefinition/qicore-organization"]},"identifier":[{"use":"temp","system":"urn:oid:2.16.840.1.113883.4.4","value":"21-3259825"}],"active":true,"type":[{"coding":[{"system":"http://terminology.hl7.org/CodeSystem/organization-type","code":"pay","display":"Payer"}]}],"name":"Blue Cross Blue Shield of Texas","telecom":[{"system":"phone","value":"(+1) 972-766-6900"}],"address":[{"use":"billing","type":"postal","line":["P.O. Box 660044"],"city":"Dallas","state":"TX","postalCode":"75266-0044","country":"USA"}]},"request":{"method":"PUT","url":"Organization/5ad6ea38-07e9-4482-9e1b-c09eee595be9"}},{"fullUrl":"https://madie.cms.gov/Practitioner/7f5ce247-f7ca-4059-83cf-960e650913de","resource":{"resourceType":"Practitioner","id":"7f5ce247-f7ca-4059-83cf-960e650913de","identifier":[{"system":"http://hl7.org/fhir/sid/us-npi","value":"123456"}],"name":[{"family":"Evil","prefix":["Dr"]}]},"request":{"method":"PUT","url":"Practitioner/7f5ce247-f7ca-4059-83cf-960e650913de"}},{"fullUrl":"https://madie.cms.gov/MeasureReport/c22c8785-b43f-4ca1-8091-f034487f4b92","resource":{"resourceType":"MeasureReport","id":"c22c8785-b43f-4ca1-8091-f034487f4b92","meta":{"profile":["http://hl7.org/fhir/us/cqfmeasures/StructureDefinition/test-case-cqfm"]},"contained":[{"resourceType":"Parameters","id":"51ffa910-c85f-4685-a0a1-7c13a175ecb5-parameters","parameter":[{"name":"subject","valueString":"88bf07ab-7d0d-4610-a2f1-15b1774d33fa"}]}],"extension":[{"url":"http://hl7.org/fhir/us/cqfmeasures/StructureDefinition/cqfm-inputParameters","valueReference":{"reference":"#51ffa910-c85f-4685-a0a1-7c13a175ecb5-parameters"}},{"url":"http://hl7.org/fhir/us/cqfmeasures/StructureDefinition/cqfm-testCaseDescription","valueMarkdown":"Hysterectomy SOC with Placenta Accreta"}],"modifierExtension":[{"url":"http://hl7.org/fhir/us/cqfmeasures/StructureDefinition/cqfm-isTestCase","valueBoolean":true}],"status":"complete","type":"individual","measure":"https://madie.cms.gov/Measure/CMS1028FHIRPCSevereOBComps","period":{"start":"2025-01-01","end":"2025-12-31"},"group":[{"population":[{"code":{"coding":[{"system":"http://terminology.hl7.org/CodeSystem/measure-population","code":"initial-population","display":"Initial Population"}]},"count":1},{"code":{"coding":[{"system":"http://terminology.hl7.org/CodeSystem/measure-population","code":"denominator","display":"Denominator"}]},"count":1},{"code":{"coding":[{"system":"http://terminology.hl7.org/CodeSystem/measure-population","code":"numerator","display":"Numerator"}]},"count":1},{"code":{"coding":[{"system":"http://terminology.hl7.org/CodeSystem/measure-population","code":"numerator-exclusion","display":"Numerator Exclusion"}]},"count":0}]},{"population":[{"code":{"coding":[{"system":"http://terminology.hl7.org/CodeSystem/measure-population","code":"initial-population","display":"Initial Population"}]},"count":1},{"code":{"coding":[{"system":"http://terminology.hl7.org/CodeSystem/measure-population","code":"denominator","display":"Denominator"}]},"count":1},{"code":{"coding":[{"system":"http://terminology.hl7.org/CodeSystem/measure-population","code":"numerator","display":"Numerator"}]},"count":1},{"code":{"coding":[{"system":"http://terminology.hl7.org/CodeSystem/measure-population","code":"numerator-exclusion","display":"Numerator Exclusion"}]},"count":0}]}]},"request":{"method":"PUT","url":"MeasureReport/c22c8785-b43f-4ca1-8091-f034487f4b92"}}]}