{"resourceType":"Bundle","id":"tests-d100db8c-f0d9-4098-b618-a5329cecb7b0-bundle","type":"transaction","entry":[{"fullUrl":"https://madie.cms.gov/Patient/d100db8c-f0d9-4098-b618-a5329cecb7b0","resource":{"resourceType":"Patient","id":"d100db8c-f0d9-4098-b618-a5329cecb7b0","meta":{"profile":["http://hl7.org/fhir/us/qicore/StructureDefinition/qicore-patient"]},"text":{"status":"generated","div":"<div xmlns=\"http://www.w3.org/1999/xhtml\"><div class=\"hapiHeaderText\">Risk_BariatricSurgery<b>RISKPass </b></div><table class=\"hapiPropertyTable\"><tbody><tr><td>Date of birth</td><td><span>01 February 2004</span></td></tr></tbody></table></div>"},"extension":[{"url":"http://hl7.org/fhir/us/core/StructureDefinition/us-core-race","extension":[{"url":"ombCategory","valueCoding":{"system":"urn:oid:2.16.840.1.113883.6.238","code":"1002-5","display":"American Indian or Alaska Native","userSelected":true}},{"url":"text","valueString":"American Indian or Alaska Native"}]},{"url":"http://hl7.org/fhir/us/core/StructureDefinition/us-core-ethnicity","extension":[{"url":"ombCategory","valueCoding":{"system":"urn:oid:2.16.840.1.113883.6.238","code":"2135-2","display":"Hispanic or Latino","userSelected":true}},{"url":"text","valueString":"Hispanic or Latino"}]}],"identifier":[{"type":{"coding":[{"system":"http://terminology.hl7.org/CodeSystem/v2-0203","code":"MR"}]},"system":"https://bonnie-fhir.healthit.gov/","value":"63594c7a6aee9629c82981df"}],"active":true,"name":[{"use":"usual","family":"RiskPass","given":["Risk_BariatricSurgery"]}],"gender":"female","birthDate":"2004-02-01"},"request":{"method":"PUT","url":"Patient/d100db8c-f0d9-4098-b618-a5329cecb7b0"}},{"fullUrl":"https://madie.cms.gov/Observation/9ab009b7-dc8f-4143-9c09-bd7713b0e66c","resource":{"resourceType":"Observation","id":"9ab009b7-dc8f-4143-9c09-bd7713b0e66c","meta":{"profile":["http://hl7.org/fhir/us/qicore/StructureDefinition/qicore-observation"]},"status":"final","category":[{"coding":[{"system":"http://terminology.hl7.org/CodeSystem/observation-category","code":"exam","display":"exam","userSelected":true}]}],"code":{"coding":[{"system":"http://loinc.org","code":"93857-1"}]},"subject":{"reference":"Patient/d100db8c-f0d9-4098-b618-a5329cecb7b0"},"effectiveDateTime":"2025-02-01T08:00:00.000+00:00","valueDateTime":"2025-02-01T08:00:00+00:00"},"request":{"method":"PUT","url":"Observation/9ab009b7-dc8f-4143-9c09-bd7713b0e66c"}},{"fullUrl":"https://madie.cms.gov/Observation/4c01b6ea-a980-43b9-9696-0f87186677aa","resource":{"resourceType":"Observation","id":"4c01b6ea-a980-43b9-9696-0f87186677aa","meta":{"profile":["http://hl7.org/fhir/us/qicore/StructureDefinition/qicore-observation"]},"status":"final","category":[{"coding":[{"system":"http://terminology.hl7.org/CodeSystem/observation-category","code":"exam","display":"exam","userSelected":true}]}],"code":{"coding":[{"system":"http://loinc.org","code":"11778-8"}]},"subject":{"reference":"Patient/d100db8c-f0d9-4098-b618-a5329cecb7b0"},"effectiveDateTime":"2025-02-01T08:00:00.000+00:00","valueDateTime":"2025-02-01T00:00:00.000+00:00"},"request":{"method":"PUT","url":"Observation/4c01b6ea-a980-43b9-9696-0f87186677aa"}},{"fullUrl":"https://madie.cms.gov/Encounter/98c74e32-04b9-4f16-9187-afdad8b3e4eb","resource":{"resourceType":"Encounter","id":"98c74e32-04b9-4f16-9187-afdad8b3e4eb","meta":{"profile":["http://hl7.org/fhir/us/qicore/StructureDefinition/qicore-encounter"]},"status":"finished","class":{"system":"http://terminology.hl7.org/CodeSystem/v3-ActCode","code":"IMP","display":"inpatient encounter"},"type":[{"coding":[{"system":"http://snomed.info/sct","code":"183452005"}]}],"subject":{"reference":"Patient/d100db8c-f0d9-4098-b618-a5329cecb7b0"},"period":{"start":"2025-02-01T08:00:00.000Z","end":"2025-02-05T08:15:00.000Z"},"diagnosis":[{"extension":[{"url":"http://hl7.org/fhir/us/qicore/StructureDefinition/qicore-encounter-diagnosisPresentOnAdmission","valueCodeableConcept":{"coding":[{"system":"https://www.cms.gov/Medicare/Medicare-Fee-for-Service-Payment/HospitalAcqCond/Coding","code":"Y"}]}}],"condition":{"reference":"Condition/d276608d-1bd5-4324-87d4-5d0512227cf0"}},{"extension":[{"url":"http://hl7.org/fhir/us/qicore/StructureDefinition/qicore-encounter-diagnosisPresentOnAdmission","valueCodeableConcept":{"coding":[{"system":"https://www.cms.gov/Medicare/Medicare-Fee-for-Service-Payment/HospitalAcqCond/Coding","code":"N"}]}}],"condition":{"reference":"Condition/90feaae0-807e-4ffa-83fe-910e24bdf945"}}]},"request":{"method":"PUT","url":"Encounter/98c74e32-04b9-4f16-9187-afdad8b3e4eb"}},{"fullUrl":"https://madie.cms.gov/Procedure/733acd14-a066-4a74-ae88-085c8f275653","resource":{"resourceType":"Procedure","id":"733acd14-a066-4a74-ae88-085c8f275653","meta":{"profile":["http://hl7.org/fhir/us/qicore/StructureDefinition/qicore-procedure"]},"extension":[{"url":"http://hl7.org/fhir/us/qicore/StructureDefinition/qicore-recorded","valueDateTime":"2013-04-05T09:35:00-04:00"}],"status":"completed","code":{"coding":[{"system":"http://snomed.info/sct","code":"10745001"}]},"subject":{"reference":"Patient/d100db8c-f0d9-4098-b618-a5329cecb7b0"},"performedDateTime":"2025-02-01T08:00:00.000+00:00"},"request":{"method":"PUT","url":"Procedure/733acd14-a066-4a74-ae88-085c8f275653"}},{"fullUrl":"https://madie.cms.gov/Condition/90feaae0-807e-4ffa-83fe-910e24bdf945","resource":{"resourceType":"Condition","id":"90feaae0-807e-4ffa-83fe-910e24bdf945","meta":{"profile":["http://hl7.org/fhir/us/qicore/StructureDefinition/qicore-condition"]},"category":[{"coding":[{"system":"http://terminology.hl7.org/CodeSystem/condition-category","code":"encounter-diagnosis","display":"Encounter Diagnosis"}]}],"code":{"coding":[{"system":"http://hl7.org/fhir/sid/icd-10-cm","version":"2023","code":"A32.7","display":"Listerial sepsis","userSelected":true}]},"subject":{"reference":"Patient/d100db8c-f0d9-4098-b618-a5329cecb7b0"},"recordedDate":"2025-10-26T08:00:00.000+00:00"},"request":{"method":"PUT","url":"Condition/90feaae0-807e-4ffa-83fe-910e24bdf945"}},{"fullUrl":"https://madie.cms.gov/Condition/d276608d-1bd5-4324-87d4-5d0512227cf0","resource":{"resourceType":"Condition","id":"d276608d-1bd5-4324-87d4-5d0512227cf0","meta":{"profile":["http://hl7.org/fhir/us/qicore/StructureDefinition/qicore-condition"]},"category":[{"coding":[{"system":"http://terminology.hl7.org/CodeSystem/condition-category","code":"encounter-diagnosis","display":"Encounter Diagnosis"}]}],"code":{"coding":[{"system":"http://hl7.org/fhir/sid/icd-10-cm","version":"2023","code":"O99.840","display":"Bariatric Surgery-81e0","userSelected":true}]},"subject":{"reference":"Patient/d100db8c-f0d9-4098-b618-a5329cecb7b0"},"recordedDate":"2025-10-26T08:00:00.000+00:00"},"request":{"method":"PUT","url":"Condition/d276608d-1bd5-4324-87d4-5d0512227cf0"}},{"fullUrl":"https://madie.cms.gov/MeasureReport/cf909529-4706-4a72-99ce-e9085c616c1d","resource":{"resourceType":"MeasureReport","id":"cf909529-4706-4a72-99ce-e9085c616c1d","meta":{"profile":["http://hl7.org/fhir/us/cqfmeasures/StructureDefinition/test-case-cqfm"]},"contained":[{"resourceType":"Parameters","id":"bd69a7c2-86fc-406d-8f42-37458c0c5393-parameters","parameter":[{"name":"subject","valueString":"d100db8c-f0d9-4098-b618-a5329cecb7b0"}]}],"extension":[{"url":"http://hl7.org/fhir/us/cqfmeasures/StructureDefinition/cqfm-inputParameters","valueReference":{"reference":"#bd69a7c2-86fc-406d-8f42-37458c0c5393-parameters"}},{"url":"http://hl7.org/fhir/us/cqfmeasures/StructureDefinition/cqfm-testCaseDescription","valueMarkdown":"Risk variable of bariatric surgery.\n\n"}],"modifierExtension":[{"url":"http://hl7.org/fhir/us/cqfmeasures/StructureDefinition/cqfm-isTestCase","valueBoolean":true}],"status":"complete","type":"individual","measure":"https://madie.cms.gov/Measure/CMS1028FHIRPCSevereOBComps","period":{"start":"2025-01-01","end":"2025-12-31"},"group":[{"population":[{"code":{"coding":[{"system":"http://terminology.hl7.org/CodeSystem/measure-population","code":"initial-population","display":"Initial Population"}]},"count":1},{"code":{"coding":[{"system":"http://terminology.hl7.org/CodeSystem/measure-population","code":"denominator","display":"Denominator"}]},"count":1},{"code":{"coding":[{"system":"http://terminology.hl7.org/CodeSystem/measure-population","code":"numerator","display":"Numerator"}]},"count":1},{"code":{"coding":[{"system":"http://terminology.hl7.org/CodeSystem/measure-population","code":"numerator-exclusion","display":"Numerator Exclusion"}]},"count":0}]},{"population":[{"code":{"coding":[{"system":"http://terminology.hl7.org/CodeSystem/measure-population","code":"initial-population","display":"Initial Population"}]},"count":1},{"code":{"coding":[{"system":"http://terminology.hl7.org/CodeSystem/measure-population","code":"denominator","display":"Denominator"}]},"count":1},{"code":{"coding":[{"system":"http://terminology.hl7.org/CodeSystem/measure-population","code":"numerator","display":"Numerator"}]},"count":1},{"code":{"coding":[{"system":"http://terminology.hl7.org/CodeSystem/measure-population","code":"numerator-exclusion","display":"Numerator Exclusion"}]},"count":0}]}]},"request":{"method":"PUT","url":"MeasureReport/cf909529-4706-4a72-99ce-e9085c616c1d"}}]}