{"resourceType":"Bundle","id":"tests-46c495dc-7e07-4831-8de3-3f6aa6c478ae-bundle","type":"transaction","entry":[{"fullUrl":"https://madie.cms.gov/Patient/46c495dc-7e07-4831-8de3-3f6aa6c478ae","resource":{"resourceType":"Patient","id":"46c495dc-7e07-4831-8de3-3f6aa6c478ae","meta":{"profile":["http://hl7.org/fhir/us/qicore/StructureDefinition/qicore-patient"]},"text":{"status":"generated","div":"<div xmlns=\"http://www.w3.org/1999/xhtml\"><div class=\"hapiHeaderText\">AssPrfDelRsltDtTime_B4IPStart <b>DENOMFAIL </b></div><table class=\"hapiPropertyTable\"><tbody><tr><td>Date of birth</td><td><span>01 February 2004</span></td></tr></tbody></table></div>"},"extension":[{"url":"http://hl7.org/fhir/us/core/StructureDefinition/us-core-race","extension":[{"url":"ombCategory","valueCoding":{"system":"urn:oid:2.16.840.1.113883.6.238","code":"1002-5","display":"American Indian or Alaska Native","userSelected":true}},{"url":"text","valueString":"American Indian or Alaska Native"}]},{"url":"http://hl7.org/fhir/us/core/StructureDefinition/us-core-ethnicity","extension":[{"url":"ombCategory","valueCoding":{"system":"urn:oid:2.16.840.1.113883.6.238","code":"2135-2","display":"Hispanic or Latino","userSelected":true}},{"url":"text","valueString":"Hispanic or Latino"}]}],"identifier":[{"type":{"coding":[{"system":"http://terminology.hl7.org/CodeSystem/v2-0203","code":"MR"}]},"system":"https://bonnie-fhir.healthit.gov/","value":"633b3f9e0968f80122503ccd"}],"active":true,"name":[{"use":"usual","family":"DENOMFail","given":["AssPrfDelRsltDtTime_B4IPStart"]}],"gender":"female","birthDate":"2004-02-01"},"request":{"method":"PUT","url":"Patient/46c495dc-7e07-4831-8de3-3f6aa6c478ae"}},{"fullUrl":"https://madie.cms.gov/Observation/aaebd251-80f3-4f08-84cc-2f336e43be6f","resource":{"resourceType":"Observation","id":"aaebd251-80f3-4f08-84cc-2f336e43be6f","meta":{"profile":["http://hl7.org/fhir/us/qicore/StructureDefinition/qicore-observation"]},"status":"final","category":[{"coding":[{"system":"http://terminology.hl7.org/CodeSystem/observation-category","code":"exam","display":"exam","userSelected":true}]}],"code":{"coding":[{"system":"http://loinc.org","code":"93857-1"}]},"subject":{"reference":"Patient/46c495dc-7e07-4831-8de3-3f6aa6c478ae"},"effectiveDateTime":"2025-02-01T08:00:00.000+00:00","valueDateTime":"2025-02-01T07:59:00+00:00"},"request":{"method":"PUT","url":"Observation/aaebd251-80f3-4f08-84cc-2f336e43be6f"}},{"fullUrl":"https://madie.cms.gov/Observation/e0b32411-11cc-4b5b-a82f-a32d7f3eea65","resource":{"resourceType":"Observation","id":"e0b32411-11cc-4b5b-a82f-a32d7f3eea65","meta":{"profile":["http://hl7.org/fhir/us/qicore/StructureDefinition/qicore-observation"]},"status":"final","category":[{"coding":[{"system":"http://terminology.hl7.org/CodeSystem/observation-category","code":"exam","display":"exam","userSelected":true}]}],"code":{"coding":[{"system":"http://loinc.org","code":"11778-8"}]},"subject":{"reference":"Patient/46c495dc-7e07-4831-8de3-3f6aa6c478ae"},"effectiveDateTime":"2025-02-01T08:00:00.000+00:00","valueDateTime":"2025-02-01T08:00:00.000+00:00"},"request":{"method":"PUT","url":"Observation/e0b32411-11cc-4b5b-a82f-a32d7f3eea65"}},{"fullUrl":"https://madie.cms.gov/Encounter/6f237879-f2ff-444e-9960-e681ebe1d6d4","resource":{"resourceType":"Encounter","id":"6f237879-f2ff-444e-9960-e681ebe1d6d4","meta":{"profile":["http://hl7.org/fhir/us/qicore/StructureDefinition/qicore-encounter"]},"status":"finished","class":{"system":"http://terminology.hl7.org/CodeSystem/v3-ActCode","code":"IMP","display":"inpatient encounter"},"type":[{"coding":[{"system":"http://snomed.info/sct","code":"183452005"}]}],"subject":{"reference":"Patient/46c495dc-7e07-4831-8de3-3f6aa6c478ae"},"period":{"start":"2025-02-01T08:00:00.000Z","end":"2025-02-05T08:15:00.000Z"}},"request":{"method":"PUT","url":"Encounter/6f237879-f2ff-444e-9960-e681ebe1d6d4"}},{"fullUrl":"https://madie.cms.gov/Coverage/77e516d0-27a2-45df-a381-34e1985b4fde","resource":{"resourceType":"Coverage","id":"77e516d0-27a2-45df-a381-34e1985b4fde","status":"active","beneficiary":{"reference":"Patient/46c495dc-7e07-4831-8de3-3f6aa6c478ae"},"period":{"start":"2004-02-01T08:00:00.000Z"},"payor":[{"reference":"Organization/5ad6ea38-07e9-4482-9e1b-c09eee595be9"}]},"request":{"method":"PUT","url":"Coverage/77e516d0-27a2-45df-a381-34e1985b4fde"}},{"fullUrl":"https://madie.cms.gov/Procedure/87d5b045-ad92-4c2d-bfee-8e6ad3722353","resource":{"resourceType":"Procedure","id":"87d5b045-ad92-4c2d-bfee-8e6ad3722353","meta":{"profile":["http://hl7.org/fhir/us/qicore/StructureDefinition/qicore-procedure"]},"extension":[{"url":"http://hl7.org/fhir/us/qicore/StructureDefinition/qicore-recorded","valueDateTime":"2013-04-05T09:35:00-04:00"}],"status":"completed","code":{"coding":[{"system":"http://snomed.info/sct","code":"10745001"}]},"subject":{"reference":"Patient/46c495dc-7e07-4831-8de3-3f6aa6c478ae"},"performedPeriod":{"start":"2025-02-01T08:00:00.000Z","end":"2025-02-05T08:15:00.000Z"}},"request":{"method":"PUT","url":"Procedure/87d5b045-ad92-4c2d-bfee-8e6ad3722353"}},{"fullUrl":"https://madie.cms.gov/Organization/76af1110-c0c9-4d7f-8be9-e7b1a489fc35","resource":{"resourceType":"Organization","id":"5ad6ea38-07e9-4482-9e1b-c09eee595be9","meta":{"profile":["http://hl7.org/fhir/us/qicore/StructureDefinition/qicore-organization"]},"identifier":[{"use":"temp","system":"urn:oid:2.16.840.1.113883.4.4","value":"21-3259825"}],"active":true,"type":[{"coding":[{"system":"http://terminology.hl7.org/CodeSystem/organization-type","code":"pay","display":"Payer"}]}],"name":"Blue Cross Blue Shield of Texas","telecom":[{"system":"phone","value":"(+1) 972-766-6900"}],"address":[{"use":"billing","type":"postal","line":["P.O. Box 660044"],"city":"Dallas","state":"TX","postalCode":"75266-0044","country":"USA"}]},"request":{"method":"PUT","url":"Organization/5ad6ea38-07e9-4482-9e1b-c09eee595be9"}},{"fullUrl":"https://madie.cms.gov/Practitioner/fa0ad88f-a40a-4b48-9c34-2bbf2b228d7b","resource":{"resourceType":"Practitioner","id":"fa0ad88f-a40a-4b48-9c34-2bbf2b228d7b","identifier":[{"system":"http://hl7.org/fhir/sid/us-npi","value":"123456"}],"name":[{"family":"Evil","prefix":["Dr"]}]},"request":{"method":"PUT","url":"Practitioner/fa0ad88f-a40a-4b48-9c34-2bbf2b228d7b"}},{"fullUrl":"https://madie.cms.gov/MeasureReport/4d6f8696-3f6e-44cf-b1ec-b8e9fbf33f54","resource":{"resourceType":"MeasureReport","id":"4d6f8696-3f6e-44cf-b1ec-b8e9fbf33f54","meta":{"profile":["http://hl7.org/fhir/us/cqfmeasures/StructureDefinition/test-case-cqfm"]},"contained":[{"resourceType":"Parameters","id":"64180d2a-2c36-4ddb-a874-0580f4d2eada-parameters","parameter":[{"name":"subject","valueString":"46c495dc-7e07-4831-8de3-3f6aa6c478ae"}]}],"extension":[{"url":"http://hl7.org/fhir/us/cqfmeasures/StructureDefinition/cqfm-inputParameters","valueReference":{"reference":"#64180d2a-2c36-4ddb-a874-0580f4d2eada-parameters"}},{"url":"http://hl7.org/fhir/us/cqfmeasures/StructureDefinition/cqfm-testCaseDescription","valueMarkdown":"Result date/Time of delivery (based on assessment performed) is equal to 1 minute before the encounter starts\n\n"}],"modifierExtension":[{"url":"http://hl7.org/fhir/us/cqfmeasures/StructureDefinition/cqfm-isTestCase","valueBoolean":true}],"status":"complete","type":"individual","measure":"https://madie.cms.gov/Measure/CMS1028FHIRPCSevereOBComps","period":{"start":"2025-01-01","end":"2025-12-31"},"group":[{"population":[{"code":{"coding":[{"system":"http://terminology.hl7.org/CodeSystem/measure-population","code":"initial-population","display":"Initial Population"}]},"count":1},{"code":{"coding":[{"system":"http://terminology.hl7.org/CodeSystem/measure-population","code":"denominator","display":"Denominator"}]},"count":0},{"code":{"coding":[{"system":"http://terminology.hl7.org/CodeSystem/measure-population","code":"numerator","display":"Numerator"}]},"count":0},{"code":{"coding":[{"system":"http://terminology.hl7.org/CodeSystem/measure-population","code":"numerator-exclusion","display":"Numerator Exclusion"}]},"count":0}]},{"population":[{"code":{"coding":[{"system":"http://terminology.hl7.org/CodeSystem/measure-population","code":"initial-population","display":"Initial Population"}]},"count":1},{"code":{"coding":[{"system":"http://terminology.hl7.org/CodeSystem/measure-population","code":"denominator","display":"Denominator"}]},"count":0},{"code":{"coding":[{"system":"http://terminology.hl7.org/CodeSystem/measure-population","code":"numerator","display":"Numerator"}]},"count":0},{"code":{"coding":[{"system":"http://terminology.hl7.org/CodeSystem/measure-population","code":"numerator-exclusion","display":"Numerator Exclusion"}]},"count":0}]}]},"request":{"method":"PUT","url":"MeasureReport/4d6f8696-3f6e-44cf-b1ec-b8e9fbf33f54"}}]}