{"resourceType":"Bundle","id":"tests-9e8120ac-aa57-4a15-8c4f-0472d1b105f7-bundle","type":"transaction","entry":[{"fullUrl":"https://madie.cms.gov/Patient/9e8120ac-aa57-4a15-8c4f-0472d1b105f7","resource":{"resourceType":"Patient","id":"9e8120ac-aa57-4a15-8c4f-0472d1b105f7","meta":{"profile":["http://hl7.org/fhir/us/qicore/StructureDefinition/qicore-patient"]},"text":{"status":"generated","div":"<div xmlns=\"http://www.w3.org/1999/xhtml\"><div class=\"hapiHeaderText\">RISKSBPRelDtTimeEQDelStartless1Min <b>RISKPass </b></div><table class=\"hapiPropertyTable\"><tbody><tr><td>Date of birth</td><td><span>01 February 2004</span></td></tr></tbody></table></div>"},"extension":[{"url":"http://hl7.org/fhir/us/core/StructureDefinition/us-core-race","extension":[{"url":"ombCategory","valueCoding":{"system":"urn:oid:2.16.840.1.113883.6.238","code":"1002-5","display":"American Indian or Alaska Native","userSelected":true}},{"url":"text","valueString":"American Indian or Alaska Native"}]},{"url":"http://hl7.org/fhir/us/core/StructureDefinition/us-core-ethnicity","extension":[{"url":"ombCategory","valueCoding":{"system":"urn:oid:2.16.840.1.113883.6.238","code":"2135-2","display":"Hispanic or Latino","userSelected":true}},{"url":"text","valueString":"Hispanic or Latino"}]}],"identifier":[{"type":{"coding":[{"system":"http://terminology.hl7.org/CodeSystem/v2-0203","code":"MR"}]},"system":"https://bonnie-fhir.healthit.gov/","value":"63598dd9c35f1c19df09adbd"}],"active":true,"name":[{"use":"usual","family":"RiskPass","given":["RISKSBPRelDtTimeEQDelStartless1Min"]}],"gender":"female","birthDate":"2004-02-01"},"request":{"method":"PUT","url":"Patient/9e8120ac-aa57-4a15-8c4f-0472d1b105f7"}},{"fullUrl":"https://madie.cms.gov/Observation/7822db1f-b9d1-4a50-8786-ac791f2ec990","resource":{"resourceType":"Observation","id":"7822db1f-b9d1-4a50-8786-ac791f2ec990","meta":{"profile":["http://hl7.org/fhir/us/qicore/StructureDefinition/qicore-observation"]},"status":"final","category":[{"coding":[{"system":"http://terminology.hl7.org/CodeSystem/observation-category","code":"exam","display":"exam","userSelected":true}]}],"code":{"coding":[{"system":"http://loinc.org","code":"93857-1"}]},"subject":{"reference":"Patient/9e8120ac-aa57-4a15-8c4f-0472d1b105f7"},"effectiveDateTime":"2025-02-01T08:00:00.000+00:00","valueDateTime":"2025-02-01T08:00:00+00:00"},"request":{"method":"PUT","url":"Observation/7822db1f-b9d1-4a50-8786-ac791f2ec990"}},{"fullUrl":"https://madie.cms.gov/Observation/098d8f0e-2adb-4e43-95dc-0ffda81d8d3d","resource":{"resourceType":"Observation","id":"098d8f0e-2adb-4e43-95dc-0ffda81d8d3d","meta":{"profile":["http://hl7.org/fhir/us/qicore/StructureDefinition/qicore-observation"]},"status":"final","category":[{"coding":[{"system":"http://terminology.hl7.org/CodeSystem/observation-category","code":"exam","display":"exam","userSelected":true}]}],"code":{"coding":[{"system":"http://loinc.org","code":"11884-4"}]},"subject":{"reference":"Patient/9e8120ac-aa57-4a15-8c4f-0472d1b105f7"},"effectiveDateTime":"2025-02-01T08:00:00.000+00:00","valueQuantity":{"value":21,"system":"http://unitsofmeasure.org","code":"wk"}},"request":{"method":"PUT","url":"Observation/098d8f0e-2adb-4e43-95dc-0ffda81d8d3d"}},{"fullUrl":"https://madie.cms.gov/Encounter/24d47b95-f56f-4360-8dce-6b2e9a7e71ee","resource":{"resourceType":"Encounter","id":"24d47b95-f56f-4360-8dce-6b2e9a7e71ee","meta":{"profile":["http://hl7.org/fhir/us/qicore/StructureDefinition/qicore-encounter"]},"status":"finished","class":{"system":"http://terminology.hl7.org/CodeSystem/v3-ActCode","code":"IMP","display":"inpatient encounter"},"type":[{"coding":[{"system":"http://snomed.info/sct","code":"183452005"}]}],"subject":{"reference":"Patient/9e8120ac-aa57-4a15-8c4f-0472d1b105f7"},"period":{"start":"2025-02-01T08:00:00.000+00:00","end":"2025-02-05T08:15:00.000+00:00"}},"request":{"method":"PUT","url":"Encounter/24d47b95-f56f-4360-8dce-6b2e9a7e71ee"}},{"fullUrl":"https://madie.cms.gov/Encounter/6e59fad0-3a73-43af-918e-eabe4d107b84","resource":{"resourceType":"Encounter","id":"6e59fad0-3a73-43af-918e-eabe4d107b84","meta":{"profile":["http://hl7.org/fhir/us/qicore/StructureDefinition/qicore-encounter"]},"status":"finished","class":{"system":"http://terminology.hl7.org/CodeSystem/v3-ActCode","code":"EMER","display":"emergency"},"type":[{"coding":[{"system":"http://snomed.info/sct","code":"4525004"}]}],"subject":{"reference":"Patient/9e8120ac-aa57-4a15-8c4f-0472d1b105f7"},"period":{"start":"2025-02-01T07:00:00.000+00:00","end":"2025-02-01T07:59:00.000+00:00"}},"request":{"method":"PUT","url":"Encounter/6e59fad0-3a73-43af-918e-eabe4d107b84"}},{"fullUrl":"https://madie.cms.gov/Procedure/3d1860ea-5106-4627-8130-3bae6eb33ad1","resource":{"resourceType":"Procedure","id":"3d1860ea-5106-4627-8130-3bae6eb33ad1","meta":{"profile":["http://hl7.org/fhir/us/qicore/StructureDefinition/qicore-procedure"]},"extension":[{"url":"http://hl7.org/fhir/us/qicore/StructureDefinition/qicore-recorded","valueDateTime":"2025-02-04T09:35:00-04:00"}],"status":"completed","code":{"coding":[{"system":"http://snomed.info/sct","code":"10745001"}]},"subject":{"reference":"Patient/9e8120ac-aa57-4a15-8c4f-0472d1b105f7"},"performedPeriod":{"start":"2025-02-01T08:00:00.000+00:00","end":"2025-02-05T08:15:00.000+00:00"}},"request":{"method":"PUT","url":"Procedure/3d1860ea-5106-4627-8130-3bae6eb33ad1"}},{"fullUrl":"https://madie.cms.gov/Observation/5cf64f1a-7f2c-4756-9902-49d85b251d08","resource":{"resourceType":"Observation","id":"5cf64f1a-7f2c-4756-9902-49d85b251d08","meta":{"profile":["http://hl7.org/fhir/StructureDefinition/bp"]},"status":"final","category":[{"coding":[{"system":"http://terminology.hl7.org/CodeSystem/observation-category","code":"vital-signs","display":"vital-signs","userSelected":true}]}],"code":{"coding":[{"system":"http://loinc.org","code":"85354-9","display":"Blood pressure panel with all children optional"}]},"subject":{"reference":"Patient/9e8120ac-aa57-4a15-8c4f-0472d1b105f7"},"effectiveDateTime":"2025-02-01T07:59:00.000+00:00","component":[{"code":{"coding":[{"system":"http://loinc.org","code":"8480-6","display":"Systolic blood pressure"}]},"valueQuantity":{"value":165,"unit":"mmHg","system":"http://unitsofmeasure.org","code":"mm[Hg]"}},{"code":{"coding":[{"system":"http://loinc.org","code":"8462-4","display":"Diastolic blood pressure"}]},"valueQuantity":{"value":85,"unit":"mmHg","system":"http://unitsofmeasure.org","code":"mm[Hg]"}}]},"request":{"method":"PUT","url":"Observation/5cf64f1a-7f2c-4756-9902-49d85b251d08"}},{"fullUrl":"https://madie.cms.gov/MeasureReport/b3e0efaa-8767-4d0b-8eea-00b9dd06ddbf","resource":{"resourceType":"MeasureReport","id":"b3e0efaa-8767-4d0b-8eea-00b9dd06ddbf","meta":{"profile":["http://hl7.org/fhir/us/cqfmeasures/StructureDefinition/test-case-cqfm"]},"contained":[{"resourceType":"Parameters","id":"2a3c9a1a-fe95-4368-a243-f039d6182169-parameters","parameter":[{"name":"subject","valueString":"9e8120ac-aa57-4a15-8c4f-0472d1b105f7"}]}],"extension":[{"url":"http://hl7.org/fhir/us/cqfmeasures/StructureDefinition/cqfm-inputParameters","valueReference":{"reference":"#2a3c9a1a-fe95-4368-a243-f039d6182169-parameters"}},{"url":"http://hl7.org/fhir/us/cqfmeasures/StructureDefinition/cqfm-testCaseDescription","valueMarkdown":"RISKSBPRelDtTimeEQDelStartless1Min\n"}],"modifierExtension":[{"url":"http://hl7.org/fhir/us/cqfmeasures/StructureDefinition/cqfm-isTestCase","valueBoolean":true}],"status":"complete","type":"individual","measure":"https://madie.cms.gov/Measure/CMS1028FHIRPCSevereOBComps","period":{"start":"2025-01-01","end":"2025-12-31"},"group":[{"population":[{"code":{"coding":[{"system":"http://terminology.hl7.org/CodeSystem/measure-population","code":"initial-population","display":"Initial Population"}]},"count":1},{"code":{"coding":[{"system":"http://terminology.hl7.org/CodeSystem/measure-population","code":"denominator","display":"Denominator"}]},"count":1},{"code":{"coding":[{"system":"http://terminology.hl7.org/CodeSystem/measure-population","code":"numerator","display":"Numerator"}]},"count":0},{"code":{"coding":[{"system":"http://terminology.hl7.org/CodeSystem/measure-population","code":"numerator-exclusion","display":"Numerator Exclusion"}]},"count":0}]},{"population":[{"code":{"coding":[{"system":"http://terminology.hl7.org/CodeSystem/measure-population","code":"initial-population","display":"Initial Population"}]},"count":1},{"code":{"coding":[{"system":"http://terminology.hl7.org/CodeSystem/measure-population","code":"denominator","display":"Denominator"}]},"count":1},{"code":{"coding":[{"system":"http://terminology.hl7.org/CodeSystem/measure-population","code":"numerator","display":"Numerator"}]},"count":0},{"code":{"coding":[{"system":"http://terminology.hl7.org/CodeSystem/measure-population","code":"numerator-exclusion","display":"Numerator Exclusion"}]},"count":0}]}]},"request":{"method":"PUT","url":"MeasureReport/b3e0efaa-8767-4d0b-8eea-00b9dd06ddbf"}}]}