{"resourceType":"Bundle","id":"tests-2d5802ed-937e-4c51-a326-50bba0ddf33b-bundle","type":"transaction","entry":[{"fullUrl":"https://madie.cms.gov/Patient/2d5802ed-937e-4c51-a326-50bba0ddf33b","resource":{"resourceType":"Patient","id":"2d5802ed-937e-4c51-a326-50bba0ddf33b","meta":{"profile":["http://hl7.org/fhir/us/qicore/StructureDefinition/qicore-patient"]},"text":{"status":"generated","div":"<div xmlns=\"http://www.w3.org/1999/xhtml\"><div class=\"hapiHeaderText\">AssPrfDelRelvDtEQIPEnd <b>RISK_ASTHMA </b></div><table class=\"hapiPropertyTable\"><tbody><tr><td>Date of birth</td><td><span>01 February 2004</span></td></tr></tbody></table></div>"},"extension":[{"url":"http://hl7.org/fhir/us/core/StructureDefinition/us-core-race","extension":[{"url":"ombCategory","valueCoding":{"system":"urn:oid:2.16.840.1.113883.6.238","code":"1002-5","display":"American Indian or Alaska Native","userSelected":true}},{"url":"text","valueString":"American Indian or Alaska Native"}]},{"url":"http://hl7.org/fhir/us/core/StructureDefinition/us-core-ethnicity","extension":[{"url":"ombCategory","valueCoding":{"system":"urn:oid:2.16.840.1.113883.6.238","code":"2135-2","display":"Hispanic or Latino","userSelected":true}},{"url":"text","valueString":"Hispanic or Latino"}]}],"identifier":[{"type":{"coding":[{"system":"http://terminology.hl7.org/CodeSystem/v2-0203","code":"MR"}]},"system":"https://bonnie-fhir.healthit.gov/","value":"63594c7a6aee9629c82981df"}],"active":true,"name":[{"use":"usual","family":"RiskPass","given":["Risk_Asthma"]}],"gender":"female","birthDate":"2004-02-01"},"request":{"method":"PUT","url":"Patient/2d5802ed-937e-4c51-a326-50bba0ddf33b"}},{"fullUrl":"https://madie.cms.gov/Observation/3b9684d1-b899-472b-88d3-00fbaf506450","resource":{"resourceType":"Observation","id":"3b9684d1-b899-472b-88d3-00fbaf506450","meta":{"profile":["http://hl7.org/fhir/us/qicore/StructureDefinition/qicore-observation"]},"status":"final","category":[{"coding":[{"system":"http://terminology.hl7.org/CodeSystem/observation-category","code":"exam","display":"exam","userSelected":true}]}],"code":{"coding":[{"system":"http://loinc.org","code":"93857-1"}]},"subject":{"reference":"Patient/2d5802ed-937e-4c51-a326-50bba0ddf33b"},"effectiveDateTime":"2025-02-01T08:00:00.000+00:00","valueDateTime":"2025-02-01T08:00:00+00:00"},"request":{"method":"PUT","url":"Observation/3b9684d1-b899-472b-88d3-00fbaf506450"}},{"fullUrl":"https://madie.cms.gov/Observation/799195b3-1742-4025-9e0c-82c1966134f3","resource":{"resourceType":"Observation","id":"799195b3-1742-4025-9e0c-82c1966134f3","meta":{"profile":["http://hl7.org/fhir/us/qicore/StructureDefinition/qicore-observation"]},"status":"final","category":[{"coding":[{"system":"http://terminology.hl7.org/CodeSystem/observation-category","code":"exam","display":"exam","userSelected":true}]}],"code":{"coding":[{"system":"http://loinc.org","code":"11778-8"}]},"subject":{"reference":"Patient/2d5802ed-937e-4c51-a326-50bba0ddf33b"},"effectiveDateTime":"2025-02-01T08:00:00.000+00:00","valueDateTime":"2025-02-01T00:00:00.000+00:00"},"request":{"method":"PUT","url":"Observation/799195b3-1742-4025-9e0c-82c1966134f3"}},{"fullUrl":"https://madie.cms.gov/Encounter/3d80a825-aa75-4450-b700-207dce55e111","resource":{"resourceType":"Encounter","id":"3d80a825-aa75-4450-b700-207dce55e111","meta":{"profile":["http://hl7.org/fhir/us/qicore/StructureDefinition/qicore-encounter"]},"status":"finished","class":{"system":"http://terminology.hl7.org/CodeSystem/v3-ActCode","code":"IMP","display":"inpatient encounter"},"type":[{"coding":[{"system":"http://snomed.info/sct","code":"183452005"}]}],"subject":{"reference":"Patient/2d5802ed-937e-4c51-a326-50bba0ddf33b"},"period":{"start":"2025-02-01T08:00:00.000Z","end":"2025-02-05T08:15:00.000Z"},"diagnosis":[{"extension":[{"url":"http://hl7.org/fhir/us/qicore/StructureDefinition/qicore-encounter-diagnosisPresentOnAdmission","valueCodeableConcept":{"coding":[{"system":"https://www.cms.gov/Medicare/Medicare-Fee-for-Service-Payment/HospitalAcqCond/Coding","code":"Y"}]}}],"condition":{"reference":"Condition/52b97c85-9b8c-4b89-9cbc-759a2b2bfe6e"}},{"extension":[{"url":"http://hl7.org/fhir/us/qicore/StructureDefinition/qicore-encounter-diagnosisPresentOnAdmission","valueCodeableConcept":{"coding":[{"system":"https://www.cms.gov/Medicare/Medicare-Fee-for-Service-Payment/HospitalAcqCond/Coding","code":"N"}]}}],"condition":{"reference":"Condition/fe1af220-c853-47f3-bac3-ae84889b3c88"}}]},"request":{"method":"PUT","url":"Encounter/3d80a825-aa75-4450-b700-207dce55e111"}},{"fullUrl":"https://madie.cms.gov/Procedure/2b20607d-1adb-4902-b533-4391612d191f","resource":{"resourceType":"Procedure","id":"2b20607d-1adb-4902-b533-4391612d191f","meta":{"profile":["http://hl7.org/fhir/us/qicore/StructureDefinition/qicore-procedure"]},"extension":[{"url":"http://hl7.org/fhir/us/qicore/StructureDefinition/qicore-recorded","valueDateTime":"2013-04-05T09:35:00-04:00"}],"status":"completed","code":{"coding":[{"system":"http://snomed.info/sct","code":"10745001"}]},"subject":{"reference":"Patient/2d5802ed-937e-4c51-a326-50bba0ddf33b"},"performedDateTime":"2025-02-01T08:00:00.000+00:00"},"request":{"method":"PUT","url":"Procedure/2b20607d-1adb-4902-b533-4391612d191f"}},{"fullUrl":"https://madie.cms.gov/Condition/fe1af220-c853-47f3-bac3-ae84889b3c88","resource":{"resourceType":"Condition","id":"fe1af220-c853-47f3-bac3-ae84889b3c88","meta":{"profile":["http://hl7.org/fhir/us/qicore/StructureDefinition/qicore-condition"]},"category":[{"coding":[{"system":"http://terminology.hl7.org/CodeSystem/condition-category","code":"encounter-diagnosis","display":"Encounter Diagnosis"}]}],"code":{"coding":[{"system":"http://hl7.org/fhir/sid/icd-10-cm","version":"2023","code":"A32.7","display":"Listerial sepsis","userSelected":true}]},"subject":{"reference":"Patient/2d5802ed-937e-4c51-a326-50bba0ddf33b"},"recordedDate":"2025-10-26T08:00:00.000+00:00"},"request":{"method":"PUT","url":"Condition/fe1af220-c853-47f3-bac3-ae84889b3c88"}},{"fullUrl":"https://madie.cms.gov/Condition/52b97c85-9b8c-4b89-9cbc-759a2b2bfe6e","resource":{"resourceType":"Condition","id":"52b97c85-9b8c-4b89-9cbc-759a2b2bfe6e","meta":{"profile":["http://hl7.org/fhir/us/qicore/StructureDefinition/qicore-condition"]},"category":[{"coding":[{"system":"http://terminology.hl7.org/CodeSystem/condition-category","code":"encounter-diagnosis","display":"Encounter Diagnosis"}]}],"code":{"coding":[{"system":"http://hl7.org/fhir/sid/icd-10-cm","version":"2023","code":"J45.21","display":"Asthma","userSelected":true}]},"subject":{"reference":"Patient/2d5802ed-937e-4c51-a326-50bba0ddf33b"},"recordedDate":"2025-10-26T08:00:00.000+00:00"},"request":{"method":"PUT","url":"Condition/52b97c85-9b8c-4b89-9cbc-759a2b2bfe6e"}},{"fullUrl":"https://madie.cms.gov/MeasureReport/4a072e3f-cdeb-446c-9ea6-87f28b829863","resource":{"resourceType":"MeasureReport","id":"4a072e3f-cdeb-446c-9ea6-87f28b829863","meta":{"profile":["http://hl7.org/fhir/us/cqfmeasures/StructureDefinition/test-case-cqfm"]},"contained":[{"resourceType":"Parameters","id":"72109c71-bb53-4215-ab75-ec739b9fb9d0-parameters","parameter":[{"name":"subject","valueString":"2d5802ed-937e-4c51-a326-50bba0ddf33b"}]}],"extension":[{"url":"http://hl7.org/fhir/us/cqfmeasures/StructureDefinition/cqfm-inputParameters","valueReference":{"reference":"#72109c71-bb53-4215-ab75-ec739b9fb9d0-parameters"}},{"url":"http://hl7.org/fhir/us/cqfmeasures/StructureDefinition/cqfm-testCaseDescription","valueMarkdown":"Risk variable of asthma.\n"}],"modifierExtension":[{"url":"http://hl7.org/fhir/us/cqfmeasures/StructureDefinition/cqfm-isTestCase","valueBoolean":true}],"status":"complete","type":"individual","measure":"https://madie.cms.gov/Measure/CMS1028FHIRPCSevereOBComps","period":{"start":"2025-01-01","end":"2025-12-31"},"group":[{"population":[{"code":{"coding":[{"system":"http://terminology.hl7.org/CodeSystem/measure-population","code":"initial-population","display":"Initial Population"}]},"count":1},{"code":{"coding":[{"system":"http://terminology.hl7.org/CodeSystem/measure-population","code":"denominator","display":"Denominator"}]},"count":1},{"code":{"coding":[{"system":"http://terminology.hl7.org/CodeSystem/measure-population","code":"numerator","display":"Numerator"}]},"count":1},{"code":{"coding":[{"system":"http://terminology.hl7.org/CodeSystem/measure-population","code":"numerator-exclusion","display":"Numerator Exclusion"}]},"count":0}]},{"population":[{"code":{"coding":[{"system":"http://terminology.hl7.org/CodeSystem/measure-population","code":"initial-population","display":"Initial Population"}]},"count":1},{"code":{"coding":[{"system":"http://terminology.hl7.org/CodeSystem/measure-population","code":"denominator","display":"Denominator"}]},"count":1},{"code":{"coding":[{"system":"http://terminology.hl7.org/CodeSystem/measure-population","code":"numerator","display":"Numerator"}]},"count":1},{"code":{"coding":[{"system":"http://terminology.hl7.org/CodeSystem/measure-population","code":"numerator-exclusion","display":"Numerator Exclusion"}]},"count":0}]}]},"request":{"method":"PUT","url":"MeasureReport/4a072e3f-cdeb-446c-9ea6-87f28b829863"}}]}