{"resourceType":"Bundle","id":"tests-0ac545b0-909b-4894-acbc-babfa4d34a6a-bundle","type":"transaction","entry":[{"fullUrl":"https://madie.cms.gov/Patient/0ac545b0-909b-4894-acbc-babfa4d34a6a","resource":{"resourceType":"Patient","id":"0ac545b0-909b-4894-acbc-babfa4d34a6a","meta":{"profile":["http://hl7.org/fhir/us/qicore/StructureDefinition/qicore-patient"]},"text":{"status":"generated","div":"<div xmlns=\"http://www.w3.org/1999/xhtml\"><div class=\"hapiHeaderText\">Test1EDDMinutesImpactOnWksGest <b>DENOMPASS </b></div><table class=\"hapiPropertyTable\"><tbody><tr><td>Date of birth</td><td><span>01 February 1958</span></td></tr></tbody></table></div>"},"extension":[{"url":"http://hl7.org/fhir/us/core/StructureDefinition/us-core-race","extension":[{"url":"ombCategory","valueCoding":{"system":"urn:oid:2.16.840.1.113883.6.238","code":"1002-5","display":"American Indian or Alaska Native","userSelected":true}},{"url":"text","valueString":"American Indian or Alaska Native"}]},{"url":"http://hl7.org/fhir/us/core/StructureDefinition/us-core-ethnicity","extension":[{"url":"ombCategory","valueCoding":{"system":"urn:oid:2.16.840.1.113883.6.238","code":"2135-2","display":"Hispanic or Latino","userSelected":true}},{"url":"text","valueString":"Hispanic or Latino"}]}],"identifier":[{"type":{"coding":[{"system":"http://terminology.hl7.org/CodeSystem/v2-0203","code":"MR"}]},"system":"https://bonnie-fhir.healthit.gov/","value":"633b3f9e0968f80122503cd8"}],"active":true,"name":[{"use":"usual","family":"DENOMPass","given":["Test1EDDMinutesImpactOnWksGest"]}],"gender":"female","birthDate":"1970-02-01"},"request":{"method":"PUT","url":"Patient/0ac545b0-909b-4894-acbc-babfa4d34a6a"}},{"fullUrl":"https://madie.cms.gov/Observation/617bd295-5488-4f41-827b-4848f49d0a58","resource":{"resourceType":"Observation","id":"617bd295-5488-4f41-827b-4848f49d0a58","meta":{"profile":["http://hl7.org/fhir/us/qicore/StructureDefinition/qicore-observation"]},"status":"final","category":[{"coding":[{"system":"http://terminology.hl7.org/CodeSystem/observation-category","code":"exam","display":"exam","userSelected":true}]}],"code":{"coding":[{"system":"http://loinc.org","code":"93857-1"}]},"subject":{"reference":"Patient/0ac545b0-909b-4894-acbc-babfa4d34a6a"},"effectiveDateTime":"2025-02-01T08:00:00.000+00:00","valueDateTime":"2025-02-01T08:00:00+00:00"},"request":{"method":"PUT","url":"Observation/617bd295-5488-4f41-827b-4848f49d0a58"}},{"fullUrl":"https://madie.cms.gov/Observation/ae11fdcf-39b1-477e-bce1-5536957295b6","resource":{"resourceType":"Observation","id":"ae11fdcf-39b1-477e-bce1-5536957295b6","meta":{"profile":["http://hl7.org/fhir/us/qicore/StructureDefinition/qicore-observation"]},"status":"final","category":[{"coding":[{"system":"http://terminology.hl7.org/CodeSystem/observation-category","code":"exam","display":"exam","userSelected":true}]}],"code":{"coding":[{"system":"http://loinc.org","code":"11778-8"}]},"subject":{"reference":"Patient/0ac545b0-909b-4894-acbc-babfa4d34a6a"},"effectiveDateTime":"2024-04-13T08:01:00.000+00:00","valueDateTime":"2025-02-01T08:00:00.000+00:00"},"request":{"method":"PUT","url":"Observation/ae11fdcf-39b1-477e-bce1-5536957295b6"}},{"fullUrl":"https://madie.cms.gov/Encounter/0af43931-d24b-42e5-80cb-bd49bcfb11bb","resource":{"resourceType":"Encounter","id":"0af43931-d24b-42e5-80cb-bd49bcfb11bb","meta":{"profile":["http://hl7.org/fhir/us/qicore/StructureDefinition/qicore-encounter"]},"status":"finished","class":{"system":"http://terminology.hl7.org/CodeSystem/v3-ActCode","code":"IMP","display":"inpatient encounter"},"type":[{"coding":[{"system":"http://snomed.info/sct","code":"183452005"}]}],"subject":{"reference":"Patient/0ac545b0-909b-4894-acbc-babfa4d34a6a"},"period":{"start":"2025-01-30T08:00:00.000Z","end":"2025-02-05T08:15:00.000Z"}},"request":{"method":"PUT","url":"Encounter/0af43931-d24b-42e5-80cb-bd49bcfb11bb"}},{"fullUrl":"https://madie.cms.gov/Procedure/71fdc570-8acd-4500-a5fe-cc599a91eff3","resource":{"resourceType":"Procedure","id":"71fdc570-8acd-4500-a5fe-cc599a91eff3","meta":{"profile":["http://hl7.org/fhir/us/qicore/StructureDefinition/qicore-procedure"]},"extension":[{"url":"http://hl7.org/fhir/us/qicore/StructureDefinition/qicore-recorded","valueDateTime":"2013-04-05T09:35:00-04:00"}],"status":"completed","code":{"coding":[{"system":"http://snomed.info/sct","code":"10745001"}]},"subject":{"reference":"Patient/0ac545b0-909b-4894-acbc-babfa4d34a6a"},"performedPeriod":{"start":"2025-02-01T08:00:00.000Z"}},"request":{"method":"PUT","url":"Procedure/71fdc570-8acd-4500-a5fe-cc599a91eff3"}},{"fullUrl":"https://madie.cms.gov/Coverage/fc9867b8-b586-4b82-97f4-c7529218b396","resource":{"resourceType":"Coverage","id":"fc9867b8-b586-4b82-97f4-c7529218b396","meta":{"profile":["http://hl7.org/fhir/us/qicore/StructureDefinition/qicore-coverage"]},"status":"active","beneficiary":{"reference":"Patient/0ac545b0-909b-4894-acbc-babfa4d34a6a"},"payor":[{"reference":"Organization/5ad6ea38-07e9-4482-9e1b-c09eee595be9"}]},"request":{"method":"PUT","url":"Coverage/fc9867b8-b586-4b82-97f4-c7529218b396"}},{"fullUrl":"https://madie.cms.gov/Organization/99e8398d-0f63-4892-8bc0-1aba8aaec176","resource":{"resourceType":"Organization","id":"5ad6ea38-07e9-4482-9e1b-c09eee595be9","meta":{"profile":["http://hl7.org/fhir/us/qicore/StructureDefinition/qicore-organization"]},"identifier":[{"use":"temp","system":"urn:oid:2.16.840.1.113883.4.4","value":"21-3259825"}],"active":true,"type":[{"coding":[{"system":"http://terminology.hl7.org/CodeSystem/organization-type","code":"pay","display":"Payer"}]}],"name":"Blue Cross Blue Shield of Texas","telecom":[{"system":"phone","value":"(+1) 972-766-6900"}],"address":[{"use":"billing","type":"postal","line":["P.O. Box 660044"],"city":"Dallas","state":"TX","postalCode":"75266-0044","country":"USA"}]},"request":{"method":"PUT","url":"Organization/5ad6ea38-07e9-4482-9e1b-c09eee595be9"}},{"fullUrl":"https://madie.cms.gov/Practitioner/081a2166-ca55-43d5-830a-10061a1104ba","resource":{"resourceType":"Practitioner","id":"081a2166-ca55-43d5-830a-10061a1104ba","identifier":[{"system":"http://hl7.org/fhir/sid/us-npi","value":"123456"}],"name":[{"family":"Evil","prefix":["Dr"]}]},"request":{"method":"PUT","url":"Practitioner/081a2166-ca55-43d5-830a-10061a1104ba"}},{"fullUrl":"https://madie.cms.gov/MeasureReport/028625fe-5b87-41f8-b141-cf2f9e0ad011","resource":{"resourceType":"MeasureReport","id":"028625fe-5b87-41f8-b141-cf2f9e0ad011","meta":{"profile":["http://hl7.org/fhir/us/cqfmeasures/StructureDefinition/test-case-cqfm"]},"contained":[{"resourceType":"Parameters","id":"014ac42c-e8f4-4973-a371-94a58681514f-parameters","parameter":[{"name":"subject","valueString":"0ac545b0-909b-4894-acbc-babfa4d34a6a"}]}],"extension":[{"url":"http://hl7.org/fhir/us/cqfmeasures/StructureDefinition/cqfm-inputParameters","valueReference":{"reference":"#014ac42c-e8f4-4973-a371-94a58681514f-parameters"}},{"url":"http://hl7.org/fhir/us/cqfmeasures/StructureDefinition/cqfm-testCaseDescription","valueMarkdown":"\"Delivery date = 2/1/2012 @0800.  EDD = 2/1/2012\n @0800.  Weeks gestation = 40.\"  To test the impact on calculated weeks gestation, I temporarily changes the logic of this definition:  \"Del Enc with CGA Greater than or Equal to 20 Weeks\" to = 40.\n\n"}],"modifierExtension":[{"url":"http://hl7.org/fhir/us/cqfmeasures/StructureDefinition/cqfm-isTestCase","valueBoolean":true}],"status":"complete","type":"individual","measure":"https://madie.cms.gov/Measure/CMS1028FHIRPCSevereOBComps","period":{"start":"2025-01-01","end":"2025-12-31"},"group":[{"population":[{"code":{"coding":[{"system":"http://terminology.hl7.org/CodeSystem/measure-population","code":"initial-population","display":"Initial Population"}]},"count":1},{"code":{"coding":[{"system":"http://terminology.hl7.org/CodeSystem/measure-population","code":"denominator","display":"Denominator"}]},"count":1},{"code":{"coding":[{"system":"http://terminology.hl7.org/CodeSystem/measure-population","code":"numerator","display":"Numerator"}]},"count":0},{"code":{"coding":[{"system":"http://terminology.hl7.org/CodeSystem/measure-population","code":"numerator-exclusion","display":"Numerator Exclusion"}]},"count":0}]},{"population":[{"code":{"coding":[{"system":"http://terminology.hl7.org/CodeSystem/measure-population","code":"initial-population","display":"Initial Population"}]},"count":1},{"code":{"coding":[{"system":"http://terminology.hl7.org/CodeSystem/measure-population","code":"denominator","display":"Denominator"}]},"count":1},{"code":{"coding":[{"system":"http://terminology.hl7.org/CodeSystem/measure-population","code":"numerator","display":"Numerator"}]},"count":0},{"code":{"coding":[{"system":"http://terminology.hl7.org/CodeSystem/measure-population","code":"numerator-exclusion","display":"Numerator Exclusion"}]},"count":0}]}]},"request":{"method":"PUT","url":"MeasureReport/028625fe-5b87-41f8-b141-cf2f9e0ad011"}}]}