{"resourceType":"Bundle","id":"tests-971a20ab-c583-4260-954f-101d4b96554d-bundle","type":"transaction","entry":[{"fullUrl":"https://madie.cms.gov/Patient/971a20ab-c583-4260-954f-101d4b96554d","resource":{"resourceType":"Patient","id":"971a20ab-c583-4260-954f-101d4b96554d","meta":{"profile":["http://hl7.org/fhir/us/qicore/StructureDefinition/qicore-patient"]},"extension":[{"url":"http://hl7.org/fhir/us/core/StructureDefinition/us-core-race","extension":[{"url":"ombCategory","valueCoding":{"system":"urn:oid:2.16.840.1.113883.6.238","code":"1002-5","display":"American Indian or Alaska Native","userSelected":true}},{"url":"text","valueString":"American Indian or Alaska Native"}]},{"url":"http://hl7.org/fhir/us/core/StructureDefinition/us-core-ethnicity","extension":[{"url":"ombCategory","valueCoding":{"system":"urn:oid:2.16.840.1.113883.6.238","code":"2135-2","display":"Hispanic or Latino","userSelected":true}},{"url":"text","valueString":"Hispanic or Latino"}]}],"identifier":[{"type":{"coding":[{"system":"http://terminology.hl7.org/CodeSystem/v2-0203","code":"MR"}]},"system":"https://bonnie-fhir.healthit.gov/","value":"635300f1224f3b0539671247"}],"name":[{"family":"DENOMPass","given":["EDDDateOnly"]}],"gender":"female","birthDate":"2004-02-01"},"request":{"method":"PUT","url":"Patient/971a20ab-c583-4260-954f-101d4b96554d"}},{"fullUrl":"https://madie.cms.gov/Encounter/4c5faa50-8a2a-44df-84ee-acd11565917c","resource":{"resourceType":"Encounter","id":"4c5faa50-8a2a-44df-84ee-acd11565917c","meta":{"profile":["http://hl7.org/fhir/us/qicore/StructureDefinition/qicore-encounter"]},"status":"finished","class":{"system":"http://terminology.hl7.org/CodeSystem/v3-ActCode","code":"IMP","display":"inpatient encounter"},"type":[{"coding":[{"system":"http://snomed.info/sct","version":"2022-09","code":"183452005","display":"Emergency hospital admission (procedure)","userSelected":true}]}],"subject":{"reference":"Patient/971a20ab-c583-4260-954f-101d4b96554d"},"period":{"start":"2025-02-01T08:00:00.000+00:00","end":"2025-02-05T08:15:00.000+00:00"}},"request":{"method":"PUT","url":"Encounter/4c5faa50-8a2a-44df-84ee-acd11565917c"}},{"fullUrl":"https://madie.cms.gov/Procedure/eee11a87-d294-475a-a391-8330d75e85d8","resource":{"resourceType":"Procedure","id":"eee11a87-d294-475a-a391-8330d75e85d8","meta":{"profile":["http://hl7.org/fhir/us/qicore/StructureDefinition/qicore-procedure"]},"extension":[{"url":"http://hl7.org/fhir/us/qicore/StructureDefinition/qicore-recorded","valueDateTime":"2013-04-05T09:35:00-04:00"}],"status":"completed","code":{"coding":[{"system":"http://snomed.info/sct","version":"2022-09","code":"10745001","display":"Delivery of transverse presentation (procedure)","userSelected":true}]},"subject":{"reference":"Patient/971a20ab-c583-4260-954f-101d4b96554d"},"performedPeriod":{"start":"2025-02-01T08:00:00.000+00:00","end":"2025-02-05T08:15:00.000+00:00"}},"request":{"method":"PUT","url":"Procedure/eee11a87-d294-475a-a391-8330d75e85d8"}},{"fullUrl":"https://madie.cms.gov/Observation/de6ec774-ffb4-4967-9b68-c4449e8b8ed3","resource":{"resourceType":"Observation","id":"de6ec774-ffb4-4967-9b68-c4449e8b8ed3","meta":{"profile":["http://hl7.org/fhir/us/qicore/StructureDefinition/qicore-observation"]},"status":"final","category":[{"coding":[{"system":"http://terminology.hl7.org/CodeSystem/observation-category","code":"exam","display":"exam","userSelected":true}]}],"code":{"coding":[{"system":"http://loinc.org","code":"93857-1","display":"Date and time of obstetric delivery","userSelected":true}]},"subject":{"reference":"Patient/971a20ab-c583-4260-954f-101d4b96554d"},"effectiveDateTime":"2025-02-01T08:00:00.000+00:00","valueDateTime":"2025-02-01T08:00:00.000+00:00"},"request":{"method":"PUT","url":"Observation/de6ec774-ffb4-4967-9b68-c4449e8b8ed3"}},{"fullUrl":"https://madie.cms.gov/Observation/f5ef65ee-6c97-447f-9afb-68aef677f26a","resource":{"resourceType":"Observation","id":"f5ef65ee-6c97-447f-9afb-68aef677f26a","meta":{"profile":["http://hl7.org/fhir/us/qicore/StructureDefinition/qicore-observation"]},"status":"final","category":[{"coding":[{"system":"http://terminology.hl7.org/CodeSystem/observation-category","code":"exam","display":"exam","userSelected":true}]}],"code":{"coding":[{"system":"http://loinc.org","code":"11778-8","display":"Delivery date Estimated","userSelected":true}]},"subject":{"reference":"Patient/971a20ab-c583-4260-954f-101d4b96554d"},"effectiveDateTime":"2025-01-31T08:00:00.000+00:00","valueDateTime":"2025-01-31"},"request":{"method":"PUT","url":"Observation/f5ef65ee-6c97-447f-9afb-68aef677f26a"}},{"fullUrl":"https://madie.cms.gov/Coverage/ee09b433-a63b-4ee7-8188-1ed5e52f0edf","resource":{"resourceType":"Coverage","id":"ee09b433-a63b-4ee7-8188-1ed5e52f0edf","meta":{"profile":["http://hl7.org/fhir/us/qicore/StructureDefinition/qicore-coverage"]},"status":"active","beneficiary":{"reference":"Patient/971a20ab-c583-4260-954f-101d4b96554d"},"payor":[{"reference":"Organization/5ad6ea38-07e9-4482-9e1b-c09eee595be9"}]},"request":{"method":"PUT","url":"Coverage/ee09b433-a63b-4ee7-8188-1ed5e52f0edf"}},{"fullUrl":"https://madie.cms.gov/Organization/d369c629-44b8-441e-939b-7367139a3319","resource":{"resourceType":"Organization","id":"5ad6ea38-07e9-4482-9e1b-c09eee595be9","meta":{"profile":["http://hl7.org/fhir/us/qicore/StructureDefinition/qicore-organization"]},"identifier":[{"use":"temp","system":"urn:oid:2.16.840.1.113883.4.4","value":"21-3259825"}],"active":true,"type":[{"coding":[{"system":"http://terminology.hl7.org/CodeSystem/organization-type","code":"pay","display":"Payer"}]}],"name":"Blue Cross Blue Shield of Texas","telecom":[{"system":"phone","value":"(+1) 972-766-6900"}],"address":[{"use":"billing","type":"postal","line":["P.O. Box 660044"],"city":"Dallas","state":"TX","postalCode":"75266-0044","country":"USA"}]},"request":{"method":"PUT","url":"Organization/5ad6ea38-07e9-4482-9e1b-c09eee595be9"}},{"fullUrl":"https://madie.cms.gov/Practitioner/bfbf5c6d-784d-412a-8df0-7817264ac7b3","resource":{"resourceType":"Practitioner","id":"bfbf5c6d-784d-412a-8df0-7817264ac7b3","identifier":[{"system":"http://hl7.org/fhir/sid/us-npi","value":"123456"}],"name":[{"family":"Evil","prefix":["Dr"]}]},"request":{"method":"PUT","url":"Practitioner/bfbf5c6d-784d-412a-8df0-7817264ac7b3"}},{"fullUrl":"https://madie.cms.gov/MeasureReport/c532e27f-9841-42ad-8055-4a8ffeb9477b","resource":{"resourceType":"MeasureReport","id":"c532e27f-9841-42ad-8055-4a8ffeb9477b","meta":{"profile":["http://hl7.org/fhir/us/cqfmeasures/StructureDefinition/test-case-cqfm"]},"contained":[{"resourceType":"Parameters","id":"7380a632-8dea-476d-9312-00741c96f773-parameters","parameter":[{"name":"subject","valueString":"971a20ab-c583-4260-954f-101d4b96554d"}]}],"extension":[{"url":"http://hl7.org/fhir/us/cqfmeasures/StructureDefinition/cqfm-inputParameters","valueReference":{"reference":"#7380a632-8dea-476d-9312-00741c96f773-parameters"}},{"url":"http://hl7.org/fhir/us/cqfmeasures/StructureDefinition/cqfm-testCaseDescription","valueMarkdown":"Last assessment Performed, Estimated Delivery Date, Relevant time, 24 hours 1 min before Delivery Result Date/Time.  EDD has date only\n"}],"modifierExtension":[{"url":"http://hl7.org/fhir/us/cqfmeasures/StructureDefinition/cqfm-isTestCase","valueBoolean":true}],"status":"complete","type":"individual","measure":"https://madie.cms.gov/Measure/CMS1028FHIRPCSevereOBComps","period":{"start":"2025-01-01","end":"2025-12-31"},"group":[{"population":[{"code":{"coding":[{"system":"http://terminology.hl7.org/CodeSystem/measure-population","code":"initial-population","display":"Initial Population"}]},"count":1},{"code":{"coding":[{"system":"http://terminology.hl7.org/CodeSystem/measure-population","code":"denominator","display":"Denominator"}]},"count":1},{"code":{"coding":[{"system":"http://terminology.hl7.org/CodeSystem/measure-population","code":"numerator","display":"Numerator"}]},"count":0},{"code":{"coding":[{"system":"http://terminology.hl7.org/CodeSystem/measure-population","code":"numerator-exclusion","display":"Numerator Exclusion"}]},"count":0}]},{"population":[{"code":{"coding":[{"system":"http://terminology.hl7.org/CodeSystem/measure-population","code":"initial-population","display":"Initial Population"}]},"count":1},{"code":{"coding":[{"system":"http://terminology.hl7.org/CodeSystem/measure-population","code":"denominator","display":"Denominator"}]},"count":1},{"code":{"coding":[{"system":"http://terminology.hl7.org/CodeSystem/measure-population","code":"numerator","display":"Numerator"}]},"count":0},{"code":{"coding":[{"system":"http://terminology.hl7.org/CodeSystem/measure-population","code":"numerator-exclusion","display":"Numerator Exclusion"}]},"count":0}]}]},"request":{"method":"PUT","url":"MeasureReport/c532e27f-9841-42ad-8055-4a8ffeb9477b"}}]}