{"resourceType":"Bundle","id":"tests-d2259eca-3bd8-427a-90c2-91a1fad518ed-bundle","type":"transaction","entry":[{"fullUrl":"https://madie.cms.gov/Patient/d2259eca-3bd8-427a-90c2-91a1fad518ed","resource":{"resourceType":"Patient","id":"d2259eca-3bd8-427a-90c2-91a1fad518ed","meta":{"profile":["http://hl7.org/fhir/us/qicore/StructureDefinition/qicore-patient"]},"text":{"status":"generated","div":"<div xmlns=\"http://www.w3.org/1999/xhtml\"><div class=\"hapiHeaderText\">Risk_RenalDisease<b>RISKPass </b></div><table class=\"hapiPropertyTable\"><tbody><tr><td>Date of birth</td><td><span>01 February 2004</span></td></tr></tbody></table></div>"},"extension":[{"url":"http://hl7.org/fhir/us/core/StructureDefinition/us-core-race","extension":[{"url":"ombCategory","valueCoding":{"system":"urn:oid:2.16.840.1.113883.6.238","code":"1002-5","display":"American Indian or Alaska Native","userSelected":true}},{"url":"text","valueString":"American Indian or Alaska Native"}]},{"url":"http://hl7.org/fhir/us/core/StructureDefinition/us-core-ethnicity","extension":[{"url":"ombCategory","valueCoding":{"system":"urn:oid:2.16.840.1.113883.6.238","code":"2135-2","display":"Hispanic or Latino","userSelected":true}},{"url":"text","valueString":"Hispanic or Latino"}]}],"identifier":[{"type":{"coding":[{"system":"http://terminology.hl7.org/CodeSystem/v2-0203","code":"MR"}]},"system":"https://bonnie-fhir.healthit.gov/","value":"63594c7a6aee9629c82981df"}],"active":true,"name":[{"use":"usual","family":"RiskPass","given":["Risk_RenalDisease"]}],"gender":"female","birthDate":"2004-02-01"},"request":{"method":"PUT","url":"Patient/d2259eca-3bd8-427a-90c2-91a1fad518ed"}},{"fullUrl":"https://madie.cms.gov/Observation/fd14299f-5411-4c95-bb18-bb3d5f5c6883","resource":{"resourceType":"Observation","id":"fd14299f-5411-4c95-bb18-bb3d5f5c6883","meta":{"profile":["http://hl7.org/fhir/us/qicore/StructureDefinition/qicore-observation"]},"status":"final","category":[{"coding":[{"system":"http://terminology.hl7.org/CodeSystem/observation-category","code":"exam","display":"exam","userSelected":true}]}],"code":{"coding":[{"system":"http://loinc.org","code":"93857-1"}]},"subject":{"reference":"Patient/d2259eca-3bd8-427a-90c2-91a1fad518ed"},"effectiveDateTime":"2025-02-01T08:00:00.000+00:00","valueDateTime":"2025-02-01T08:00:00+00:00"},"request":{"method":"PUT","url":"Observation/fd14299f-5411-4c95-bb18-bb3d5f5c6883"}},{"fullUrl":"https://madie.cms.gov/Observation/4ef61e7f-52d2-46ec-a4ed-2858394302e4","resource":{"resourceType":"Observation","id":"4ef61e7f-52d2-46ec-a4ed-2858394302e4","meta":{"profile":["http://hl7.org/fhir/us/qicore/StructureDefinition/qicore-observation"]},"status":"final","category":[{"coding":[{"system":"http://terminology.hl7.org/CodeSystem/observation-category","code":"exam","display":"exam","userSelected":true}]}],"code":{"coding":[{"system":"http://loinc.org","code":"11778-8"}]},"subject":{"reference":"Patient/d2259eca-3bd8-427a-90c2-91a1fad518ed"},"effectiveDateTime":"2025-02-01T08:00:00.000+00:00","valueDateTime":"2025-02-01T00:00:00.000+00:00"},"request":{"method":"PUT","url":"Observation/4ef61e7f-52d2-46ec-a4ed-2858394302e4"}},{"fullUrl":"https://madie.cms.gov/Encounter/730fb8e4-5581-43a7-a473-3b79003365e3","resource":{"resourceType":"Encounter","id":"730fb8e4-5581-43a7-a473-3b79003365e3","meta":{"profile":["http://hl7.org/fhir/us/qicore/StructureDefinition/qicore-encounter"]},"status":"finished","class":{"system":"http://terminology.hl7.org/CodeSystem/v3-ActCode","code":"IMP","display":"inpatient encounter"},"type":[{"coding":[{"system":"http://snomed.info/sct","code":"183452005"}]}],"subject":{"reference":"Patient/d2259eca-3bd8-427a-90c2-91a1fad518ed"},"period":{"start":"2025-02-01T08:00:00.000Z","end":"2025-02-05T08:15:00.000Z"},"diagnosis":[{"extension":[{"url":"http://hl7.org/fhir/us/qicore/StructureDefinition/qicore-encounter-diagnosisPresentOnAdmission","valueCodeableConcept":{"coding":[{"system":"https://www.cms.gov/Medicare/Medicare-Fee-for-Service-Payment/HospitalAcqCond/Coding","code":"Y"}]}}],"condition":{"reference":"Condition/b19e139f-4c47-4321-8c35-53a538a69a01"}},{"extension":[{"url":"http://hl7.org/fhir/us/qicore/StructureDefinition/qicore-encounter-diagnosisPresentOnAdmission","valueCodeableConcept":{"coding":[{"system":"https://www.cms.gov/Medicare/Medicare-Fee-for-Service-Payment/HospitalAcqCond/Coding","code":"N"}]}}],"condition":{"reference":"Condition/1145f452-8099-4263-aef9-cec0324423c0"}}]},"request":{"method":"PUT","url":"Encounter/730fb8e4-5581-43a7-a473-3b79003365e3"}},{"fullUrl":"https://madie.cms.gov/Procedure/c3b75b66-a34a-4fd6-bde4-f13b4d4e761a","resource":{"resourceType":"Procedure","id":"c3b75b66-a34a-4fd6-bde4-f13b4d4e761a","meta":{"profile":["http://hl7.org/fhir/us/qicore/StructureDefinition/qicore-procedure"]},"extension":[{"url":"http://hl7.org/fhir/us/qicore/StructureDefinition/qicore-recorded","valueDateTime":"2013-04-05T09:35:00-04:00"}],"status":"completed","code":{"coding":[{"system":"http://snomed.info/sct","code":"10745001"}]},"subject":{"reference":"Patient/d2259eca-3bd8-427a-90c2-91a1fad518ed"},"performedDateTime":"2025-02-01T08:00:00.000+00:00"},"request":{"method":"PUT","url":"Procedure/c3b75b66-a34a-4fd6-bde4-f13b4d4e761a"}},{"fullUrl":"https://madie.cms.gov/Condition/1145f452-8099-4263-aef9-cec0324423c0","resource":{"resourceType":"Condition","id":"1145f452-8099-4263-aef9-cec0324423c0","meta":{"profile":["http://hl7.org/fhir/us/qicore/StructureDefinition/qicore-condition"]},"category":[{"coding":[{"system":"http://terminology.hl7.org/CodeSystem/condition-category","code":"encounter-diagnosis","display":"Encounter Diagnosis"}]}],"code":{"coding":[{"system":"http://hl7.org/fhir/sid/icd-10-cm","version":"2023","code":"A32.7","display":"Listerial sepsis","userSelected":true}]},"subject":{"reference":"Patient/d2259eca-3bd8-427a-90c2-91a1fad518ed"},"recordedDate":"2025-10-26T08:00:00.000+00:00"},"request":{"method":"PUT","url":"Condition/1145f452-8099-4263-aef9-cec0324423c0"}},{"fullUrl":"https://madie.cms.gov/Condition/b19e139f-4c47-4321-8c35-53a538a69a01","resource":{"resourceType":"Condition","id":"b19e139f-4c47-4321-8c35-53a538a69a01","meta":{"profile":["http://hl7.org/fhir/us/qicore/StructureDefinition/qicore-condition"]},"category":[{"coding":[{"system":"http://terminology.hl7.org/CodeSystem/condition-category","code":"encounter-diagnosis","display":"Encounter Diagnosis"}]}],"code":{"coding":[{"system":"http://hl7.org/fhir/sid/icd-10-cm","version":"2023","code":"I12.0","display":"Renal Disease","userSelected":true}]},"subject":{"reference":"Patient/d2259eca-3bd8-427a-90c2-91a1fad518ed"},"recordedDate":"2025-10-26T08:00:00.000+00:00"},"request":{"method":"PUT","url":"Condition/b19e139f-4c47-4321-8c35-53a538a69a01"}},{"fullUrl":"https://madie.cms.gov/MeasureReport/751d1626-0eb2-4d45-956c-8a8d50674825","resource":{"resourceType":"MeasureReport","id":"751d1626-0eb2-4d45-956c-8a8d50674825","meta":{"profile":["http://hl7.org/fhir/us/cqfmeasures/StructureDefinition/test-case-cqfm"]},"contained":[{"resourceType":"Parameters","id":"ae85bfc0-4a4a-4783-b048-40ef235806b3-parameters","parameter":[{"name":"subject","valueString":"d2259eca-3bd8-427a-90c2-91a1fad518ed"}]}],"extension":[{"url":"http://hl7.org/fhir/us/cqfmeasures/StructureDefinition/cqfm-inputParameters","valueReference":{"reference":"#ae85bfc0-4a4a-4783-b048-40ef235806b3-parameters"}},{"url":"http://hl7.org/fhir/us/cqfmeasures/StructureDefinition/cqfm-testCaseDescription","valueMarkdown":"Risk variable of renal disease\n\n"}],"modifierExtension":[{"url":"http://hl7.org/fhir/us/cqfmeasures/StructureDefinition/cqfm-isTestCase","valueBoolean":true}],"status":"complete","type":"individual","measure":"https://madie.cms.gov/Measure/CMS1028FHIRPCSevereOBComps","period":{"start":"2025-01-01","end":"2025-12-31"},"group":[{"population":[{"code":{"coding":[{"system":"http://terminology.hl7.org/CodeSystem/measure-population","code":"initial-population","display":"Initial Population"}]},"count":1},{"code":{"coding":[{"system":"http://terminology.hl7.org/CodeSystem/measure-population","code":"denominator","display":"Denominator"}]},"count":1},{"code":{"coding":[{"system":"http://terminology.hl7.org/CodeSystem/measure-population","code":"numerator","display":"Numerator"}]},"count":1},{"code":{"coding":[{"system":"http://terminology.hl7.org/CodeSystem/measure-population","code":"numerator-exclusion","display":"Numerator Exclusion"}]},"count":0}]},{"population":[{"code":{"coding":[{"system":"http://terminology.hl7.org/CodeSystem/measure-population","code":"initial-population","display":"Initial Population"}]},"count":1},{"code":{"coding":[{"system":"http://terminology.hl7.org/CodeSystem/measure-population","code":"denominator","display":"Denominator"}]},"count":1},{"code":{"coding":[{"system":"http://terminology.hl7.org/CodeSystem/measure-population","code":"numerator","display":"Numerator"}]},"count":1},{"code":{"coding":[{"system":"http://terminology.hl7.org/CodeSystem/measure-population","code":"numerator-exclusion","display":"Numerator Exclusion"}]},"count":0}]}]},"request":{"method":"PUT","url":"MeasureReport/751d1626-0eb2-4d45-956c-8a8d50674825"}}]}