{"resourceType":"Bundle","id":"tests-18db5364-3ac4-4183-9163-f1df3c1a7425-bundle","type":"transaction","entry":[{"fullUrl":"https://madie.cms.gov/Patient/18db5364-3ac4-4183-9163-f1df3c1a7425","resource":{"resourceType":"Patient","id":"18db5364-3ac4-4183-9163-f1df3c1a7425","meta":{"profile":["http://hl7.org/fhir/us/qicore/StructureDefinition/qicore-patient"]},"text":{"status":"generated","div":"<div xmlns=\"http://www.w3.org/1999/xhtml\"><div class=\"hapiHeaderText\">Risk_PreExistingDiabetes <b>RISKPass </b></div><table class=\"hapiPropertyTable\"><tbody><tr><td>Date of birth</td><td><span>01 February 2004</span></td></tr></tbody></table></div>"},"extension":[{"url":"http://hl7.org/fhir/us/core/StructureDefinition/us-core-race","extension":[{"url":"ombCategory","valueCoding":{"system":"urn:oid:2.16.840.1.113883.6.238","code":"1002-5","display":"American Indian or Alaska Native","userSelected":true}},{"url":"text","valueString":"American Indian or Alaska Native"}]},{"url":"http://hl7.org/fhir/us/core/StructureDefinition/us-core-ethnicity","extension":[{"url":"ombCategory","valueCoding":{"system":"urn:oid:2.16.840.1.113883.6.238","code":"2135-2","display":"Hispanic or Latino","userSelected":true}},{"url":"text","valueString":"Hispanic or Latino"}]}],"identifier":[{"type":{"coding":[{"system":"http://terminology.hl7.org/CodeSystem/v2-0203","code":"MR"}]},"system":"https://bonnie-fhir.healthit.gov/","value":"63594c7a6aee9629c82981df"}],"active":true,"name":[{"use":"usual","family":"RiskPass","given":["Risk_PreExistingDiabetes"]}],"gender":"female","birthDate":"2004-02-01"},"request":{"method":"PUT","url":"Patient/18db5364-3ac4-4183-9163-f1df3c1a7425"}},{"fullUrl":"https://madie.cms.gov/Observation/8e7638c0-9e3a-45a7-8f46-48592a52008c","resource":{"resourceType":"Observation","id":"8e7638c0-9e3a-45a7-8f46-48592a52008c","meta":{"profile":["http://hl7.org/fhir/us/qicore/StructureDefinition/qicore-observation"]},"status":"final","category":[{"coding":[{"system":"http://terminology.hl7.org/CodeSystem/observation-category","code":"exam","display":"exam","userSelected":true}]}],"code":{"coding":[{"system":"http://loinc.org","code":"93857-1"}]},"subject":{"reference":"Patient/18db5364-3ac4-4183-9163-f1df3c1a7425"},"effectiveDateTime":"2025-02-01T08:00:00.000+00:00","valueDateTime":"2025-02-01T08:00:00+00:00"},"request":{"method":"PUT","url":"Observation/8e7638c0-9e3a-45a7-8f46-48592a52008c"}},{"fullUrl":"https://madie.cms.gov/Observation/c6a67c34-736d-41ff-a3a3-4e92b75f9aab","resource":{"resourceType":"Observation","id":"c6a67c34-736d-41ff-a3a3-4e92b75f9aab","meta":{"profile":["http://hl7.org/fhir/us/qicore/StructureDefinition/qicore-observation"]},"status":"final","category":[{"coding":[{"system":"http://terminology.hl7.org/CodeSystem/observation-category","code":"exam","display":"exam","userSelected":true}]}],"code":{"coding":[{"system":"http://loinc.org","code":"11778-8"}]},"subject":{"reference":"Patient/18db5364-3ac4-4183-9163-f1df3c1a7425"},"effectiveDateTime":"2025-02-01T08:00:00.000+00:00","valueDateTime":"2025-02-01T00:00:00.000+00:00"},"request":{"method":"PUT","url":"Observation/c6a67c34-736d-41ff-a3a3-4e92b75f9aab"}},{"fullUrl":"https://madie.cms.gov/Encounter/106d7090-472e-4c4b-9831-b57dd6fc2d6f","resource":{"resourceType":"Encounter","id":"106d7090-472e-4c4b-9831-b57dd6fc2d6f","meta":{"profile":["http://hl7.org/fhir/us/qicore/StructureDefinition/qicore-encounter"]},"status":"finished","class":{"system":"http://terminology.hl7.org/CodeSystem/v3-ActCode","code":"IMP","display":"inpatient encounter"},"type":[{"coding":[{"system":"http://snomed.info/sct","code":"183452005"}]}],"subject":{"reference":"Patient/18db5364-3ac4-4183-9163-f1df3c1a7425"},"period":{"start":"2025-02-01T08:00:00.000Z","end":"2025-02-05T08:15:00.000Z"},"diagnosis":[{"extension":[{"url":"http://hl7.org/fhir/us/qicore/StructureDefinition/qicore-encounter-diagnosisPresentOnAdmission","valueCodeableConcept":{"coding":[{"system":"https://www.cms.gov/Medicare/Medicare-Fee-for-Service-Payment/HospitalAcqCond/Coding","code":"Y"}]}}],"condition":{"reference":"Condition/0ebcbd11-8695-48d0-b2d8-33c7bbee8d6f"}},{"extension":[{"url":"http://hl7.org/fhir/us/qicore/StructureDefinition/qicore-encounter-diagnosisPresentOnAdmission","valueCodeableConcept":{"coding":[{"system":"https://www.cms.gov/Medicare/Medicare-Fee-for-Service-Payment/HospitalAcqCond/Coding","code":"N"}]}}],"condition":{"reference":"Condition/8d620259-11f9-4c74-a878-3ebcd0b78296"}}]},"request":{"method":"PUT","url":"Encounter/106d7090-472e-4c4b-9831-b57dd6fc2d6f"}},{"fullUrl":"https://madie.cms.gov/Procedure/9502c9cb-0b32-4f48-b9f4-032897112575","resource":{"resourceType":"Procedure","id":"9502c9cb-0b32-4f48-b9f4-032897112575","meta":{"profile":["http://hl7.org/fhir/us/qicore/StructureDefinition/qicore-procedure"]},"extension":[{"url":"http://hl7.org/fhir/us/qicore/StructureDefinition/qicore-recorded","valueDateTime":"2013-04-05T09:35:00-04:00"}],"status":"completed","code":{"coding":[{"system":"http://snomed.info/sct","code":"10745001"}]},"subject":{"reference":"Patient/18db5364-3ac4-4183-9163-f1df3c1a7425"},"performedDateTime":"2025-02-01T08:00:00.000+00:00"},"request":{"method":"PUT","url":"Procedure/9502c9cb-0b32-4f48-b9f4-032897112575"}},{"fullUrl":"https://madie.cms.gov/Condition/8d620259-11f9-4c74-a878-3ebcd0b78296","resource":{"resourceType":"Condition","id":"8d620259-11f9-4c74-a878-3ebcd0b78296","meta":{"profile":["http://hl7.org/fhir/us/qicore/StructureDefinition/qicore-condition"]},"category":[{"coding":[{"system":"http://terminology.hl7.org/CodeSystem/condition-category","code":"encounter-diagnosis","display":"Encounter Diagnosis"}]}],"code":{"coding":[{"system":"http://hl7.org/fhir/sid/icd-10-cm","version":"2023","code":"A32.7","display":"Listerial sepsis","userSelected":true}]},"subject":{"reference":"Patient/18db5364-3ac4-4183-9163-f1df3c1a7425"},"recordedDate":"2025-10-26T08:00:00.000+00:00"},"request":{"method":"PUT","url":"Condition/8d620259-11f9-4c74-a878-3ebcd0b78296"}},{"fullUrl":"https://madie.cms.gov/Condition/0ebcbd11-8695-48d0-b2d8-33c7bbee8d6f","resource":{"resourceType":"Condition","id":"0ebcbd11-8695-48d0-b2d8-33c7bbee8d6f","meta":{"profile":["http://hl7.org/fhir/us/qicore/StructureDefinition/qicore-condition"]},"category":[{"coding":[{"system":"http://terminology.hl7.org/CodeSystem/condition-category","code":"encounter-diagnosis","display":"Encounter Diagnosis"}]}],"code":{"coding":[{"system":"http://hl7.org/fhir/sid/icd-10-cm","version":"2023","code":"E08.00","display":"PreExisting Diabetes","userSelected":true}]},"subject":{"reference":"Patient/18db5364-3ac4-4183-9163-f1df3c1a7425"},"recordedDate":"2025-10-26T08:00:00.000+00:00"},"request":{"method":"PUT","url":"Condition/0ebcbd11-8695-48d0-b2d8-33c7bbee8d6f"}},{"fullUrl":"https://madie.cms.gov/MeasureReport/126345e0-dfc4-41b6-9bfc-01ca340185c8","resource":{"resourceType":"MeasureReport","id":"126345e0-dfc4-41b6-9bfc-01ca340185c8","meta":{"profile":["http://hl7.org/fhir/us/cqfmeasures/StructureDefinition/test-case-cqfm"]},"contained":[{"resourceType":"Parameters","id":"b83f7e6d-bee8-41f9-b25a-ed1403a83334-parameters","parameter":[{"name":"subject","valueString":"18db5364-3ac4-4183-9163-f1df3c1a7425"}]}],"extension":[{"url":"http://hl7.org/fhir/us/cqfmeasures/StructureDefinition/cqfm-inputParameters","valueReference":{"reference":"#b83f7e6d-bee8-41f9-b25a-ed1403a83334-parameters"}},{"url":"http://hl7.org/fhir/us/cqfmeasures/StructureDefinition/cqfm-testCaseDescription","valueMarkdown":"Risk variable of pre-existing diabetes\n\n"}],"modifierExtension":[{"url":"http://hl7.org/fhir/us/cqfmeasures/StructureDefinition/cqfm-isTestCase","valueBoolean":true}],"status":"complete","type":"individual","measure":"https://madie.cms.gov/Measure/CMS1028FHIRPCSevereOBComps","period":{"start":"2025-01-01","end":"2025-12-31"},"group":[{"population":[{"code":{"coding":[{"system":"http://terminology.hl7.org/CodeSystem/measure-population","code":"initial-population","display":"Initial Population"}]},"count":1},{"code":{"coding":[{"system":"http://terminology.hl7.org/CodeSystem/measure-population","code":"denominator","display":"Denominator"}]},"count":1},{"code":{"coding":[{"system":"http://terminology.hl7.org/CodeSystem/measure-population","code":"numerator","display":"Numerator"}]},"count":1},{"code":{"coding":[{"system":"http://terminology.hl7.org/CodeSystem/measure-population","code":"numerator-exclusion","display":"Numerator Exclusion"}]},"count":0}]},{"population":[{"code":{"coding":[{"system":"http://terminology.hl7.org/CodeSystem/measure-population","code":"initial-population","display":"Initial Population"}]},"count":1},{"code":{"coding":[{"system":"http://terminology.hl7.org/CodeSystem/measure-population","code":"denominator","display":"Denominator"}]},"count":1},{"code":{"coding":[{"system":"http://terminology.hl7.org/CodeSystem/measure-population","code":"numerator","display":"Numerator"}]},"count":1},{"code":{"coding":[{"system":"http://terminology.hl7.org/CodeSystem/measure-population","code":"numerator-exclusion","display":"Numerator Exclusion"}]},"count":0}]}]},"request":{"method":"PUT","url":"MeasureReport/126345e0-dfc4-41b6-9bfc-01ca340185c8"}}]}