{"resourceType":"Bundle","id":"tests-d7103361-816e-4396-8d63-d1f8fb4e7b2d-bundle","type":"transaction","entry":[{"fullUrl":"https://madie.cms.gov/Patient/d7103361-816e-4396-8d63-d1f8fb4e7b2d","resource":{"resourceType":"Patient","id":"d7103361-816e-4396-8d63-d1f8fb4e7b2d","meta":{"profile":["http://hl7.org/fhir/us/qicore/StructureDefinition/qicore-patient"]},"text":{"status":"generated","div":"<div xmlns=\"http://www.w3.org/1999/xhtml\"><div class=\"hapiHeaderText\">DelProcStart=EncEnd <b>IPPASS </b></div><table class=\"hapiPropertyTable\"><tbody><tr><td>Date of birth</td><td><span>31 January 2004</span></td></tr></tbody></table></div>"},"extension":[{"url":"http://hl7.org/fhir/us/core/StructureDefinition/us-core-race","extension":[{"url":"ombCategory","valueCoding":{"system":"urn:oid:2.16.840.1.113883.6.238","code":"1002-5","display":"American Indian or Alaska Native","userSelected":true}},{"url":"text","valueString":"American Indian or Alaska Native"}]},{"url":"http://hl7.org/fhir/us/core/StructureDefinition/us-core-ethnicity","extension":[{"url":"ombCategory","valueCoding":{"system":"urn:oid:2.16.840.1.113883.6.238","code":"2135-2","display":"Hispanic or Latino","userSelected":true}},{"url":"text","valueString":"Hispanic or Latino"}]}],"identifier":[{"type":{"coding":[{"system":"http://terminology.hl7.org/CodeSystem/v2-0203","code":"MR"}]},"system":"https://bonnie-fhir.healthit.gov/","value":"633b3f9e0968f80122503cc6"}],"active":true,"name":[{"use":"usual","family":"IPPass","given":["DelProcStart_EncEnd"]}],"gender":"female","birthDate":"2004-01-31"},"request":{"method":"PUT","url":"Patient/d7103361-816e-4396-8d63-d1f8fb4e7b2d"}},{"fullUrl":"https://madie.cms.gov/Encounter/32142f0b-780f-47d2-bc15-f0bd35f0fda3","resource":{"resourceType":"Encounter","id":"32142f0b-780f-47d2-bc15-f0bd35f0fda3","meta":{"profile":["http://hl7.org/fhir/us/qicore/StructureDefinition/qicore-encounter"]},"status":"finished","class":{"system":"http://terminology.hl7.org/CodeSystem/v3-ActCode","code":"IMP","display":"inpatient encounter"},"type":[{"coding":[{"system":"http://snomed.info/sct","code":"183452005"}]}],"subject":{"reference":"Patient/d7103361-816e-4396-8d63-d1f8fb4e7b2d"},"period":{"start":"2025-02-01T08:00:00.000Z","end":"2025-02-05T08:15:00.000Z"}},"request":{"method":"PUT","url":"Encounter/32142f0b-780f-47d2-bc15-f0bd35f0fda3"}},{"fullUrl":"https://madie.cms.gov/Procedure/6da19d53-29a3-4998-bb9b-9e1eb9e4a355","resource":{"resourceType":"Procedure","id":"6da19d53-29a3-4998-bb9b-9e1eb9e4a355","meta":{"profile":["http://hl7.org/fhir/us/qicore/StructureDefinition/qicore-procedure"]},"extension":[{"url":"http://hl7.org/fhir/us/qicore/StructureDefinition/qicore-recorded","valueDateTime":"2013-04-05T09:35:00-04:00"}],"status":"completed","code":{"coding":[{"system":"http://snomed.info/sct","code":"10745001"}]},"subject":{"reference":"Patient/d7103361-816e-4396-8d63-d1f8fb4e7b2d"},"performedPeriod":{"start":"2025-02-05T08:15:00.000Z","end":"2025-02-05T08:15:00.000Z"}},"request":{"method":"PUT","url":"Procedure/6da19d53-29a3-4998-bb9b-9e1eb9e4a355"}},{"fullUrl":"https://madie.cms.gov/Coverage/2cd937f5-119d-48d8-8013-454370c71894","resource":{"resourceType":"Coverage","id":"2cd937f5-119d-48d8-8013-454370c71894","meta":{"profile":["http://hl7.org/fhir/us/qicore/StructureDefinition/qicore-coverage"]},"status":"active","beneficiary":{"reference":"Patient/d7103361-816e-4396-8d63-d1f8fb4e7b2d"},"payor":[{"reference":"Organization/db141f66-a1cc-407b-9e95-adac27adee14"}]},"request":{"method":"PUT","url":"Coverage/2cd937f5-119d-48d8-8013-454370c71894"}},{"fullUrl":"https://madie.cms.gov/Organization/26a4730a-cde4-4d2b-883f-4009c46e04d4","resource":{"resourceType":"Organization","id":"db141f66-a1cc-407b-9e95-adac27adee14","meta":{"profile":["http://hl7.org/fhir/us/qicore/StructureDefinition/qicore-organization"]},"identifier":[{"use":"temp","system":"urn:oid:2.16.840.1.113883.4.4","value":"21-3259825"}],"active":true,"type":[{"coding":[{"system":"http://terminology.hl7.org/CodeSystem/organization-type","code":"pay","display":"Payer"}]}],"name":"Blue Cross Blue Shield of Texas","telecom":[{"system":"phone","value":"(+1) 972-766-6900"}],"address":[{"use":"billing","type":"postal","line":["P.O. Box 660044"],"city":"Dallas","state":"TX","postalCode":"75266-0044","country":"USA"}]},"request":{"method":"PUT","url":"Organization/db141f66-a1cc-407b-9e95-adac27adee14"}},{"fullUrl":"https://madie.cms.gov/Practitioner/4e27b526-7167-4b61-a420-fc77f9ad2676","resource":{"resourceType":"Practitioner","id":"4e27b526-7167-4b61-a420-fc77f9ad2676","identifier":[{"system":"http://hl7.org/fhir/sid/us-npi","value":"123456"}],"name":[{"family":"Evil","prefix":["Dr"]}]},"request":{"method":"PUT","url":"Practitioner/4e27b526-7167-4b61-a420-fc77f9ad2676"}},{"fullUrl":"https://madie.cms.gov/MeasureReport/04d78bb7-06e4-4ea2-8c2a-c272c2980314","resource":{"resourceType":"MeasureReport","id":"04d78bb7-06e4-4ea2-8c2a-c272c2980314","meta":{"profile":["http://hl7.org/fhir/us/cqfmeasures/StructureDefinition/test-case-cqfm"]},"contained":[{"resourceType":"Parameters","id":"750031aa-7d10-42a7-801a-76cb4c8d2f6b-parameters","parameter":[{"name":"subject","valueString":"d7103361-816e-4396-8d63-d1f8fb4e7b2d"}]}],"extension":[{"url":"http://hl7.org/fhir/us/cqfmeasures/StructureDefinition/cqfm-inputParameters","valueReference":{"reference":"#750031aa-7d10-42a7-801a-76cb4c8d2f6b-parameters"}},{"url":"http://hl7.org/fhir/us/cqfmeasures/StructureDefinition/cqfm-testCaseDescription","valueMarkdown":"Delivery procedure start equals encounter end\n"}],"modifierExtension":[{"url":"http://hl7.org/fhir/us/cqfmeasures/StructureDefinition/cqfm-isTestCase","valueBoolean":true}],"status":"complete","type":"individual","measure":"https://madie.cms.gov/Measure/CMS1028FHIRPCSevereOBComps","period":{"start":"2025-01-01","end":"2025-12-31"},"group":[{"population":[{"code":{"coding":[{"system":"http://terminology.hl7.org/CodeSystem/measure-population","code":"initial-population","display":"Initial Population"}]},"count":1},{"code":{"coding":[{"system":"http://terminology.hl7.org/CodeSystem/measure-population","code":"denominator","display":"Denominator"}]},"count":0},{"code":{"coding":[{"system":"http://terminology.hl7.org/CodeSystem/measure-population","code":"numerator","display":"Numerator"}]},"count":0},{"code":{"coding":[{"system":"http://terminology.hl7.org/CodeSystem/measure-population","code":"numerator-exclusion","display":"Numerator Exclusion"}]},"count":0}]},{"population":[{"code":{"coding":[{"system":"http://terminology.hl7.org/CodeSystem/measure-population","code":"initial-population","display":"Initial Population"}]},"count":1},{"code":{"coding":[{"system":"http://terminology.hl7.org/CodeSystem/measure-population","code":"denominator","display":"Denominator"}]},"count":0},{"code":{"coding":[{"system":"http://terminology.hl7.org/CodeSystem/measure-population","code":"numerator","display":"Numerator"}]},"count":0},{"code":{"coding":[{"system":"http://terminology.hl7.org/CodeSystem/measure-population","code":"numerator-exclusion","display":"Numerator Exclusion"}]},"count":0}]}]},"request":{"method":"PUT","url":"MeasureReport/04d78bb7-06e4-4ea2-8c2a-c272c2980314"}}]}