{"resourceType":"Bundle","id":"tests-17a60467-f536-44d0-9b89-cd390a1fbee7-bundle","type":"transaction","entry":[{"fullUrl":"https://madie.cms.gov/Patient/17a60467-f536-44d0-9b89-cd390a1fbee7","resource":{"resourceType":"Patient","id":"17a60467-f536-44d0-9b89-cd390a1fbee7","meta":{"profile":["http://hl7.org/fhir/us/qicore/StructureDefinition/qicore-patient"]},"text":{"status":"generated","div":"<div xmlns=\"http://www.w3.org/1999/xhtml\"><div class=\"hapiHeaderText\">DelProcRelDtTmEQEDEnd <b>IPPASS </b></div><table class=\"hapiPropertyTable\"><tbody><tr><td>Date of birth</td><td><span>31 January 2004</span></td></tr></tbody></table></div>"},"extension":[{"url":"http://hl7.org/fhir/us/core/StructureDefinition/us-core-race","extension":[{"url":"ombCategory","valueCoding":{"system":"urn:oid:2.16.840.1.113883.6.238","code":"1002-5","display":"American Indian or Alaska Native","userSelected":true}},{"url":"text","valueString":"American Indian or Alaska Native"}]},{"url":"http://hl7.org/fhir/us/core/StructureDefinition/us-core-ethnicity","extension":[{"url":"ombCategory","valueCoding":{"system":"urn:oid:2.16.840.1.113883.6.238","code":"2135-2","display":"Hispanic or Latino","userSelected":true}},{"url":"text","valueString":"Hispanic or Latino"}]}],"identifier":[{"type":{"coding":[{"system":"http://terminology.hl7.org/CodeSystem/v2-0203","code":"MR"}]},"system":"https://bonnie-fhir.healthit.gov/","value":"633b3fa00968f80122503d14"}],"active":true,"name":[{"use":"usual","family":"IPPass","given":["DelProcRelDtTmEQEDEnd"]}],"gender":"female","birthDate":"2004-01-31"},"request":{"method":"PUT","url":"Patient/17a60467-f536-44d0-9b89-cd390a1fbee7"}},{"fullUrl":"https://madie.cms.gov/Encounter/cb16799d-2082-4b18-a6c9-f10bc93fb395","resource":{"resourceType":"Encounter","id":"cb16799d-2082-4b18-a6c9-f10bc93fb395","meta":{"profile":["http://hl7.org/fhir/us/qicore/StructureDefinition/qicore-encounter"]},"status":"finished","class":{"system":"http://terminology.hl7.org/CodeSystem/v3-ActCode","code":"IMP","display":"inpatient encounter"},"type":[{"coding":[{"system":"http://snomed.info/sct","code":"183452005"}]}],"subject":{"reference":"Patient/17a60467-f536-44d0-9b89-cd390a1fbee7"},"period":{"start":"2025-02-01T09:00:00.000Z","end":"2025-02-05T08:15:00.000Z"}},"request":{"method":"PUT","url":"Encounter/cb16799d-2082-4b18-a6c9-f10bc93fb395"}},{"fullUrl":"https://madie.cms.gov/Encounter/1bc03eb1-f422-43a7-a61a-b674b383e156","resource":{"resourceType":"Encounter","id":"1bc03eb1-f422-43a7-a61a-b674b383e156","meta":{"profile":["http://hl7.org/fhir/us/qicore/StructureDefinition/qicore-encounter"]},"status":"finished","class":{"system":"http://terminology.hl7.org/CodeSystem/v3-ActCode","code":"IMP","display":"inpatient encounter"},"type":[{"coding":[{"system":"http://snomed.info/sct","code":"448951000124107"}]}],"subject":{"reference":"Patient/17a60467-f536-44d0-9b89-cd390a1fbee7"},"period":{"start":"2025-02-01T08:00:00.000Z","end":"2025-02-01T08:59:00.000Z"}},"request":{"method":"PUT","url":"Encounter/1bc03eb1-f422-43a7-a61a-b674b383e156"}},{"fullUrl":"https://madie.cms.gov/Encounter/1abe5873-ccb4-4498-b621-04e95cf117a3","resource":{"resourceType":"Encounter","id":"1abe5873-ccb4-4498-b621-04e95cf117a3","meta":{"profile":["http://hl7.org/fhir/us/qicore/StructureDefinition/qicore-encounter"]},"status":"finished","class":{"system":"http://terminology.hl7.org/CodeSystem/v3-ActCode","code":"IMP","display":"inpatient encounter"},"type":[{"coding":[{"system":"http://snomed.info/sct","code":"4525004"}]}],"subject":{"reference":"Patient/17a60467-f536-44d0-9b89-cd390a1fbee7"},"period":{"start":"2025-02-01T07:00:00.000Z","end":"2025-02-01T07:59:00.000Z"}},"request":{"method":"PUT","url":"Encounter/1abe5873-ccb4-4498-b621-04e95cf117a3"}},{"fullUrl":"https://madie.cms.gov/Coverage/bf486ca9-746d-4418-802c-f10853424ad7","resource":{"resourceType":"Coverage","id":"bf486ca9-746d-4418-802c-f10853424ad7","status":"active","beneficiary":{"reference":"Patient/17a60467-f536-44d0-9b89-cd390a1fbee7"},"period":{"start":"2004-01-31T01:00:00.000Z"},"payor":[{"reference":"Organization/db141f66-a1cc-407b-9e95-adac27adee14"}]},"request":{"method":"PUT","url":"Coverage/bf486ca9-746d-4418-802c-f10853424ad7"}},{"fullUrl":"https://madie.cms.gov/Procedure/51fd8d83-c57b-4337-8317-cec8d623d0c5","resource":{"resourceType":"Procedure","id":"51fd8d83-c57b-4337-8317-cec8d623d0c5","meta":{"profile":["http://hl7.org/fhir/us/qicore/StructureDefinition/qicore-procedure"]},"extension":[{"url":"http://hl7.org/fhir/us/qicore/StructureDefinition/qicore-recorded","valueDateTime":"2013-04-05T09:35:00-04:00"}],"status":"completed","code":{"coding":[{"system":"http://snomed.info/sct","code":"10745001"}]},"subject":{"reference":"Patient/17a60467-f536-44d0-9b89-cd390a1fbee7"},"performedDateTime":"2025-02-01T07:59:00.000+00:00"},"request":{"method":"PUT","url":"Procedure/51fd8d83-c57b-4337-8317-cec8d623d0c5"}},{"fullUrl":"https://madie.cms.gov/Organization/ba043709-d8d5-4906-bfa3-3b7cb1b90ddf","resource":{"resourceType":"Organization","id":"db141f66-a1cc-407b-9e95-adac27adee14","meta":{"profile":["http://hl7.org/fhir/us/qicore/StructureDefinition/qicore-organization"]},"identifier":[{"use":"temp","system":"urn:oid:2.16.840.1.113883.4.4","value":"21-3259825"}],"active":true,"type":[{"coding":[{"system":"http://terminology.hl7.org/CodeSystem/organization-type","code":"pay","display":"Payer"}]}],"name":"Blue Cross Blue Shield of Texas","telecom":[{"system":"phone","value":"(+1) 972-766-6900"}],"address":[{"use":"billing","type":"postal","line":["P.O. Box 660044"],"city":"Dallas","state":"TX","postalCode":"75266-0044","country":"USA"}]},"request":{"method":"PUT","url":"Organization/db141f66-a1cc-407b-9e95-adac27adee14"}},{"fullUrl":"https://madie.cms.gov/Practitioner/0bfd1bdb-e605-46d0-b82e-2ceda257c10e","resource":{"resourceType":"Practitioner","id":"0bfd1bdb-e605-46d0-b82e-2ceda257c10e","identifier":[{"system":"http://hl7.org/fhir/sid/us-npi","value":"123456"}],"name":[{"family":"Evil","prefix":["Dr"]}]},"request":{"method":"PUT","url":"Practitioner/0bfd1bdb-e605-46d0-b82e-2ceda257c10e"}},{"fullUrl":"https://madie.cms.gov/MeasureReport/2e75ce36-3912-4c0c-87fb-04fd8893f130","resource":{"resourceType":"MeasureReport","id":"2e75ce36-3912-4c0c-87fb-04fd8893f130","meta":{"profile":["http://hl7.org/fhir/us/cqfmeasures/StructureDefinition/test-case-cqfm"]},"contained":[{"resourceType":"Parameters","id":"b23f409b-4e74-4895-ba8b-39359fb8f6d3-parameters","parameter":[{"name":"subject","valueString":"17a60467-f536-44d0-9b89-cd390a1fbee7"}]}],"extension":[{"url":"http://hl7.org/fhir/us/cqfmeasures/StructureDefinition/cqfm-inputParameters","valueReference":{"reference":"#b23f409b-4e74-4895-ba8b-39359fb8f6d3-parameters"}},{"url":"http://hl7.org/fhir/us/cqfmeasures/StructureDefinition/cqfm-testCaseDescription","valueMarkdown":"Delivery Procedure rel date/time = ED end.  ED/OBS/IP all meet global hospitalization criteria.\n"}],"modifierExtension":[{"url":"http://hl7.org/fhir/us/cqfmeasures/StructureDefinition/cqfm-isTestCase","valueBoolean":true}],"status":"complete","type":"individual","measure":"https://madie.cms.gov/Measure/CMS1028FHIRPCSevereOBComps","period":{"start":"2025-01-01","end":"2025-12-31"},"group":[{"population":[{"code":{"coding":[{"system":"http://terminology.hl7.org/CodeSystem/measure-population","code":"initial-population","display":"Initial Population"}]},"count":1},{"code":{"coding":[{"system":"http://terminology.hl7.org/CodeSystem/measure-population","code":"denominator","display":"Denominator"}]},"count":0},{"code":{"coding":[{"system":"http://terminology.hl7.org/CodeSystem/measure-population","code":"numerator","display":"Numerator"}]},"count":0},{"code":{"coding":[{"system":"http://terminology.hl7.org/CodeSystem/measure-population","code":"numerator-exclusion","display":"Numerator Exclusion"}]},"count":0}]},{"population":[{"code":{"coding":[{"system":"http://terminology.hl7.org/CodeSystem/measure-population","code":"initial-population","display":"Initial Population"}]},"count":1},{"code":{"coding":[{"system":"http://terminology.hl7.org/CodeSystem/measure-population","code":"denominator","display":"Denominator"}]},"count":0},{"code":{"coding":[{"system":"http://terminology.hl7.org/CodeSystem/measure-population","code":"numerator","display":"Numerator"}]},"count":0},{"code":{"coding":[{"system":"http://terminology.hl7.org/CodeSystem/measure-population","code":"numerator-exclusion","display":"Numerator Exclusion"}]},"count":0}]}]},"request":{"method":"PUT","url":"MeasureReport/2e75ce36-3912-4c0c-87fb-04fd8893f130"}}]}