{"resourceType":"Bundle","id":"tests-7225dafe-a1f6-4205-94f7-b4c3f413da99-bundle","type":"transaction","entry":[{"fullUrl":"https://madie.cms.gov/Patient/7225dafe-a1f6-4205-94f7-b4c3f413da99","resource":{"resourceType":"Patient","id":"7225dafe-a1f6-4205-94f7-b4c3f413da99","meta":{"profile":["http://hl7.org/fhir/us/qicore/StructureDefinition/qicore-patient"]},"text":{"status":"generated","div":"<div xmlns=\"http://www.w3.org/1999/xhtml\"><div class=\"hapiHeaderText\">Risk_HIV<b>RISKPass </b></div><table class=\"hapiPropertyTable\"><tbody><tr><td>Date of birth</td><td><span>01 February 2004</span></td></tr></tbody></table></div>"},"extension":[{"url":"http://hl7.org/fhir/us/core/StructureDefinition/us-core-race","extension":[{"url":"ombCategory","valueCoding":{"system":"urn:oid:2.16.840.1.113883.6.238","code":"1002-5","display":"American Indian or Alaska Native","userSelected":true}},{"url":"text","valueString":"American Indian or Alaska Native"}]},{"url":"http://hl7.org/fhir/us/core/StructureDefinition/us-core-ethnicity","extension":[{"url":"ombCategory","valueCoding":{"system":"urn:oid:2.16.840.1.113883.6.238","code":"2135-2","display":"Hispanic or Latino","userSelected":true}},{"url":"text","valueString":"Hispanic or Latino"}]}],"identifier":[{"type":{"coding":[{"system":"http://terminology.hl7.org/CodeSystem/v2-0203","code":"MR"}]},"system":"https://bonnie-fhir.healthit.gov/","value":"63594c7a6aee9629c82981df"}],"active":true,"name":[{"use":"usual","family":"RiskPass","given":["Risk_HIV"]}],"gender":"female","birthDate":"2004-02-01"},"request":{"method":"PUT","url":"Patient/7225dafe-a1f6-4205-94f7-b4c3f413da99"}},{"fullUrl":"https://madie.cms.gov/Observation/10dc5c1d-05c6-44e1-a227-96a4c688c3d5","resource":{"resourceType":"Observation","id":"10dc5c1d-05c6-44e1-a227-96a4c688c3d5","meta":{"profile":["http://hl7.org/fhir/us/qicore/StructureDefinition/qicore-observation"]},"status":"final","category":[{"coding":[{"system":"http://terminology.hl7.org/CodeSystem/observation-category","code":"exam","display":"exam","userSelected":true}]}],"code":{"coding":[{"system":"http://loinc.org","code":"93857-1"}]},"subject":{"reference":"Patient/7225dafe-a1f6-4205-94f7-b4c3f413da99"},"effectiveDateTime":"2025-02-01T08:00:00.000+00:00","valueDateTime":"2025-02-01T08:00:00+00:00"},"request":{"method":"PUT","url":"Observation/10dc5c1d-05c6-44e1-a227-96a4c688c3d5"}},{"fullUrl":"https://madie.cms.gov/Observation/8e7e345b-9697-4b87-8b72-53044e254ce4","resource":{"resourceType":"Observation","id":"8e7e345b-9697-4b87-8b72-53044e254ce4","meta":{"profile":["http://hl7.org/fhir/us/qicore/StructureDefinition/qicore-observation"]},"status":"final","category":[{"coding":[{"system":"http://terminology.hl7.org/CodeSystem/observation-category","code":"exam","display":"exam","userSelected":true}]}],"code":{"coding":[{"system":"http://loinc.org","code":"11778-8"}]},"subject":{"reference":"Patient/7225dafe-a1f6-4205-94f7-b4c3f413da99"},"effectiveDateTime":"2025-02-01T08:00:00.000+00:00","valueDateTime":"2025-02-01T00:00:00.000+00:00"},"request":{"method":"PUT","url":"Observation/8e7e345b-9697-4b87-8b72-53044e254ce4"}},{"fullUrl":"https://madie.cms.gov/Encounter/eff53f9e-fb32-4734-be3c-9122182f7fca","resource":{"resourceType":"Encounter","id":"eff53f9e-fb32-4734-be3c-9122182f7fca","meta":{"profile":["http://hl7.org/fhir/us/qicore/StructureDefinition/qicore-encounter"]},"status":"finished","class":{"system":"http://terminology.hl7.org/CodeSystem/v3-ActCode","code":"IMP","display":"inpatient encounter"},"type":[{"coding":[{"system":"http://snomed.info/sct","code":"183452005"}]}],"subject":{"reference":"Patient/7225dafe-a1f6-4205-94f7-b4c3f413da99"},"period":{"start":"2025-02-01T08:00:00.000Z","end":"2025-02-05T08:15:00.000Z"},"diagnosis":[{"extension":[{"url":"http://hl7.org/fhir/us/qicore/StructureDefinition/qicore-encounter-diagnosisPresentOnAdmission","valueCodeableConcept":{"coding":[{"system":"https://www.cms.gov/Medicare/Medicare-Fee-for-Service-Payment/HospitalAcqCond/Coding","code":"Y"}]}}],"condition":{"reference":"Condition/5759dc80-5416-4a50-86ba-0cca79967c87"}},{"extension":[{"url":"http://hl7.org/fhir/us/qicore/StructureDefinition/qicore-encounter-diagnosisPresentOnAdmission","valueCodeableConcept":{"coding":[{"system":"https://www.cms.gov/Medicare/Medicare-Fee-for-Service-Payment/HospitalAcqCond/Coding","code":"N"}]}}],"condition":{"reference":"Condition/3da843fc-f3e6-47c3-97e3-72ee829a0a44"}}]},"request":{"method":"PUT","url":"Encounter/eff53f9e-fb32-4734-be3c-9122182f7fca"}},{"fullUrl":"https://madie.cms.gov/Procedure/b2d2f2f7-7be2-4d82-a489-0f6ce1f9def9","resource":{"resourceType":"Procedure","id":"b2d2f2f7-7be2-4d82-a489-0f6ce1f9def9","meta":{"profile":["http://hl7.org/fhir/us/qicore/StructureDefinition/qicore-procedure"]},"extension":[{"url":"http://hl7.org/fhir/us/qicore/StructureDefinition/qicore-recorded","valueDateTime":"2013-04-05T09:35:00-04:00"}],"status":"completed","code":{"coding":[{"system":"http://snomed.info/sct","code":"10745001"}]},"subject":{"reference":"Patient/7225dafe-a1f6-4205-94f7-b4c3f413da99"},"performedDateTime":"2025-02-01T08:00:00.000+00:00"},"request":{"method":"PUT","url":"Procedure/b2d2f2f7-7be2-4d82-a489-0f6ce1f9def9"}},{"fullUrl":"https://madie.cms.gov/Condition/3da843fc-f3e6-47c3-97e3-72ee829a0a44","resource":{"resourceType":"Condition","id":"3da843fc-f3e6-47c3-97e3-72ee829a0a44","meta":{"profile":["http://hl7.org/fhir/us/qicore/StructureDefinition/qicore-condition"]},"category":[{"coding":[{"system":"http://terminology.hl7.org/CodeSystem/condition-category","code":"encounter-diagnosis","display":"Encounter Diagnosis"}]}],"code":{"coding":[{"system":"http://hl7.org/fhir/sid/icd-10-cm","version":"2023","code":"A32.7","display":"Listerial sepsis","userSelected":true}]},"subject":{"reference":"Patient/7225dafe-a1f6-4205-94f7-b4c3f413da99"},"recordedDate":"2025-10-26T08:00:00.000+00:00"},"request":{"method":"PUT","url":"Condition/3da843fc-f3e6-47c3-97e3-72ee829a0a44"}},{"fullUrl":"https://madie.cms.gov/Condition/5759dc80-5416-4a50-86ba-0cca79967c87","resource":{"resourceType":"Condition","id":"5759dc80-5416-4a50-86ba-0cca79967c87","meta":{"profile":["http://hl7.org/fhir/us/qicore/StructureDefinition/qicore-condition"]},"category":[{"coding":[{"system":"http://terminology.hl7.org/CodeSystem/condition-category","code":"encounter-diagnosis","display":"Encounter Diagnosis"}]}],"code":{"coding":[{"system":"http://hl7.org/fhir/sid/icd-10-cm","version":"2023","code":"B20","display":"HIV","userSelected":true}]},"subject":{"reference":"Patient/7225dafe-a1f6-4205-94f7-b4c3f413da99"},"recordedDate":"2025-10-26T08:00:00.000+00:00"},"request":{"method":"PUT","url":"Condition/5759dc80-5416-4a50-86ba-0cca79967c87"}},{"fullUrl":"https://madie.cms.gov/MeasureReport/f678c05f-b11a-4db6-b14e-c42c7581ba89","resource":{"resourceType":"MeasureReport","id":"f678c05f-b11a-4db6-b14e-c42c7581ba89","meta":{"profile":["http://hl7.org/fhir/us/cqfmeasures/StructureDefinition/test-case-cqfm"]},"contained":[{"resourceType":"Parameters","id":"ffcb8b46-5b5f-4c32-95ee-b8fb42222b4e-parameters","parameter":[{"name":"subject","valueString":"7225dafe-a1f6-4205-94f7-b4c3f413da99"}]}],"extension":[{"url":"http://hl7.org/fhir/us/cqfmeasures/StructureDefinition/cqfm-inputParameters","valueReference":{"reference":"#ffcb8b46-5b5f-4c32-95ee-b8fb42222b4e-parameters"}},{"url":"http://hl7.org/fhir/us/cqfmeasures/StructureDefinition/cqfm-testCaseDescription","valueMarkdown":"Risk variable of HIV\n\n"}],"modifierExtension":[{"url":"http://hl7.org/fhir/us/cqfmeasures/StructureDefinition/cqfm-isTestCase","valueBoolean":true}],"status":"complete","type":"individual","measure":"https://madie.cms.gov/Measure/CMS1028FHIRPCSevereOBComps","period":{"start":"2025-01-01","end":"2025-12-31"},"group":[{"population":[{"code":{"coding":[{"system":"http://terminology.hl7.org/CodeSystem/measure-population","code":"initial-population","display":"Initial Population"}]},"count":1},{"code":{"coding":[{"system":"http://terminology.hl7.org/CodeSystem/measure-population","code":"denominator","display":"Denominator"}]},"count":1},{"code":{"coding":[{"system":"http://terminology.hl7.org/CodeSystem/measure-population","code":"numerator","display":"Numerator"}]},"count":1},{"code":{"coding":[{"system":"http://terminology.hl7.org/CodeSystem/measure-population","code":"numerator-exclusion","display":"Numerator Exclusion"}]},"count":0}]},{"population":[{"code":{"coding":[{"system":"http://terminology.hl7.org/CodeSystem/measure-population","code":"initial-population","display":"Initial Population"}]},"count":1},{"code":{"coding":[{"system":"http://terminology.hl7.org/CodeSystem/measure-population","code":"denominator","display":"Denominator"}]},"count":1},{"code":{"coding":[{"system":"http://terminology.hl7.org/CodeSystem/measure-population","code":"numerator","display":"Numerator"}]},"count":1},{"code":{"coding":[{"system":"http://terminology.hl7.org/CodeSystem/measure-population","code":"numerator-exclusion","display":"Numerator Exclusion"}]},"count":0}]}]},"request":{"method":"PUT","url":"MeasureReport/f678c05f-b11a-4db6-b14e-c42c7581ba89"}}]}