{"resourceType":"Bundle","id":"tests-2fb0f85b-1d63-4dc2-ace9-5d3b17c920c3-bundle","type":"transaction","entry":[{"fullUrl":"https://madie.cms.gov/Patient/2fb0f85b-1d63-4dc2-ace9-5d3b17c920c3","resource":{"resourceType":"Patient","id":"2fb0f85b-1d63-4dc2-ace9-5d3b17c920c3","meta":{"profile":["http://hl7.org/fhir/us/qicore/StructureDefinition/qicore-patient"]},"text":{"status":"generated","div":"<div xmlns=\"http://www.w3.org/1999/xhtml\"><div class=\"hapiHeaderText\">RISKHR24hours1MinB4EDOTTriageEnc   <b>RISKFail </b></div><table class=\"hapiPropertyTable\"><tbody><tr><td>Date of birth</td><td><span>01 February 2004</span></td></tr></tbody></table></div>"},"extension":[{"url":"http://hl7.org/fhir/us/core/StructureDefinition/us-core-race","extension":[{"url":"ombCategory","valueCoding":{"system":"urn:oid:2.16.840.1.113883.6.238","code":"1002-5","display":"American Indian or Alaska Native","userSelected":true}},{"url":"text","valueString":"American Indian or Alaska Native"}]},{"url":"http://hl7.org/fhir/us/core/StructureDefinition/us-core-ethnicity","extension":[{"url":"ombCategory","valueCoding":{"system":"urn:oid:2.16.840.1.113883.6.238","code":"2135-2","display":"Hispanic or Latino","userSelected":true}},{"url":"text","valueString":"Hispanic or Latino"}]}],"identifier":[{"type":{"coding":[{"system":"http://terminology.hl7.org/CodeSystem/v2-0203","code":"MR"}]},"system":"https://bonnie-fhir.healthit.gov/","value":"63598dd9c35f1c19df09adbd"}],"active":true,"name":[{"use":"usual","family":"RiskFail","given":["RISKHR24hours1MinB4EDOTTriageEnc "]}],"gender":"female","birthDate":"2004-02-01"},"request":{"method":"PUT","url":"Patient/2fb0f85b-1d63-4dc2-ace9-5d3b17c920c3"}},{"fullUrl":"https://madie.cms.gov/Observation/d529f51c-cf01-4d0f-9199-93af088d8289","resource":{"resourceType":"Observation","id":"d529f51c-cf01-4d0f-9199-93af088d8289","meta":{"profile":["http://hl7.org/fhir/us/qicore/StructureDefinition/qicore-observation"]},"status":"final","category":[{"coding":[{"system":"http://terminology.hl7.org/CodeSystem/observation-category","code":"exam","display":"exam","userSelected":true}]}],"code":{"coding":[{"system":"http://loinc.org","code":"93857-1"}]},"subject":{"reference":"Patient/2fb0f85b-1d63-4dc2-ace9-5d3b17c920c3"},"effectiveDateTime":"2025-02-01T08:00:00.000+00:00","valueDateTime":"2025-02-01T08:00:00+00:00"},"request":{"method":"PUT","url":"Observation/d529f51c-cf01-4d0f-9199-93af088d8289"}},{"fullUrl":"https://madie.cms.gov/Observation/c293b214-8a82-4014-bdb8-eb4684d1c6fb","resource":{"resourceType":"Observation","id":"c293b214-8a82-4014-bdb8-eb4684d1c6fb","meta":{"profile":["http://hl7.org/fhir/us/qicore/StructureDefinition/qicore-observation"]},"status":"final","category":[{"coding":[{"system":"http://terminology.hl7.org/CodeSystem/observation-category","code":"exam","display":"exam","userSelected":true}]}],"code":{"coding":[{"system":"http://loinc.org","code":"11884-4"}]},"subject":{"reference":"Patient/2fb0f85b-1d63-4dc2-ace9-5d3b17c920c3"},"effectiveDateTime":"2025-02-01T08:00:00.000+00:00","valueQuantity":{"value":21,"system":"http://unitsofmeasure.org","code":"wk"}},"request":{"method":"PUT","url":"Observation/c293b214-8a82-4014-bdb8-eb4684d1c6fb"}},{"fullUrl":"https://madie.cms.gov/Encounter/cf192a92-0d5c-4438-94d6-b196badad486","resource":{"resourceType":"Encounter","id":"cf192a92-0d5c-4438-94d6-b196badad486","meta":{"profile":["http://hl7.org/fhir/us/qicore/StructureDefinition/qicore-encounter"]},"status":"finished","class":{"system":"http://terminology.hl7.org/CodeSystem/v3-ActCode","code":"IMP","display":"inpatient encounter"},"type":[{"coding":[{"system":"http://snomed.info/sct","code":"183452005"}]}],"subject":{"reference":"Patient/2fb0f85b-1d63-4dc2-ace9-5d3b17c920c3"},"period":{"start":"2025-02-01T08:00:00.000+00:00","end":"2025-02-05T08:15:00.000+00:00"}},"request":{"method":"PUT","url":"Encounter/cf192a92-0d5c-4438-94d6-b196badad486"}},{"fullUrl":"https://madie.cms.gov/Encounter/ebc42a15-fb5d-4436-86cc-355bfb7e69fa","resource":{"resourceType":"Encounter","id":"ebc42a15-fb5d-4436-86cc-355bfb7e69fa","meta":{"profile":["http://hl7.org/fhir/us/qicore/StructureDefinition/qicore-encounter"]},"status":"finished","class":{"system":"http://terminology.hl7.org/CodeSystem/v3-ActCode","code":"EMER","display":"emergency"},"type":[{"coding":[{"system":"http://snomed.info/sct","code":"4525004"}]}],"subject":{"reference":"Patient/2fb0f85b-1d63-4dc2-ace9-5d3b17c920c3"},"period":{"start":"2025-02-01T07:00:00.000+00:00","end":"2025-02-01T07:59:00.000+00:00"}},"request":{"method":"PUT","url":"Encounter/ebc42a15-fb5d-4436-86cc-355bfb7e69fa"}},{"fullUrl":"https://madie.cms.gov/Procedure/92d4075f-bb99-4db2-94b0-0fbd5a40da55","resource":{"resourceType":"Procedure","id":"92d4075f-bb99-4db2-94b0-0fbd5a40da55","meta":{"profile":["http://hl7.org/fhir/us/qicore/StructureDefinition/qicore-procedure"]},"extension":[{"url":"http://hl7.org/fhir/us/qicore/StructureDefinition/qicore-recorded","valueDateTime":"2025-02-04T09:35:00-04:00"}],"status":"completed","code":{"coding":[{"system":"http://snomed.info/sct","code":"10745001"}]},"subject":{"reference":"Patient/2fb0f85b-1d63-4dc2-ace9-5d3b17c920c3"},"performedPeriod":{"start":"2025-02-01T08:00:00.000+00:00","end":"2025-02-05T08:15:00.000+00:00"}},"request":{"method":"PUT","url":"Procedure/92d4075f-bb99-4db2-94b0-0fbd5a40da55"}},{"fullUrl":"https://madie.cms.gov/Observation/d6032baf-cbc7-45ec-8f0c-609af8eda404","resource":{"resourceType":"Observation","id":"d6032baf-cbc7-45ec-8f0c-609af8eda404","meta":{"profile":["http://hl7.org/fhir/StructureDefinition/heartrate"]},"status":"final","category":[{"coding":[{"system":"http://terminology.hl7.org/CodeSystem/observation-category","code":"vital-signs","display":"vital-signs","userSelected":true}]}],"code":{"coding":[{"system":"http://loinc.org","version":"2.73","code":"8867-4","display":"Heart Rate"}]},"subject":{"reference":"Patient/2fb0f85b-1d63-4dc2-ace9-5d3b17c920c3"},"effectiveDateTime":"2025-01-31T06:59:00.000+00:00","valueQuantity":{"value":85,"unit":"/min","system":"http://unitsofmeasure.org","code":"/min"}},"request":{"method":"PUT","url":"Observation/d6032baf-cbc7-45ec-8f0c-609af8eda404"}},{"fullUrl":"https://madie.cms.gov/MeasureReport/3da87008-543e-4a7b-8ece-8f5a92731ce6","resource":{"resourceType":"MeasureReport","id":"3da87008-543e-4a7b-8ece-8f5a92731ce6","meta":{"profile":["http://hl7.org/fhir/us/cqfmeasures/StructureDefinition/test-case-cqfm"]},"contained":[{"resourceType":"Parameters","id":"be6b12df-0c46-4d3e-ba40-6f119008ae2f-parameters","parameter":[{"name":"subject","valueString":"2fb0f85b-1d63-4dc2-ace9-5d3b17c920c3"}]}],"extension":[{"url":"http://hl7.org/fhir/us/cqfmeasures/StructureDefinition/cqfm-inputParameters","valueReference":{"reference":"#be6b12df-0c46-4d3e-ba40-6f119008ae2f-parameters"}},{"url":"http://hl7.org/fhir/us/cqfmeasures/StructureDefinition/cqfm-testCaseDescription","valueMarkdown":"Patient with heart rate that starts 24 hours and 1 minute before ED OB Triage encounter.  \n"}],"modifierExtension":[{"url":"http://hl7.org/fhir/us/cqfmeasures/StructureDefinition/cqfm-isTestCase","valueBoolean":true}],"status":"complete","type":"individual","measure":"https://madie.cms.gov/Measure/CMS1028FHIRPCSevereOBComps","period":{"start":"2025-01-01","end":"2025-12-31"},"group":[{"population":[{"code":{"coding":[{"system":"http://terminology.hl7.org/CodeSystem/measure-population","code":"initial-population","display":"Initial Population"}]},"count":1},{"code":{"coding":[{"system":"http://terminology.hl7.org/CodeSystem/measure-population","code":"denominator","display":"Denominator"}]},"count":1},{"code":{"coding":[{"system":"http://terminology.hl7.org/CodeSystem/measure-population","code":"numerator","display":"Numerator"}]},"count":0},{"code":{"coding":[{"system":"http://terminology.hl7.org/CodeSystem/measure-population","code":"numerator-exclusion","display":"Numerator Exclusion"}]},"count":0}]},{"population":[{"code":{"coding":[{"system":"http://terminology.hl7.org/CodeSystem/measure-population","code":"initial-population","display":"Initial Population"}]},"count":1},{"code":{"coding":[{"system":"http://terminology.hl7.org/CodeSystem/measure-population","code":"denominator","display":"Denominator"}]},"count":1},{"code":{"coding":[{"system":"http://terminology.hl7.org/CodeSystem/measure-population","code":"numerator","display":"Numerator"}]},"count":0},{"code":{"coding":[{"system":"http://terminology.hl7.org/CodeSystem/measure-population","code":"numerator-exclusion","display":"Numerator Exclusion"}]},"count":0}]}]},"request":{"method":"PUT","url":"MeasureReport/3da87008-543e-4a7b-8ece-8f5a92731ce6"}}]}