{"resourceType":"Bundle","id":"tests-51c90bbb-f142-4bdf-a47a-237b2ff9403c-bundle","type":"transaction","entry":[{"fullUrl":"https://madie.cms.gov/Patient/51c90bbb-f142-4bdf-a47a-237b2ff9403c","resource":{"resourceType":"Patient","id":"51c90bbb-f142-4bdf-a47a-237b2ff9403c","meta":{"profile":["http://hl7.org/fhir/us/qicore/StructureDefinition/qicore-patient"]},"text":{"status":"generated","div":"<div xmlns=\"http://www.w3.org/1999/xhtml\"><div class=\"hapiHeaderText\">BloodTransfusionRelvDtTime1MinB4MidnightDayB4EDOBTriageHosp <b>NUMFail </b></div><table class=\"hapiPropertyTable\"><tbody><tr><td>Date of birth</td><td><span>01 February 2004</span></td></tr></tbody></table></div>"},"extension":[{"url":"http://hl7.org/fhir/us/core/StructureDefinition/us-core-race","extension":[{"url":"ombCategory","valueCoding":{"system":"urn:oid:2.16.840.1.113883.6.238","code":"1002-5","display":"American Indian or Alaska Native","userSelected":true}},{"url":"text","valueString":"American Indian or Alaska Native"}]},{"url":"http://hl7.org/fhir/us/core/StructureDefinition/us-core-ethnicity","extension":[{"url":"ombCategory","valueCoding":{"system":"urn:oid:2.16.840.1.113883.6.238","code":"2135-2","display":"Hispanic or Latino","userSelected":true}},{"url":"text","valueString":"Hispanic or Latino"}]}],"identifier":[{"type":{"coding":[{"system":"http://terminology.hl7.org/CodeSystem/v2-0203","code":"MR"}]},"system":"https://bonnie-fhir.healthit.gov/","value":"633b3f9f0968f80122503cdb"}],"active":true,"name":[{"use":"usual","family":"NUMFail","given":["BloodTransfusionRelvDtTime1MinB4MidnightDayB4EDOBTriageHosp"]}],"gender":"female","birthDate":"2004-02-01"},"request":{"method":"PUT","url":"Patient/51c90bbb-f142-4bdf-a47a-237b2ff9403c"}},{"fullUrl":"https://madie.cms.gov/Observation/6d5e734b-33f4-4d5f-b819-3e8855ada153","resource":{"resourceType":"Observation","id":"6d5e734b-33f4-4d5f-b819-3e8855ada153","meta":{"profile":["http://hl7.org/fhir/us/qicore/StructureDefinition/qicore-observation"]},"status":"final","category":[{"coding":[{"system":"http://terminology.hl7.org/CodeSystem/observation-category","code":"exam","display":"exam","userSelected":true}]}],"code":{"coding":[{"system":"http://loinc.org","code":"93857-1"}]},"subject":{"reference":"Patient/51c90bbb-f142-4bdf-a47a-237b2ff9403c"},"effectiveDateTime":"2025-02-01T08:00:00.000+00:00","valueDateTime":"2025-02-01T08:00:00+00:00"},"request":{"method":"PUT","url":"Observation/6d5e734b-33f4-4d5f-b819-3e8855ada153"}},{"fullUrl":"https://madie.cms.gov/Observation/a55dd25d-f67b-4154-90a9-66400272ba70","resource":{"resourceType":"Observation","id":"a55dd25d-f67b-4154-90a9-66400272ba70","meta":{"profile":["http://hl7.org/fhir/us/qicore/StructureDefinition/qicore-observation"]},"status":"final","category":[{"coding":[{"system":"http://terminology.hl7.org/CodeSystem/observation-category","code":"exam","display":"exam","userSelected":true}]}],"code":{"coding":[{"system":"http://loinc.org","code":"11884-4"}]},"subject":{"reference":"Patient/51c90bbb-f142-4bdf-a47a-237b2ff9403c"},"effectiveDateTime":"2025-02-01T08:00:00.000+00:00","valueQuantity":{"value":20,"system":"http://unitsofmeasure.org","code":"wk"}},"request":{"method":"PUT","url":"Observation/a55dd25d-f67b-4154-90a9-66400272ba70"}},{"fullUrl":"https://madie.cms.gov/Observation/4bd9091c-f88b-474f-bfac-705dc5b25490","resource":{"resourceType":"Observation","id":"4bd9091c-f88b-474f-bfac-705dc5b25490","meta":{"profile":["http://hl7.org/fhir/us/qicore/StructureDefinition/qicore-observation"]},"status":"final","category":[{"coding":[{"system":"http://terminology.hl7.org/CodeSystem/observation-category","code":"exam","display":"exam","userSelected":true}]}],"code":{"coding":[{"system":"http://loinc.org","code":"11884-4"}]},"subject":{"reference":"Patient/51c90bbb-f142-4bdf-a47a-237b2ff9403c"},"effectiveDateTime":"2025-02-01T08:01:00.000+00:00"},"request":{"method":"PUT","url":"Observation/4bd9091c-f88b-474f-bfac-705dc5b25490"}},{"fullUrl":"https://madie.cms.gov/Encounter/405e098d-408a-46ea-ac50-9ab3e406b4bd","resource":{"resourceType":"Encounter","id":"405e098d-408a-46ea-ac50-9ab3e406b4bd","meta":{"profile":["http://hl7.org/fhir/us/qicore/StructureDefinition/qicore-encounter"]},"status":"finished","class":{"system":"http://terminology.hl7.org/CodeSystem/v3-ActCode","code":"IMP","display":"inpatient encounter"},"type":[{"coding":[{"system":"http://snomed.info/sct","code":"183452005"}]}],"subject":{"reference":"Patient/51c90bbb-f142-4bdf-a47a-237b2ff9403c"},"period":{"start":"2025-02-01T08:00:00.000Z","end":"2025-02-05T08:15:00.000Z"}},"request":{"method":"PUT","url":"Encounter/405e098d-408a-46ea-ac50-9ab3e406b4bd"}},{"fullUrl":"https://madie.cms.gov/Coverage/dd830ffe-9710-4104-bad7-22af724f67e0","resource":{"resourceType":"Coverage","id":"dd830ffe-9710-4104-bad7-22af724f67e0","status":"active","beneficiary":{"reference":"Patient/51c90bbb-f142-4bdf-a47a-237b2ff9403c"},"period":{"start":"2004-02-01T08:00:00.000Z"},"payor":[{"reference":"Organization/5ad6ea38-07e9-4482-9e1b-c09eee595be9"}]},"request":{"method":"PUT","url":"Coverage/dd830ffe-9710-4104-bad7-22af724f67e0"}},{"fullUrl":"https://madie.cms.gov/Procedure/670a9bd3-7c53-465a-ba2b-43d1940eaf4a","resource":{"resourceType":"Procedure","id":"670a9bd3-7c53-465a-ba2b-43d1940eaf4a","meta":{"profile":["http://hl7.org/fhir/us/qicore/StructureDefinition/qicore-procedure"]},"extension":[{"url":"http://hl7.org/fhir/us/qicore/StructureDefinition/qicore-recorded","valueDateTime":"2013-04-05T09:35:00-04:00"}],"status":"completed","code":{"coding":[{"system":"http://snomed.info/sct","code":"10745001"}]},"subject":{"reference":"Patient/51c90bbb-f142-4bdf-a47a-237b2ff9403c"},"performedPeriod":{"start":"2025-02-01T08:00:00.000Z","end":"2025-02-05T08:15:00.000Z"}},"request":{"method":"PUT","url":"Procedure/670a9bd3-7c53-465a-ba2b-43d1940eaf4a"}},{"fullUrl":"https://madie.cms.gov/Procedure/801cb7be-3e22-4492-b03a-9dbf1254ea46","resource":{"resourceType":"Procedure","id":"801cb7be-3e22-4492-b03a-9dbf1254ea46","meta":{"profile":["http://hl7.org/fhir/us/qicore/StructureDefinition/qicore-procedure"]},"extension":[{"url":"http://hl7.org/fhir/us/qicore/StructureDefinition/qicore-recorded","valueDateTime":"2025-02-01T00:01:00-04:00"}],"status":"completed","code":{"coding":[{"system":"http://snomed.info/sct","code":"11397000"}]},"subject":{"reference":"Patient/51c90bbb-f142-4bdf-a47a-237b2ff9403c"},"performedPeriod":{"start":"2025-01-31T11:59:00.000Z","end":"2025-02-05T11:59:00.000Z"}},"request":{"method":"PUT","url":"Procedure/801cb7be-3e22-4492-b03a-9dbf1254ea46"}},{"fullUrl":"https://madie.cms.gov/Organization/4fd3ed20-8dc1-4bee-a37a-c840cccbd61b","resource":{"resourceType":"Organization","id":"5ad6ea38-07e9-4482-9e1b-c09eee595be9","meta":{"profile":["http://hl7.org/fhir/us/qicore/StructureDefinition/qicore-organization"]},"identifier":[{"use":"temp","system":"urn:oid:2.16.840.1.113883.4.4","value":"21-3259825"}],"active":true,"type":[{"coding":[{"system":"http://terminology.hl7.org/CodeSystem/organization-type","code":"pay","display":"Payer"}]}],"name":"Blue Cross Blue Shield of Texas","telecom":[{"system":"phone","value":"(+1) 972-766-6900"}],"address":[{"use":"billing","type":"postal","line":["P.O. Box 660044"],"city":"Dallas","state":"TX","postalCode":"75266-0044","country":"USA"}]},"request":{"method":"PUT","url":"Organization/5ad6ea38-07e9-4482-9e1b-c09eee595be9"}},{"fullUrl":"https://madie.cms.gov/Practitioner/25106e88-3b7f-4101-bf90-eccdef978ffc","resource":{"resourceType":"Practitioner","id":"25106e88-3b7f-4101-bf90-eccdef978ffc","identifier":[{"system":"http://hl7.org/fhir/sid/us-npi","value":"123456"}],"name":[{"family":"Evil","prefix":["Dr"]}]},"request":{"method":"PUT","url":"Practitioner/25106e88-3b7f-4101-bf90-eccdef978ffc"}},{"fullUrl":"https://madie.cms.gov/MeasureReport/693ca0f2-bbd0-4d1f-b7de-e845de0ebc96","resource":{"resourceType":"MeasureReport","id":"693ca0f2-bbd0-4d1f-b7de-e845de0ebc96","meta":{"profile":["http://hl7.org/fhir/us/cqfmeasures/StructureDefinition/test-case-cqfm"]},"contained":[{"resourceType":"Parameters","id":"f72fafce-773f-473c-8587-88053d79dab5-parameters","parameter":[{"name":"subject","valueString":"51c90bbb-f142-4bdf-a47a-237b2ff9403c"}]}],"extension":[{"url":"http://hl7.org/fhir/us/cqfmeasures/StructureDefinition/cqfm-inputParameters","valueReference":{"reference":"#f72fafce-773f-473c-8587-88053d79dab5-parameters"}},{"url":"http://hl7.org/fhir/us/cqfmeasures/StructureDefinition/cqfm-testCaseDescription","valueMarkdown":"Blood Transfusion Relevant Date Time 1 Minute before midnight day before encounter begin\n"}],"modifierExtension":[{"url":"http://hl7.org/fhir/us/cqfmeasures/StructureDefinition/cqfm-isTestCase","valueBoolean":true}],"status":"complete","type":"individual","measure":"https://madie.cms.gov/Measure/CMS1028FHIRPCSevereOBComps","period":{"start":"2025-01-01","end":"2025-12-31"},"group":[{"population":[{"code":{"coding":[{"system":"http://terminology.hl7.org/CodeSystem/measure-population","code":"initial-population","display":"Initial Population"}]},"count":1},{"code":{"coding":[{"system":"http://terminology.hl7.org/CodeSystem/measure-population","code":"denominator","display":"Denominator"}]},"count":1},{"code":{"coding":[{"system":"http://terminology.hl7.org/CodeSystem/measure-population","code":"numerator","display":"Numerator"}]},"count":0},{"code":{"coding":[{"system":"http://terminology.hl7.org/CodeSystem/measure-population","code":"numerator-exclusion","display":"Numerator Exclusion"}]},"count":0}]},{"population":[{"code":{"coding":[{"system":"http://terminology.hl7.org/CodeSystem/measure-population","code":"initial-population","display":"Initial Population"}]},"count":1},{"code":{"coding":[{"system":"http://terminology.hl7.org/CodeSystem/measure-population","code":"denominator","display":"Denominator"}]},"count":1},{"code":{"coding":[{"system":"http://terminology.hl7.org/CodeSystem/measure-population","code":"numerator","display":"Numerator"}]},"count":0},{"code":{"coding":[{"system":"http://terminology.hl7.org/CodeSystem/measure-population","code":"numerator-exclusion","display":"Numerator Exclusion"}]},"count":0}]}]},"request":{"method":"PUT","url":"MeasureReport/693ca0f2-bbd0-4d1f-b7de-e845de0ebc96"}}]}