{"resourceType":"Bundle","id":"tests-93a4c219-3c44-4a25-866b-0525e8758bdf-bundle","type":"transaction","entry":[{"fullUrl":"https://madie.cms.gov/Patient/93a4c219-3c44-4a25-866b-0525e8758bdf","resource":{"resourceType":"Patient","id":"93a4c219-3c44-4a25-866b-0525e8758bdf","meta":{"profile":["http://hl7.org/fhir/us/qicore/StructureDefinition/qicore-patient"]},"text":{"status":"generated","div":"<div xmlns=\"http://www.w3.org/1999/xhtml\"><div class=\"hapiHeaderText\">AssPrfDelRelvDtEQIPEnd <b>RISK=ASTHMA </b></div><table class=\"hapiPropertyTable\"><tbody><tr><td>Date of birth</td><td><span>01 February 2004</span></td></tr></tbody></table></div>"},"extension":[{"url":"http://hl7.org/fhir/us/core/StructureDefinition/us-core-race","extension":[{"url":"ombCategory","valueCoding":{"system":"urn:oid:2.16.840.1.113883.6.238","code":"1002-5","display":"American Indian or Alaska Native","userSelected":true}},{"url":"text","valueString":"American Indian or Alaska Native"}]},{"url":"http://hl7.org/fhir/us/core/StructureDefinition/us-core-ethnicity","extension":[{"url":"ombCategory","valueCoding":{"system":"urn:oid:2.16.840.1.113883.6.238","code":"2135-2","display":"Hispanic or Latino","userSelected":true}},{"url":"text","valueString":"Hispanic or Latino"}]}],"identifier":[{"type":{"coding":[{"system":"http://terminology.hl7.org/CodeSystem/v2-0203","code":"MR"}]},"system":"https://bonnie-fhir.healthit.gov/","value":"63594c7a6aee9629c82981df"}],"active":true,"name":[{"use":"usual","family":"RiskFail","given":["Risk_Anemia_RiskVariablePOAisNo"]}],"gender":"female","birthDate":"2004-02-01"},"request":{"method":"PUT","url":"Patient/93a4c219-3c44-4a25-866b-0525e8758bdf"}},{"fullUrl":"https://madie.cms.gov/Observation/95ba0280-73b5-42a2-87d7-15c28cf8e64c","resource":{"resourceType":"Observation","id":"95ba0280-73b5-42a2-87d7-15c28cf8e64c","meta":{"profile":["http://hl7.org/fhir/us/qicore/StructureDefinition/qicore-observation"]},"status":"final","category":[{"coding":[{"system":"http://terminology.hl7.org/CodeSystem/observation-category","code":"exam","display":"exam","userSelected":true}]}],"code":{"coding":[{"system":"http://loinc.org","code":"93857-1"}]},"subject":{"reference":"Patient/93a4c219-3c44-4a25-866b-0525e8758bdf"},"effectiveDateTime":"2025-02-01T08:00:00.000+00:00","valueDateTime":"2025-02-01T08:00:00+00:00"},"request":{"method":"PUT","url":"Observation/95ba0280-73b5-42a2-87d7-15c28cf8e64c"}},{"fullUrl":"https://madie.cms.gov/Observation/a1cbeb98-3153-449e-ad1b-26fddfb795cb","resource":{"resourceType":"Observation","id":"a1cbeb98-3153-449e-ad1b-26fddfb795cb","meta":{"profile":["http://hl7.org/fhir/us/qicore/StructureDefinition/qicore-observation"]},"status":"final","category":[{"coding":[{"system":"http://terminology.hl7.org/CodeSystem/observation-category","code":"exam","display":"exam","userSelected":true}]}],"code":{"coding":[{"system":"http://loinc.org","code":"11778-8"}]},"subject":{"reference":"Patient/93a4c219-3c44-4a25-866b-0525e8758bdf"},"effectiveDateTime":"2025-02-01T08:00:00.000+00:00","valueDateTime":"2025-02-01T00:00:00.000+00:00"},"request":{"method":"PUT","url":"Observation/a1cbeb98-3153-449e-ad1b-26fddfb795cb"}},{"fullUrl":"https://madie.cms.gov/Encounter/94ca5b05-3a71-44ff-bc01-e38e002b4a38","resource":{"resourceType":"Encounter","id":"94ca5b05-3a71-44ff-bc01-e38e002b4a38","meta":{"profile":["http://hl7.org/fhir/us/qicore/StructureDefinition/qicore-encounter"]},"status":"finished","class":{"system":"http://terminology.hl7.org/CodeSystem/v3-ActCode","code":"IMP","display":"inpatient encounter"},"type":[{"coding":[{"system":"http://snomed.info/sct","code":"183452005"}]}],"subject":{"reference":"Patient/93a4c219-3c44-4a25-866b-0525e8758bdf"},"period":{"start":"2025-02-01T08:00:00.000Z","end":"2025-02-05T08:15:00.000Z"},"diagnosis":[{"extension":[{"url":"http://hl7.org/fhir/us/qicore/StructureDefinition/qicore-encounter-diagnosisPresentOnAdmission","valueCodeableConcept":{"coding":[{"system":"https://www.cms.gov/Medicare/Medicare-Fee-for-Service-Payment/HospitalAcqCond/Coding","code":"Y"}]}}],"condition":{"reference":"Condition/3a3bbb67-976d-42ea-913b-74157640ba58"}},{"extension":[{"url":"http://hl7.org/fhir/us/qicore/StructureDefinition/qicore-encounter-diagnosisPresentOnAdmission","valueCodeableConcept":{"coding":[{"system":"https://www.cms.gov/Medicare/Medicare-Fee-for-Service-Payment/HospitalAcqCond/Coding","code":"N"}]}}],"condition":{"reference":"Condition/896913b7-0489-4688-be85-f8d92b6532c0"}}]},"request":{"method":"PUT","url":"Encounter/94ca5b05-3a71-44ff-bc01-e38e002b4a38"}},{"fullUrl":"https://madie.cms.gov/Procedure/5b423d9c-dfdb-4126-8340-b18194caed68","resource":{"resourceType":"Procedure","id":"5b423d9c-dfdb-4126-8340-b18194caed68","meta":{"profile":["http://hl7.org/fhir/us/qicore/StructureDefinition/qicore-procedure"]},"extension":[{"url":"http://hl7.org/fhir/us/qicore/StructureDefinition/qicore-recorded","valueDateTime":"2013-04-05T09:35:00-04:00"}],"status":"completed","code":{"coding":[{"system":"http://snomed.info/sct","code":"10745001"}]},"subject":{"reference":"Patient/93a4c219-3c44-4a25-866b-0525e8758bdf"},"performedDateTime":"2025-02-01T08:00:00.000+00:00"},"request":{"method":"PUT","url":"Procedure/5b423d9c-dfdb-4126-8340-b18194caed68"}},{"fullUrl":"https://madie.cms.gov/Condition/896913b7-0489-4688-be85-f8d92b6532c0","resource":{"resourceType":"Condition","id":"896913b7-0489-4688-be85-f8d92b6532c0","meta":{"profile":["http://hl7.org/fhir/us/qicore/StructureDefinition/qicore-condition"]},"category":[{"coding":[{"system":"http://terminology.hl7.org/CodeSystem/condition-category","code":"encounter-diagnosis","display":"Encounter Diagnosis"}]}],"code":{"coding":[{"system":"http://hl7.org/fhir/sid/icd-10-cm","version":"2023","code":"A32.7","display":"Listerial sepsis","userSelected":true}]},"subject":{"reference":"Patient/93a4c219-3c44-4a25-866b-0525e8758bdf"},"recordedDate":"2025-10-26T08:00:00.000+00:00"},"request":{"method":"PUT","url":"Condition/896913b7-0489-4688-be85-f8d92b6532c0"}},{"fullUrl":"https://madie.cms.gov/Condition/3a3bbb67-976d-42ea-913b-74157640ba58","resource":{"resourceType":"Condition","id":"3a3bbb67-976d-42ea-913b-74157640ba58","meta":{"profile":["http://hl7.org/fhir/us/qicore/StructureDefinition/qicore-condition"]},"category":[{"coding":[{"system":"http://terminology.hl7.org/CodeSystem/condition-category","code":"encounter-diagnosis","display":"Encounter Diagnosis"}]}],"code":{"coding":[{"system":"http://hl7.org/fhir/sid/icd-10-cm","version":"2023","code":"D50.1","display":"Anemia","userSelected":true}]},"subject":{"reference":"Patient/93a4c219-3c44-4a25-866b-0525e8758bdf"},"recordedDate":"2025-10-26T08:00:00.000+00:00"},"request":{"method":"PUT","url":"Condition/3a3bbb67-976d-42ea-913b-74157640ba58"}},{"fullUrl":"https://madie.cms.gov/MeasureReport/86bf1fb7-ef11-4f28-98b3-40707c3290fb","resource":{"resourceType":"MeasureReport","id":"86bf1fb7-ef11-4f28-98b3-40707c3290fb","meta":{"profile":["http://hl7.org/fhir/us/cqfmeasures/StructureDefinition/test-case-cqfm"]},"contained":[{"resourceType":"Parameters","id":"5bc9f37c-aeaa-499b-b1b4-66d9d1d7a5d5-parameters","parameter":[{"name":"subject","valueString":"93a4c219-3c44-4a25-866b-0525e8758bdf"}]}],"extension":[{"url":"http://hl7.org/fhir/us/cqfmeasures/StructureDefinition/cqfm-inputParameters","valueReference":{"reference":"#5bc9f37c-aeaa-499b-b1b4-66d9d1d7a5d5-parameters"}},{"url":"http://hl7.org/fhir/us/cqfmeasures/StructureDefinition/cqfm-testCaseDescription","valueMarkdown":"Risk Variable of Anemia, POA is Yes"}],"modifierExtension":[{"url":"http://hl7.org/fhir/us/cqfmeasures/StructureDefinition/cqfm-isTestCase","valueBoolean":true}],"status":"complete","type":"individual","measure":"https://madie.cms.gov/Measure/CMS1028FHIRPCSevereOBComps","period":{"start":"2025-01-01","end":"2025-12-31"},"group":[{"population":[{"code":{"coding":[{"system":"http://terminology.hl7.org/CodeSystem/measure-population","code":"initial-population","display":"Initial Population"}]},"count":1},{"code":{"coding":[{"system":"http://terminology.hl7.org/CodeSystem/measure-population","code":"denominator","display":"Denominator"}]},"count":1},{"code":{"coding":[{"system":"http://terminology.hl7.org/CodeSystem/measure-population","code":"numerator","display":"Numerator"}]},"count":1},{"code":{"coding":[{"system":"http://terminology.hl7.org/CodeSystem/measure-population","code":"numerator-exclusion","display":"Numerator Exclusion"}]},"count":0}]},{"population":[{"code":{"coding":[{"system":"http://terminology.hl7.org/CodeSystem/measure-population","code":"initial-population","display":"Initial Population"}]},"count":1},{"code":{"coding":[{"system":"http://terminology.hl7.org/CodeSystem/measure-population","code":"denominator","display":"Denominator"}]},"count":1},{"code":{"coding":[{"system":"http://terminology.hl7.org/CodeSystem/measure-population","code":"numerator","display":"Numerator"}]},"count":1},{"code":{"coding":[{"system":"http://terminology.hl7.org/CodeSystem/measure-population","code":"numerator-exclusion","display":"Numerator Exclusion"}]},"count":0}]}]},"request":{"method":"PUT","url":"MeasureReport/86bf1fb7-ef11-4f28-98b3-40707c3290fb"}}]}