{"resourceType":"Bundle","id":"tests-258bd062-b042-4192-9e55-a66580eb135b-bundle","type":"transaction","entry":[{"fullUrl":"https://madie.cms.gov/Patient/258bd062-b042-4192-9e55-a66580eb135b","resource":{"resourceType":"Patient","id":"258bd062-b042-4192-9e55-a66580eb135b","meta":{"profile":["http://hl7.org/fhir/us/qicore/StructureDefinition/qicore-patient"]},"text":{"status":"generated","div":"<div xmlns=\"http://www.w3.org/1999/xhtml\"><div class=\"hapiHeaderText\">AssPrfEGALastIs19FirstIs20 <b>DENOMFAIL </b></div><table class=\"hapiPropertyTable\"><tbody><tr><td>Date of birth</td><td><span>01 February 2004</span></td></tr></tbody></table></div>"},"extension":[{"url":"http://hl7.org/fhir/us/core/StructureDefinition/us-core-race","extension":[{"url":"ombCategory","valueCoding":{"system":"urn:oid:2.16.840.1.113883.6.238","code":"1002-5","display":"American Indian or Alaska Native","userSelected":true}},{"url":"text","valueString":"American Indian or Alaska Native"}]},{"url":"http://hl7.org/fhir/us/core/StructureDefinition/us-core-ethnicity","extension":[{"url":"ombCategory","valueCoding":{"system":"urn:oid:2.16.840.1.113883.6.238","code":"2135-2","display":"Hispanic or Latino","userSelected":true}},{"url":"text","valueString":"Hispanic or Latino"}]}],"identifier":[{"type":{"coding":[{"system":"http://terminology.hl7.org/CodeSystem/v2-0203","code":"MR"}]},"system":"https://bonnie-fhir.healthit.gov/","value":"633b3f9f0968f80122503ce3"}],"active":true,"name":[{"use":"usual","family":"DENOMFail","given":["AssPrfEGALastIs19FirstIs20            "]}],"gender":"female","birthDate":"2004-02-01"},"request":{"method":"PUT","url":"Patient/258bd062-b042-4192-9e55-a66580eb135b"}},{"fullUrl":"https://madie.cms.gov/Observation/4d1b0573-2409-49e6-b284-a39f2d396299","resource":{"resourceType":"Observation","id":"4d1b0573-2409-49e6-b284-a39f2d396299","meta":{"profile":["http://hl7.org/fhir/us/qicore/StructureDefinition/qicore-observation"]},"status":"final","category":[{"coding":[{"system":"http://terminology.hl7.org/CodeSystem/observation-category","code":"exam","display":"exam","userSelected":true}]}],"code":{"coding":[{"system":"http://loinc.org","code":"93857-1"}]},"subject":{"reference":"Patient/258bd062-b042-4192-9e55-a66580eb135b"},"effectiveDateTime":"2025-02-01T08:00:00.000+00:00","valueDateTime":"2025-02-01T08:00:00+00:00"},"request":{"method":"PUT","url":"Observation/4d1b0573-2409-49e6-b284-a39f2d396299"}},{"fullUrl":"https://madie.cms.gov/Observation/a0fd3530-8d93-4a89-852d-b58794eb30e0","resource":{"resourceType":"Observation","id":"a0fd3530-8d93-4a89-852d-b58794eb30e0","meta":{"profile":["http://hl7.org/fhir/us/qicore/StructureDefinition/qicore-observation"]},"status":"final","category":[{"coding":[{"system":"http://terminology.hl7.org/CodeSystem/observation-category","code":"exam","display":"exam","userSelected":true}]}],"code":{"coding":[{"system":"http://loinc.org","code":"11884-4"}]},"subject":{"reference":"Patient/258bd062-b042-4192-9e55-a66580eb135b"},"effectiveDateTime":"2025-02-01T07:00:00.000+00:00","valueQuantity":{"value":20,"unit":"wk"}},"request":{"method":"PUT","url":"Observation/a0fd3530-8d93-4a89-852d-b58794eb30e0"}},{"fullUrl":"https://madie.cms.gov/Observation/fa1dc37d-fd7d-46d5-a1f0-49a69c5b6bf1","resource":{"resourceType":"Observation","id":"fa1dc37d-fd7d-46d5-a1f0-49a69c5b6bf1","meta":{"profile":["http://hl7.org/fhir/us/qicore/StructureDefinition/qicore-observation"]},"status":"final","category":[{"coding":[{"system":"http://terminology.hl7.org/CodeSystem/observation-category","code":"exam","display":"exam","userSelected":true}]}],"code":{"coding":[{"system":"http://loinc.org","code":"11884-4"}]},"subject":{"reference":"Patient/258bd062-b042-4192-9e55-a66580eb135b"},"effectiveDateTime":"2025-02-01T08:00:00.000+00:00","valueQuantity":{"value":19,"unit":"wk"}},"request":{"method":"PUT","url":"Observation/fa1dc37d-fd7d-46d5-a1f0-49a69c5b6bf1"}},{"fullUrl":"https://madie.cms.gov/Encounter/11af95f9-aea5-457d-884a-1a84903aacf3","resource":{"resourceType":"Encounter","id":"11af95f9-aea5-457d-884a-1a84903aacf3","meta":{"profile":["http://hl7.org/fhir/us/qicore/StructureDefinition/qicore-encounter"]},"status":"finished","class":{"system":"http://terminology.hl7.org/CodeSystem/v3-ActCode","code":"IMP","display":"inpatient encounter"},"type":[{"coding":[{"system":"http://snomed.info/sct","code":"183452005"}]}],"subject":{"reference":"Patient/258bd062-b042-4192-9e55-a66580eb135b"},"period":{"start":"2025-02-01T08:00:00.000Z","end":"2025-02-05T08:15:00.000Z"}},"request":{"method":"PUT","url":"Encounter/11af95f9-aea5-457d-884a-1a84903aacf3"}},{"fullUrl":"https://madie.cms.gov/Coverage/06ee2207-a37f-4ee5-a3d1-d8be1bbe4cc0","resource":{"resourceType":"Coverage","id":"06ee2207-a37f-4ee5-a3d1-d8be1bbe4cc0","status":"active","beneficiary":{"reference":"Patient/258bd062-b042-4192-9e55-a66580eb135b"},"period":{"start":"2004-02-01T08:00:00.000Z"},"payor":[{"reference":"Organization/5ad6ea38-07e9-4482-9e1b-c09eee595be9"}]},"request":{"method":"PUT","url":"Coverage/06ee2207-a37f-4ee5-a3d1-d8be1bbe4cc0"}},{"fullUrl":"https://madie.cms.gov/Procedure/41b36649-1426-43fb-a34f-aa75b0f584a0","resource":{"resourceType":"Procedure","id":"41b36649-1426-43fb-a34f-aa75b0f584a0","meta":{"profile":["http://hl7.org/fhir/us/qicore/StructureDefinition/qicore-procedure"]},"extension":[{"url":"http://hl7.org/fhir/us/qicore/StructureDefinition/qicore-recorded","valueDateTime":"2013-04-05T09:35:00-04:00"}],"status":"completed","code":{"coding":[{"system":"http://snomed.info/sct","code":"10745001"}]},"subject":{"reference":"Patient/258bd062-b042-4192-9e55-a66580eb135b"},"performedPeriod":{"start":"2025-02-01T08:00:00.000Z","end":"2025-02-05T08:15:00.000Z"}},"request":{"method":"PUT","url":"Procedure/41b36649-1426-43fb-a34f-aa75b0f584a0"}},{"fullUrl":"https://madie.cms.gov/Organization/a1671e12-05f5-4de4-8c48-70d1f01a9d98","resource":{"resourceType":"Organization","id":"5ad6ea38-07e9-4482-9e1b-c09eee595be9","meta":{"profile":["http://hl7.org/fhir/us/qicore/StructureDefinition/qicore-organization"]},"identifier":[{"use":"temp","system":"urn:oid:2.16.840.1.113883.4.4","value":"21-3259825"}],"active":true,"type":[{"coding":[{"system":"http://terminology.hl7.org/CodeSystem/organization-type","code":"pay","display":"Payer"}]}],"name":"Blue Cross Blue Shield of Texas","telecom":[{"system":"phone","value":"(+1) 972-766-6900"}],"address":[{"use":"billing","type":"postal","line":["P.O. Box 660044"],"city":"Dallas","state":"TX","postalCode":"75266-0044","country":"USA"}]},"request":{"method":"PUT","url":"Organization/5ad6ea38-07e9-4482-9e1b-c09eee595be9"}},{"fullUrl":"https://madie.cms.gov/Practitioner/69395ed5-051a-4150-8ebe-8acb63d5e0aa","resource":{"resourceType":"Practitioner","id":"69395ed5-051a-4150-8ebe-8acb63d5e0aa","identifier":[{"system":"http://hl7.org/fhir/sid/us-npi","value":"123456"}],"name":[{"family":"Evil","prefix":["Dr"]}]},"request":{"method":"PUT","url":"Practitioner/69395ed5-051a-4150-8ebe-8acb63d5e0aa"}},{"fullUrl":"https://madie.cms.gov/MeasureReport/9b8fccbb-8560-4312-aea4-06347516b845","resource":{"resourceType":"MeasureReport","id":"9b8fccbb-8560-4312-aea4-06347516b845","meta":{"profile":["http://hl7.org/fhir/us/cqfmeasures/StructureDefinition/test-case-cqfm"]},"contained":[{"resourceType":"Parameters","id":"32f85518-3a02-446a-aa94-be46dc1d0b55-parameters","parameter":[{"name":"subject","valueString":"258bd062-b042-4192-9e55-a66580eb135b"}]}],"extension":[{"url":"http://hl7.org/fhir/us/cqfmeasures/StructureDefinition/cqfm-inputParameters","valueReference":{"reference":"#32f85518-3a02-446a-aa94-be46dc1d0b55-parameters"}},{"url":"http://hl7.org/fhir/us/cqfmeasures/StructureDefinition/cqfm-testCaseDescription","valueMarkdown":"Estimated Gestational Age is 20 on 1st assessment, 19 on last.\n"}],"modifierExtension":[{"url":"http://hl7.org/fhir/us/cqfmeasures/StructureDefinition/cqfm-isTestCase","valueBoolean":true}],"status":"complete","type":"individual","measure":"https://madie.cms.gov/Measure/CMS1028FHIRPCSevereOBComps","period":{"start":"2025-01-01","end":"2025-12-31"},"group":[{"population":[{"code":{"coding":[{"system":"http://terminology.hl7.org/CodeSystem/measure-population","code":"initial-population","display":"Initial Population"}]},"count":1},{"code":{"coding":[{"system":"http://terminology.hl7.org/CodeSystem/measure-population","code":"denominator","display":"Denominator"}]},"count":0},{"code":{"coding":[{"system":"http://terminology.hl7.org/CodeSystem/measure-population","code":"numerator","display":"Numerator"}]},"count":0},{"code":{"coding":[{"system":"http://terminology.hl7.org/CodeSystem/measure-population","code":"numerator-exclusion","display":"Numerator Exclusion"}]},"count":0}]},{"population":[{"code":{"coding":[{"system":"http://terminology.hl7.org/CodeSystem/measure-population","code":"initial-population","display":"Initial Population"}]},"count":1},{"code":{"coding":[{"system":"http://terminology.hl7.org/CodeSystem/measure-population","code":"denominator","display":"Denominator"}]},"count":0},{"code":{"coding":[{"system":"http://terminology.hl7.org/CodeSystem/measure-population","code":"numerator","display":"Numerator"}]},"count":0},{"code":{"coding":[{"system":"http://terminology.hl7.org/CodeSystem/measure-population","code":"numerator-exclusion","display":"Numerator Exclusion"}]},"count":0}]}]},"request":{"method":"PUT","url":"MeasureReport/9b8fccbb-8560-4312-aea4-06347516b845"}}]}