{"resourceType":"Bundle","id":"tests-7610c01b-286c-43c9-95fa-bc0e7ed4af0c-bundle","type":"transaction","entry":[{"fullUrl":"https://madie.cms.gov/Patient/7610c01b-286c-43c9-95fa-bc0e7ed4af0c","resource":{"resourceType":"Patient","id":"7610c01b-286c-43c9-95fa-bc0e7ed4af0c","meta":{"profile":["http://hl7.org/fhir/us/qicore/StructureDefinition/qicore-patient"]},"text":{"status":"generated","div":"<div xmlns=\"http://www.w3.org/1999/xhtml\"><div class=\"hapiHeaderText\">2HCT1stMeets2ndDoesNot <b>RISKPass </b></div><table class=\"hapiPropertyTable\"><tbody><tr><td>Date of birth</td><td><span>01 February 2004</span></td></tr></tbody></table></div>"},"extension":[{"url":"http://hl7.org/fhir/us/core/StructureDefinition/us-core-race","extension":[{"url":"ombCategory","valueCoding":{"system":"urn:oid:2.16.840.1.113883.6.238","code":"1002-5","display":"American Indian or Alaska Native","userSelected":true}},{"url":"text","valueString":"American Indian or Alaska Native"}]},{"url":"http://hl7.org/fhir/us/core/StructureDefinition/us-core-ethnicity","extension":[{"url":"ombCategory","valueCoding":{"system":"urn:oid:2.16.840.1.113883.6.238","code":"2135-2","display":"Hispanic or Latino","userSelected":true}},{"url":"text","valueString":"Hispanic or Latino"}]}],"identifier":[{"type":{"coding":[{"system":"http://terminology.hl7.org/CodeSystem/v2-0203","code":"MR"}]},"system":"https://bonnie-fhir.healthit.gov/","value":"6359776b6aee9629c8298235"}],"active":true,"name":[{"use":"usual","family":"RiskPass","given":["2HCT1stMeets2ndDoesNot"]}],"gender":"female","birthDate":"2004-02-01"},"request":{"method":"PUT","url":"Patient/7610c01b-286c-43c9-95fa-bc0e7ed4af0c"}},{"fullUrl":"https://madie.cms.gov/Observation/4bb642f0-2788-4c79-8a3b-b1a1b2644c86","resource":{"resourceType":"Observation","id":"4bb642f0-2788-4c79-8a3b-b1a1b2644c86","meta":{"profile":["http://hl7.org/fhir/us/qicore/StructureDefinition/qicore-observation"]},"status":"final","category":[{"coding":[{"system":"http://terminology.hl7.org/CodeSystem/observation-category","code":"exam","display":"exam","userSelected":true}]}],"code":{"coding":[{"system":"http://loinc.org","code":"93857-1"}]},"subject":{"reference":"Patient/7610c01b-286c-43c9-95fa-bc0e7ed4af0c"},"effectiveDateTime":"2025-02-01T08:15:00.000+00:00","valueDateTime":"2025-02-01T08:15:00+00:00"},"request":{"method":"PUT","url":"Observation/4bb642f0-2788-4c79-8a3b-b1a1b2644c86"}},{"fullUrl":"https://madie.cms.gov/Observation/bca5352a-b660-4202-9f52-39e5515deb2a","resource":{"resourceType":"Observation","id":"bca5352a-b660-4202-9f52-39e5515deb2a","meta":{"profile":["http://hl7.org/fhir/us/qicore/StructureDefinition/qicore-observation"]},"status":"final","category":[{"coding":[{"system":"http://terminology.hl7.org/CodeSystem/observation-category","code":"exam","display":"exam","userSelected":true}]}],"code":{"coding":[{"system":"http://loinc.org","code":"11884-4"}]},"subject":{"reference":"Patient/7610c01b-286c-43c9-95fa-bc0e7ed4af0c"},"effectiveDateTime":"2025-02-01T08:00:00.000+00:00","valueQuantity":{"value":21,"system":"http://unitsofmeasure.org","code":"wk"}},"request":{"method":"PUT","url":"Observation/bca5352a-b660-4202-9f52-39e5515deb2a"}},{"fullUrl":"https://madie.cms.gov/Encounter/1ff19349-44c9-4bfa-baa3-99bc7b933593","resource":{"resourceType":"Encounter","id":"1ff19349-44c9-4bfa-baa3-99bc7b933593","meta":{"profile":["http://hl7.org/fhir/us/qicore/StructureDefinition/qicore-encounter"]},"status":"finished","class":{"system":"http://terminology.hl7.org/CodeSystem/v3-ActCode","code":"IMP","display":"inpatient encounter"},"type":[{"coding":[{"system":"http://snomed.info/sct","code":"183452005"}]}],"subject":{"reference":"Patient/7610c01b-286c-43c9-95fa-bc0e7ed4af0c"},"period":{"start":"2025-02-01T08:00:00.000Z","end":"2025-02-05T08:15:00.000Z"}},"request":{"method":"PUT","url":"Encounter/1ff19349-44c9-4bfa-baa3-99bc7b933593"}},{"fullUrl":"https://madie.cms.gov/Encounter/03d08cfa-06ba-4668-ba5c-6e555852d2b1","resource":{"resourceType":"Encounter","id":"03d08cfa-06ba-4668-ba5c-6e555852d2b1","meta":{"profile":["http://hl7.org/fhir/us/qicore/StructureDefinition/qicore-encounter"]},"status":"finished","class":{"system":"http://terminology.hl7.org/CodeSystem/v3-ActCode","code":"EMER","display":"emergency"},"type":[{"coding":[{"system":"http://snomed.info/sct","code":"4525004"}]}],"subject":{"reference":"Patient/7610c01b-286c-43c9-95fa-bc0e7ed4af0c"},"period":{"start":"2025-02-01T07:00:00.000Z","end":"2025-02-01T07:59:00.000Z"}},"request":{"method":"PUT","url":"Encounter/03d08cfa-06ba-4668-ba5c-6e555852d2b1"}},{"fullUrl":"https://madie.cms.gov/Procedure/a22895ee-4d38-4e9c-b10d-f8d552ff24ac","resource":{"resourceType":"Procedure","id":"a22895ee-4d38-4e9c-b10d-f8d552ff24ac","meta":{"profile":["http://hl7.org/fhir/us/qicore/StructureDefinition/qicore-procedure"]},"extension":[{"url":"http://hl7.org/fhir/us/qicore/StructureDefinition/qicore-recorded","valueDateTime":"2025-02-04T09:35:00-04:00"}],"status":"completed","code":{"coding":[{"system":"http://snomed.info/sct","code":"10745001"}]},"subject":{"reference":"Patient/7610c01b-286c-43c9-95fa-bc0e7ed4af0c"},"performedPeriod":{"start":"2025-02-01T08:00:00.000Z","end":"2025-02-05T08:15:00.000Z"}},"request":{"method":"PUT","url":"Procedure/a22895ee-4d38-4e9c-b10d-f8d552ff24ac"}},{"fullUrl":"https://madie.cms.gov/Observation/aa6a0cb4-1fdd-440c-92e6-96a528884306","resource":{"resourceType":"Observation","id":"aa6a0cb4-1fdd-440c-92e6-96a528884306","meta":{"profile":["http://hl7.org/fhir/us/core/StructureDefinition/us-core-observation-lab"]},"status":"final","category":[{"coding":[{"system":"http://terminology.hl7.org/CodeSystem/observation-category","code":"laboratory","display":"laboratory","userSelected":true}]}],"code":{"coding":[{"system":"http://loinc.org","version":"2.73","code":"20570-8","display":"Hematocrit [Volume Fraction] in Blood","userSelected":true}]},"subject":{"reference":"Patient/7610c01b-286c-43c9-95fa-bc0e7ed4af0c"},"effectiveDateTime":"2025-02-01T08:01:00.000+00:00","issued":"2025-02-01T08:01:00.000+00:00","valueQuantity":{"unit":"%"}},"request":{"method":"PUT","url":"Observation/aa6a0cb4-1fdd-440c-92e6-96a528884306"}},{"fullUrl":"https://madie.cms.gov/MeasureReport/f4c4899b-7a6a-49d5-bf04-5bf122cb4b3d","resource":{"resourceType":"MeasureReport","id":"f4c4899b-7a6a-49d5-bf04-5bf122cb4b3d","meta":{"profile":["http://hl7.org/fhir/us/cqfmeasures/StructureDefinition/test-case-cqfm"]},"contained":[{"resourceType":"Parameters","id":"b7cfded3-b745-4325-8412-3554e50465f8-parameters","parameter":[{"name":"subject","valueString":"7610c01b-286c-43c9-95fa-bc0e7ed4af0c"}]}],"extension":[{"url":"http://hl7.org/fhir/us/cqfmeasures/StructureDefinition/cqfm-inputParameters","valueReference":{"reference":"#b7cfded3-b745-4325-8412-3554e50465f8-parameters"}},{"url":"http://hl7.org/fhir/us/cqfmeasures/StructureDefinition/cqfm-testCaseDescription","valueMarkdown":"Hematocrit is Null"}],"modifierExtension":[{"url":"http://hl7.org/fhir/us/cqfmeasures/StructureDefinition/cqfm-isTestCase","valueBoolean":true}],"status":"complete","type":"individual","measure":"https://madie.cms.gov/Measure/CMS1028FHIRPCSevereOBComps","period":{"start":"2025-01-01","end":"2025-12-31"},"group":[{"population":[{"code":{"coding":[{"system":"http://terminology.hl7.org/CodeSystem/measure-population","code":"initial-population","display":"Initial Population"}]},"count":1},{"code":{"coding":[{"system":"http://terminology.hl7.org/CodeSystem/measure-population","code":"denominator","display":"Denominator"}]},"count":1},{"code":{"coding":[{"system":"http://terminology.hl7.org/CodeSystem/measure-population","code":"numerator","display":"Numerator"}]},"count":0},{"code":{"coding":[{"system":"http://terminology.hl7.org/CodeSystem/measure-population","code":"numerator-exclusion","display":"Numerator Exclusion"}]},"count":0}]},{"population":[{"code":{"coding":[{"system":"http://terminology.hl7.org/CodeSystem/measure-population","code":"initial-population","display":"Initial Population"}]},"count":1},{"code":{"coding":[{"system":"http://terminology.hl7.org/CodeSystem/measure-population","code":"denominator","display":"Denominator"}]},"count":1},{"code":{"coding":[{"system":"http://terminology.hl7.org/CodeSystem/measure-population","code":"numerator","display":"Numerator"}]},"count":0},{"code":{"coding":[{"system":"http://terminology.hl7.org/CodeSystem/measure-population","code":"numerator-exclusion","display":"Numerator Exclusion"}]},"count":0}]}]},"request":{"method":"PUT","url":"MeasureReport/f4c4899b-7a6a-49d5-bf04-5bf122cb4b3d"}}]}