{"resourceType":"Bundle","id":"tests-e0de8852-5685-4892-899c-a8e225f8eb92-bundle","type":"transaction","entry":[{"fullUrl":"https://madie.cms.gov/Patient/e0de8852-5685-4892-899c-a8e225f8eb92","resource":{"resourceType":"Patient","id":"e0de8852-5685-4892-899c-a8e225f8eb92","meta":{"profile":["http://hl7.org/fhir/us/qicore/StructureDefinition/qicore-patient"]},"text":{"status":"generated","div":"<div xmlns=\"http://www.w3.org/1999/xhtml\"><div class=\"hapiHeaderText\">AssPrfEGALastIsNullFirstIs20 <b>DENOMPASS </b></div><table class=\"hapiPropertyTable\"><tbody><tr><td>Date of birth</td><td><span>01 February 2004</span></td></tr></tbody></table></div>"},"extension":[{"url":"http://hl7.org/fhir/us/core/StructureDefinition/us-core-race","extension":[{"url":"ombCategory","valueCoding":{"system":"urn:oid:2.16.840.1.113883.6.238","code":"1002-5","display":"American Indian or Alaska Native","userSelected":true}},{"url":"text","valueString":"American Indian or Alaska Native"}]},{"url":"http://hl7.org/fhir/us/core/StructureDefinition/us-core-ethnicity","extension":[{"url":"ombCategory","valueCoding":{"system":"urn:oid:2.16.840.1.113883.6.238","code":"2135-2","display":"Hispanic or Latino","userSelected":true}},{"url":"text","valueString":"Hispanic or Latino"}]}],"identifier":[{"type":{"coding":[{"system":"http://terminology.hl7.org/CodeSystem/v2-0203","code":"MR"}]},"system":"https://bonnie-fhir.healthit.gov/","value":"633b3f9f0968f80122503cdb"}],"active":true,"name":[{"use":"usual","family":"DENOMPass","given":["AssPrfEGALastIsNullFirstIs20 "]}],"gender":"female","birthDate":"2004-02-01"},"request":{"method":"PUT","url":"Patient/e0de8852-5685-4892-899c-a8e225f8eb92"}},{"fullUrl":"https://madie.cms.gov/Observation/3977a358-0b96-4286-becd-cc09f80bb716","resource":{"resourceType":"Observation","id":"3977a358-0b96-4286-becd-cc09f80bb716","meta":{"profile":["http://hl7.org/fhir/us/qicore/StructureDefinition/qicore-observation"]},"status":"final","category":[{"coding":[{"system":"http://terminology.hl7.org/CodeSystem/observation-category","code":"exam","display":"exam","userSelected":true}]}],"code":{"coding":[{"system":"http://loinc.org","code":"93857-1"}]},"subject":{"reference":"Patient/e0de8852-5685-4892-899c-a8e225f8eb92"},"effectiveDateTime":"2025-02-01T08:00:00.000+00:00","valueDateTime":"2025-02-01T08:00:00+00:00"},"request":{"method":"PUT","url":"Observation/3977a358-0b96-4286-becd-cc09f80bb716"}},{"fullUrl":"https://madie.cms.gov/Observation/8eaabb57-39cf-4119-a39e-b01cbba42c8c","resource":{"resourceType":"Observation","id":"8eaabb57-39cf-4119-a39e-b01cbba42c8c","meta":{"profile":["http://hl7.org/fhir/us/qicore/StructureDefinition/qicore-observation"]},"status":"final","category":[{"coding":[{"system":"http://terminology.hl7.org/CodeSystem/observation-category","code":"exam","display":"exam","userSelected":true}]}],"code":{"coding":[{"system":"http://loinc.org","code":"11884-4"}]},"subject":{"reference":"Patient/e0de8852-5685-4892-899c-a8e225f8eb92"},"effectiveDateTime":"2025-02-01T08:00:00.000+00:00","valueQuantity":{"value":20,"system":"http://unitsofmeasure.org","code":"wk"}},"request":{"method":"PUT","url":"Observation/8eaabb57-39cf-4119-a39e-b01cbba42c8c"}},{"fullUrl":"https://madie.cms.gov/Observation/564f8d7c-5de6-4f5a-b92f-2d397e01fd6a","resource":{"resourceType":"Observation","id":"564f8d7c-5de6-4f5a-b92f-2d397e01fd6a","meta":{"profile":["http://hl7.org/fhir/us/qicore/StructureDefinition/qicore-observation"]},"status":"final","category":[{"coding":[{"system":"http://terminology.hl7.org/CodeSystem/observation-category","code":"exam","display":"exam","userSelected":true}]}],"code":{"coding":[{"system":"http://loinc.org","code":"11884-4"}]},"subject":{"reference":"Patient/e0de8852-5685-4892-899c-a8e225f8eb92"},"effectiveDateTime":"2025-02-01T08:01:00.000+00:00"},"request":{"method":"PUT","url":"Observation/564f8d7c-5de6-4f5a-b92f-2d397e01fd6a"}},{"fullUrl":"https://madie.cms.gov/Encounter/4c374306-2919-42c5-bab1-0ea5261a2c9f","resource":{"resourceType":"Encounter","id":"4c374306-2919-42c5-bab1-0ea5261a2c9f","meta":{"profile":["http://hl7.org/fhir/us/qicore/StructureDefinition/qicore-encounter"]},"status":"finished","class":{"system":"http://terminology.hl7.org/CodeSystem/v3-ActCode","code":"IMP","display":"inpatient encounter"},"type":[{"coding":[{"system":"http://snomed.info/sct","code":"183452005"}]}],"subject":{"reference":"Patient/e0de8852-5685-4892-899c-a8e225f8eb92"},"period":{"start":"2025-02-01T08:00:00.000Z","end":"2025-02-05T08:15:00.000Z"},"hospitalization":{"dischargeDisposition":{"coding":[{"system":"http://snomed.info/sct","code":"371828006","display":"Patient deceased during stay (discharge status = dead) (finding)"}]}}},"request":{"method":"PUT","url":"Encounter/4c374306-2919-42c5-bab1-0ea5261a2c9f"}},{"fullUrl":"https://madie.cms.gov/Coverage/1dca18aa-84da-41bb-89f5-e132499306b2","resource":{"resourceType":"Coverage","id":"1dca18aa-84da-41bb-89f5-e132499306b2","status":"active","beneficiary":{"reference":"Patient/e0de8852-5685-4892-899c-a8e225f8eb92"},"period":{"start":"2004-02-01T08:00:00.000Z"},"payor":[{"reference":"Organization/5ad6ea38-07e9-4482-9e1b-c09eee595be9"}]},"request":{"method":"PUT","url":"Coverage/1dca18aa-84da-41bb-89f5-e132499306b2"}},{"fullUrl":"https://madie.cms.gov/Procedure/429724b7-4882-4ec9-a0a6-df0bc7d67a4f","resource":{"resourceType":"Procedure","id":"429724b7-4882-4ec9-a0a6-df0bc7d67a4f","meta":{"profile":["http://hl7.org/fhir/us/qicore/StructureDefinition/qicore-procedure"]},"extension":[{"url":"http://hl7.org/fhir/us/qicore/StructureDefinition/qicore-recorded","valueDateTime":"2013-04-05T09:35:00-04:00"}],"status":"completed","code":{"coding":[{"system":"http://snomed.info/sct","code":"10745001"}]},"subject":{"reference":"Patient/e0de8852-5685-4892-899c-a8e225f8eb92"},"performedPeriod":{"start":"2025-02-01T08:00:00.000Z","end":"2025-02-05T08:15:00.000Z"}},"request":{"method":"PUT","url":"Procedure/429724b7-4882-4ec9-a0a6-df0bc7d67a4f"}},{"fullUrl":"https://madie.cms.gov/Organization/38ca636b-7495-4780-9a60-f2ea9f080173","resource":{"resourceType":"Organization","id":"5ad6ea38-07e9-4482-9e1b-c09eee595be9","meta":{"profile":["http://hl7.org/fhir/us/qicore/StructureDefinition/qicore-organization"]},"identifier":[{"use":"temp","system":"urn:oid:2.16.840.1.113883.4.4","value":"21-3259825"}],"active":true,"type":[{"coding":[{"system":"http://terminology.hl7.org/CodeSystem/organization-type","code":"pay","display":"Payer"}]}],"name":"Blue Cross Blue Shield of Texas","telecom":[{"system":"phone","value":"(+1) 972-766-6900"}],"address":[{"use":"billing","type":"postal","line":["P.O. Box 660044"],"city":"Dallas","state":"TX","postalCode":"75266-0044","country":"USA"}]},"request":{"method":"PUT","url":"Organization/5ad6ea38-07e9-4482-9e1b-c09eee595be9"}},{"fullUrl":"https://madie.cms.gov/Practitioner/c38c2838-7b66-4bd9-98a6-45adc4784207","resource":{"resourceType":"Practitioner","id":"c38c2838-7b66-4bd9-98a6-45adc4784207","identifier":[{"system":"http://hl7.org/fhir/sid/us-npi","value":"123456"}],"name":[{"family":"Evil","prefix":["Dr"]}]},"request":{"method":"PUT","url":"Practitioner/c38c2838-7b66-4bd9-98a6-45adc4784207"}},{"fullUrl":"https://madie.cms.gov/MeasureReport/6c94c4cd-1c51-4a73-b197-ecc22efc92a1","resource":{"resourceType":"MeasureReport","id":"6c94c4cd-1c51-4a73-b197-ecc22efc92a1","meta":{"profile":["http://hl7.org/fhir/us/cqfmeasures/StructureDefinition/test-case-cqfm"]},"contained":[{"resourceType":"Parameters","id":"31f1a915-8667-41a1-8806-e9c2e1c98121-parameters","parameter":[{"name":"subject","valueString":"e0de8852-5685-4892-899c-a8e225f8eb92"}]}],"extension":[{"url":"http://hl7.org/fhir/us/cqfmeasures/StructureDefinition/cqfm-inputParameters","valueReference":{"reference":"#31f1a915-8667-41a1-8806-e9c2e1c98121-parameters"}},{"url":"http://hl7.org/fhir/us/cqfmeasures/StructureDefinition/cqfm-testCaseDescription","valueMarkdown":"Discharge Disposition = Expired \n"}],"modifierExtension":[{"url":"http://hl7.org/fhir/us/cqfmeasures/StructureDefinition/cqfm-isTestCase","valueBoolean":true}],"status":"complete","type":"individual","measure":"https://madie.cms.gov/Measure/CMS1028FHIRPCSevereOBComps","period":{"start":"2025-01-01","end":"2025-12-31"},"group":[{"population":[{"code":{"coding":[{"system":"http://terminology.hl7.org/CodeSystem/measure-population","code":"initial-population","display":"Initial Population"}]},"count":1},{"code":{"coding":[{"system":"http://terminology.hl7.org/CodeSystem/measure-population","code":"denominator","display":"Denominator"}]},"count":1},{"code":{"coding":[{"system":"http://terminology.hl7.org/CodeSystem/measure-population","code":"numerator","display":"Numerator"}]},"count":1},{"code":{"coding":[{"system":"http://terminology.hl7.org/CodeSystem/measure-population","code":"numerator-exclusion","display":"Numerator Exclusion"}]},"count":0}]},{"population":[{"code":{"coding":[{"system":"http://terminology.hl7.org/CodeSystem/measure-population","code":"initial-population","display":"Initial Population"}]},"count":1},{"code":{"coding":[{"system":"http://terminology.hl7.org/CodeSystem/measure-population","code":"denominator","display":"Denominator"}]},"count":1},{"code":{"coding":[{"system":"http://terminology.hl7.org/CodeSystem/measure-population","code":"numerator","display":"Numerator"}]},"count":1},{"code":{"coding":[{"system":"http://terminology.hl7.org/CodeSystem/measure-population","code":"numerator-exclusion","display":"Numerator Exclusion"}]},"count":0}]}]},"request":{"method":"PUT","url":"MeasureReport/6c94c4cd-1c51-4a73-b197-ecc22efc92a1"}}]}