{"resourceType":"Bundle","id":"tests-0988dbaf-0aae-4e2f-8f91-d42da44226f4-bundle","type":"transaction","entry":[{"fullUrl":"https://madie.cms.gov/Patient/0988dbaf-0aae-4e2f-8f91-d42da44226f4","resource":{"resourceType":"Patient","id":"0988dbaf-0aae-4e2f-8f91-d42da44226f4","meta":{"profile":["http://hl7.org/fhir/us/qicore/StructureDefinition/qicore-patient"]},"text":{"status":"generated","div":"<div xmlns=\"http://www.w3.org/1999/xhtml\"><div class=\"hapiHeaderText\">Risk_CardiacDisease<b>RISKPass </b></div><table class=\"hapiPropertyTable\"><tbody><tr><td>Date of birth</td><td><span>01 February 2004</span></td></tr></tbody></table></div>"},"extension":[{"url":"http://hl7.org/fhir/us/core/StructureDefinition/us-core-race","extension":[{"url":"ombCategory","valueCoding":{"system":"urn:oid:2.16.840.1.113883.6.238","code":"1002-5","display":"American Indian or Alaska Native","userSelected":true}},{"url":"text","valueString":"American Indian or Alaska Native"}]},{"url":"http://hl7.org/fhir/us/core/StructureDefinition/us-core-ethnicity","extension":[{"url":"ombCategory","valueCoding":{"system":"urn:oid:2.16.840.1.113883.6.238","code":"2135-2","display":"Hispanic or Latino","userSelected":true}},{"url":"text","valueString":"Hispanic or Latino"}]}],"identifier":[{"type":{"coding":[{"system":"http://terminology.hl7.org/CodeSystem/v2-0203","code":"MR"}]},"system":"https://bonnie-fhir.healthit.gov/","value":"63594c7a6aee9629c82981df"}],"active":true,"name":[{"use":"usual","family":"RiskPass","given":["Risk_CardiacDisease"]}],"gender":"female","birthDate":"2004-02-01"},"request":{"method":"PUT","url":"Patient/0988dbaf-0aae-4e2f-8f91-d42da44226f4"}},{"fullUrl":"https://madie.cms.gov/Observation/c54762d2-e486-4c9b-ab9b-3d6cfac4e710","resource":{"resourceType":"Observation","id":"c54762d2-e486-4c9b-ab9b-3d6cfac4e710","meta":{"profile":["http://hl7.org/fhir/us/qicore/StructureDefinition/qicore-observation"]},"status":"final","category":[{"coding":[{"system":"http://terminology.hl7.org/CodeSystem/observation-category","code":"exam","display":"exam","userSelected":true}]}],"code":{"coding":[{"system":"http://loinc.org","code":"93857-1"}]},"subject":{"reference":"Patient/0988dbaf-0aae-4e2f-8f91-d42da44226f4"},"effectiveDateTime":"2025-02-01T08:00:00.000+00:00","valueDateTime":"2025-02-01T08:00:00+00:00"},"request":{"method":"PUT","url":"Observation/c54762d2-e486-4c9b-ab9b-3d6cfac4e710"}},{"fullUrl":"https://madie.cms.gov/Observation/d49163d4-e521-4c4c-a921-9b0dc7625e68","resource":{"resourceType":"Observation","id":"d49163d4-e521-4c4c-a921-9b0dc7625e68","meta":{"profile":["http://hl7.org/fhir/us/qicore/StructureDefinition/qicore-observation"]},"status":"final","category":[{"coding":[{"system":"http://terminology.hl7.org/CodeSystem/observation-category","code":"exam","display":"exam","userSelected":true}]}],"code":{"coding":[{"system":"http://loinc.org","code":"11778-8"}]},"subject":{"reference":"Patient/0988dbaf-0aae-4e2f-8f91-d42da44226f4"},"effectiveDateTime":"2025-02-01T08:00:00.000+00:00","valueDateTime":"2025-02-01T00:00:00.000+00:00"},"request":{"method":"PUT","url":"Observation/d49163d4-e521-4c4c-a921-9b0dc7625e68"}},{"fullUrl":"https://madie.cms.gov/Encounter/c6a8e73b-6f6f-4a1d-b14f-3c4a2a511337","resource":{"resourceType":"Encounter","id":"c6a8e73b-6f6f-4a1d-b14f-3c4a2a511337","meta":{"profile":["http://hl7.org/fhir/us/qicore/StructureDefinition/qicore-encounter"]},"status":"finished","class":{"system":"http://terminology.hl7.org/CodeSystem/v3-ActCode","code":"IMP","display":"inpatient encounter"},"type":[{"coding":[{"system":"http://snomed.info/sct","code":"183452005"}]}],"subject":{"reference":"Patient/0988dbaf-0aae-4e2f-8f91-d42da44226f4"},"period":{"start":"2025-02-01T08:00:00.000Z","end":"2025-02-05T08:15:00.000Z"},"diagnosis":[{"extension":[{"url":"http://hl7.org/fhir/us/qicore/StructureDefinition/qicore-encounter-diagnosisPresentOnAdmission","valueCodeableConcept":{"coding":[{"system":"https://www.cms.gov/Medicare/Medicare-Fee-for-Service-Payment/HospitalAcqCond/Coding","code":"Y"}]}}],"condition":{"reference":"Condition/a00c8717-b3da-482e-89fa-277871fd5303"}},{"extension":[{"url":"http://hl7.org/fhir/us/qicore/StructureDefinition/qicore-encounter-diagnosisPresentOnAdmission","valueCodeableConcept":{"coding":[{"system":"https://www.cms.gov/Medicare/Medicare-Fee-for-Service-Payment/HospitalAcqCond/Coding","code":"N"}]}}],"condition":{"reference":"Condition/dcd63e10-6d21-4fe4-bc37-fce54f375eab"}}]},"request":{"method":"PUT","url":"Encounter/c6a8e73b-6f6f-4a1d-b14f-3c4a2a511337"}},{"fullUrl":"https://madie.cms.gov/Procedure/bc7ab0d4-0a46-4c27-9e5b-935046ed7a11","resource":{"resourceType":"Procedure","id":"bc7ab0d4-0a46-4c27-9e5b-935046ed7a11","meta":{"profile":["http://hl7.org/fhir/us/qicore/StructureDefinition/qicore-procedure"]},"extension":[{"url":"http://hl7.org/fhir/us/qicore/StructureDefinition/qicore-recorded","valueDateTime":"2013-04-05T09:35:00-04:00"}],"status":"completed","code":{"coding":[{"system":"http://snomed.info/sct","code":"10745001"}]},"subject":{"reference":"Patient/0988dbaf-0aae-4e2f-8f91-d42da44226f4"},"performedDateTime":"2025-02-01T08:00:00.000+00:00"},"request":{"method":"PUT","url":"Procedure/bc7ab0d4-0a46-4c27-9e5b-935046ed7a11"}},{"fullUrl":"https://madie.cms.gov/Condition/dcd63e10-6d21-4fe4-bc37-fce54f375eab","resource":{"resourceType":"Condition","id":"dcd63e10-6d21-4fe4-bc37-fce54f375eab","meta":{"profile":["http://hl7.org/fhir/us/qicore/StructureDefinition/qicore-condition"]},"category":[{"coding":[{"system":"http://terminology.hl7.org/CodeSystem/condition-category","code":"encounter-diagnosis","display":"Encounter Diagnosis"}]}],"code":{"coding":[{"system":"http://hl7.org/fhir/sid/icd-10-cm","version":"2023","code":"A32.7","display":"Listerial sepsis","userSelected":true}]},"subject":{"reference":"Patient/0988dbaf-0aae-4e2f-8f91-d42da44226f4"},"recordedDate":"2025-10-26T08:00:00.000+00:00"},"request":{"method":"PUT","url":"Condition/dcd63e10-6d21-4fe4-bc37-fce54f375eab"}},{"fullUrl":"https://madie.cms.gov/Condition/a00c8717-b3da-482e-89fa-277871fd5303","resource":{"resourceType":"Condition","id":"a00c8717-b3da-482e-89fa-277871fd5303","meta":{"profile":["http://hl7.org/fhir/us/qicore/StructureDefinition/qicore-condition"]},"category":[{"coding":[{"system":"http://terminology.hl7.org/CodeSystem/condition-category","code":"encounter-diagnosis","display":"Encounter Diagnosis"}]}],"code":{"coding":[{"system":"http://hl7.org/fhir/sid/icd-10-cm","version":"2023","code":"I05.0","display":"Cardiac Disease","userSelected":true}]},"subject":{"reference":"Patient/0988dbaf-0aae-4e2f-8f91-d42da44226f4"},"recordedDate":"2025-10-26T08:00:00.000+00:00"},"request":{"method":"PUT","url":"Condition/a00c8717-b3da-482e-89fa-277871fd5303"}},{"fullUrl":"https://madie.cms.gov/MeasureReport/ab2052cd-fdae-4c70-b8b9-c7a7cf5f78d0","resource":{"resourceType":"MeasureReport","id":"ab2052cd-fdae-4c70-b8b9-c7a7cf5f78d0","meta":{"profile":["http://hl7.org/fhir/us/cqfmeasures/StructureDefinition/test-case-cqfm"]},"contained":[{"resourceType":"Parameters","id":"47282334-d479-483b-9ee2-f2d441d9c7be-parameters","parameter":[{"name":"subject","valueString":"0988dbaf-0aae-4e2f-8f91-d42da44226f4"}]}],"extension":[{"url":"http://hl7.org/fhir/us/cqfmeasures/StructureDefinition/cqfm-inputParameters","valueReference":{"reference":"#47282334-d479-483b-9ee2-f2d441d9c7be-parameters"}},{"url":"http://hl7.org/fhir/us/cqfmeasures/StructureDefinition/cqfm-testCaseDescription","valueMarkdown":"Risk variable of cardiac disease\n\n"}],"modifierExtension":[{"url":"http://hl7.org/fhir/us/cqfmeasures/StructureDefinition/cqfm-isTestCase","valueBoolean":true}],"status":"complete","type":"individual","measure":"https://madie.cms.gov/Measure/CMS1028FHIRPCSevereOBComps","period":{"start":"2025-01-01","end":"2025-12-31"},"group":[{"population":[{"code":{"coding":[{"system":"http://terminology.hl7.org/CodeSystem/measure-population","code":"initial-population","display":"Initial Population"}]},"count":1},{"code":{"coding":[{"system":"http://terminology.hl7.org/CodeSystem/measure-population","code":"denominator","display":"Denominator"}]},"count":1},{"code":{"coding":[{"system":"http://terminology.hl7.org/CodeSystem/measure-population","code":"numerator","display":"Numerator"}]},"count":1},{"code":{"coding":[{"system":"http://terminology.hl7.org/CodeSystem/measure-population","code":"numerator-exclusion","display":"Numerator Exclusion"}]},"count":0}]},{"population":[{"code":{"coding":[{"system":"http://terminology.hl7.org/CodeSystem/measure-population","code":"initial-population","display":"Initial Population"}]},"count":1},{"code":{"coding":[{"system":"http://terminology.hl7.org/CodeSystem/measure-population","code":"denominator","display":"Denominator"}]},"count":1},{"code":{"coding":[{"system":"http://terminology.hl7.org/CodeSystem/measure-population","code":"numerator","display":"Numerator"}]},"count":1},{"code":{"coding":[{"system":"http://terminology.hl7.org/CodeSystem/measure-population","code":"numerator-exclusion","display":"Numerator Exclusion"}]},"count":0}]}]},"request":{"method":"PUT","url":"MeasureReport/ab2052cd-fdae-4c70-b8b9-c7a7cf5f78d0"}}]}