{"resourceType":"Bundle","id":"tests-d5f10590-7e71-43ec-86c9-b0c73dd78394-bundle","type":"transaction","entry":[{"fullUrl":"https://madie.cms.gov/Patient/d5f10590-7e71-43ec-86c9-b0c73dd78394","resource":{"resourceType":"Patient","id":"d5f10590-7e71-43ec-86c9-b0c73dd78394","meta":{"profile":["http://hl7.org/fhir/us/qicore/StructureDefinition/qicore-patient"]},"text":{"status":"generated","div":"<div xmlns=\"http://www.w3.org/1999/xhtml\"><div class=\"hapiHeaderText\">BloodTransfusionRelvDtTimeDuringEDOBTriageHosp <b>NUMPass </b></div><table class=\"hapiPropertyTable\"><tbody><tr><td>Date of birth</td><td><span>01 February 2004</span></td></tr></tbody></table></div>"},"extension":[{"url":"http://hl7.org/fhir/us/core/StructureDefinition/us-core-race","extension":[{"url":"ombCategory","valueCoding":{"system":"urn:oid:2.16.840.1.113883.6.238","code":"1002-5","display":"American Indian or Alaska Native","userSelected":true}},{"url":"text","valueString":"American Indian or Alaska Native"}]},{"url":"http://hl7.org/fhir/us/core/StructureDefinition/us-core-ethnicity","extension":[{"url":"ombCategory","valueCoding":{"system":"urn:oid:2.16.840.1.113883.6.238","code":"2135-2","display":"Hispanic or Latino","userSelected":true}},{"url":"text","valueString":"Hispanic or Latino"}]}],"identifier":[{"type":{"coding":[{"system":"http://terminology.hl7.org/CodeSystem/v2-0203","code":"MR"}]},"system":"https://bonnie-fhir.healthit.gov/","value":"633b3f9f0968f80122503cdb"}],"active":true,"name":[{"use":"usual","family":"NUMPass","given":["BloodTransfusionRelvDtTimeDuringEDOBTriageHosp"]}],"gender":"female","birthDate":"2004-02-01"},"request":{"method":"PUT","url":"Patient/d5f10590-7e71-43ec-86c9-b0c73dd78394"}},{"fullUrl":"https://madie.cms.gov/Observation/01302f2e-3833-492d-97b6-5bb065338928","resource":{"resourceType":"Observation","id":"01302f2e-3833-492d-97b6-5bb065338928","meta":{"profile":["http://hl7.org/fhir/us/qicore/StructureDefinition/qicore-observation"]},"status":"final","category":[{"coding":[{"system":"http://terminology.hl7.org/CodeSystem/observation-category","code":"exam","display":"exam","userSelected":true}]}],"code":{"coding":[{"system":"http://loinc.org","code":"93857-1"}]},"subject":{"reference":"Patient/d5f10590-7e71-43ec-86c9-b0c73dd78394"},"effectiveDateTime":"2025-02-01T08:00:00.000+00:00","valueDateTime":"2025-02-01T08:00:00+00:00"},"request":{"method":"PUT","url":"Observation/01302f2e-3833-492d-97b6-5bb065338928"}},{"fullUrl":"https://madie.cms.gov/Observation/f5df51dc-f884-4284-ada1-2c401dae486f","resource":{"resourceType":"Observation","id":"f5df51dc-f884-4284-ada1-2c401dae486f","meta":{"profile":["http://hl7.org/fhir/us/qicore/StructureDefinition/qicore-observation"]},"status":"final","category":[{"coding":[{"system":"http://terminology.hl7.org/CodeSystem/observation-category","code":"exam","display":"exam","userSelected":true}]}],"code":{"coding":[{"system":"http://loinc.org","code":"11884-4"}]},"subject":{"reference":"Patient/d5f10590-7e71-43ec-86c9-b0c73dd78394"},"effectiveDateTime":"2025-02-01T08:00:00.000+00:00","valueQuantity":{"value":20,"system":"http://unitsofmeasure.org","code":"wk"}},"request":{"method":"PUT","url":"Observation/f5df51dc-f884-4284-ada1-2c401dae486f"}},{"fullUrl":"https://madie.cms.gov/Observation/e9212ce6-1b8f-4185-9411-40bfe1177874","resource":{"resourceType":"Observation","id":"e9212ce6-1b8f-4185-9411-40bfe1177874","meta":{"profile":["http://hl7.org/fhir/us/qicore/StructureDefinition/qicore-observation"]},"status":"final","category":[{"coding":[{"system":"http://terminology.hl7.org/CodeSystem/observation-category","code":"exam","display":"exam","userSelected":true}]}],"code":{"coding":[{"system":"http://loinc.org","code":"11884-4"}]},"subject":{"reference":"Patient/d5f10590-7e71-43ec-86c9-b0c73dd78394"},"effectiveDateTime":"2025-02-01T08:01:00.000+00:00"},"request":{"method":"PUT","url":"Observation/e9212ce6-1b8f-4185-9411-40bfe1177874"}},{"fullUrl":"https://madie.cms.gov/Encounter/195fc31f-3395-4fe1-95c1-8c1e127d156c","resource":{"resourceType":"Encounter","id":"195fc31f-3395-4fe1-95c1-8c1e127d156c","meta":{"profile":["http://hl7.org/fhir/us/qicore/StructureDefinition/qicore-encounter"]},"status":"finished","class":{"system":"http://terminology.hl7.org/CodeSystem/v3-ActCode","code":"IMP","display":"inpatient encounter"},"type":[{"coding":[{"system":"http://snomed.info/sct","code":"183452005"}]}],"subject":{"reference":"Patient/d5f10590-7e71-43ec-86c9-b0c73dd78394"},"period":{"start":"2025-02-01T08:00:00.000Z","end":"2025-02-05T08:15:00.000Z"}},"request":{"method":"PUT","url":"Encounter/195fc31f-3395-4fe1-95c1-8c1e127d156c"}},{"fullUrl":"https://madie.cms.gov/Coverage/9d74b469-6a0c-43f1-8efc-fb88d73e5d46","resource":{"resourceType":"Coverage","id":"9d74b469-6a0c-43f1-8efc-fb88d73e5d46","status":"active","beneficiary":{"reference":"Patient/d5f10590-7e71-43ec-86c9-b0c73dd78394"},"period":{"start":"2004-02-01T08:00:00.000Z"},"payor":[{"reference":"Organization/5ad6ea38-07e9-4482-9e1b-c09eee595be9"}]},"request":{"method":"PUT","url":"Coverage/9d74b469-6a0c-43f1-8efc-fb88d73e5d46"}},{"fullUrl":"https://madie.cms.gov/Procedure/a796c8ce-42f7-47a2-a7ed-22d45b4f72ce","resource":{"resourceType":"Procedure","id":"a796c8ce-42f7-47a2-a7ed-22d45b4f72ce","meta":{"profile":["http://hl7.org/fhir/us/qicore/StructureDefinition/qicore-procedure"]},"extension":[{"url":"http://hl7.org/fhir/us/qicore/StructureDefinition/qicore-recorded","valueDateTime":"2013-04-05T09:35:00-04:00"}],"status":"completed","code":{"coding":[{"system":"http://snomed.info/sct","code":"10745001"}]},"subject":{"reference":"Patient/d5f10590-7e71-43ec-86c9-b0c73dd78394"},"performedPeriod":{"start":"2025-02-01T08:00:00.000Z","end":"2025-02-05T08:15:00.000Z"}},"request":{"method":"PUT","url":"Procedure/a796c8ce-42f7-47a2-a7ed-22d45b4f72ce"}},{"fullUrl":"https://madie.cms.gov/Procedure/1f3e7ddb-40ab-4d2b-a624-1c923a7311a9","resource":{"resourceType":"Procedure","id":"1f3e7ddb-40ab-4d2b-a624-1c923a7311a9","meta":{"profile":["http://hl7.org/fhir/us/qicore/StructureDefinition/qicore-procedure"]},"extension":[{"url":"http://hl7.org/fhir/us/qicore/StructureDefinition/qicore-recorded","valueDateTime":"2025-02-01T00:01:00-04:00"}],"status":"completed","code":{"coding":[{"system":"http://snomed.info/sct","code":"11397000"}]},"subject":{"reference":"Patient/d5f10590-7e71-43ec-86c9-b0c73dd78394"},"performedPeriod":{"start":"2025-02-02T11:59:00.000Z","end":"2025-02-05T11:59:00.000Z"}},"request":{"method":"PUT","url":"Procedure/1f3e7ddb-40ab-4d2b-a624-1c923a7311a9"}},{"fullUrl":"https://madie.cms.gov/Organization/2f1d9e3d-fb67-49b2-a955-90b07a7eea68","resource":{"resourceType":"Organization","id":"5ad6ea38-07e9-4482-9e1b-c09eee595be9","meta":{"profile":["http://hl7.org/fhir/us/qicore/StructureDefinition/qicore-organization"]},"identifier":[{"use":"temp","system":"urn:oid:2.16.840.1.113883.4.4","value":"21-3259825"}],"active":true,"type":[{"coding":[{"system":"http://terminology.hl7.org/CodeSystem/organization-type","code":"pay","display":"Payer"}]}],"name":"Blue Cross Blue Shield of Texas","telecom":[{"system":"phone","value":"(+1) 972-766-6900"}],"address":[{"use":"billing","type":"postal","line":["P.O. Box 660044"],"city":"Dallas","state":"TX","postalCode":"75266-0044","country":"USA"}]},"request":{"method":"PUT","url":"Organization/5ad6ea38-07e9-4482-9e1b-c09eee595be9"}},{"fullUrl":"https://madie.cms.gov/Practitioner/54102b45-6f38-4589-a1b1-febe11165a28","resource":{"resourceType":"Practitioner","id":"54102b45-6f38-4589-a1b1-febe11165a28","identifier":[{"system":"http://hl7.org/fhir/sid/us-npi","value":"123456"}],"name":[{"family":"Evil","prefix":["Dr"]}]},"request":{"method":"PUT","url":"Practitioner/54102b45-6f38-4589-a1b1-febe11165a28"}},{"fullUrl":"https://madie.cms.gov/MeasureReport/9e56ef37-5668-4b9f-87c6-5c27070765c9","resource":{"resourceType":"MeasureReport","id":"9e56ef37-5668-4b9f-87c6-5c27070765c9","meta":{"profile":["http://hl7.org/fhir/us/cqfmeasures/StructureDefinition/test-case-cqfm"]},"contained":[{"resourceType":"Parameters","id":"067b56b5-5043-4c03-aca3-52ec5b2011bf-parameters","parameter":[{"name":"subject","valueString":"d5f10590-7e71-43ec-86c9-b0c73dd78394"}]}],"extension":[{"url":"http://hl7.org/fhir/us/cqfmeasures/StructureDefinition/cqfm-inputParameters","valueReference":{"reference":"#067b56b5-5043-4c03-aca3-52ec5b2011bf-parameters"}},{"url":"http://hl7.org/fhir/us/cqfmeasures/StructureDefinition/cqfm-testCaseDescription","valueMarkdown":"Blood Transfusion Relevant Date Time During ED Triage Hosp\n"}],"modifierExtension":[{"url":"http://hl7.org/fhir/us/cqfmeasures/StructureDefinition/cqfm-isTestCase","valueBoolean":true}],"status":"complete","type":"individual","measure":"https://madie.cms.gov/Measure/CMS1028FHIRPCSevereOBComps","period":{"start":"2025-01-01","end":"2025-12-31"},"group":[{"population":[{"code":{"coding":[{"system":"http://terminology.hl7.org/CodeSystem/measure-population","code":"initial-population","display":"Initial Population"}]},"count":1},{"code":{"coding":[{"system":"http://terminology.hl7.org/CodeSystem/measure-population","code":"denominator","display":"Denominator"}]},"count":1},{"code":{"coding":[{"system":"http://terminology.hl7.org/CodeSystem/measure-population","code":"numerator","display":"Numerator"}]},"count":1},{"code":{"coding":[{"system":"http://terminology.hl7.org/CodeSystem/measure-population","code":"numerator-exclusion","display":"Numerator Exclusion"}]},"count":0}]},{"population":[{"code":{"coding":[{"system":"http://terminology.hl7.org/CodeSystem/measure-population","code":"initial-population","display":"Initial Population"}]},"count":1},{"code":{"coding":[{"system":"http://terminology.hl7.org/CodeSystem/measure-population","code":"denominator","display":"Denominator"}]},"count":1},{"code":{"coding":[{"system":"http://terminology.hl7.org/CodeSystem/measure-population","code":"numerator","display":"Numerator"}]},"count":0},{"code":{"coding":[{"system":"http://terminology.hl7.org/CodeSystem/measure-population","code":"numerator-exclusion","display":"Numerator Exclusion"}]},"count":0}]}]},"request":{"method":"PUT","url":"MeasureReport/9e56ef37-5668-4b9f-87c6-5c27070765c9"}}]}