{"resourceType":"Bundle","id":"tests-71b3cf6e-5cb4-4355-9f3a-c88b6ed20b30-bundle","type":"transaction","entry":[{"fullUrl":"https://madie.cms.gov/Patient/71b3cf6e-5cb4-4355-9f3a-c88b6ed20b30","resource":{"resourceType":"Patient","id":"71b3cf6e-5cb4-4355-9f3a-c88b6ed20b30","meta":{"profile":["http://hl7.org/fhir/us/qicore/StructureDefinition/qicore-patient"]},"text":{"status":"generated","div":"<div xmlns=\"http://www.w3.org/1999/xhtml\"><div class=\"hapiHeaderText\">AssPrfDelRelvDt1MinAftEncIPEnds <b>DENOMFAIL </b></div><table class=\"hapiPropertyTable\"><tbody><tr><td>Date of birth</td><td><span>01 February 2004</span></td></tr></tbody></table></div>"},"extension":[{"url":"http://hl7.org/fhir/us/core/StructureDefinition/us-core-race","extension":[{"url":"ombCategory","valueCoding":{"system":"urn:oid:2.16.840.1.113883.6.238","code":"1002-5","display":"American Indian or Alaska Native","userSelected":true}},{"url":"text","valueString":"American Indian or Alaska Native"}]},{"url":"http://hl7.org/fhir/us/core/StructureDefinition/us-core-ethnicity","extension":[{"url":"ombCategory","valueCoding":{"system":"urn:oid:2.16.840.1.113883.6.238","code":"2135-2","display":"Hispanic or Latino","userSelected":true}},{"url":"text","valueString":"Hispanic or Latino"}]}],"identifier":[{"type":{"coding":[{"system":"http://terminology.hl7.org/CodeSystem/v2-0203","code":"MR"}]},"system":"https://bonnie-fhir.healthit.gov/","value":"633b3f9e0968f80122503ccb"}],"active":true,"name":[{"use":"usual","family":"DENOMFail","given":["AssPrfDelRelvDt1MinAftEncIPEnds"]}],"gender":"female","birthDate":"2004-02-01"},"request":{"method":"PUT","url":"Patient/71b3cf6e-5cb4-4355-9f3a-c88b6ed20b30"}},{"fullUrl":"https://madie.cms.gov/Observation/67a59a69-d925-49f8-9672-5c3a90510a2f","resource":{"resourceType":"Observation","id":"67a59a69-d925-49f8-9672-5c3a90510a2f","meta":{"profile":["http://hl7.org/fhir/us/qicore/StructureDefinition/qicore-observation"]},"status":"final","category":[{"coding":[{"system":"http://terminology.hl7.org/CodeSystem/observation-category","code":"exam","display":"exam","userSelected":true}]}],"code":{"coding":[{"system":"http://loinc.org","code":"93857-1"}]},"subject":{"reference":"Patient/71b3cf6e-5cb4-4355-9f3a-c88b6ed20b30"},"effectiveDateTime":"2025-02-05T08:16:00.000+00:00","valueDateTime":"2025-02-01T08:00:00+00:00"},"request":{"method":"PUT","url":"Observation/67a59a69-d925-49f8-9672-5c3a90510a2f"}},{"fullUrl":"https://madie.cms.gov/Observation/673ecd11-a622-424b-9029-3491e82a8580","resource":{"resourceType":"Observation","id":"673ecd11-a622-424b-9029-3491e82a8580","meta":{"profile":["http://hl7.org/fhir/us/qicore/StructureDefinition/qicore-observation"]},"status":"final","category":[{"coding":[{"system":"http://terminology.hl7.org/CodeSystem/observation-category","code":"exam","display":"exam","userSelected":true}]}],"code":{"coding":[{"system":"http://loinc.org","code":"11778-8"}]},"subject":{"reference":"Patient/71b3cf6e-5cb4-4355-9f3a-c88b6ed20b30"},"effectiveDateTime":"2025-02-01T08:00:00.000+00:00","valueDateTime":"2025-02-01T08:00:00.000+00:00"},"request":{"method":"PUT","url":"Observation/673ecd11-a622-424b-9029-3491e82a8580"}},{"fullUrl":"https://madie.cms.gov/Encounter/25b8c4fc-3930-4d5e-ad02-427d08a04de0","resource":{"resourceType":"Encounter","id":"25b8c4fc-3930-4d5e-ad02-427d08a04de0","meta":{"profile":["http://hl7.org/fhir/us/qicore/StructureDefinition/qicore-encounter"]},"status":"finished","class":{"system":"http://terminology.hl7.org/CodeSystem/v3-ActCode","code":"IMP","display":"inpatient encounter"},"type":[{"coding":[{"system":"http://snomed.info/sct","code":"183452005"}]}],"subject":{"reference":"Patient/71b3cf6e-5cb4-4355-9f3a-c88b6ed20b30"},"period":{"start":"2025-02-01T08:00:00.000Z","end":"2025-02-05T08:15:00.000Z"}},"request":{"method":"PUT","url":"Encounter/25b8c4fc-3930-4d5e-ad02-427d08a04de0"}},{"fullUrl":"https://madie.cms.gov/Coverage/5c7da4ed-68f8-423a-862d-951d05a91420","resource":{"resourceType":"Coverage","id":"5c7da4ed-68f8-423a-862d-951d05a91420","status":"active","beneficiary":{"reference":"Patient/71b3cf6e-5cb4-4355-9f3a-c88b6ed20b30"},"period":{"start":"2004-02-01T08:00:00.000Z"},"payor":[{"reference":"Organization/db141f66-a1cc-407b-9e95-adac27adee14"}]},"request":{"method":"PUT","url":"Coverage/5c7da4ed-68f8-423a-862d-951d05a91420"}},{"fullUrl":"https://madie.cms.gov/Procedure/55c849bf-cb1a-480c-936b-28521441cb81","resource":{"resourceType":"Procedure","id":"55c849bf-cb1a-480c-936b-28521441cb81","meta":{"profile":["http://hl7.org/fhir/us/qicore/StructureDefinition/qicore-procedure"]},"extension":[{"url":"http://hl7.org/fhir/us/qicore/StructureDefinition/qicore-recorded","valueDateTime":"2013-04-05T09:35:00-04:00"}],"status":"completed","code":{"coding":[{"system":"http://snomed.info/sct","code":"10745001"}]},"subject":{"reference":"Patient/71b3cf6e-5cb4-4355-9f3a-c88b6ed20b30"},"performedPeriod":{"start":"2025-02-01T08:00:00.000Z","end":"2025-02-05T08:15:00.000Z"}},"request":{"method":"PUT","url":"Procedure/55c849bf-cb1a-480c-936b-28521441cb81"}},{"fullUrl":"https://madie.cms.gov/Organization/0558709c-b680-4019-936c-9d268c5710de","resource":{"resourceType":"Organization","id":"db141f66-a1cc-407b-9e95-adac27adee14","meta":{"profile":["http://hl7.org/fhir/us/qicore/StructureDefinition/qicore-organization"]},"identifier":[{"use":"temp","system":"urn:oid:2.16.840.1.113883.4.4","value":"21-3259825"}],"active":true,"type":[{"coding":[{"system":"http://terminology.hl7.org/CodeSystem/organization-type","code":"pay","display":"Payer"}]}],"name":"Blue Cross Blue Shield of Texas","telecom":[{"system":"phone","value":"(+1) 972-766-6900"}],"address":[{"use":"billing","type":"postal","line":["P.O. Box 660044"],"city":"Dallas","state":"TX","postalCode":"75266-0044","country":"USA"}]},"request":{"method":"PUT","url":"Organization/db141f66-a1cc-407b-9e95-adac27adee14"}},{"fullUrl":"https://madie.cms.gov/Practitioner/a7ff4fa6-a92d-4721-b17f-cc3996a70b9f","resource":{"resourceType":"Practitioner","id":"a7ff4fa6-a92d-4721-b17f-cc3996a70b9f","identifier":[{"system":"http://hl7.org/fhir/sid/us-npi","value":"123456"}],"name":[{"family":"Evil","prefix":["Dr"]}]},"request":{"method":"PUT","url":"Practitioner/a7ff4fa6-a92d-4721-b17f-cc3996a70b9f"}},{"fullUrl":"https://madie.cms.gov/MeasureReport/4996486e-b53b-47b3-afee-337c378bac46","resource":{"resourceType":"MeasureReport","id":"4996486e-b53b-47b3-afee-337c378bac46","meta":{"profile":["http://hl7.org/fhir/us/cqfmeasures/StructureDefinition/test-case-cqfm"]},"contained":[{"resourceType":"Parameters","id":"3dc5733b-297b-40d4-9384-72d7a98e79a7-parameters","parameter":[{"name":"subject","valueString":"71b3cf6e-5cb4-4355-9f3a-c88b6ed20b30"}]}],"extension":[{"url":"http://hl7.org/fhir/us/cqfmeasures/StructureDefinition/cqfm-inputParameters","valueReference":{"reference":"#3dc5733b-297b-40d4-9384-72d7a98e79a7-parameters"}},{"url":"http://hl7.org/fhir/us/cqfmeasures/StructureDefinition/cqfm-testCaseDescription","valueMarkdown":"Relevant date/Time of delivery (based on assessment performed) is equal to 1 minute after the encounter ends.\n"}],"modifierExtension":[{"url":"http://hl7.org/fhir/us/cqfmeasures/StructureDefinition/cqfm-isTestCase","valueBoolean":true}],"status":"complete","type":"individual","measure":"https://madie.cms.gov/Measure/CMS1028FHIRPCSevereOBComps","period":{"start":"2025-01-01","end":"2025-12-31"},"group":[{"population":[{"code":{"coding":[{"system":"http://terminology.hl7.org/CodeSystem/measure-population","code":"initial-population","display":"Initial Population"}]},"count":1},{"code":{"coding":[{"system":"http://terminology.hl7.org/CodeSystem/measure-population","code":"denominator","display":"Denominator"}]},"count":0},{"code":{"coding":[{"system":"http://terminology.hl7.org/CodeSystem/measure-population","code":"numerator","display":"Numerator"}]},"count":0},{"code":{"coding":[{"system":"http://terminology.hl7.org/CodeSystem/measure-population","code":"numerator-exclusion","display":"Numerator Exclusion"}]},"count":0}]},{"population":[{"code":{"coding":[{"system":"http://terminology.hl7.org/CodeSystem/measure-population","code":"initial-population","display":"Initial Population"}]},"count":1},{"code":{"coding":[{"system":"http://terminology.hl7.org/CodeSystem/measure-population","code":"denominator","display":"Denominator"}]},"count":0},{"code":{"coding":[{"system":"http://terminology.hl7.org/CodeSystem/measure-population","code":"numerator","display":"Numerator"}]},"count":0},{"code":{"coding":[{"system":"http://terminology.hl7.org/CodeSystem/measure-population","code":"numerator-exclusion","display":"Numerator Exclusion"}]},"count":0}]}]},"request":{"method":"PUT","url":"MeasureReport/4996486e-b53b-47b3-afee-337c378bac46"}}]}