{"resourceType":"Bundle","id":"tests-9818f17b-50f0-4ff1-8ff3-075723c80329-bundle","type":"transaction","entry":[{"fullUrl":"https://madie.cms.gov/Patient/9818f17b-50f0-4ff1-8ff3-075723c80329","resource":{"resourceType":"Patient","id":"9818f17b-50f0-4ff1-8ff3-075723c80329","meta":{"profile":["http://hl7.org/fhir/us/qicore/StructureDefinition/qicore-patient"]},"text":{"status":"generated","div":"<div xmlns=\"http://www.w3.org/1999/xhtml\"><div class=\"hapiHeaderText\">DelProcRelDtTmEQIPEnd <b>IPPASS </b></div><table class=\"hapiPropertyTable\"><tbody><tr><td>Date of birth</td><td><span>31 January 2004</span></td></tr></tbody></table></div>"},"extension":[{"url":"http://hl7.org/fhir/us/core/StructureDefinition/us-core-race","extension":[{"url":"ombCategory","valueCoding":{"system":"urn:oid:2.16.840.1.113883.6.238","code":"1002-5","display":"American Indian or Alaska Native","userSelected":true}},{"url":"text","valueString":"American Indian or Alaska Native"}]},{"url":"http://hl7.org/fhir/us/core/StructureDefinition/us-core-ethnicity","extension":[{"url":"ombCategory","valueCoding":{"system":"urn:oid:2.16.840.1.113883.6.238","code":"2135-2","display":"Hispanic or Latino","userSelected":true}},{"url":"text","valueString":"Hispanic or Latino"}]}],"identifier":[{"type":{"coding":[{"system":"http://terminology.hl7.org/CodeSystem/v2-0203","code":"MR"}]},"system":"https://bonnie-fhir.healthit.gov/","value":"633b3fa00968f80122503d18"}],"active":true,"name":[{"use":"usual","family":"IPPass","given":["DelProcRelDtTmEQIPEnd"]}],"gender":"female","birthDate":"2004-01-31"},"request":{"method":"PUT","url":"Patient/9818f17b-50f0-4ff1-8ff3-075723c80329"}},{"fullUrl":"https://madie.cms.gov/Encounter/aeb8a2c6-6f33-4e1e-af30-0372effc6fde","resource":{"resourceType":"Encounter","id":"aeb8a2c6-6f33-4e1e-af30-0372effc6fde","meta":{"profile":["http://hl7.org/fhir/us/qicore/StructureDefinition/qicore-encounter"]},"status":"finished","class":{"system":"http://terminology.hl7.org/CodeSystem/v3-ActCode","code":"IMP","display":"inpatient encounter"},"type":[{"coding":[{"system":"http://snomed.info/sct","code":"183452005"}]}],"subject":{"reference":"Patient/9818f17b-50f0-4ff1-8ff3-075723c80329"},"period":{"start":"2025-02-01T09:00:00.000Z","end":"2025-02-05T08:15:00.000Z"}},"request":{"method":"PUT","url":"Encounter/aeb8a2c6-6f33-4e1e-af30-0372effc6fde"}},{"fullUrl":"https://madie.cms.gov/Encounter/985671b3-26b0-48ea-87ca-c89566784882","resource":{"resourceType":"Encounter","id":"985671b3-26b0-48ea-87ca-c89566784882","meta":{"profile":["http://hl7.org/fhir/us/qicore/StructureDefinition/qicore-encounter"]},"status":"finished","class":{"system":"http://terminology.hl7.org/CodeSystem/v3-ActCode","code":"IMP","display":"inpatient encounter"},"type":[{"coding":[{"system":"http://snomed.info/sct","code":"448951000124107"}]}],"subject":{"reference":"Patient/9818f17b-50f0-4ff1-8ff3-075723c80329"},"period":{"start":"2025-02-01T08:00:00.000Z","end":"2025-02-01T08:59:00.000Z"}},"request":{"method":"PUT","url":"Encounter/985671b3-26b0-48ea-87ca-c89566784882"}},{"fullUrl":"https://madie.cms.gov/Encounter/20be61ff-5448-43a5-a367-f440ce996cf5","resource":{"resourceType":"Encounter","id":"20be61ff-5448-43a5-a367-f440ce996cf5","meta":{"profile":["http://hl7.org/fhir/us/qicore/StructureDefinition/qicore-encounter"]},"status":"finished","class":{"system":"http://terminology.hl7.org/CodeSystem/v3-ActCode","code":"IMP","display":"inpatient encounter"},"type":[{"coding":[{"system":"http://snomed.info/sct","code":"4525004"}]}],"subject":{"reference":"Patient/9818f17b-50f0-4ff1-8ff3-075723c80329"},"period":{"start":"2025-02-01T07:00:00.000Z","end":"2025-02-01T07:59:00.000Z"}},"request":{"method":"PUT","url":"Encounter/20be61ff-5448-43a5-a367-f440ce996cf5"}},{"fullUrl":"https://madie.cms.gov/Coverage/b8344546-fe9c-4406-b3a0-549962f72ccc","resource":{"resourceType":"Coverage","id":"b8344546-fe9c-4406-b3a0-549962f72ccc","status":"active","beneficiary":{"reference":"Patient/9818f17b-50f0-4ff1-8ff3-075723c80329"},"period":{"start":"2004-01-31T01:00:00.000Z"},"payor":[{"reference":"Organization/db141f66-a1cc-407b-9e95-adac27adee14"}]},"request":{"method":"PUT","url":"Coverage/b8344546-fe9c-4406-b3a0-549962f72ccc"}},{"fullUrl":"https://madie.cms.gov/Procedure/1034bf60-98c3-4ef3-9962-4843f53bad2f","resource":{"resourceType":"Procedure","id":"1034bf60-98c3-4ef3-9962-4843f53bad2f","meta":{"profile":["http://hl7.org/fhir/us/qicore/StructureDefinition/qicore-procedure"]},"extension":[{"url":"http://hl7.org/fhir/us/qicore/StructureDefinition/qicore-recorded","valueDateTime":"2013-04-05T09:35:00-04:00"}],"status":"completed","code":{"coding":[{"system":"http://snomed.info/sct","code":"10745001"}]},"subject":{"reference":"Patient/9818f17b-50f0-4ff1-8ff3-075723c80329"},"performedDateTime":"2025-02-05T08:15:00.000+00:00"},"request":{"method":"PUT","url":"Procedure/1034bf60-98c3-4ef3-9962-4843f53bad2f"}},{"fullUrl":"https://madie.cms.gov/Organization/cdaa90da-7869-4120-bec2-c5bab95e5bc4","resource":{"resourceType":"Organization","id":"db141f66-a1cc-407b-9e95-adac27adee14","meta":{"profile":["http://hl7.org/fhir/us/qicore/StructureDefinition/qicore-organization"]},"identifier":[{"use":"temp","system":"urn:oid:2.16.840.1.113883.4.4","value":"21-3259825"}],"active":true,"type":[{"coding":[{"system":"http://terminology.hl7.org/CodeSystem/organization-type","code":"pay","display":"Payer"}]}],"name":"Blue Cross Blue Shield of Texas","telecom":[{"system":"phone","value":"(+1) 972-766-6900"}],"address":[{"use":"billing","type":"postal","line":["P.O. Box 660044"],"city":"Dallas","state":"TX","postalCode":"75266-0044","country":"USA"}]},"request":{"method":"PUT","url":"Organization/db141f66-a1cc-407b-9e95-adac27adee14"}},{"fullUrl":"https://madie.cms.gov/Practitioner/ba620b8e-2aa2-4bf9-a32e-66f502d9296b","resource":{"resourceType":"Practitioner","id":"ba620b8e-2aa2-4bf9-a32e-66f502d9296b","identifier":[{"system":"http://hl7.org/fhir/sid/us-npi","value":"123456"}],"name":[{"family":"Evil","prefix":["Dr"]}]},"request":{"method":"PUT","url":"Practitioner/ba620b8e-2aa2-4bf9-a32e-66f502d9296b"}},{"fullUrl":"https://madie.cms.gov/MeasureReport/a7c76428-1905-42ae-a0d9-67ce5d1899fc","resource":{"resourceType":"MeasureReport","id":"a7c76428-1905-42ae-a0d9-67ce5d1899fc","meta":{"profile":["http://hl7.org/fhir/us/cqfmeasures/StructureDefinition/test-case-cqfm"]},"contained":[{"resourceType":"Parameters","id":"77239ec0-d795-4353-88a1-77a98357d76f-parameters","parameter":[{"name":"subject","valueString":"9818f17b-50f0-4ff1-8ff3-075723c80329"}]}],"extension":[{"url":"http://hl7.org/fhir/us/cqfmeasures/StructureDefinition/cqfm-inputParameters","valueReference":{"reference":"#77239ec0-d795-4353-88a1-77a98357d76f-parameters"}},{"url":"http://hl7.org/fhir/us/cqfmeasures/StructureDefinition/cqfm-testCaseDescription","valueMarkdown":"Delivery Procedure rel date/time = IP end.  ED/OBS/IP all meet global hospitalization criteria.\n"}],"modifierExtension":[{"url":"http://hl7.org/fhir/us/cqfmeasures/StructureDefinition/cqfm-isTestCase","valueBoolean":true}],"status":"complete","type":"individual","measure":"https://madie.cms.gov/Measure/CMS1028FHIRPCSevereOBComps","period":{"start":"2025-01-01","end":"2025-12-31"},"group":[{"population":[{"code":{"coding":[{"system":"http://terminology.hl7.org/CodeSystem/measure-population","code":"initial-population","display":"Initial Population"}]},"count":1},{"code":{"coding":[{"system":"http://terminology.hl7.org/CodeSystem/measure-population","code":"denominator","display":"Denominator"}]},"count":0},{"code":{"coding":[{"system":"http://terminology.hl7.org/CodeSystem/measure-population","code":"numerator","display":"Numerator"}]},"count":0},{"code":{"coding":[{"system":"http://terminology.hl7.org/CodeSystem/measure-population","code":"numerator-exclusion","display":"Numerator Exclusion"}]},"count":0}]},{"population":[{"code":{"coding":[{"system":"http://terminology.hl7.org/CodeSystem/measure-population","code":"initial-population","display":"Initial Population"}]},"count":1},{"code":{"coding":[{"system":"http://terminology.hl7.org/CodeSystem/measure-population","code":"denominator","display":"Denominator"}]},"count":0},{"code":{"coding":[{"system":"http://terminology.hl7.org/CodeSystem/measure-population","code":"numerator","display":"Numerator"}]},"count":0},{"code":{"coding":[{"system":"http://terminology.hl7.org/CodeSystem/measure-population","code":"numerator-exclusion","display":"Numerator Exclusion"}]},"count":0}]}]},"request":{"method":"PUT","url":"MeasureReport/a7c76428-1905-42ae-a0d9-67ce5d1899fc"}}]}