{"resourceType":"Bundle","id":"tests-314871b3-6925-49ec-b7c9-bc3a8992d182-bundle","type":"transaction","entry":[{"fullUrl":"https://madie.cms.gov/Patient/314871b3-6925-49ec-b7c9-bc3a8992d182","resource":{"resourceType":"Patient","id":"314871b3-6925-49ec-b7c9-bc3a8992d182","meta":{"profile":["http://hl7.org/fhir/us/qicore/StructureDefinition/qicore-patient"]},"text":{"status":"generated","div":"<div xmlns=\"http://www.w3.org/1999/xhtml\"><div class=\"hapiHeaderText\">LastAssPrfEstDELRelvTm_24Hr00Min00Sec_B4DELRsltDtTime <b>DENOMPASS </b></div><table class=\"hapiPropertyTable\"><tbody><tr><td>Date of birth</td><td><span>01 February 2004</span></td></tr></tbody></table></div>"},"extension":[{"url":"http://hl7.org/fhir/us/core/StructureDefinition/us-core-race","extension":[{"url":"ombCategory","valueCoding":{"system":"urn:oid:2.16.840.1.113883.6.238","code":"1002-5","display":"American Indian or Alaska Native","userSelected":true}},{"url":"text","valueString":"American Indian or Alaska Native"}]},{"url":"http://hl7.org/fhir/us/core/StructureDefinition/us-core-ethnicity","extension":[{"url":"ombCategory","valueCoding":{"system":"urn:oid:2.16.840.1.113883.6.238","code":"2135-2","display":"Hispanic or Latino","userSelected":true}},{"url":"text","valueString":"Hispanic or Latino"}]}],"identifier":[{"type":{"coding":[{"system":"http://terminology.hl7.org/CodeSystem/v2-0203","code":"MR"}]},"system":"https://bonnie-fhir.healthit.gov/","value":"633b3f9e0968f80122503cd3"}],"active":true,"name":[{"use":"usual","family":"DENOMPass","given":["LastAssPrfEstDELRelvTm_24Hr00Min00Sec_B4DELRsltDtTime"]}],"gender":"female","birthDate":"2004-02-01"},"request":{"method":"PUT","url":"Patient/314871b3-6925-49ec-b7c9-bc3a8992d182"}},{"fullUrl":"https://madie.cms.gov/Observation/e99151da-ffce-440d-a3d4-618a38c798e3","resource":{"resourceType":"Observation","id":"e99151da-ffce-440d-a3d4-618a38c798e3","meta":{"profile":["http://hl7.org/fhir/us/qicore/StructureDefinition/qicore-observation"]},"status":"final","category":[{"coding":[{"system":"http://terminology.hl7.org/CodeSystem/observation-category","code":"exam","display":"exam","userSelected":true}]}],"code":{"coding":[{"system":"http://loinc.org","code":"93857-1"}]},"subject":{"reference":"Patient/314871b3-6925-49ec-b7c9-bc3a8992d182"},"effectiveDateTime":"2025-02-01T08:00:00.000+00:00","valueDateTime":"2025-02-01T08:00:00+00:00"},"request":{"method":"PUT","url":"Observation/e99151da-ffce-440d-a3d4-618a38c798e3"}},{"fullUrl":"https://madie.cms.gov/Observation/2d295cde-0b74-4353-81e1-190a492e55b1","resource":{"resourceType":"Observation","id":"2d295cde-0b74-4353-81e1-190a492e55b1","meta":{"profile":["http://hl7.org/fhir/us/qicore/StructureDefinition/qicore-observation"]},"status":"final","category":[{"coding":[{"system":"http://terminology.hl7.org/CodeSystem/observation-category","code":"exam","display":"exam","userSelected":true}]}],"code":{"coding":[{"system":"http://loinc.org","code":"11778-8"}]},"subject":{"reference":"Patient/314871b3-6925-49ec-b7c9-bc3a8992d182"},"effectiveDateTime":"2025-01-31T08:00:00.000+00:00","valueDateTime":"2025-02-01T08:00:00.000+00:00"},"request":{"method":"PUT","url":"Observation/2d295cde-0b74-4353-81e1-190a492e55b1"}},{"fullUrl":"https://madie.cms.gov/Encounter/11997d9e-44ab-4c84-9eec-12c2e7141d2e","resource":{"resourceType":"Encounter","id":"11997d9e-44ab-4c84-9eec-12c2e7141d2e","meta":{"profile":["http://hl7.org/fhir/us/qicore/StructureDefinition/qicore-encounter"]},"status":"finished","class":{"system":"http://terminology.hl7.org/CodeSystem/v3-ActCode","code":"IMP","display":"inpatient encounter"},"type":[{"coding":[{"system":"http://snomed.info/sct","code":"183452005"}]}],"subject":{"reference":"Patient/314871b3-6925-49ec-b7c9-bc3a8992d182"},"period":{"start":"2025-02-01T08:00:00.000Z","end":"2025-02-05T08:15:00.000Z"}},"request":{"method":"PUT","url":"Encounter/11997d9e-44ab-4c84-9eec-12c2e7141d2e"}},{"fullUrl":"https://madie.cms.gov/Procedure/b3624480-18a5-4628-8237-e38e1d3b7b46","resource":{"resourceType":"Procedure","id":"b3624480-18a5-4628-8237-e38e1d3b7b46","meta":{"profile":["http://hl7.org/fhir/us/qicore/StructureDefinition/qicore-procedure"]},"extension":[{"url":"http://hl7.org/fhir/us/qicore/StructureDefinition/qicore-recorded","valueDateTime":"2013-04-05T09:35:00-04:00"}],"status":"completed","code":{"coding":[{"system":"http://snomed.info/sct","code":"10745001"}]},"subject":{"reference":"Patient/314871b3-6925-49ec-b7c9-bc3a8992d182"},"performedPeriod":{"start":"2025-02-01T08:00:00.000Z","end":"2025-02-05T08:15:00.000Z"}},"request":{"method":"PUT","url":"Procedure/b3624480-18a5-4628-8237-e38e1d3b7b46"}},{"fullUrl":"https://madie.cms.gov/Coverage/3b223ed9-a021-4fa6-b5c9-a652967442ff","resource":{"resourceType":"Coverage","id":"3b223ed9-a021-4fa6-b5c9-a652967442ff","meta":{"profile":["http://hl7.org/fhir/us/qicore/StructureDefinition/qicore-coverage"]},"status":"active","beneficiary":{"reference":"Patient/314871b3-6925-49ec-b7c9-bc3a8992d182"},"payor":[{"reference":"Organization/db141f66-a1cc-407b-9e95-adac27adee14"}]},"request":{"method":"PUT","url":"Coverage/3b223ed9-a021-4fa6-b5c9-a652967442ff"}},{"fullUrl":"https://madie.cms.gov/Organization/63dcbea4-c386-4166-9bef-e1bce7cdbd7e","resource":{"resourceType":"Organization","id":"db141f66-a1cc-407b-9e95-adac27adee14","meta":{"profile":["http://hl7.org/fhir/us/qicore/StructureDefinition/qicore-organization"]},"identifier":[{"use":"temp","system":"urn:oid:2.16.840.1.113883.4.4","value":"21-3259825"}],"active":true,"type":[{"coding":[{"system":"http://terminology.hl7.org/CodeSystem/organization-type","code":"pay","display":"Payer"}]}],"name":"Blue Cross Blue Shield of Texas","telecom":[{"system":"phone","value":"(+1) 972-766-6900"}],"address":[{"use":"billing","type":"postal","line":["P.O. Box 660044"],"city":"Dallas","state":"TX","postalCode":"75266-0044","country":"USA"}]},"request":{"method":"PUT","url":"Organization/db141f66-a1cc-407b-9e95-adac27adee14"}},{"fullUrl":"https://madie.cms.gov/Practitioner/e945b5fe-3afd-4c87-a934-5dabd44e60d6","resource":{"resourceType":"Practitioner","id":"e945b5fe-3afd-4c87-a934-5dabd44e60d6","identifier":[{"system":"http://hl7.org/fhir/sid/us-npi","value":"123456"}],"name":[{"family":"Evil","prefix":["Dr"]}]},"request":{"method":"PUT","url":"Practitioner/e945b5fe-3afd-4c87-a934-5dabd44e60d6"}},{"fullUrl":"https://madie.cms.gov/MeasureReport/19a293e1-2993-4beb-adc3-dc4f701714cd","resource":{"resourceType":"MeasureReport","id":"19a293e1-2993-4beb-adc3-dc4f701714cd","meta":{"profile":["http://hl7.org/fhir/us/cqfmeasures/StructureDefinition/test-case-cqfm"]},"contained":[{"resourceType":"Parameters","id":"336d75ed-ddfb-47a6-a159-4f8a41c2518d-parameters","parameter":[{"name":"subject","valueString":"314871b3-6925-49ec-b7c9-bc3a8992d182"}]}],"extension":[{"url":"http://hl7.org/fhir/us/cqfmeasures/StructureDefinition/cqfm-inputParameters","valueReference":{"reference":"#336d75ed-ddfb-47a6-a159-4f8a41c2518d-parameters"}},{"url":"http://hl7.org/fhir/us/cqfmeasures/StructureDefinition/cqfm-testCaseDescription","valueMarkdown":"Last assessment Performed, Estimated Delivery Date, Relevant time, prior to encounter\n"}],"modifierExtension":[{"url":"http://hl7.org/fhir/us/cqfmeasures/StructureDefinition/cqfm-isTestCase","valueBoolean":true}],"status":"complete","type":"individual","measure":"https://madie.cms.gov/Measure/CMS1028FHIRPCSevereOBComps","period":{"start":"2025-01-01","end":"2025-12-31"},"group":[{"population":[{"code":{"coding":[{"system":"http://terminology.hl7.org/CodeSystem/measure-population","code":"initial-population","display":"Initial Population"}]},"count":1},{"code":{"coding":[{"system":"http://terminology.hl7.org/CodeSystem/measure-population","code":"denominator","display":"Denominator"}]},"count":1},{"code":{"coding":[{"system":"http://terminology.hl7.org/CodeSystem/measure-population","code":"numerator","display":"Numerator"}]},"count":0},{"code":{"coding":[{"system":"http://terminology.hl7.org/CodeSystem/measure-population","code":"numerator-exclusion","display":"Numerator Exclusion"}]},"count":0}]},{"population":[{"code":{"coding":[{"system":"http://terminology.hl7.org/CodeSystem/measure-population","code":"initial-population","display":"Initial Population"}]},"count":1},{"code":{"coding":[{"system":"http://terminology.hl7.org/CodeSystem/measure-population","code":"denominator","display":"Denominator"}]},"count":1},{"code":{"coding":[{"system":"http://terminology.hl7.org/CodeSystem/measure-population","code":"numerator","display":"Numerator"}]},"count":0},{"code":{"coding":[{"system":"http://terminology.hl7.org/CodeSystem/measure-population","code":"numerator-exclusion","display":"Numerator Exclusion"}]},"count":0}]}]},"request":{"method":"PUT","url":"MeasureReport/19a293e1-2993-4beb-adc3-dc4f701714cd"}}]}