{
  "resourceType": "Bundle",
  "id": "612e6b3a02c62a011f2ecf6d",
  "type": "transaction",
  "entry": [ {
    "fullUrl": "https://madie.cms.gov/Patient/eda87b8e-5b2a-46f5-af96-a7c0b75131ec",
    "resource": {
      "resourceType": "Patient",
      "id": "eda87b8e-5b2a-46f5-af96-a7c0b75131ec",
      "meta": {
        "profile": [ "http://hl7.org/fhir/us/qicore/StructureDefinition/qicore-patient" ]
      },
      "text": {
        "status": "generated",
        "div": "<div xmlns=\"http://www.w3.org/1999/xhtml\"><div class=\"hapiHeaderText\">ICUStartOnEncStartTime <b>DENEXPASS </b></div><table class=\"hapiPropertyTable\"><tbody><tr><td>Identifier</td><td>11bb5362fa7c7b63061d0c716b7b8ddb</td></tr><tr><td>Date of birth</td><td><span>02 January 1974</span></td></tr></tbody></table></div>"
      },
      "extension": [ {
        "url": "http://hl7.org/fhir/us/core/StructureDefinition/us-core-race",
        "extension": [ {
          "url": "ombCategory",
          "valueCoding": {
            "system": "urn:oid:2.16.840.1.113883.6.238",
            "code": "1002-5",
            "display": "American Indian or Alaska Native",
            "userSelected": true
          }
        }, {
          "url": "text",
          "valueString": "American Indian or Alaska Native"
        } ]
      }, {
        "url": "http://hl7.org/fhir/us/core/StructureDefinition/us-core-ethnicity",
        "extension": [ {
          "url": "ombCategory",
          "valueCoding": {
            "system": "urn:oid:2.16.840.1.113883.6.238",
            "code": "2135-2",
            "display": "Hispanic or Latino",
            "userSelected": true
          }
        }, {
          "url": "text",
          "valueString": "Hispanic or Latino"
        } ]
      } ],
      "identifier": [ {
        "type": {
          "coding": [ {
            "system": "http://terminology.hl7.org/CodeSystem/v2-0203",
            "code": "MR"
          } ]
        },
        "system": "https://bonnie-fhir.healthit.gov/",
        "value": "612e6b3a02c62a011f2ecf6d"
      } ],
      "active": true,
      "name": [ {
        "use": "usual",
        "family": "DENEXPass",
        "given": [ "ICUStartOnEncStartTime" ]
      } ],
      "gender": "male",
      "birthDate": "1975-01-02"
    },
    "request": {
      "method": "PUT",
      "url": "Patient/eda87b8e-5b2a-46f5-af96-a7c0b75131ec"
    }
  }, {
    "fullUrl": "https://madie.cms.gov/Encounter/75663692-e935-4a1b-b322-c67124653620",
    "resource": {
      "resourceType": "Encounter",
      "id": "75663692-e935-4a1b-b322-c67124653620",
      "meta": {
        "profile": [ "http://hl7.org/fhir/us/qicore/StructureDefinition/qicore-encounter" ]
      },
      "status": "finished",
      "class": {
        "system": "http://terminology.hl7.org/CodeSystem/v3-ActCode",
        "code": "IMP",
        "display": "inpatient encounter"
      },
      "type": [ {
        "coding": [ {
          "system": "http://snomed.info/sct",
          "code": "8715000"
        } ]
      } ],
      "subject": {
        "reference": "Patient/eda87b8e-5b2a-46f5-af96-a7c0b75131ec"
      },
      "period": {
        "start": "2026-11-01T08:00:00+00:00",
        "end": "2026-11-26T08:15:00+00:00"
      },
      "length": {
        "value": 25.0,
        "unit": "days"
      },
      "location": [ {
        "location": {
          "reference": "Location/48ed631f-6236-4c6b-86fa-5a7fb6d2abad"
        },
        "period": {
          "start": "2026-11-01T08:00:00+00:00",
          "end": "2026-11-03T18:15:00+00:00"
        }
      } ]
    },
    "request": {
      "method": "PUT",
      "url": "Encounter/75663692-e935-4a1b-b322-c67124653620"
    }
  }, {
    "fullUrl": "https://madie.cms.gov/Coverage/82902acd-68ca-4916-898c-592dbf1eef5b",
    "resource": {
      "resourceType": "Coverage",
      "id": "82902acd-68ca-4916-898c-592dbf1eef5b",
      "status": "active",
      "beneficiary": {
        "reference": "Patient/eda87b8e-5b2a-46f5-af96-a7c0b75131ec"
      },
      "period": {
        "start": "1975-01-02T08:00:00+00:00"
      },
      "payor": [ {
        "reference": "Organization/22a9fecf-8e64-49a6-8152-b16aca59371d"
      } ]
    },
    "request": {
      "method": "PUT",
      "url": "Coverage/82902acd-68ca-4916-898c-592dbf1eef5b"
    }
  }, {
    "fullUrl": "https://madie.cms.gov/Location/48ed631f-6236-4c6b-86fa-5a7fb6d2abad",
    "resource": {
      "resourceType": "Location",
      "id": "48ed631f-6236-4c6b-86fa-5a7fb6d2abad",
      "meta": {
        "profile": [ "http://hl7.org/fhir/us/qicore/StructureDefinition/qicore-location" ]
      },
      "identifier": [ {
        "use": "usual",
        "system": "http://exampleoflocation.com",
        "value": "B1-S.F2"
      } ],
      "name": "Medical Surgical East, first floor",
      "type": [ {
        "coding": [ {
          "system": "https://www.cdc.gov/nhsn/cdaportal/terminology/codesystem/hsloc.html",
          "version": "2020",
          "code": "1025-6",
          "display": "Trauma Critical Care",
          "userSelected": true
        } ]
      } ]
    },
    "request": {
      "method": "PUT",
      "url": "Location/48ed631f-6236-4c6b-86fa-5a7fb6d2abad"
    }
  }, {
    "fullUrl": "https://madie.cms.gov/Organization/22a9fecf-8e64-49a6-8152-b16aca59371d",
    "resource": {
      "resourceType": "Organization",
      "id": "22a9fecf-8e64-49a6-8152-b16aca59371d",
      "meta": {
        "profile": [ "http://hl7.org/fhir/us/qicore/StructureDefinition/qicore-organization" ]
      },
      "identifier": [ {
        "use": "temp",
        "system": "urn:oid:2.16.840.1.113883.4.4",
        "value": "21-3259825"
      } ],
      "active": true,
      "type": [ {
        "coding": [ {
          "system": "http://terminology.hl7.org/CodeSystem/organization-type",
          "code": "pay",
          "display": "Payer"
        } ]
      } ],
      "name": "Blue Cross Blue Shield of Texas",
      "telecom": [ {
        "system": "phone",
        "value": "(+1) 972-766-6900"
      } ],
      "address": [ {
        "use": "billing",
        "type": "postal",
        "line": [ "P.O. Box 660044" ],
        "city": "Dallas",
        "state": "TX",
        "postalCode": "75266-0044",
        "country": "USA"
      } ]
    },
    "request": {
      "method": "PUT",
      "url": "Organization/22a9fecf-8e64-49a6-8152-b16aca59371d"
    }
  }, {
    "fullUrl": "https://madie.cms.gov/Practitioner/43fb5314-cec5-4992-8e66-049b044d7713",
    "resource": {
      "resourceType": "Practitioner",
      "id": "43fb5314-cec5-4992-8e66-049b044d7713",
      "identifier": [ {
        "system": "http://hl7.org/fhir/sid/us-npi",
        "value": "123456"
      } ],
      "name": [ {
        "family": "Evil",
        "prefix": [ "Dr" ]
      } ]
    },
    "request": {
      "method": "PUT",
      "url": "Practitioner/43fb5314-cec5-4992-8e66-049b044d7713"
    }
  }, {
    "fullUrl": "https://madie.cms.gov/MeasureReport/f279a155-7bef-400f-9f6e-249452946d8e",
    "resource": {
      "resourceType": "MeasureReport",
      "id": "f279a155-7bef-400f-9f6e-249452946d8e",
      "meta": {
        "profile": [ "http://hl7.org/fhir/us/cqfmeasures/StructureDefinition/test-case-cqfm" ]
      },
      "contained": [ {
        "resourceType": "Parameters",
        "id": "1e587180-1e54-426e-be8b-6f8665d84300-parameters",
        "parameter": [ {
          "name": "subject",
          "valueString": "eda87b8e-5b2a-46f5-af96-a7c0b75131ec"
        } ]
      } ],
      "extension": [ {
        "url": "http://hl7.org/fhir/us/cqfmeasures/StructureDefinition/cqfm-inputParameters",
        "valueReference": {
          "reference": "#1e587180-1e54-426e-be8b-6f8665d84300-parameters"
        }
      }, {
        "url": "http://hl7.org/fhir/us/cqfmeasures/StructureDefinition/cqfm-testCaseDescription",
        "valueMarkdown": "ICU admission starts concurrent with start of EncInp\n"
      } ],
      "modifierExtension": [ {
        "url": "http://hl7.org/fhir/us/cqfmeasures/StructureDefinition/cqfm-isTestCase",
        "valueBoolean": true
      } ],
      "status": "complete",
      "type": "individual",
      "measure": "https://madie.cms.gov/Measure/CMS108VTEProphylaxisFHIR",
      "period": {
        "start": "2026-01-01",
        "end": "2026-12-31"
      },
      "group": [ {
        "population": [ {
          "code": {
            "coding": [ {
              "system": "http://terminology.hl7.org/CodeSystem/measure-population",
              "code": "initial-population",
              "display": "Initial Population"
            } ]
          },
          "count": 1
        }, {
          "code": {
            "coding": [ {
              "system": "http://terminology.hl7.org/CodeSystem/measure-population",
              "code": "denominator",
              "display": "Denominator"
            } ]
          },
          "count": 1
        }, {
          "code": {
            "coding": [ {
              "system": "http://terminology.hl7.org/CodeSystem/measure-population",
              "code": "denominator-exclusion",
              "display": "Denominator Exclusion"
            } ]
          },
          "count": 1
        }, {
          "code": {
            "coding": [ {
              "system": "http://terminology.hl7.org/CodeSystem/measure-population",
              "code": "numerator",
              "display": "Numerator"
            } ]
          },
          "count": 0
        } ]
      } ],
      "evaluatedResource": [ {
        "reference": "Patient/eda87b8e-5b2a-46f5-af96-a7c0b75131ec"
      }, {
        "reference": "Encounter/75663692-e935-4a1b-b322-c67124653620"
      }, {
        "reference": "Coverage/82902acd-68ca-4916-898c-592dbf1eef5b"
      }, {
        "reference": "Location/48ed631f-6236-4c6b-86fa-5a7fb6d2abad"
      }, {
        "reference": "Organization/22a9fecf-8e64-49a6-8152-b16aca59371d"
      }, {
        "reference": "Practitioner/43fb5314-cec5-4992-8e66-049b044d7713"
      } ]
    },
    "request": {
      "method": "PUT",
      "url": "MeasureReport/f279a155-7bef-400f-9f6e-249452946d8e"
    }
  } ]
}