{"resourceType":"Bundle","id":"tests-MultiProviderPatient-bundle","type":"transaction","entry":[{"resource":{"resourceType":"PractitionerRole","id":"john-smith-2","meta":{"profile":["http://hl7.org/fhir/us/qicore/StructureDefinition/qicore-practitionerrole"]},"identifier":[{"use":"temp","system":"http://www.acme.org/practitionerroles","value":"john-smith-2"},{"use":"usual","type":{"text":"EIN"},"system":"urn:oid:2.16.840.1.113883.4.4","value":"00ZZZ"}],"active":true,"period":{"start":"1995"},"practitioner":{"reference":"Practitioner/john-smith-1","display":"Dr John Smith"},"organization":{"reference":"Organization/organization-B"},"code":[{"coding":[{"system":"http://nucc.org/provider-taxonomy","code":"261Q00000X","display":"Clinic/Center"}]}],"specialty":[{"coding":[{"system":"http://nucc.org/provider-taxonomy","code":"122300000X","display":"Dentist"}]}]},"request":{"method":"PUT","url":"PractitionerRole/john-smith-2"}},{"resource":{"resourceType":"Encounter","id":"Encounter-5","meta":{"profile":["http://hl7.org/fhir/us/core/StructureDefinition/us-core-encounter","http://hl7.org/fhir/us/qicore/StructureDefinition/qicore-encounter"]},"status":"finished","class":{"system":"http://terminology.hl7.org/CodeSystem/v3-ActCode","code":"AMB","display":"ambulatory"},"type":[{"coding":[{"system":"http://www.ama-assn.org/go/cpt","code":"99201","display":"Office or other outpatient visit for the evaluation and management of a new patient, which requires these 3 key components: A problem focused history; A problem focused examination; Straightforward medical decision making. Counseling and/or coordination of care with other physicians, other qualified health care professionals, or agencies are provided consistent with the nature of the problem(s) and the patient's and/or family's needs. Usually, the presenting problem(s) are self limited or minor. Typically, 10 minutes are spent face-to-face with the patient and/or family."}]}],"subject":{"reference":"Patient/MultiProviderPatient"},"participant":[{"individual":{"reference":"Practitioner/john-smith-1"}},{"individual":{"reference":"Practitioner/kelly-smith-1"}}],"period":{"start":"2019-05-01T01:00:00.0","end":"2019-05-02T01:00:00.0"}},"request":{"method":"PUT","url":"Encounter/Encounter-5"}},{"resource":{"resourceType":"Encounter","id":"Encounter-9","meta":{"profile":["http://hl7.org/fhir/us/core/StructureDefinition/us-core-encounter","http://hl7.org/fhir/us/qicore/StructureDefinition/qicore-encounter"]},"status":"finished","class":{"system":"http://terminology.hl7.org/CodeSystem/v3-ActCode","code":"AMB","display":"ambulatory"},"type":[{"coding":[{"system":"http://www.ama-assn.org/go/cpt","code":"99201","display":"Office or other outpatient visit for the evaluation and management of a new patient, which requires these 3 key components: A problem focused history; A problem focused examination; Straightforward medical decision making. Counseling and/or coordination of care with other physicians, other qualified health care professionals, or agencies are provided consistent with the nature of the problem(s) and the patient's and/or family's needs. Usually, the presenting problem(s) are self limited or minor. Typically, 10 minutes are spent face-to-face with the patient and/or family."}]}],"subject":{"reference":"Patient/MultiProviderPatient"},"participant":[{"individual":{"reference":"Practitioner/john-smith-1"}},{"individual":{"reference":"Practitioner/kelly-smith-1"}}],"period":{"start":"2019-09-01T01:00:00.0","end":"2019-09-02T01:00:00.0"}},"request":{"method":"PUT","url":"Encounter/Encounter-9"}},{"resource":{"resourceType":"Practitioner","id":"john-smith-1","meta":{"profile":["http://hl7.org/fhir/us/core/StructureDefinition/us-core-practitioner","http://hl7.org/fhir/us/qicore/StructureDefinition/qicore-practitioner"]},"identifier":[{"use":"usual","type":{"text":"EIN"},"system":"urn:oid:2.16.840.1.113883.4.4","value":"00XXX"},{"use":"usual","type":{"text":"EIN"},"system":"urn:oid:2.16.840.1.113883.4.4","value":"00ZZZ"}],"name":[{"family":"Smith","given":["John"],"prefix":["Dr"]}]},"request":{"method":"PUT","url":"Practitioner/john-smith-1"}},{"resource":{"resourceType":"Encounter","id":"Encounter-8","meta":{"profile":["http://hl7.org/fhir/us/core/StructureDefinition/us-core-encounter","http://hl7.org/fhir/us/qicore/StructureDefinition/qicore-encounter"]},"status":"finished","class":{"system":"http://terminology.hl7.org/CodeSystem/v3-ActCode","code":"AMB","display":"ambulatory"},"type":[{"coding":[{"system":"http://www.ama-assn.org/go/cpt","code":"99201","display":"Office or other outpatient visit for the evaluation and management of a new patient, which requires these 3 key components: A problem focused history; A problem focused examination; Straightforward medical decision making. Counseling and/or coordination of care with other physicians, other qualified health care professionals, or agencies are provided consistent with the nature of the problem(s) and the patient's and/or family's needs. Usually, the presenting problem(s) are self limited or minor. Typically, 10 minutes are spent face-to-face with the patient and/or family."}]}],"subject":{"reference":"Patient/MultiProviderPatient"},"participant":[{"individual":{"reference":"Practitioner/john-smith-1"}},{"individual":{"reference":"Practitioner/kelly-smith-1"}}],"period":{"start":"2019-08-01T01:00:00.0","end":"2019-08-02T01:00:00.0"}},"request":{"method":"PUT","url":"Encounter/Encounter-8"}},{"resource":{"resourceType":"Practitioner","id":"kelly-smith-1","meta":{"profile":["http://hl7.org/fhir/us/core/StructureDefinition/us-core-practitioner","http://hl7.org/fhir/us/qicore/StructureDefinition/qicore-practitioner"]},"identifier":[{"use":"usual","type":{"text":"EIN"},"system":"urn:oid:2.16.840.1.113883.4.4","value":"00YYZ"}],"name":[{"family":"Smith","given":["Kelly"],"prefix":["Dr"]}]},"request":{"method":"PUT","url":"Practitioner/kelly-smith-1"}},{"resource":{"resourceType":"Encounter","id":"Encounter-4","meta":{"profile":["http://hl7.org/fhir/us/core/StructureDefinition/us-core-encounter","http://hl7.org/fhir/us/qicore/StructureDefinition/qicore-encounter"]},"status":"finished","class":{"system":"http://terminology.hl7.org/CodeSystem/v3-ActCode","code":"AMB","display":"ambulatory"},"type":[{"coding":[{"system":"http://www.ama-assn.org/go/cpt","code":"99201","display":"Office or other outpatient visit for the evaluation and management of a new patient, which requires these 3 key components: A problem focused history; A problem focused examination; Straightforward medical decision making. Counseling and/or coordination of care with other physicians, other qualified health care professionals, or agencies are provided consistent with the nature of the problem(s) and the patient's and/or family's needs. Usually, the presenting problem(s) are self limited or minor. Typically, 10 minutes are spent face-to-face with the patient and/or family."}]}],"subject":{"reference":"Patient/MultiProviderPatient"},"participant":[{"individual":{"reference":"Practitioner/john-smith-1"}},{"individual":{"reference":"Practitioner/jane-smith-1"}}],"period":{"start":"2019-04-01T01:00:00.0","end":"2019-04-02T01:00:00.0"}},"request":{"method":"PUT","url":"Encounter/Encounter-4"}},{"resource":{"resourceType":"PractitionerRole","id":"jane-smith-1","meta":{"profile":["http://hl7.org/fhir/us/qicore/StructureDefinition/qicore-practitionerrole"]},"identifier":[{"use":"temp","system":"http://www.acme.org/practitionerroles","value":"jane-smith-1"}],"active":true,"period":{"start":"1995"},"practitioner":{"reference":"Practitioner/jane-smith-1","display":"Dr Jane Smith"},"organization":{"reference":"Organization/organization-A"},"code":[{"coding":[{"system":"http://nucc.org/provider-taxonomy","code":"261Q00000X","display":"Clinic/Center"}]}],"specialty":[{"coding":[{"system":"http://nucc.org/provider-taxonomy","code":"122300000X","display":"Dentist"}]}]},"request":{"method":"PUT","url":"PractitionerRole/jane-smith-1"}},{"resource":{"resourceType":"Encounter","id":"Encounter-3","meta":{"profile":["http://hl7.org/fhir/us/core/StructureDefinition/us-core-encounter","http://hl7.org/fhir/us/qicore/StructureDefinition/qicore-encounter"]},"status":"finished","class":{"system":"http://terminology.hl7.org/CodeSystem/v3-ActCode","code":"AMB","display":"ambulatory"},"type":[{"coding":[{"system":"http://www.ama-assn.org/go/cpt","code":"99201","display":"Office or other outpatient visit for the evaluation and management of a new patient, which requires these 3 key components: A problem focused history; A problem focused examination; Straightforward medical decision making. Counseling and/or coordination of care with other physicians, other qualified health care professionals, or agencies are provided consistent with the nature of the problem(s) and the patient's and/or family's needs. Usually, the presenting problem(s) are self limited or minor. Typically, 10 minutes are spent face-to-face with the patient and/or family."}]}],"subject":{"reference":"Patient/MultiProviderPatient"},"participant":[{"individual":{"reference":"Practitioner/john-smith-1"}},{"individual":{"reference":"Practitioner/jane-smith-1"}}],"period":{"start":"2019-03-01T01:00:00.0","end":"2019-03-02T01:00:00.0"}},"request":{"method":"PUT","url":"Encounter/Encounter-3"}},{"resource":{"resourceType":"Organization","id":"organization-B","meta":{"profile":["http://hl7.org/fhir/us/qicore/StructureDefinition/qicore-organization"]},"identifier":[{"use":"temp","system":"urn:oid:2.16.840.1.113883.4.336","value":"CCN-999"},{"use":"usual","type":{"text":"EIN"},"system":"urn:oid:2.16.840.1.113883.4.4","value":"00999"}],"active":true,"type":[{"coding":[{"system":"http://terminology.hl7.org/CodeSystem/organization-type","code":"team","display":"Organizational team"}]}],"name":"Organization B"},"request":{"method":"PUT","url":"Organization/organization-B"}},{"resource":{"resourceType":"Encounter","id":"Encounter-2","meta":{"profile":["http://hl7.org/fhir/us/core/StructureDefinition/us-core-encounter","http://hl7.org/fhir/us/qicore/StructureDefinition/qicore-encounter"]},"status":"finished","class":{"system":"http://terminology.hl7.org/CodeSystem/v3-ActCode","code":"AMB","display":"ambulatory"},"type":[{"coding":[{"system":"http://www.ama-assn.org/go/cpt","code":"99201","display":"Office or other outpatient visit for the evaluation and management of a new patient, which requires these 3 key components: A problem focused history; A problem focused examination; Straightforward medical decision making. Counseling and/or coordination of care with other physicians, other qualified health care professionals, or agencies are provided consistent with the nature of the problem(s) and the patient's and/or family's needs. Usually, the presenting problem(s) are self limited or minor. Typically, 10 minutes are spent face-to-face with the patient and/or family."}]}],"subject":{"reference":"Patient/MultiProviderPatient"},"participant":[{"individual":{"reference":"Practitioner/john-smith-1"}},{"individual":{"reference":"Practitioner/jane-smith-1"}}],"period":{"start":"2019-02-01T01:00:00.0","end":"2019-02-02T01:00:00.0"}},"request":{"method":"PUT","url":"Encounter/Encounter-2"}},{"resource":{"resourceType":"PractitionerRole","id":"kelly-smith-1","meta":{"profile":["http://hl7.org/fhir/us/qicore/StructureDefinition/qicore-practitionerrole"]},"identifier":[{"use":"temp","system":"http://www.acme.org/practitionerroles","value":"kelly-smith-1"}],"active":true,"period":{"start":"1995"},"practitioner":{"reference":"Practitioner/kelly-smith-1","display":"Dr Kelly Smith"},"organization":{"reference":"Organization/organization-B"},"code":[{"coding":[{"system":"http://nucc.org/provider-taxonomy","code":"261Q00000X","display":"Clinic/Center"}]}],"specialty":[{"coding":[{"system":"http://nucc.org/provider-taxonomy","code":"122300000X","display":"Dentist"}]}]},"request":{"method":"PUT","url":"PractitionerRole/kelly-smith-1"}},{"resource":{"resourceType":"Encounter","id":"Encounter-1","meta":{"profile":["http://hl7.org/fhir/us/core/StructureDefinition/us-core-encounter","http://hl7.org/fhir/us/qicore/StructureDefinition/qicore-encounter"]},"status":"finished","class":{"system":"http://terminology.hl7.org/CodeSystem/v3-ActCode","code":"AMB","display":"ambulatory"},"type":[{"coding":[{"system":"http://www.ama-assn.org/go/cpt","code":"99201","display":"Office or other outpatient visit for the evaluation and management of a new patient, which requires these 3 key components: A problem focused history; A problem focused examination; Straightforward medical decision making. Counseling and/or coordination of care with other physicians, other qualified health care professionals, or agencies are provided consistent with the nature of the problem(s) and the patient's and/or family's needs. Usually, the presenting problem(s) are self limited or minor. Typically, 10 minutes are spent face-to-face with the patient and/or family."}]}],"subject":{"reference":"Patient/MultiProviderPatient"},"participant":[{"individual":{"reference":"Practitioner/john-smith-1"}},{"individual":{"reference":"Practitioner/jane-smith-1"}}],"period":{"start":"2019-01-01T01:00:00.0","end":"2019-01-02T01:00:00.0"}},"request":{"method":"PUT","url":"Encounter/Encounter-1"}},{"resource":{"resourceType":"Organization","id":"organization-A","meta":{"profile":["http://hl7.org/fhir/us/qicore/StructureDefinition/qicore-organization"]},"identifier":[{"use":"temp","system":"urn:oid:2.16.840.1.113883.4.336","value":"CCN-123"},{"use":"usual","type":{"text":"EIN"},"system":"urn:oid:2.16.840.1.113883.4.4","value":"00123"}],"active":true,"type":[{"coding":[{"system":"http://terminology.hl7.org/CodeSystem/organization-type","code":"team","display":"Organizational team"}]}],"name":"Organization A"},"request":{"method":"PUT","url":"Organization/organization-A"}},{"resource":{"resourceType":"Patient","id":"MultiProviderPatient","meta":{"profile":["http://hl7.org/fhir/us/core/StructureDefinition/us-core-patient","http://hl7.org/fhir/us/qicore/StructureDefinition/qicore-patient"]},"extension":[{"url":"http://hl7.org/fhir/us/core/StructureDefinition/us-core-race","extension":[{"url":"ombCategory","valueCoding":{"system":"urn:oid:2.16.840.1.113883.6.238","code":"2106-3","display":"White"}},{"url":"ombCategory","valueCoding":{"system":"urn:oid:2.16.840.1.113883.6.238","code":"1002-5","display":"American Indian or Alaska Native"}},{"url":"ombCategory","valueCoding":{"system":"urn:oid:2.16.840.1.113883.6.238","code":"2028-9","display":"Asian"}},{"url":"detailed","valueCoding":{"system":"urn:oid:2.16.840.1.113883.6.238","code":"1586-7","display":"Shoshone"}},{"url":"detailed","valueCoding":{"system":"urn:oid:2.16.840.1.113883.6.238","code":"2036-2","display":"Filipino"}},{"url":"text","valueString":"Mixed"}]},{"url":"http://hl7.org/fhir/us/core/StructureDefinition/us-core-ethnicity","extension":[{"url":"ombCategory","valueCoding":{"system":"urn:oid:2.16.840.1.113883.6.238","code":"2135-2","display":"Hispanic or Latino"}},{"url":"detailed","valueCoding":{"system":"urn:oid:2.16.840.1.113883.6.238","code":"2184-0","display":"Dominican"}},{"url":"detailed","valueCoding":{"system":"urn:oid:2.16.840.1.113883.6.238","code":"2148-5","display":"Mexican"}},{"url":"text","valueString":"Hispanic or Latino"}]}],"identifier":[{"use":"usual","system":"http://myprovider.org","value":"00001"}],"name":[{"use":"usual","family":"Doe","given":["Jane"]}],"gender":"female","birthDate":"2009-02-02"},"request":{"method":"PUT","url":"Patient/MultiProviderPatient"}},{"resource":{"resourceType":"Practitioner","id":"jane-smith-1","meta":{"profile":["http://hl7.org/fhir/us/core/StructureDefinition/us-core-practitioner","http://hl7.org/fhir/us/qicore/StructureDefinition/qicore-practitioner"]},"identifier":[{"use":"usual","type":{"text":"EIN"},"system":"urn:oid:2.16.840.1.113883.4.4","value":"00YYY"}],"name":[{"family":"Smith","given":["Jane"],"prefix":["Dr"]}]},"request":{"method":"PUT","url":"Practitioner/jane-smith-1"}},{"resource":{"resourceType":"Encounter","id":"Encounter-7","meta":{"profile":["http://hl7.org/fhir/us/core/StructureDefinition/us-core-encounter","http://hl7.org/fhir/us/qicore/StructureDefinition/qicore-encounter"]},"status":"finished","class":{"system":"http://terminology.hl7.org/CodeSystem/v3-ActCode","code":"AMB","display":"ambulatory"},"type":[{"coding":[{"system":"http://www.ama-assn.org/go/cpt","code":"99201","display":"Office or other outpatient visit for the evaluation and management of a new patient, which requires these 3 key components: A problem focused history; A problem focused examination; Straightforward medical decision making. Counseling and/or coordination of care with other physicians, other qualified health care professionals, or agencies are provided consistent with the nature of the problem(s) and the patient's and/or family's needs. Usually, the presenting problem(s) are self limited or minor. Typically, 10 minutes are spent face-to-face with the patient and/or family."}]}],"subject":{"reference":"Patient/MultiProviderPatient"},"participant":[{"individual":{"reference":"Practitioner/john-smith-1"}},{"individual":{"reference":"Practitioner/kelly-smith-1"}}],"period":{"start":"2019-07-01T01:00:00.0","end":"2019-07-02T01:00:00.0"}},"request":{"method":"PUT","url":"Encounter/Encounter-7"}},{"resource":{"resourceType":"PractitionerRole","id":"john-smith-1","meta":{"profile":["http://hl7.org/fhir/us/qicore/StructureDefinition/qicore-practitionerrole"]},"identifier":[{"use":"temp","system":"http://www.acme.org/practitionerroles","value":"john-smith-1"},{"use":"usual","type":{"text":"EIN"},"system":"urn:oid:2.16.840.1.113883.4.4","value":"00XXX"}],"active":true,"period":{"start":"1995"},"practitioner":{"reference":"Practitioner/john-smith-1","display":"Dr John Smith"},"organization":{"reference":"Organization/organization-A"},"code":[{"coding":[{"system":"http://nucc.org/provider-taxonomy","code":"261Q00000X","display":"Clinic/Center"}]}],"specialty":[{"coding":[{"system":"http://nucc.org/provider-taxonomy","code":"122300000X","display":"Dentist"}]}]},"request":{"method":"PUT","url":"PractitionerRole/john-smith-1"}},{"resource":{"resourceType":"Encounter","id":"Encounter-6","meta":{"profile":["http://hl7.org/fhir/us/core/StructureDefinition/us-core-encounter","http://hl7.org/fhir/us/qicore/StructureDefinition/qicore-encounter"]},"status":"finished","class":{"system":"http://terminology.hl7.org/CodeSystem/v3-ActCode","code":"AMB","display":"ambulatory"},"type":[{"coding":[{"system":"http://www.ama-assn.org/go/cpt","code":"99201","display":"Office or other outpatient visit for the evaluation and management of a new patient, which requires these 3 key components: A problem focused history; A problem focused examination; Straightforward medical decision making. Counseling and/or coordination of care with other physicians, other qualified health care professionals, or agencies are provided consistent with the nature of the problem(s) and the patient's and/or family's needs. Usually, the presenting problem(s) are self limited or minor. Typically, 10 minutes are spent face-to-face with the patient and/or family."}]}],"subject":{"reference":"Patient/MultiProviderPatient"},"participant":[{"individual":{"reference":"Practitioner/john-smith-1"}},{"individual":{"reference":"Practitioner/kelly-smith-1"}}],"period":{"start":"2019-06-01T01:00:00.0","end":"2019-06-02T01:00:00.0"}},"request":{"method":"PUT","url":"Encounter/Encounter-6"}}]}