{"resourceType":"Bundle","id":"tests-29653a2e-80a4-45cd-98c7-f5296b4c3e0e-bundle","type":"transaction","entry":[{"fullUrl":"https://madie.cms.gov/Patient/29653a2e-80a4-45cd-98c7-f5296b4c3e0e","resource":{"resourceType":"Patient","id":"29653a2e-80a4-45cd-98c7-f5296b4c3e0e","meta":{"profile":["http://hl7.org/fhir/us/qicore/StructureDefinition/qicore-patient"]},"extension":[{"url":"http://hl7.org/fhir/us/core/StructureDefinition/us-core-race","extension":[{"url":"ombCategory","valueCoding":{"system":"urn:oid:2.16.840.1.113883.6.238","code":"2028-9","display":"Asian"}},{"url":"text","valueString":"Asian"}]},{"url":"http://hl7.org/fhir/us/core/StructureDefinition/us-core-ethnicity","extension":[{"url":"ombCategory","valueCoding":{"system":"urn:oid:2.16.840.1.113883.6.238","code":"2135-2","display":"Hispanic or Latino"}},{"url":"text","valueString":"Hispanic or Latino"}]}],"identifier":[{"system":"http://hospital.smarthealthit.org","value":"999999995"}],"name":[{"family":"Bertha","given":["Betty"]}],"gender":"female","birthDate":"2006-01-01"},"request":{"method":"PUT","url":"Patient/29653a2e-80a4-45cd-98c7-f5296b4c3e0e"}},{"fullUrl":"https://madie.cms.gov/Encounter/Encounter-3","resource":{"resourceType":"Encounter","id":"ee3bfce2-1105-4f2f-91bd-5b13c5299c33","meta":{"profile":["http://hl7.org/fhir/us/qicore/StructureDefinition/qicore-encounter"]},"status":"finished","class":{"system":"http://terminology.hl7.org/CodeSystem/v3-ActCode","code":"AMB","display":"ambulatory"},"type":[{"coding":[{"system":"http://snomed.info/sct","code":"185317003","display":"Telephone encounter (procedure)"}]}],"subject":{"reference":"Patient/29653a2e-80a4-45cd-98c7-f5296b4c3e0e"},"period":{"start":"2025-01-02T00:00:00.000Z","end":"2025-01-02T01:15:00.000Z"}},"request":{"method":"PUT","url":"Encounter/ee3bfce2-1105-4f2f-91bd-5b13c5299c33"}},{"fullUrl":"https://madie.cms.gov/MedicationRequest/MedicationRequest-3","resource":{"resourceType":"MedicationRequest","id":"e165548c-ca66-4263-b27d-e2ffb54f09bc","meta":{"profile":["http://hl7.org/fhir/us/qicore/StructureDefinition/qicore-medicationrequest"]},"status":"active","intent":"order","category":[{"coding":[{"system":"http://terminology.hl7.org/CodeSystem/medicationrequest-category","code":"discharge","display":"Discharge"}]}],"medicationCodeableConcept":{"coding":[{"system":"http://www.nlm.nih.gov/research/umls/rxnorm","code":"1043022","display":"cefixime 100 MG Chewable Tablet","userSelected":true}]},"subject":{"reference":"Patient/29653a2e-80a4-45cd-98c7-f5296b4c3e0e"},"authoredOn":"2025-01-04T00:00:00.000Z","requester":{"reference":"Practitioner/example"}},"request":{"method":"PUT","url":"MedicationRequest/e165548c-ca66-4263-b27d-e2ffb54f09bc"}},{"fullUrl":"https://madie.cms.gov/Condition/Condition-3","resource":{"resourceType":"Condition","id":"bad25350-3f67-4078-9f84-54b8460e307d","meta":{"profile":["http://hl7.org/fhir/us/qicore/StructureDefinition/qicore-condition"]},"clinicalStatus":{"coding":[{"system":"http://terminology.hl7.org/CodeSystem/condition-clinical","code":"active"}]},"category":[{"coding":[{"system":"http://terminology.hl7.org/CodeSystem/condition-category","code":"problem-list-item","display":"Problem List Item"}]}],"code":{"coding":[{"system":"http://snomed.info/sct","code":"1532007","display":"Viral pharyngitis (disorder)"}]},"subject":{"reference":"Patient/29653a2e-80a4-45cd-98c7-f5296b4c3e0e"},"onsetDateTime":"2025-01-02T00:00:00.000Z"},"request":{"method":"PUT","url":"Condition/bad25350-3f67-4078-9f84-54b8460e307d"}},{"fullUrl":"https://madie.cms.gov/MedicationRequest/MedicationRequest-4","resource":{"resourceType":"MedicationRequest","id":"eff8ccd7-6ed9-4339-89b7-c3fc42e6ee83","meta":{"profile":["http://hl7.org/fhir/us/qicore/StructureDefinition/qicore-medicationrequest"]},"status":"active","intent":"order","category":[{"coding":[{"system":"http://terminology.hl7.org/CodeSystem/medicationrequest-category","code":"discharge","display":"Discharge"}]}],"medicationCodeableConcept":{"coding":[{"system":"http://www.nlm.nih.gov/research/umls/rxnorm","code":"1043022","display":"cefixime 100 MG Chewable Tablet","userSelected":true}]},"subject":{"reference":"Patient/29653a2e-80a4-45cd-98c7-f5296b4c3e0e"},"authoredOn":"2024-12-03T00:00:00.000Z","requester":{"reference":"Practitioner/example"},"dosageInstruction":[{"timing":{"repeat":{"boundsPeriod":{"start":"2024-12-03T00:00:00.000Z","end":"2025-01-01T00:00:00.000Z"}}}}]},"request":{"method":"PUT","url":"MedicationRequest/eff8ccd7-6ed9-4339-89b7-c3fc42e6ee83"}},{"fullUrl":"https://madie.cms.gov/MeasureReport/64023d85-7192-48cf-adc5-d3a3109a1048","resource":{"resourceType":"MeasureReport","id":"64023d85-7192-48cf-adc5-d3a3109a1048","meta":{"profile":["http://hl7.org/fhir/us/cqfmeasures/StructureDefinition/test-case-cqfm"]},"contained":[{"resourceType":"Parameters","id":"ca749254-4971-44c3-b1c8-d31dfbe87642-parameters","parameter":[{"name":"subject","valueString":"29653a2e-80a4-45cd-98c7-f5296b4c3e0e"}]}],"extension":[{"url":"http://hl7.org/fhir/us/cqfmeasures/StructureDefinition/cqfm-inputParameters","valueReference":{"reference":"#ca749254-4971-44c3-b1c8-d31dfbe87642-parameters"}},{"url":"http://hl7.org/fhir/us/cqfmeasures/StructureDefinition/cqfm-testCaseDescription","valueMarkdown":"Antibiotic medication 1 day before the qualifying encounters"}],"modifierExtension":[{"url":"http://hl7.org/fhir/us/cqfmeasures/StructureDefinition/cqfm-isTestCase","valueBoolean":true}],"status":"complete","type":"individual","measure":"https://madie.cms.gov/Measure/AppropriateTestingforPharyngitisFHIR","period":{"start":"2025-01-01","end":"2025-12-31"},"group":[{"population":[{"code":{"coding":[{"system":"http://terminology.hl7.org/CodeSystem/measure-population","code":"initial-population","display":"Initial Population"}]},"count":1},{"code":{"coding":[{"system":"http://terminology.hl7.org/CodeSystem/measure-population","code":"denominator","display":"Denominator"}]},"count":1},{"code":{"coding":[{"system":"http://terminology.hl7.org/CodeSystem/measure-population","code":"denominator-exclusion","display":"Denominator Exclusion"}]},"count":1},{"code":{"coding":[{"system":"http://terminology.hl7.org/CodeSystem/measure-population","code":"numerator","display":"Numerator"}]},"count":0}]}]},"request":{"method":"PUT","url":"MeasureReport/64023d85-7192-48cf-adc5-d3a3109a1048"}}]}