{
  "resourceType": "Bundle",
  "id": "63594c7a6aee9629c82981df",
  "type": "transaction",
  "entry": [ {
    "fullUrl": "https://madie.cms.gov/Patient/95edf017-7404-4318-83e6-58b31b7fc4c0",
    "resource": {
      "resourceType": "Patient",
      "id": "95edf017-7404-4318-83e6-58b31b7fc4c0",
      "meta": {
        "profile": [ "http://hl7.org/fhir/us/qicore/StructureDefinition/qicore-patient" ]
      },
      "text": {
        "status": "generated",
        "div": "<div xmlns=\"http://www.w3.org/1999/xhtml\"><div class=\"hapiHeaderText\">Risk_SubstanceAbuse <b>RISKPass </b></div><table class=\"hapiPropertyTable\"><tbody><tr><td>Date of birth</td><td><span>01 February 2004</span></td></tr></tbody></table></div>"
      },
      "extension": [ {
        "url": "http://hl7.org/fhir/us/core/StructureDefinition/us-core-race",
        "extension": [ {
          "url": "ombCategory",
          "valueCoding": {
            "system": "urn:oid:2.16.840.1.113883.6.238",
            "code": "1002-5",
            "display": "American Indian or Alaska Native",
            "userSelected": true
          }
        }, {
          "url": "text",
          "valueString": "American Indian or Alaska Native"
        } ]
      }, {
        "url": "http://hl7.org/fhir/us/core/StructureDefinition/us-core-ethnicity",
        "extension": [ {
          "url": "ombCategory",
          "valueCoding": {
            "system": "urn:oid:2.16.840.1.113883.6.238",
            "code": "2135-2",
            "display": "Hispanic or Latino",
            "userSelected": true
          }
        }, {
          "url": "text",
          "valueString": "Hispanic or Latino"
        } ]
      } ],
      "identifier": [ {
        "type": {
          "coding": [ {
            "system": "http://terminology.hl7.org/CodeSystem/v2-0203",
            "code": "MR"
          } ]
        },
        "system": "https://bonnie-fhir.healthit.gov/",
        "value": "63594c7a6aee9629c82981df"
      } ],
      "active": true,
      "name": [ {
        "use": "usual",
        "family": "RiskPass",
        "given": [ "Risk_SubstanceAbuse" ]
      } ],
      "gender": "female",
      "birthDate": "2004-02-01"
    },
    "request": {
      "method": "PUT",
      "url": "Patient/95edf017-7404-4318-83e6-58b31b7fc4c0"
    }
  }, {
    "fullUrl": "https://madie.cms.gov/Observation/157615e3-4ff9-46ce-9950-b0c883706b57",
    "resource": {
      "resourceType": "Observation",
      "id": "157615e3-4ff9-46ce-9950-b0c883706b57",
      "meta": {
        "profile": [ "http://hl7.org/fhir/us/qicore/StructureDefinition/qicore-observation" ]
      },
      "status": "final",
      "category": [ {
        "coding": [ {
          "system": "http://terminology.hl7.org/CodeSystem/observation-category",
          "code": "exam",
          "display": "exam",
          "userSelected": true
        } ]
      } ],
      "code": {
        "coding": [ {
          "system": "http://loinc.org",
          "code": "93857-1"
        } ]
      },
      "subject": {
        "reference": "Patient/95edf017-7404-4318-83e6-58b31b7fc4c0"
      },
      "effectiveDateTime": "2025-02-01T08:00:00.000+00:00",
      "valueDateTime": "2025-02-01T08:00:00+00:00"
    },
    "request": {
      "method": "PUT",
      "url": "Observation/157615e3-4ff9-46ce-9950-b0c883706b57"
    }
  }, {
    "fullUrl": "https://madie.cms.gov/Observation/3f64ade4-f2ab-40c1-a18e-937d270d78db",
    "resource": {
      "resourceType": "Observation",
      "id": "3f64ade4-f2ab-40c1-a18e-937d270d78db",
      "meta": {
        "profile": [ "http://hl7.org/fhir/us/qicore/StructureDefinition/qicore-observation" ]
      },
      "status": "final",
      "category": [ {
        "coding": [ {
          "system": "http://terminology.hl7.org/CodeSystem/observation-category",
          "code": "exam",
          "display": "exam",
          "userSelected": true
        } ]
      } ],
      "code": {
        "coding": [ {
          "system": "http://loinc.org",
          "code": "11778-8"
        } ]
      },
      "subject": {
        "reference": "Patient/95edf017-7404-4318-83e6-58b31b7fc4c0"
      },
      "effectiveDateTime": "2025-02-01T08:00:00.000+00:00",
      "valueDateTime": "2025-02-01T00:00:00.000+00:00"
    },
    "request": {
      "method": "PUT",
      "url": "Observation/3f64ade4-f2ab-40c1-a18e-937d270d78db"
    }
  }, {
    "fullUrl": "https://madie.cms.gov/Encounter/37fd29b1-3c36-4b0b-a69c-326a8bf86826",
    "resource": {
      "resourceType": "Encounter",
      "id": "37fd29b1-3c36-4b0b-a69c-326a8bf86826",
      "meta": {
        "profile": [ "http://hl7.org/fhir/us/qicore/StructureDefinition/qicore-encounter" ]
      },
      "status": "finished",
      "class": {
        "system": "http://terminology.hl7.org/CodeSystem/v3-ActCode",
        "code": "IMP",
        "display": "inpatient encounter"
      },
      "type": [ {
        "coding": [ {
          "system": "http://snomed.info/sct",
          "code": "183452005"
        } ]
      } ],
      "subject": {
        "reference": "Patient/95edf017-7404-4318-83e6-58b31b7fc4c0"
      },
      "period": {
        "start": "2025-02-01T08:00:00.000Z",
        "end": "2025-02-05T08:15:00.000Z"
      },
      "diagnosis": [ {
        "extension": [ {
          "url": "http://hl7.org/fhir/us/qicore/StructureDefinition/qicore-encounter-diagnosisPresentOnAdmission",
          "valueCodeableConcept": {
            "coding": [ {
              "system": "https://www.cms.gov/Medicare/Medicare-Fee-for-Service-Payment/HospitalAcqCond/Coding",
              "code": "Y"
            } ]
          }
        } ],
        "condition": {
          "reference": "Condition/4f79d297-70fe-4923-8dbd-03ceab12144b"
        }
      }, {
        "extension": [ {
          "url": "http://hl7.org/fhir/us/qicore/StructureDefinition/qicore-encounter-diagnosisPresentOnAdmission",
          "valueCodeableConcept": {
            "coding": [ {
              "system": "https://www.cms.gov/Medicare/Medicare-Fee-for-Service-Payment/HospitalAcqCond/Coding",
              "code": "N"
            } ]
          }
        } ],
        "condition": {
          "reference": "Condition/3b01dcea-b2d5-4b11-92ae-a1fcd46d4b08"
        }
      } ]
    },
    "request": {
      "method": "PUT",
      "url": "Encounter/37fd29b1-3c36-4b0b-a69c-326a8bf86826"
    }
  }, {
    "fullUrl": "https://madie.cms.gov/Procedure/e5931624-dad7-405f-bd49-905d42659d48",
    "resource": {
      "resourceType": "Procedure",
      "id": "e5931624-dad7-405f-bd49-905d42659d48",
      "meta": {
        "profile": [ "http://hl7.org/fhir/us/qicore/StructureDefinition/qicore-procedure" ]
      },
      "extension": [ {
        "url": "http://hl7.org/fhir/us/qicore/StructureDefinition/qicore-recorded",
        "valueDateTime": "2013-04-05T09:35:00-04:00"
      } ],
      "status": "completed",
      "code": {
        "coding": [ {
          "system": "http://snomed.info/sct",
          "code": "10745001"
        } ]
      },
      "subject": {
        "reference": "Patient/95edf017-7404-4318-83e6-58b31b7fc4c0"
      },
      "performedDateTime": "2025-02-01T08:00:00.000+00:00"
    },
    "request": {
      "method": "PUT",
      "url": "Procedure/e5931624-dad7-405f-bd49-905d42659d48"
    }
  }, {
    "fullUrl": "https://madie.cms.gov/Condition/3b01dcea-b2d5-4b11-92ae-a1fcd46d4b08",
    "resource": {
      "resourceType": "Condition",
      "id": "3b01dcea-b2d5-4b11-92ae-a1fcd46d4b08",
      "meta": {
        "profile": [ "http://hl7.org/fhir/us/qicore/StructureDefinition/qicore-condition" ]
      },
      "category": [ {
        "coding": [ {
          "system": "http://terminology.hl7.org/CodeSystem/condition-category",
          "code": "encounter-diagnosis",
          "display": "Encounter Diagnosis"
        } ]
      } ],
      "code": {
        "coding": [ {
          "system": "http://hl7.org/fhir/sid/icd-10-cm",
          "version": "2023",
          "code": "A32.7",
          "display": "Listerial sepsis",
          "userSelected": true
        } ]
      },
      "subject": {
        "reference": "Patient/95edf017-7404-4318-83e6-58b31b7fc4c0"
      },
      "recordedDate": "2025-10-26T08:00:00.000+00:00"
    },
    "request": {
      "method": "PUT",
      "url": "Condition/3b01dcea-b2d5-4b11-92ae-a1fcd46d4b08"
    }
  }, {
    "fullUrl": "https://madie.cms.gov/Condition/4f79d297-70fe-4923-8dbd-03ceab12144b",
    "resource": {
      "resourceType": "Condition",
      "id": "4f79d297-70fe-4923-8dbd-03ceab12144b",
      "meta": {
        "profile": [ "http://hl7.org/fhir/us/qicore/StructureDefinition/qicore-condition" ]
      },
      "category": [ {
        "coding": [ {
          "system": "http://terminology.hl7.org/CodeSystem/condition-category",
          "code": "encounter-diagnosis",
          "display": "Encounter Diagnosis"
        } ]
      } ],
      "code": {
        "coding": [ {
          "system": "http://hl7.org/fhir/sid/icd-10-cm",
          "version": "2023",
          "code": "F10.10",
          "display": "Thyrotoxicosis",
          "userSelected": true
        } ]
      },
      "subject": {
        "reference": "Patient/95edf017-7404-4318-83e6-58b31b7fc4c0"
      },
      "recordedDate": "2025-10-26T08:00:00.000+00:00"
    },
    "request": {
      "method": "PUT",
      "url": "Condition/4f79d297-70fe-4923-8dbd-03ceab12144b"
    }
  }, {
    "fullUrl": "https://madie.cms.gov/MeasureReport/52ee4782-d970-4a37-b14d-5434b35c24f2",
    "resource": {
      "resourceType": "MeasureReport",
      "id": "52ee4782-d970-4a37-b14d-5434b35c24f2",
      "meta": {
        "profile": [ "http://hl7.org/fhir/us/cqfmeasures/StructureDefinition/test-case-cqfm" ]
      },
      "contained": [ {
        "resourceType": "Parameters",
        "id": "094e82fd-6a4d-401b-a49a-17f33174624f-parameters",
        "parameter": [ {
          "name": "subject",
          "valueString": "95edf017-7404-4318-83e6-58b31b7fc4c0"
        } ]
      } ],
      "extension": [ {
        "url": "http://hl7.org/fhir/us/cqfmeasures/StructureDefinition/cqfm-inputParameters",
        "valueReference": {
          "reference": "#094e82fd-6a4d-401b-a49a-17f33174624f-parameters"
        }
      }, {
        "url": "http://hl7.org/fhir/us/cqfmeasures/StructureDefinition/cqfm-testCaseDescription",
        "valueMarkdown": "Risk variable of substance abuse.\n\n"
      } ],
      "modifierExtension": [ {
        "url": "http://hl7.org/fhir/us/cqfmeasures/StructureDefinition/cqfm-isTestCase",
        "valueBoolean": true
      } ],
      "status": "complete",
      "type": "individual",
      "measure": "https://madie.cms.gov/Measure/CMS1028FHIRPCSevereOBComps",
      "period": {
        "start": "2025-01-01",
        "end": "2025-12-31"
      },
      "group": [ {
        "population": [ {
          "code": {
            "coding": [ {
              "system": "http://terminology.hl7.org/CodeSystem/measure-population",
              "code": "initial-population",
              "display": "Initial Population"
            } ]
          },
          "count": 1
        }, {
          "code": {
            "coding": [ {
              "system": "http://terminology.hl7.org/CodeSystem/measure-population",
              "code": "denominator",
              "display": "Denominator"
            } ]
          },
          "count": 1
        }, {
          "code": {
            "coding": [ {
              "system": "http://terminology.hl7.org/CodeSystem/measure-population",
              "code": "numerator",
              "display": "Numerator"
            } ]
          },
          "count": 1
        }, {
          "code": {
            "coding": [ {
              "system": "http://terminology.hl7.org/CodeSystem/measure-population",
              "code": "numerator-exclusion",
              "display": "Numerator Exclusion"
            } ]
          },
          "count": 0
        } ]
      }, {
        "population": [ {
          "code": {
            "coding": [ {
              "system": "http://terminology.hl7.org/CodeSystem/measure-population",
              "code": "initial-population",
              "display": "Initial Population"
            } ]
          },
          "count": 1
        }, {
          "code": {
            "coding": [ {
              "system": "http://terminology.hl7.org/CodeSystem/measure-population",
              "code": "denominator",
              "display": "Denominator"
            } ]
          },
          "count": 1
        }, {
          "code": {
            "coding": [ {
              "system": "http://terminology.hl7.org/CodeSystem/measure-population",
              "code": "numerator",
              "display": "Numerator"
            } ]
          },
          "count": 1
        }, {
          "code": {
            "coding": [ {
              "system": "http://terminology.hl7.org/CodeSystem/measure-population",
              "code": "numerator-exclusion",
              "display": "Numerator Exclusion"
            } ]
          },
          "count": 0
        } ]
      } ],
      "evaluatedResource": [ {
        "reference": "Patient/95edf017-7404-4318-83e6-58b31b7fc4c0"
      }, {
        "reference": "Observation/157615e3-4ff9-46ce-9950-b0c883706b57"
      }, {
        "reference": "Observation/3f64ade4-f2ab-40c1-a18e-937d270d78db"
      }, {
        "reference": "Encounter/37fd29b1-3c36-4b0b-a69c-326a8bf86826"
      }, {
        "reference": "Procedure/e5931624-dad7-405f-bd49-905d42659d48"
      }, {
        "reference": "Condition/3b01dcea-b2d5-4b11-92ae-a1fcd46d4b08"
      }, {
        "reference": "Condition/4f79d297-70fe-4923-8dbd-03ceab12144b"
      } ]
    },
    "request": {
      "method": "PUT",
      "url": "MeasureReport/52ee4782-d970-4a37-b14d-5434b35c24f2"
    }
  } ]
}