{"resourceType":"Bundle","id":"tests-21d7f7e1-3977-4227-8792-2e316460326f-bundle","type":"transaction","entry":[{"fullUrl":"https://madie.cms.gov/Encounter/28c62120-b1e6-4066-b2e4-9d39e019cf7a","resource":{"resourceType":"Encounter","id":"28c62120-b1e6-4066-b2e4-9d39e019cf7a","meta":{"profile":["http://hl7.org/fhir/us/qicore/StructureDefinition/qicore-encounter"]},"status":"finished","class":{"system":"http://terminology.hl7.org/CodeSystem/v3-ActCode","code":"IMP","display":"inpatient encounter"},"type":[{"coding":[{"system":"http://snomed.info/sct","code":"183452005"}]}],"subject":{"reference":"Patient/21d7f7e1-3977-4227-8792-2e316460326f"},"period":{"start":"2026-11-09T11:00:00+00:00","end":"2026-11-12T08:15:00+00:00"},"diagnosis":[{"extension":[{"url":"http://hl7.org/fhir/us/qicore/StructureDefinition/qicore-encounter-diagnosisPresentOnAdmission","valueCodeableConcept":{"coding":[{"system":"https://www.cms.gov/Medicare/Medicare-Fee-for-Service-Payment/HospitalAcqCond/Coding","code":"Y"}]}}],"condition":{"reference":"Condition/3792276a-7bd2-469c-bd44-def33e412d11"}},{"extension":[{"url":"http://hl7.org/fhir/us/qicore/StructureDefinition/qicore-encounter-diagnosisPresentOnAdmission","valueCodeableConcept":{"coding":[{"system":"https://www.cms.gov/Medicare/Medicare-Fee-for-Service-Payment/HospitalAcqCond/Coding","code":"N"}]}}],"condition":{"reference":"Condition/ba39e716-c107-41ea-a922-019a7e2c52cf"}}]},"request":{"method":"PUT","url":"Encounter/28c62120-b1e6-4066-b2e4-9d39e019cf7a"}},{"fullUrl":"https://madie.cms.gov/Encounter/a5eb0d76-3a49-4f72-b97b-930fec35e1cb","resource":{"resourceType":"Encounter","id":"a5eb0d76-3a49-4f72-b97b-930fec35e1cb","meta":{"profile":["http://hl7.org/fhir/us/qicore/StructureDefinition/qicore-encounter"]},"status":"finished","class":{"system":"http://terminology.hl7.org/CodeSystem/v3-ActCode","code":"IMP","display":"inpatient encounter"},"type":[{"coding":[{"system":"http://snomed.info/sct","code":"4525004"}]}],"subject":{"reference":"Patient/21d7f7e1-3977-4227-8792-2e316460326f"},"period":{"start":"2026-11-09T08:00:00+00:00","end":"2026-11-09T10:15:00+00:00"}},"request":{"method":"PUT","url":"Encounter/a5eb0d76-3a49-4f72-b97b-930fec35e1cb"}},{"fullUrl":"https://madie.cms.gov/Condition/ba39e716-c107-41ea-a922-019a7e2c52cf","resource":{"resourceType":"Condition","id":"ba39e716-c107-41ea-a922-019a7e2c52cf","meta":{"profile":["http://hl7.org/fhir/us/qicore/StructureDefinition/qicore-condition"]},"clinicalStatus":{"coding":[{"system":"http://terminology.hl7.org/CodeSystem/condition-clinical","code":"active"}]},"verificationStatus":{"coding":[{"system":"http://terminology.hl7.org/CodeSystem/condition-ver-status","code":"confirmed"}]},"category":[{"coding":[{"system":"http://terminology.hl7.org/CodeSystem/condition-category","code":"encounter-diagnosis","display":"Encounter Diagnosis"}]}],"code":{"coding":[{"system":"http://hl7.org/fhir/sid/icd-10-cm","code":"S01.00XA"}]},"subject":{"reference":"Patient/21d7f7e1-3977-4227-8792-2e316460326f"},"encounter":{"reference":"Encounter/28c62120-b1e6-4066-b2e4-9d39e019cf7a"}},"request":{"method":"PUT","url":"Condition/ba39e716-c107-41ea-a922-019a7e2c52cf"}},{"fullUrl":"https://madie.cms.gov/Condition/3792276a-7bd2-469c-bd44-def33e412d11","resource":{"resourceType":"Condition","id":"3792276a-7bd2-469c-bd44-def33e412d11","meta":{"profile":["http://hl7.org/fhir/us/qicore/StructureDefinition/qicore-condition"]},"clinicalStatus":{"coding":[{"system":"http://terminology.hl7.org/CodeSystem/condition-clinical","code":"active"}]},"verificationStatus":{"coding":[{"system":"http://terminology.hl7.org/CodeSystem/condition-ver-status","code":"confirmed"}]},"category":[{"coding":[{"system":"http://terminology.hl7.org/CodeSystem/condition-category","code":"encounter-diagnosis","display":"Encounter Diagnosis"}]}],"code":{"coding":[{"system":"http://hl7.org/fhir/sid/icd-10-cm","code":"W08.XXXA"}]},"subject":{"reference":"Patient/21d7f7e1-3977-4227-8792-2e316460326f"},"encounter":{"reference":"Encounter/28c62120-b1e6-4066-b2e4-9d39e019cf7a"}},"request":{"method":"PUT","url":"Condition/3792276a-7bd2-469c-bd44-def33e412d11"}},{"fullUrl":"https://madie.cms.gov/Patient/21d7f7e1-3977-4227-8792-2e316460326f","resource":{"resourceType":"Patient","id":"21d7f7e1-3977-4227-8792-2e316460326f","meta":{"profile":["http://hl7.org/fhir/us/qicore/StructureDefinition/qicore-patient"]},"extension":[{"url":"http://hl7.org/fhir/us/core/StructureDefinition/us-core-race","extension":[{"url":"ombCategory","valueCoding":{"system":"urn:oid:2.16.840.1.113883.6.238","code":"2028-9","display":"Asian","userSelected":true}},{"url":"text","valueString":"Asian"}]},{"url":"http://hl7.org/fhir/us/core/StructureDefinition/us-core-ethnicity","extension":[{"url":"ombCategory","valueCoding":{"system":"urn:oid:2.16.840.1.113883.6.238","code":"2186-5","display":"Not Hispanic or Latino","userSelected":true}},{"url":"text","valueString":"Not Hispanic or Latino"}]}],"identifier":[{"type":{"coding":[{"system":"http://terminology.hl7.org/CodeSystem/v2-0203","code":"MR"}]},"system":"https://bonnie-fhir.healthit.gov/","value":"61152a3b98086b7a79cbd7c1"}],"active":true,"name":[{"use":"usual","family":"NUMEXPass","given":["FallPOAModInjuryNPOA"]}],"gender":"male","birthDate":"1992-09-09"},"request":{"method":"PUT","url":"Patient/21d7f7e1-3977-4227-8792-2e316460326f"}},{"fullUrl":"https://madie.cms.gov/MeasureReport/5f6e626a-3a46-4d8f-acd4-94049d8a641c","resource":{"resourceType":"MeasureReport","id":"5f6e626a-3a46-4d8f-acd4-94049d8a641c","meta":{"profile":["http://hl7.org/fhir/us/cqfmeasures/StructureDefinition/test-case-cqfm"]},"contained":[{"resourceType":"Parameters","id":"f360201b-a28d-45c6-85e2-7a7c75cebb3c-parameters","parameter":[{"name":"subject","valueString":"21d7f7e1-3977-4227-8792-2e316460326f"}]}],"extension":[{"url":"http://hl7.org/fhir/us/cqfmeasures/StructureDefinition/cqfm-inputParameters","valueReference":{"reference":"#f360201b-a28d-45c6-85e2-7a7c75cebb3c-parameters"}},{"url":"http://hl7.org/fhir/us/cqfmeasures/StructureDefinition/cqfm-testCaseDescription","valueMarkdown":"Encounter diagnoses include: Fall POA and Moderate injury NPOA. Fall POA meets Denominator and Numerator Exclusion."}],"modifierExtension":[{"url":"http://hl7.org/fhir/us/cqfmeasures/StructureDefinition/cqfm-isTestCase","valueBoolean":true}],"status":"complete","type":"individual","measure":"https://madie.cms.gov/Measure/FallsWithInjuryFHIR","period":{"start":"2026-01-01","end":"2026-12-31"},"group":[{"population":[{"code":{"coding":[{"system":"http://terminology.hl7.org/CodeSystem/measure-population","code":"initial-population","display":"Initial Population"}]},"count":1},{"code":{"coding":[{"system":"http://terminology.hl7.org/CodeSystem/measure-population","code":"denominator","display":"Denominator"}]},"count":1},{"code":{"coding":[{"system":"http://terminology.hl7.org/CodeSystem/measure-population","code":"denominator-exclusion","display":"Denominator Exclusion"}]},"count":1},{"code":{"coding":[{"system":"http://terminology.hl7.org/CodeSystem/measure-population","code":"numerator","display":"Numerator"}]},"count":0},{"code":{"coding":[{"system":"http://terminology.hl7.org/CodeSystem/measure-population","code":"numerator-exclusion","display":"Numerator Exclusion"}]},"count":1}]}]},"request":{"method":"PUT","url":"MeasureReport/5f6e626a-3a46-4d8f-acd4-94049d8a641c"}}]}