{"resourceType":"Bundle","id":"tests-4072632a-ac96-4971-9de1-3a4ef4da3249-bundle","type":"transaction","entry":[{"fullUrl":"https://madie.cms.gov/Encounter/31bd80fe-28d2-4d6a-8a7f-04c39fad5d9d","resource":{"resourceType":"Encounter","id":"31bd80fe-28d2-4d6a-8a7f-04c39fad5d9d","meta":{"profile":["http://hl7.org/fhir/us/qicore/StructureDefinition/qicore-encounter"]},"status":"finished","class":{"system":"http://terminology.hl7.org/CodeSystem/v3-ActCode","code":"IMP","display":"inpatient encounter"},"type":[{"coding":[{"system":"http://snomed.info/sct","code":"183452005"}]}],"subject":{"reference":"Patient/4072632a-ac96-4971-9de1-3a4ef4da3249"},"period":{"start":"2026-11-09T11:00:00+00:00","end":"2026-11-12T08:15:00+00:00"},"diagnosis":[{"condition":{"reference":"Condition/8244968c-c483-49f0-a4e9-95ac293a76fb"}},{"condition":{"reference":"Condition/ddd41288-857c-4861-89a2-87c270efa6f5"}}]},"request":{"method":"PUT","url":"Encounter/31bd80fe-28d2-4d6a-8a7f-04c39fad5d9d"}},{"fullUrl":"https://madie.cms.gov/Encounter/3c39c278-cf93-4fbc-91e2-6ff62e9ea5c2","resource":{"resourceType":"Encounter","id":"3c39c278-cf93-4fbc-91e2-6ff62e9ea5c2","meta":{"profile":["http://hl7.org/fhir/us/qicore/StructureDefinition/qicore-encounter"]},"status":"finished","class":{"system":"http://terminology.hl7.org/CodeSystem/v3-ActCode","code":"IMP","display":"inpatient encounter"},"type":[{"coding":[{"system":"http://snomed.info/sct","code":"4525004"}]}],"subject":{"reference":"Patient/4072632a-ac96-4971-9de1-3a4ef4da3249"},"period":{"start":"2026-11-09T08:00:00+00:00","end":"2026-11-09T10:15:00+00:00"}},"request":{"method":"PUT","url":"Encounter/3c39c278-cf93-4fbc-91e2-6ff62e9ea5c2"}},{"fullUrl":"https://madie.cms.gov/Condition/ddd41288-857c-4861-89a2-87c270efa6f5","resource":{"resourceType":"Condition","id":"ddd41288-857c-4861-89a2-87c270efa6f5","meta":{"profile":["http://hl7.org/fhir/us/qicore/StructureDefinition/qicore-condition"]},"clinicalStatus":{"coding":[{"system":"http://terminology.hl7.org/CodeSystem/condition-clinical","code":"active"}]},"verificationStatus":{"coding":[{"system":"http://terminology.hl7.org/CodeSystem/condition-ver-status","code":"confirmed"}]},"category":[{"coding":[{"system":"http://terminology.hl7.org/CodeSystem/condition-category","code":"encounter-diagnosis","display":"Encounter Diagnosis"}]}],"code":{"coding":[{"system":"http://snomed.info/sct","code":"217173005"}]},"subject":{"reference":"Patient/4072632a-ac96-4971-9de1-3a4ef4da3249"},"encounter":{"reference":"Encounter/31bd80fe-28d2-4d6a-8a7f-04c39fad5d9d"}},"request":{"method":"PUT","url":"Condition/ddd41288-857c-4861-89a2-87c270efa6f5"}},{"fullUrl":"https://madie.cms.gov/Condition/8244968c-c483-49f0-a4e9-95ac293a76fb","resource":{"resourceType":"Condition","id":"8244968c-c483-49f0-a4e9-95ac293a76fb","meta":{"profile":["http://hl7.org/fhir/us/qicore/StructureDefinition/qicore-condition"]},"clinicalStatus":{"coding":[{"system":"http://terminology.hl7.org/CodeSystem/condition-clinical","code":"active"}]},"verificationStatus":{"coding":[{"system":"http://terminology.hl7.org/CodeSystem/condition-ver-status","code":"confirmed"}]},"category":[{"coding":[{"system":"http://terminology.hl7.org/CodeSystem/condition-category","code":"encounter-diagnosis","display":"Encounter Diagnosis"}]}],"code":{"coding":[{"system":"http://hl7.org/fhir/sid/icd-10-cm","code":"M80.00XA"}]},"subject":{"reference":"Patient/4072632a-ac96-4971-9de1-3a4ef4da3249"},"encounter":{"reference":"Encounter/31bd80fe-28d2-4d6a-8a7f-04c39fad5d9d"}},"request":{"method":"PUT","url":"Condition/8244968c-c483-49f0-a4e9-95ac293a76fb"}},{"fullUrl":"https://madie.cms.gov/Patient/4072632a-ac96-4971-9de1-3a4ef4da3249","resource":{"resourceType":"Patient","id":"4072632a-ac96-4971-9de1-3a4ef4da3249","meta":{"profile":["http://hl7.org/fhir/us/qicore/StructureDefinition/qicore-patient"]},"extension":[{"url":"http://hl7.org/fhir/us/core/StructureDefinition/us-core-race","extension":[{"url":"ombCategory","valueCoding":{"system":"urn:oid:2.16.840.1.113883.6.238","code":"2028-9","display":"Asian","userSelected":true}},{"url":"text","valueString":"Asian"}]},{"url":"http://hl7.org/fhir/us/core/StructureDefinition/us-core-ethnicity","extension":[{"url":"ombCategory","valueCoding":{"system":"urn:oid:2.16.840.1.113883.6.238","code":"2186-5","display":"Not Hispanic or Latino","userSelected":true}},{"url":"text","valueString":"Not Hispanic or Latino"}]}],"identifier":[{"type":{"coding":[{"system":"http://terminology.hl7.org/CodeSystem/v2-0203","code":"MR"}]},"system":"https://bonnie-fhir.healthit.gov/","value":"61152a3b98086b7a79cbd7c1"}],"active":true,"name":[{"use":"usual","family":"NUMERPass","given":["FallAndInjuryDiagWithNullPOAInd"]}],"gender":"male","birthDate":"2000-09-09"},"request":{"method":"PUT","url":"Patient/4072632a-ac96-4971-9de1-3a4ef4da3249"}},{"fullUrl":"https://madie.cms.gov/MeasureReport/e33adea8-55ab-4060-b93c-5f5d224c82a7","resource":{"resourceType":"MeasureReport","id":"e33adea8-55ab-4060-b93c-5f5d224c82a7","meta":{"profile":["http://hl7.org/fhir/us/cqfmeasures/StructureDefinition/test-case-cqfm"]},"contained":[{"resourceType":"Parameters","id":"829ac664-1ac2-43d3-8f43-e6fa55428a41-parameters","parameter":[{"name":"subject","valueString":"4072632a-ac96-4971-9de1-3a4ef4da3249"}]}],"extension":[{"url":"http://hl7.org/fhir/us/cqfmeasures/StructureDefinition/cqfm-inputParameters","valueReference":{"reference":"#829ac664-1ac2-43d3-8f43-e6fa55428a41-parameters"}},{"url":"http://hl7.org/fhir/us/cqfmeasures/StructureDefinition/cqfm-testCaseDescription","valueMarkdown":"Encounter diagnoses include: Injury and Fall. POA indicator for both is null.  \nMeets Numerator. "}],"modifierExtension":[{"url":"http://hl7.org/fhir/us/cqfmeasures/StructureDefinition/cqfm-isTestCase","valueBoolean":true}],"status":"complete","type":"individual","measure":"https://madie.cms.gov/Measure/FallsWithInjuryFHIR","period":{"start":"2026-01-01","end":"2026-12-31"},"group":[{"population":[{"code":{"coding":[{"system":"http://terminology.hl7.org/CodeSystem/measure-population","code":"initial-population","display":"Initial Population"}]},"count":1},{"code":{"coding":[{"system":"http://terminology.hl7.org/CodeSystem/measure-population","code":"denominator","display":"Denominator"}]},"count":1},{"code":{"coding":[{"system":"http://terminology.hl7.org/CodeSystem/measure-population","code":"denominator-exclusion","display":"Denominator Exclusion"}]},"count":0},{"code":{"coding":[{"system":"http://terminology.hl7.org/CodeSystem/measure-population","code":"numerator","display":"Numerator"}]},"count":1},{"code":{"coding":[{"system":"http://terminology.hl7.org/CodeSystem/measure-population","code":"numerator-exclusion","display":"Numerator Exclusion"}]},"count":0},{"code":{"coding":[{"system":"http://terminology.hl7.org/CodeSystem/measure-population","code":"denominator-observation","display":"DenominatorObservation"}]},"count":3},{"code":{"coding":[{"system":"http://terminology.hl7.org/CodeSystem/measure-population","code":"numerator-observation","display":"Numerator Observation"}]},"count":1}]}]},"request":{"method":"PUT","url":"MeasureReport/e33adea8-55ab-4060-b93c-5f5d224c82a7"}}]}