{"resourceType":"Bundle","id":"tests-212537db-1b4e-47ae-93b0-211f0e910306-bundle","type":"transaction","entry":[{"fullUrl":"https://madie.cms.gov/Encounter/27d57cf1-0829-4df7-a417-bae681dbb0ae","resource":{"resourceType":"Encounter","id":"27d57cf1-0829-4df7-a417-bae681dbb0ae","meta":{"profile":["http://hl7.org/fhir/us/qicore/StructureDefinition/qicore-encounter"]},"status":"finished","class":{"system":"http://terminology.hl7.org/CodeSystem/v3-ActCode","code":"IMP","display":"inpatient encounter"},"type":[{"coding":[{"system":"http://snomed.info/sct","code":"183452005"}]}],"subject":{"reference":"Patient/212537db-1b4e-47ae-93b0-211f0e910306"},"period":{"start":"2026-11-09T11:00:00+00:00","end":"2026-11-12T08:15:00+00:00"},"diagnosis":[{"extension":[{"url":"http://hl7.org/fhir/us/qicore/StructureDefinition/qicore-encounter-diagnosisPresentOnAdmission","valueCodeableConcept":{"coding":[{"system":"https://www.cms.gov/Medicare/Medicare-Fee-for-Service-Payment/HospitalAcqCond/Coding","code":"N"}]}}],"condition":{"reference":"Condition/41954456-2bde-4078-833a-1aa19708f6e7"}},{"condition":{"reference":"Condition/08d823bf-0e7a-4c2c-8b71-910caecffe1e"}}]},"request":{"method":"PUT","url":"Encounter/27d57cf1-0829-4df7-a417-bae681dbb0ae"}},{"fullUrl":"https://madie.cms.gov/Encounter/1287cf4d-c15a-4677-903e-5b8d5214ec58","resource":{"resourceType":"Encounter","id":"1287cf4d-c15a-4677-903e-5b8d5214ec58","meta":{"profile":["http://hl7.org/fhir/us/qicore/StructureDefinition/qicore-encounter"]},"status":"finished","class":{"system":"http://terminology.hl7.org/CodeSystem/v3-ActCode","code":"IMP","display":"inpatient encounter"},"type":[{"coding":[{"system":"http://snomed.info/sct","code":"4525004"}]}],"subject":{"reference":"Patient/212537db-1b4e-47ae-93b0-211f0e910306"},"period":{"start":"2026-11-09T08:00:00+00:00","end":"2026-11-09T10:15:00+00:00"}},"request":{"method":"PUT","url":"Encounter/1287cf4d-c15a-4677-903e-5b8d5214ec58"}},{"fullUrl":"https://madie.cms.gov/Condition/08d823bf-0e7a-4c2c-8b71-910caecffe1e","resource":{"resourceType":"Condition","id":"08d823bf-0e7a-4c2c-8b71-910caecffe1e","meta":{"profile":["http://hl7.org/fhir/us/qicore/StructureDefinition/qicore-condition"]},"clinicalStatus":{"coding":[{"system":"http://terminology.hl7.org/CodeSystem/condition-clinical","code":"active"}]},"verificationStatus":{"coding":[{"system":"http://terminology.hl7.org/CodeSystem/condition-ver-status","code":"confirmed"}]},"category":[{"coding":[{"system":"http://terminology.hl7.org/CodeSystem/condition-category","code":"encounter-diagnosis","display":"Encounter Diagnosis"}]}],"code":{"coding":[{"system":"http://hl7.org/fhir/sid/icd-10-cm","code":"W18.2XXA"}]},"subject":{"reference":"Patient/212537db-1b4e-47ae-93b0-211f0e910306"},"encounter":{"reference":"Encounter/27d57cf1-0829-4df7-a417-bae681dbb0ae"}},"request":{"method":"PUT","url":"Condition/08d823bf-0e7a-4c2c-8b71-910caecffe1e"}},{"fullUrl":"https://madie.cms.gov/Condition/41954456-2bde-4078-833a-1aa19708f6e7","resource":{"resourceType":"Condition","id":"41954456-2bde-4078-833a-1aa19708f6e7","meta":{"profile":["http://hl7.org/fhir/us/qicore/StructureDefinition/qicore-condition"]},"clinicalStatus":{"coding":[{"system":"http://terminology.hl7.org/CodeSystem/condition-clinical","code":"active"}]},"verificationStatus":{"coding":[{"system":"http://terminology.hl7.org/CodeSystem/condition-ver-status","code":"confirmed"}]},"category":[{"coding":[{"system":"http://terminology.hl7.org/CodeSystem/condition-category","code":"encounter-diagnosis","display":"Encounter Diagnosis"}]}],"code":{"coding":[{"system":"http://hl7.org/fhir/sid/icd-10-cm","code":"S01.00XA"}]},"subject":{"reference":"Patient/212537db-1b4e-47ae-93b0-211f0e910306"},"encounter":{"reference":"Encounter/27d57cf1-0829-4df7-a417-bae681dbb0ae"}},"request":{"method":"PUT","url":"Condition/41954456-2bde-4078-833a-1aa19708f6e7"}},{"fullUrl":"https://madie.cms.gov/Patient/212537db-1b4e-47ae-93b0-211f0e910306","resource":{"resourceType":"Patient","id":"212537db-1b4e-47ae-93b0-211f0e910306","meta":{"profile":["http://hl7.org/fhir/us/qicore/StructureDefinition/qicore-patient"]},"extension":[{"url":"http://hl7.org/fhir/us/core/StructureDefinition/us-core-race","extension":[{"url":"ombCategory","valueCoding":{"system":"urn:oid:2.16.840.1.113883.6.238","code":"2028-9","display":"Asian","userSelected":true}},{"url":"text","valueString":"Asian"}]},{"url":"http://hl7.org/fhir/us/core/StructureDefinition/us-core-ethnicity","extension":[{"url":"ombCategory","valueCoding":{"system":"urn:oid:2.16.840.1.113883.6.238","code":"2186-5","display":"Not Hispanic or Latino","userSelected":true}},{"url":"text","valueString":"Not Hispanic or Latino"}]}],"identifier":[{"type":{"coding":[{"system":"http://terminology.hl7.org/CodeSystem/v2-0203","code":"MR"}]},"system":"https://bonnie-fhir.healthit.gov/","value":"61152a3b98086b7a79cbd7c1"}],"active":true,"name":[{"use":"usual","family":"NUMERPass","given":["DxFallPOAIndicatorIsNullInjuryDxNPOA"]}],"gender":"male","birthDate":"2000-09-09"},"request":{"method":"PUT","url":"Patient/212537db-1b4e-47ae-93b0-211f0e910306"}},{"fullUrl":"https://madie.cms.gov/MeasureReport/017c6842-bd6d-4eb2-9719-0243d8444a24","resource":{"resourceType":"MeasureReport","id":"017c6842-bd6d-4eb2-9719-0243d8444a24","meta":{"profile":["http://hl7.org/fhir/us/cqfmeasures/StructureDefinition/test-case-cqfm"]},"contained":[{"resourceType":"Parameters","id":"330a1ff4-1ebb-495a-8fd0-69df9cec0578-parameters","parameter":[{"name":"subject","valueString":"212537db-1b4e-47ae-93b0-211f0e910306"}]}],"extension":[{"url":"http://hl7.org/fhir/us/cqfmeasures/StructureDefinition/cqfm-inputParameters","valueReference":{"reference":"#330a1ff4-1ebb-495a-8fd0-69df9cec0578-parameters"}},{"url":"http://hl7.org/fhir/us/cqfmeasures/StructureDefinition/cqfm-testCaseDescription","valueMarkdown":"Encounter with diagnosis of fall but POA indicator is null.  Encounter diagnosis of injury is NPOA, but since dx of fall doesn't have a POA indicator is meets Numerator. "}],"modifierExtension":[{"url":"http://hl7.org/fhir/us/cqfmeasures/StructureDefinition/cqfm-isTestCase","valueBoolean":true}],"status":"complete","type":"individual","measure":"https://madie.cms.gov/Measure/FallsWithInjuryFHIR","period":{"start":"2026-01-01","end":"2026-12-31"},"group":[{"population":[{"code":{"coding":[{"system":"http://terminology.hl7.org/CodeSystem/measure-population","code":"initial-population","display":"Initial Population"}]},"count":1},{"code":{"coding":[{"system":"http://terminology.hl7.org/CodeSystem/measure-population","code":"denominator","display":"Denominator"}]},"count":1},{"code":{"coding":[{"system":"http://terminology.hl7.org/CodeSystem/measure-population","code":"denominator-exclusion","display":"Denominator Exclusion"}]},"count":0},{"code":{"coding":[{"system":"http://terminology.hl7.org/CodeSystem/measure-population","code":"numerator","display":"Numerator"}]},"count":1},{"code":{"coding":[{"system":"http://terminology.hl7.org/CodeSystem/measure-population","code":"numerator-exclusion","display":"Numerator Exclusion"}]},"count":0},{"code":{"coding":[{"system":"http://terminology.hl7.org/CodeSystem/measure-population","code":"denominator-observation","display":"DenominatorObservation"}]},"count":3},{"code":{"coding":[{"system":"http://terminology.hl7.org/CodeSystem/measure-population","code":"numerator-observation","display":"Numerator Observation"}]},"count":1}]}]},"request":{"method":"PUT","url":"MeasureReport/017c6842-bd6d-4eb2-9719-0243d8444a24"}}]}