{"resourceType":"Bundle","id":"tests-10004227-e020-4ef9-9b54-2c4c286866b4-bundle","type":"transaction","entry":[{"fullUrl":"https://madie.cms.gov/Encounter/5bcdc433-9257-44d4-8efc-d426b4ed7d1d","resource":{"resourceType":"Encounter","id":"5bcdc433-9257-44d4-8efc-d426b4ed7d1d","meta":{"profile":["http://hl7.org/fhir/us/qicore/StructureDefinition/qicore-encounter"]},"status":"finished","class":{"system":"http://terminology.hl7.org/CodeSystem/v3-ActCode","code":"IMP","display":"inpatient encounter"},"type":[{"coding":[{"system":"http://snomed.info/sct","code":"183452005"}]}],"subject":{"reference":"Patient/10004227-e020-4ef9-9b54-2c4c286866b4"},"period":{"start":"2026-11-09T11:00:00+00:00","end":"2026-11-12T08:15:00+00:00"},"diagnosis":[{"extension":[{"url":"http://hl7.org/fhir/us/qicore/StructureDefinition/qicore-encounter-diagnosisPresentOnAdmission","valueCodeableConcept":{"coding":[{"system":"https://www.cms.gov/Medicare/Medicare-Fee-for-Service-Payment/HospitalAcqCond/Coding","code":"N"}]}}],"condition":{"reference":"Condition/c7104ad5-1089-4409-b005-8d54732f5b1a"}}]},"request":{"method":"PUT","url":"Encounter/5bcdc433-9257-44d4-8efc-d426b4ed7d1d"}},{"fullUrl":"https://madie.cms.gov/Encounter/e0e52f41-030c-42be-806a-d575978ac601","resource":{"resourceType":"Encounter","id":"e0e52f41-030c-42be-806a-d575978ac601","meta":{"profile":["http://hl7.org/fhir/us/qicore/StructureDefinition/qicore-encounter"]},"status":"finished","class":{"system":"http://terminology.hl7.org/CodeSystem/v3-ActCode","code":"IMP","display":"inpatient encounter"},"type":[{"coding":[{"system":"http://snomed.info/sct","code":"4525004"}]}],"subject":{"reference":"Patient/10004227-e020-4ef9-9b54-2c4c286866b4"},"period":{"start":"2026-11-09T08:00:00+00:00","end":"2026-11-09T10:15:00+00:00"}},"request":{"method":"PUT","url":"Encounter/e0e52f41-030c-42be-806a-d575978ac601"}},{"fullUrl":"https://madie.cms.gov/Condition/c7104ad5-1089-4409-b005-8d54732f5b1a","resource":{"resourceType":"Condition","id":"c7104ad5-1089-4409-b005-8d54732f5b1a","meta":{"profile":["http://hl7.org/fhir/us/qicore/StructureDefinition/qicore-condition"]},"clinicalStatus":{"coding":[{"system":"http://terminology.hl7.org/CodeSystem/condition-clinical","code":"active"}]},"verificationStatus":{"coding":[{"system":"http://terminology.hl7.org/CodeSystem/condition-ver-status","code":"confirmed"}]},"category":[{"coding":[{"system":"http://terminology.hl7.org/CodeSystem/condition-category","code":"encounter-diagnosis","display":"Encounter Diagnosis"}]}],"code":{"coding":[{"system":"http://hl7.org/fhir/sid/icd-10-cm","code":"S01.00XA"}]},"subject":{"reference":"Patient/10004227-e020-4ef9-9b54-2c4c286866b4"},"encounter":{"reference":"Encounter/5bcdc433-9257-44d4-8efc-d426b4ed7d1d"}},"request":{"method":"PUT","url":"Condition/c7104ad5-1089-4409-b005-8d54732f5b1a"}},{"fullUrl":"https://madie.cms.gov/Patient/10004227-e020-4ef9-9b54-2c4c286866b4","resource":{"resourceType":"Patient","id":"10004227-e020-4ef9-9b54-2c4c286866b4","meta":{"profile":["http://hl7.org/fhir/us/qicore/StructureDefinition/qicore-patient"]},"extension":[{"url":"http://hl7.org/fhir/us/core/StructureDefinition/us-core-race","extension":[{"url":"ombCategory","valueCoding":{"system":"urn:oid:2.16.840.1.113883.6.238","code":"2054-5","display":"Black or African American","userSelected":true}},{"url":"text","valueString":"Black or African American"}]},{"url":"http://hl7.org/fhir/us/core/StructureDefinition/us-core-ethnicity","extension":[{"url":"ombCategory","valueCoding":{"system":"urn:oid:2.16.840.1.113883.6.238","code":"2186-5","display":"Not Hispanic or Latino","userSelected":true}},{"url":"text","valueString":"Not Hispanic or Latino"}]}],"identifier":[{"type":{"coding":[{"system":"http://terminology.hl7.org/CodeSystem/v2-0203","code":"MR"}]},"system":"https://bonnie-fhir.healthit.gov/","value":"61152a3b98086b7a79cbd7c1"}],"active":true,"name":[{"use":"usual","family":"NUMERPass","given":["2AdverseEventFalls1Enc"]}],"gender":"male","birthDate":"1964-12-11"},"request":{"method":"PUT","url":"Patient/10004227-e020-4ef9-9b54-2c4c286866b4"}},{"fullUrl":"https://madie.cms.gov/AdverseEvent/9eb01493-b27c-425e-93d8-1e386e28f557","resource":{"resourceType":"AdverseEvent","id":"9eb01493-b27c-425e-93d8-1e386e28f557","meta":{"profile":["http://hl7.org/fhir/us/qicore/StructureDefinition/qicore-adverseevent"]},"actuality":"actual","event":{"coding":[{"system":"http://snomed.info/sct","code":"14047009"}]},"subject":{"reference":"Patient/10004227-e020-4ef9-9b54-2c4c286866b4"},"date":"2026-11-11T08:00:00+00:00"},"request":{"method":"PUT","url":"AdverseEvent/9eb01493-b27c-425e-93d8-1e386e28f557"}},{"fullUrl":"https://madie.cms.gov/AdverseEvent/2c74fb77-c7e4-4747-81c2-6f31a53864ef","resource":{"resourceType":"AdverseEvent","id":"2c74fb77-c7e4-4747-81c2-6f31a53864ef","meta":{"profile":["http://hl7.org/fhir/us/qicore/StructureDefinition/qicore-adverseevent"]},"actuality":"actual","event":{"coding":[{"system":"http://hl7.org/fhir/sid/icd-10-cm","code":"W01.0XXA"}]},"subject":{"reference":"Patient/10004227-e020-4ef9-9b54-2c4c286866b4"},"date":"2026-11-10T08:00:00+00:00"},"request":{"method":"PUT","url":"AdverseEvent/2c74fb77-c7e4-4747-81c2-6f31a53864ef"}},{"fullUrl":"https://madie.cms.gov/MeasureReport/8a10f2b4-70a6-4091-a654-599a37498261","resource":{"resourceType":"MeasureReport","id":"8a10f2b4-70a6-4091-a654-599a37498261","meta":{"profile":["http://hl7.org/fhir/us/cqfmeasures/StructureDefinition/test-case-cqfm"]},"contained":[{"resourceType":"Parameters","id":"4fbfb3bf-d334-4fb8-8ce1-36dffa1397df-parameters","parameter":[{"name":"subject","valueString":"10004227-e020-4ef9-9b54-2c4c286866b4"}]}],"extension":[{"url":"http://hl7.org/fhir/us/cqfmeasures/StructureDefinition/cqfm-inputParameters","valueReference":{"reference":"#4fbfb3bf-d334-4fb8-8ce1-36dffa1397df-parameters"}},{"url":"http://hl7.org/fhir/us/cqfmeasures/StructureDefinition/cqfm-testCaseDescription","valueMarkdown":"Encounter with 2 adverse event falls during encounter, and encounter dx of injury NPOA. Although 2 falls, numerator = 1"}],"modifierExtension":[{"url":"http://hl7.org/fhir/us/cqfmeasures/StructureDefinition/cqfm-isTestCase","valueBoolean":true}],"status":"complete","type":"individual","measure":"https://madie.cms.gov/Measure/FallsWithInjuryFHIR","period":{"start":"2026-01-01","end":"2026-12-31"},"group":[{"population":[{"code":{"coding":[{"system":"http://terminology.hl7.org/CodeSystem/measure-population","code":"initial-population","display":"Initial Population"}]},"count":1},{"code":{"coding":[{"system":"http://terminology.hl7.org/CodeSystem/measure-population","code":"denominator","display":"Denominator"}]},"count":1},{"code":{"coding":[{"system":"http://terminology.hl7.org/CodeSystem/measure-population","code":"denominator-exclusion","display":"Denominator Exclusion"}]},"count":0},{"code":{"coding":[{"system":"http://terminology.hl7.org/CodeSystem/measure-population","code":"numerator","display":"Numerator"}]},"count":1},{"code":{"coding":[{"system":"http://terminology.hl7.org/CodeSystem/measure-population","code":"numerator-exclusion","display":"Numerator Exclusion"}]},"count":0},{"code":{"coding":[{"system":"http://terminology.hl7.org/CodeSystem/measure-population","code":"denominator-observation","display":"DenominatorObservation"}]},"count":3},{"code":{"coding":[{"system":"http://terminology.hl7.org/CodeSystem/measure-population","code":"numerator-observation","display":"Numerator Observation"}]},"count":1}]}]},"request":{"method":"PUT","url":"MeasureReport/8a10f2b4-70a6-4091-a654-599a37498261"}}]}