{"resourceType":"Bundle","id":"tests-38d7ec48-dc28-4875-8f24-451ecd3dab5a-bundle","type":"transaction","entry":[{"fullUrl":"https://madie.cms.gov/Encounter/c9080cc3-bb86-4c39-971d-f38ff74f2808","resource":{"resourceType":"Encounter","id":"c9080cc3-bb86-4c39-971d-f38ff74f2808","meta":{"profile":["http://hl7.org/fhir/us/qicore/StructureDefinition/qicore-encounter"]},"status":"finished","class":{"system":"http://terminology.hl7.org/CodeSystem/v3-ActCode","code":"IMP","display":"inpatient encounter"},"type":[{"coding":[{"system":"http://snomed.info/sct","code":"183452005"}]}],"subject":{"reference":"Patient/38d7ec48-dc28-4875-8f24-451ecd3dab5a"},"period":{"start":"2026-11-09T11:00:00+00:00","end":"2026-11-12T08:15:00+00:00"},"diagnosis":[{"condition":{"reference":"Condition/b2b345e7-4bce-42fa-9340-bf62b39f107c"}}]},"request":{"method":"PUT","url":"Encounter/c9080cc3-bb86-4c39-971d-f38ff74f2808"}},{"fullUrl":"https://madie.cms.gov/Encounter/f11f5091-cae6-4e61-9264-8a9dd2b6355c","resource":{"resourceType":"Encounter","id":"f11f5091-cae6-4e61-9264-8a9dd2b6355c","meta":{"profile":["http://hl7.org/fhir/us/qicore/StructureDefinition/qicore-encounter"]},"status":"finished","class":{"system":"http://terminology.hl7.org/CodeSystem/v3-ActCode","code":"IMP","display":"inpatient encounter"},"type":[{"coding":[{"system":"http://snomed.info/sct","code":"4525004"}]}],"subject":{"reference":"Patient/38d7ec48-dc28-4875-8f24-451ecd3dab5a"},"period":{"start":"2026-11-09T08:00:00+00:00","end":"2026-11-09T10:15:00+00:00"}},"request":{"method":"PUT","url":"Encounter/f11f5091-cae6-4e61-9264-8a9dd2b6355c"}},{"fullUrl":"https://madie.cms.gov/Condition/b2b345e7-4bce-42fa-9340-bf62b39f107c","resource":{"resourceType":"Condition","id":"b2b345e7-4bce-42fa-9340-bf62b39f107c","meta":{"profile":["http://hl7.org/fhir/us/qicore/StructureDefinition/qicore-condition"]},"clinicalStatus":{"coding":[{"system":"http://terminology.hl7.org/CodeSystem/condition-clinical","code":"active"}]},"verificationStatus":{"coding":[{"system":"http://terminology.hl7.org/CodeSystem/condition-ver-status","code":"confirmed"}]},"category":[{"coding":[{"system":"http://terminology.hl7.org/CodeSystem/condition-category","code":"encounter-diagnosis","display":"Encounter Diagnosis"}]}],"code":{"coding":[{"system":"http://hl7.org/fhir/sid/icd-10-cm","code":"S02.400B"}]},"subject":{"reference":"Patient/38d7ec48-dc28-4875-8f24-451ecd3dab5a"},"encounter":{"reference":"Encounter/c9080cc3-bb86-4c39-971d-f38ff74f2808"}},"request":{"method":"PUT","url":"Condition/b2b345e7-4bce-42fa-9340-bf62b39f107c"}},{"fullUrl":"https://madie.cms.gov/Patient/38d7ec48-dc28-4875-8f24-451ecd3dab5a","resource":{"resourceType":"Patient","id":"38d7ec48-dc28-4875-8f24-451ecd3dab5a","meta":{"profile":["http://hl7.org/fhir/us/qicore/StructureDefinition/qicore-patient"]},"extension":[{"url":"http://hl7.org/fhir/us/core/StructureDefinition/us-core-race","extension":[{"url":"ombCategory","valueCoding":{"system":"urn:oid:2.16.840.1.113883.6.238","code":"2054-5","display":"Black or African American","userSelected":true}},{"url":"text","valueString":"Black or African American"}]},{"url":"http://hl7.org/fhir/us/core/StructureDefinition/us-core-ethnicity","extension":[{"url":"ombCategory","valueCoding":{"system":"urn:oid:2.16.840.1.113883.6.238","code":"2186-5","display":"Not Hispanic or Latino","userSelected":true}},{"url":"text","valueString":"Not Hispanic or Latino"}]}],"identifier":[{"type":{"coding":[{"system":"http://terminology.hl7.org/CodeSystem/v2-0203","code":"MR"}]},"system":"https://bonnie-fhir.healthit.gov/","value":"61152a3b98086b7a79cbd7c1"}],"active":true,"name":[{"use":"usual","family":"NUMERFail","given":["InjuryNPOANoFall"]}],"gender":"male","birthDate":"1964-12-11"},"request":{"method":"PUT","url":"Patient/38d7ec48-dc28-4875-8f24-451ecd3dab5a"}},{"fullUrl":"https://madie.cms.gov/MeasureReport/080ced57-08d2-4529-8d6b-4639c9eea145","resource":{"resourceType":"MeasureReport","id":"080ced57-08d2-4529-8d6b-4639c9eea145","meta":{"profile":["http://hl7.org/fhir/us/cqfmeasures/StructureDefinition/test-case-cqfm"]},"contained":[{"resourceType":"Parameters","id":"47021761-9d05-4183-aed4-39facd6126eb-parameters","parameter":[{"name":"subject","valueString":"38d7ec48-dc28-4875-8f24-451ecd3dab5a"}]}],"extension":[{"url":"http://hl7.org/fhir/us/cqfmeasures/StructureDefinition/cqfm-inputParameters","valueReference":{"reference":"#47021761-9d05-4183-aed4-39facd6126eb-parameters"}},{"url":"http://hl7.org/fhir/us/cqfmeasures/StructureDefinition/cqfm-testCaseDescription","valueMarkdown":"Encounter diagnoses include a major injury NPOA but no fall. Numerator fails."}],"modifierExtension":[{"url":"http://hl7.org/fhir/us/cqfmeasures/StructureDefinition/cqfm-isTestCase","valueBoolean":true}],"status":"complete","type":"individual","measure":"https://madie.cms.gov/Measure/FallsWithInjuryFHIR","period":{"start":"2026-01-01","end":"2026-12-31"},"group":[{"population":[{"code":{"coding":[{"system":"http://terminology.hl7.org/CodeSystem/measure-population","code":"initial-population","display":"Initial Population"}]},"count":1},{"code":{"coding":[{"system":"http://terminology.hl7.org/CodeSystem/measure-population","code":"denominator","display":"Denominator"}]},"count":1},{"code":{"coding":[{"system":"http://terminology.hl7.org/CodeSystem/measure-population","code":"denominator-exclusion","display":"Denominator Exclusion"}]},"count":0},{"code":{"coding":[{"system":"http://terminology.hl7.org/CodeSystem/measure-population","code":"numerator","display":"Numerator"}]},"count":0},{"code":{"coding":[{"system":"http://terminology.hl7.org/CodeSystem/measure-population","code":"numerator-exclusion","display":"Numerator Exclusion"}]},"count":0},{"code":{"coding":[{"system":"http://terminology.hl7.org/CodeSystem/measure-population","code":"denominator-observation","display":"DenominatorObservation"}]},"count":3}]}]},"request":{"method":"PUT","url":"MeasureReport/080ced57-08d2-4529-8d6b-4639c9eea145"}}]}