{"resourceType":"Bundle","id":"tests-966cc666-8f6e-4d6e-93a9-0c4b6345e966-bundle","type":"transaction","entry":[{"fullUrl":"https://madie.cms.gov/Encounter/e3b00ff2-c31e-4a4c-97ad-57818faeb37a","resource":{"resourceType":"Encounter","id":"e3b00ff2-c31e-4a4c-97ad-57818faeb37a","meta":{"profile":["http://hl7.org/fhir/us/qicore/StructureDefinition/qicore-encounter"]},"status":"finished","class":{"system":"http://terminology.hl7.org/CodeSystem/v3-ActCode","code":"IMP","display":"inpatient encounter"},"type":[{"coding":[{"system":"http://snomed.info/sct","code":"183452005"}]}],"subject":{"reference":"Patient/966cc666-8f6e-4d6e-93a9-0c4b6345e966"},"period":{"start":"2026-11-09T11:00:00+00:00","end":"2026-11-13T08:15:00+00:00"},"diagnosis":[{"condition":{"reference":"Condition/a35f8379-05e7-4911-ba65-d978827a26a0"}},{"condition":{"reference":"Condition/97904db7-3932-41b7-b2e8-56642882b78d"}}]},"request":{"method":"PUT","url":"Encounter/e3b00ff2-c31e-4a4c-97ad-57818faeb37a"}},{"fullUrl":"https://madie.cms.gov/Encounter/21e84f80-d0d3-4dc9-ba67-eaa7aae6063f","resource":{"resourceType":"Encounter","id":"21e84f80-d0d3-4dc9-ba67-eaa7aae6063f","meta":{"profile":["http://hl7.org/fhir/us/qicore/StructureDefinition/qicore-encounter"]},"status":"finished","class":{"system":"http://terminology.hl7.org/CodeSystem/v3-ActCode","code":"IMP","display":"inpatient encounter"},"type":[{"coding":[{"system":"http://snomed.info/sct","code":"4525004"}]}],"subject":{"reference":"Patient/966cc666-8f6e-4d6e-93a9-0c4b6345e966"},"period":{"start":"2026-11-09T08:00:00+00:00","end":"2026-11-09T10:15:00+00:00"}},"request":{"method":"PUT","url":"Encounter/21e84f80-d0d3-4dc9-ba67-eaa7aae6063f"}},{"fullUrl":"https://madie.cms.gov/Condition/97904db7-3932-41b7-b2e8-56642882b78d","resource":{"resourceType":"Condition","id":"97904db7-3932-41b7-b2e8-56642882b78d","meta":{"profile":["http://hl7.org/fhir/us/qicore/StructureDefinition/qicore-condition"]},"clinicalStatus":{"coding":[{"system":"http://terminology.hl7.org/CodeSystem/condition-clinical","code":"active"}]},"verificationStatus":{"coding":[{"system":"http://terminology.hl7.org/CodeSystem/condition-ver-status","code":"confirmed"}]},"category":[{"coding":[{"system":"http://terminology.hl7.org/CodeSystem/condition-category","code":"encounter-diagnosis","display":"Encounter Diagnosis"}]}],"code":{"coding":[{"system":"http://hl7.org/fhir/sid/icd-10-cm","code":"W19.XXXA"}]},"subject":{"reference":"Patient/966cc666-8f6e-4d6e-93a9-0c4b6345e966"},"encounter":{"reference":"Encounter/e3b00ff2-c31e-4a4c-97ad-57818faeb37a"}},"request":{"method":"PUT","url":"Condition/97904db7-3932-41b7-b2e8-56642882b78d"}},{"fullUrl":"https://madie.cms.gov/Condition/a35f8379-05e7-4911-ba65-d978827a26a0","resource":{"resourceType":"Condition","id":"a35f8379-05e7-4911-ba65-d978827a26a0","meta":{"profile":["http://hl7.org/fhir/us/qicore/StructureDefinition/qicore-condition"]},"clinicalStatus":{"coding":[{"system":"http://terminology.hl7.org/CodeSystem/condition-clinical","code":"active"}]},"verificationStatus":{"coding":[{"system":"http://terminology.hl7.org/CodeSystem/condition-ver-status","code":"confirmed"}]},"category":[{"coding":[{"system":"http://terminology.hl7.org/CodeSystem/condition-category","code":"encounter-diagnosis","display":"Encounter Diagnosis"}]}],"code":{"coding":[{"system":"http://hl7.org/fhir/sid/icd-10-cm","code":"M80.00XA"}]},"subject":{"reference":"Patient/966cc666-8f6e-4d6e-93a9-0c4b6345e966"},"encounter":{"reference":"Encounter/e3b00ff2-c31e-4a4c-97ad-57818faeb37a"}},"request":{"method":"PUT","url":"Condition/a35f8379-05e7-4911-ba65-d978827a26a0"}},{"fullUrl":"https://madie.cms.gov/Patient/966cc666-8f6e-4d6e-93a9-0c4b6345e966","resource":{"resourceType":"Patient","id":"966cc666-8f6e-4d6e-93a9-0c4b6345e966","meta":{"profile":["http://hl7.org/fhir/us/qicore/StructureDefinition/qicore-patient"]},"extension":[{"url":"http://hl7.org/fhir/us/core/StructureDefinition/us-core-race","extension":[{"url":"ombCategory","valueCoding":{"system":"urn:oid:2.16.840.1.113883.6.238","code":"2028-9","display":"Asian","userSelected":true}},{"url":"text","valueString":"Asian"}]},{"url":"http://hl7.org/fhir/us/core/StructureDefinition/us-core-ethnicity","extension":[{"url":"ombCategory","valueCoding":{"system":"urn:oid:2.16.840.1.113883.6.238","code":"2186-5","display":"Not Hispanic or Latino","userSelected":true}},{"url":"text","valueString":"Not Hispanic or Latino"}]}],"identifier":[{"type":{"coding":[{"system":"http://terminology.hl7.org/CodeSystem/v2-0203","code":"MR"}]},"system":"https://bonnie-fhir.healthit.gov/","value":"61152a3b98086b7a79cbd7c1"}],"active":true,"name":[{"use":"usual","family":"NUMERPass","given":["FallNullPOAInjuryNullPOA"]}],"gender":"male","birthDate":"2000-09-09"},"request":{"method":"PUT","url":"Patient/966cc666-8f6e-4d6e-93a9-0c4b6345e966"}},{"fullUrl":"https://madie.cms.gov/MeasureReport/da0ea7ef-4512-4ade-91e4-6e6e9825b577","resource":{"resourceType":"MeasureReport","id":"da0ea7ef-4512-4ade-91e4-6e6e9825b577","meta":{"profile":["http://hl7.org/fhir/us/cqfmeasures/StructureDefinition/test-case-cqfm"]},"contained":[{"resourceType":"Parameters","id":"4fe5c503-f5b8-441c-b75c-72cfc0d0272a-parameters","parameter":[{"name":"subject","valueString":"966cc666-8f6e-4d6e-93a9-0c4b6345e966"}]}],"extension":[{"url":"http://hl7.org/fhir/us/cqfmeasures/StructureDefinition/cqfm-inputParameters","valueReference":{"reference":"#4fe5c503-f5b8-441c-b75c-72cfc0d0272a-parameters"}},{"url":"http://hl7.org/fhir/us/cqfmeasures/StructureDefinition/cqfm-testCaseDescription","valueMarkdown":"Encounter with Fall diag and injury diag both w/null POA flags. Unless POA flags explicitly indicate POA (e.g., N or U) then diagnosis is assumed to be not present on admission. \nMeets Numerator. "}],"modifierExtension":[{"url":"http://hl7.org/fhir/us/cqfmeasures/StructureDefinition/cqfm-isTestCase","valueBoolean":true}],"status":"complete","type":"individual","measure":"https://madie.cms.gov/Measure/FallsWithInjuryFHIR","period":{"start":"2026-01-01","end":"2026-12-31"},"group":[{"population":[{"code":{"coding":[{"system":"http://terminology.hl7.org/CodeSystem/measure-population","code":"initial-population","display":"Initial Population"}]},"count":1},{"code":{"coding":[{"system":"http://terminology.hl7.org/CodeSystem/measure-population","code":"denominator","display":"Denominator"}]},"count":1},{"code":{"coding":[{"system":"http://terminology.hl7.org/CodeSystem/measure-population","code":"denominator-exclusion","display":"Denominator Exclusion"}]},"count":0},{"code":{"coding":[{"system":"http://terminology.hl7.org/CodeSystem/measure-population","code":"numerator","display":"Numerator"}]},"count":1},{"code":{"coding":[{"system":"http://terminology.hl7.org/CodeSystem/measure-population","code":"numerator-exclusion","display":"Numerator Exclusion"}]},"count":0},{"code":{"coding":[{"system":"http://terminology.hl7.org/CodeSystem/measure-population","code":"denominator-observation","display":"DenominatorObservation"}]},"count":4},{"code":{"coding":[{"system":"http://terminology.hl7.org/CodeSystem/measure-population","code":"numerator-observation","display":"Numerator Observation"}]},"count":1}]}]},"request":{"method":"PUT","url":"MeasureReport/da0ea7ef-4512-4ade-91e4-6e6e9825b577"}}]}