{"resourceType":"Bundle","id":"tests-c04e2f24-703c-4999-a9b7-ca1d65aac5b5-bundle","type":"transaction","entry":[{"fullUrl":"https://madie.cms.gov/Encounter/fc31915e-6d08-47b4-8417-49d3e3f891a8","resource":{"resourceType":"Encounter","id":"fc31915e-6d08-47b4-8417-49d3e3f891a8","meta":{"profile":["http://hl7.org/fhir/us/qicore/StructureDefinition/qicore-encounter"]},"status":"finished","class":{"system":"http://terminology.hl7.org/CodeSystem/v3-ActCode","code":"IMP","display":"inpatient encounter"},"type":[{"coding":[{"system":"http://snomed.info/sct","code":"183452005"}]}],"subject":{"reference":"Patient/c04e2f24-703c-4999-a9b7-ca1d65aac5b5"},"period":{"start":"2026-11-12T08:00:00+00:00","end":"2026-11-13T07:59:00+00:00"}},"request":{"method":"PUT","url":"Encounter/fc31915e-6d08-47b4-8417-49d3e3f891a8"}},{"fullUrl":"https://madie.cms.gov/Patient/c04e2f24-703c-4999-a9b7-ca1d65aac5b5","resource":{"resourceType":"Patient","id":"c04e2f24-703c-4999-a9b7-ca1d65aac5b5","meta":{"profile":["http://hl7.org/fhir/us/qicore/StructureDefinition/qicore-patient"]},"extension":[{"url":"http://hl7.org/fhir/us/core/StructureDefinition/us-core-race","extension":[{"url":"ombCategory","valueCoding":{"system":"urn:oid:2.16.840.1.113883.6.238","code":"2054-5","display":"Black or African American","userSelected":true}},{"url":"text","valueString":"Black or African American"}]},{"url":"http://hl7.org/fhir/us/core/StructureDefinition/us-core-ethnicity","extension":[{"url":"ombCategory","valueCoding":{"system":"urn:oid:2.16.840.1.113883.6.238","code":"2186-5","display":"Not Hispanic or Latino","userSelected":true}},{"url":"text","valueString":"Not Hispanic or Latino"}]}],"identifier":[{"type":{"coding":[{"system":"http://terminology.hl7.org/CodeSystem/v2-0203","code":"MR"}]},"system":"https://bonnie-fhir.healthit.gov/","value":"61152a3b98086b7a79cbd7c1"}],"active":true,"name":[{"use":"usual","family":"OBSERVFail","given":["DenomMeasObsFailsLT1day"]}],"gender":"male","birthDate":"1964-12-11"},"request":{"method":"PUT","url":"Patient/c04e2f24-703c-4999-a9b7-ca1d65aac5b5"}},{"fullUrl":"https://madie.cms.gov/MeasureReport/812b54e9-de1b-4936-ba67-cffb3b4615b1","resource":{"resourceType":"MeasureReport","id":"812b54e9-de1b-4936-ba67-cffb3b4615b1","meta":{"profile":["http://hl7.org/fhir/us/cqfmeasures/StructureDefinition/test-case-cqfm"]},"contained":[{"resourceType":"Parameters","id":"6f5e3623-1cfe-4102-a684-071b5a788741-parameters","parameter":[{"name":"subject","valueString":"c04e2f24-703c-4999-a9b7-ca1d65aac5b5"}]}],"extension":[{"url":"http://hl7.org/fhir/us/cqfmeasures/StructureDefinition/cqfm-inputParameters","valueReference":{"reference":"#6f5e3623-1cfe-4102-a684-071b5a788741-parameters"}},{"url":"http://hl7.org/fhir/us/cqfmeasures/StructureDefinition/cqfm-testCaseDescription","valueMarkdown":"Sum of days (Denom Meas Obs) = 0. As expected. LOS < 1day."}],"modifierExtension":[{"url":"http://hl7.org/fhir/us/cqfmeasures/StructureDefinition/cqfm-isTestCase","valueBoolean":true}],"status":"complete","type":"individual","measure":"https://madie.cms.gov/Measure/FallsWithInjuryFHIR","period":{"start":"2026-01-01","end":"2026-12-31"},"group":[{"population":[{"code":{"coding":[{"system":"http://terminology.hl7.org/CodeSystem/measure-population","code":"initial-population","display":"Initial Population"}]},"count":1},{"code":{"coding":[{"system":"http://terminology.hl7.org/CodeSystem/measure-population","code":"denominator","display":"Denominator"}]},"count":1},{"code":{"coding":[{"system":"http://terminology.hl7.org/CodeSystem/measure-population","code":"denominator-exclusion","display":"Denominator Exclusion"}]},"count":0},{"code":{"coding":[{"system":"http://terminology.hl7.org/CodeSystem/measure-population","code":"numerator","display":"Numerator"}]},"count":0},{"code":{"coding":[{"system":"http://terminology.hl7.org/CodeSystem/measure-population","code":"numerator-exclusion","display":"Numerator Exclusion"}]},"count":0},{"code":{"coding":[{"system":"http://terminology.hl7.org/CodeSystem/measure-population","code":"denominator-observation","display":"DenominatorObservation"}]},"count":0}]}]},"request":{"method":"PUT","url":"MeasureReport/812b54e9-de1b-4936-ba67-cffb3b4615b1"}}]}