{
  "resourceType": "Bundle",
  "id": "612e6b3702c62a011f2ecee0",
  "type": "transaction",
  "entry": [ {
    "fullUrl": "https://madie.cms.gov/Patient/1b450176-8caa-4133-bc9a-c066969f72ce",
    "resource": {
      "resourceType": "Patient",
      "id": "1b450176-8caa-4133-bc9a-c066969f72ce",
      "meta": {
        "profile": [ "http://hl7.org/fhir/us/qicore/StructureDefinition/qicore-patient" ]
      },
      "text": {
        "status": "generated",
        "div": "<div xmlns=\"http://www.w3.org/1999/xhtml\"><div class=\"hapiHeaderText\">CMPerfRvltStartDayAFAdmEndNull <b>DENEXPASS </b></div><table class=\"hapiPropertyTable\"><tbody><tr><td>Identifier</td><td>8e120c670e34f79f329b985203cc966e</td></tr><tr><td>Date of birth</td><td><span>02 January 1974</span></td></tr></tbody></table></div>"
      },
      "extension": [ {
        "url": "http://hl7.org/fhir/us/core/StructureDefinition/us-core-race",
        "extension": [ {
          "url": "ombCategory",
          "valueCoding": {
            "system": "urn:oid:2.16.840.1.113883.6.238",
            "code": "1002-5",
            "display": "American Indian or Alaska Native",
            "userSelected": true
          }
        }, {
          "url": "text",
          "valueString": "American Indian or Alaska Native"
        } ]
      }, {
        "url": "http://hl7.org/fhir/us/core/StructureDefinition/us-core-ethnicity",
        "extension": [ {
          "url": "ombCategory",
          "valueCoding": {
            "system": "urn:oid:2.16.840.1.113883.6.238",
            "code": "2135-2",
            "display": "Hispanic or Latino",
            "userSelected": true
          }
        }, {
          "url": "text",
          "valueString": "Hispanic or Latino"
        } ]
      } ],
      "identifier": [ {
        "type": {
          "coding": [ {
            "system": "http://terminology.hl7.org/CodeSystem/v2-0203",
            "code": "MR"
          } ]
        },
        "system": "https://bonnie-fhir.healthit.gov/",
        "value": "612e6b3702c62a011f2ecee0"
      } ],
      "active": true,
      "name": [ {
        "use": "usual",
        "family": "DENEXPass",
        "given": [ "CMPerfRvltStartDayAFAdmEndNull" ]
      } ],
      "gender": "male",
      "birthDate": "1975-01-02"
    },
    "request": {
      "method": "PUT",
      "url": "Patient/1b450176-8caa-4133-bc9a-c066969f72ce"
    }
  }, {
    "fullUrl": "https://madie.cms.gov/Encounter/b79a5427-2483-4662-ad1f-2699c72ed2eb",
    "resource": {
      "resourceType": "Encounter",
      "id": "b79a5427-2483-4662-ad1f-2699c72ed2eb",
      "meta": {
        "profile": [ "http://hl7.org/fhir/us/qicore/StructureDefinition/qicore-encounter" ]
      },
      "status": "finished",
      "class": {
        "system": "http://terminology.hl7.org/CodeSystem/v3-ActCode",
        "code": "IMP",
        "display": "inpatient encounter"
      },
      "type": [ {
        "coding": [ {
          "system": "http://snomed.info/sct",
          "code": "8715000"
        } ]
      } ],
      "subject": {
        "reference": "Patient/1b450176-8caa-4133-bc9a-c066969f72ce"
      },
      "period": {
        "start": "2026-11-01T08:00:00+00:00",
        "end": "2026-11-26T08:15:00+00:00"
      },
      "length": {
        "value": 25.0,
        "unit": "days"
      }
    },
    "request": {
      "method": "PUT",
      "url": "Encounter/b79a5427-2483-4662-ad1f-2699c72ed2eb"
    }
  }, {
    "fullUrl": "https://madie.cms.gov/Procedure/91351b18-3be6-4cf6-811f-f15f16f9a607",
    "resource": {
      "resourceType": "Procedure",
      "id": "91351b18-3be6-4cf6-811f-f15f16f9a607",
      "meta": {
        "profile": [ "http://hl7.org/fhir/us/qicore/StructureDefinition/qicore-procedure" ]
      },
      "extension": [ {
        "url": "http://hl7.org/fhir/us/qicore/StructureDefinition/qicore-recorded",
        "valueDateTime": "2013-11-02T09:35:00-04:00"
      } ],
      "status": "completed",
      "code": {
        "coding": [ {
          "system": "http://snomed.info/sct",
          "code": "133918004"
        } ]
      },
      "subject": {
        "reference": "Patient/1b450176-8caa-4133-bc9a-c066969f72ce"
      },
      "performedPeriod": {
        "start": "2026-11-02T08:00:00+00:00"
      }
    },
    "request": {
      "method": "PUT",
      "url": "Procedure/91351b18-3be6-4cf6-811f-f15f16f9a607"
    }
  }, {
    "fullUrl": "https://madie.cms.gov/Coverage/b4f6487f-5eb3-4ff4-8a22-64f8734de9f5",
    "resource": {
      "resourceType": "Coverage",
      "id": "b4f6487f-5eb3-4ff4-8a22-64f8734de9f5",
      "status": "active",
      "beneficiary": {
        "reference": "Patient/1b450176-8caa-4133-bc9a-c066969f72ce"
      },
      "period": {
        "start": "1975-01-02T08:00:00+00:00"
      },
      "payor": [ {
        "reference": "Organization/165258ba-2775-48d9-bc5f-9813987201e2"
      } ]
    },
    "request": {
      "method": "PUT",
      "url": "Coverage/b4f6487f-5eb3-4ff4-8a22-64f8734de9f5"
    }
  }, {
    "fullUrl": "https://madie.cms.gov/Organization/165258ba-2775-48d9-bc5f-9813987201e2",
    "resource": {
      "resourceType": "Organization",
      "id": "165258ba-2775-48d9-bc5f-9813987201e2",
      "meta": {
        "profile": [ "http://hl7.org/fhir/us/qicore/StructureDefinition/qicore-organization" ]
      },
      "identifier": [ {
        "use": "temp",
        "system": "urn:oid:2.16.840.1.113883.4.4",
        "value": "21-3259825"
      } ],
      "active": true,
      "type": [ {
        "coding": [ {
          "system": "http://terminology.hl7.org/CodeSystem/organization-type",
          "code": "pay",
          "display": "Payer"
        } ]
      } ],
      "name": "Blue Cross Blue Shield of Texas",
      "telecom": [ {
        "system": "phone",
        "value": "(+1) 972-766-6900"
      } ],
      "address": [ {
        "use": "billing",
        "type": "postal",
        "line": [ "P.O. Box 660044" ],
        "city": "Dallas",
        "state": "TX",
        "postalCode": "75266-0044",
        "country": "USA"
      } ]
    },
    "request": {
      "method": "PUT",
      "url": "Organization/165258ba-2775-48d9-bc5f-9813987201e2"
    }
  }, {
    "fullUrl": "https://madie.cms.gov/Practitioner/0d2c06c8-dfa2-4d26-94e8-4cbf6ad1ee8c",
    "resource": {
      "resourceType": "Practitioner",
      "id": "0d2c06c8-dfa2-4d26-94e8-4cbf6ad1ee8c",
      "identifier": [ {
        "system": "http://hl7.org/fhir/sid/us-npi",
        "value": "123456"
      } ],
      "name": [ {
        "family": "Evil",
        "prefix": [ "Dr" ]
      } ]
    },
    "request": {
      "method": "PUT",
      "url": "Practitioner/0d2c06c8-dfa2-4d26-94e8-4cbf6ad1ee8c"
    }
  }, {
    "fullUrl": "https://madie.cms.gov/MeasureReport/c4d535f1-a047-494f-8bb9-2fdf0abade38",
    "resource": {
      "resourceType": "MeasureReport",
      "id": "c4d535f1-a047-494f-8bb9-2fdf0abade38",
      "meta": {
        "profile": [ "http://hl7.org/fhir/us/cqfmeasures/StructureDefinition/test-case-cqfm" ]
      },
      "contained": [ {
        "resourceType": "Parameters",
        "id": "e43c496a-d1ad-42bb-8496-1ab04e7c9848-parameters",
        "parameter": [ {
          "name": "subject",
          "valueString": "1b450176-8caa-4133-bc9a-c066969f72ce"
        } ]
      } ],
      "extension": [ {
        "url": "http://hl7.org/fhir/us/cqfmeasures/StructureDefinition/cqfm-inputParameters",
        "valueReference": {
          "reference": "#e43c496a-d1ad-42bb-8496-1ab04e7c9848-parameters"
        }
      }, {
        "url": "http://hl7.org/fhir/us/cqfmeasures/StructureDefinition/cqfm-testCaseDescription",
        "valueMarkdown": "comfort measures performed relevantPeriod start 1 day after IP encounter and ends null\n"
      } ],
      "modifierExtension": [ {
        "url": "http://hl7.org/fhir/us/cqfmeasures/StructureDefinition/cqfm-isTestCase",
        "valueBoolean": true
      } ],
      "status": "complete",
      "type": "individual",
      "measure": "https://madie.cms.gov/Measure/CMS108VTEProphylaxisFHIR",
      "period": {
        "start": "2026-01-01",
        "end": "2026-12-31"
      },
      "group": [ {
        "population": [ {
          "code": {
            "coding": [ {
              "system": "http://terminology.hl7.org/CodeSystem/measure-population",
              "code": "initial-population",
              "display": "Initial Population"
            } ]
          },
          "count": 1
        }, {
          "code": {
            "coding": [ {
              "system": "http://terminology.hl7.org/CodeSystem/measure-population",
              "code": "denominator",
              "display": "Denominator"
            } ]
          },
          "count": 1
        }, {
          "code": {
            "coding": [ {
              "system": "http://terminology.hl7.org/CodeSystem/measure-population",
              "code": "denominator-exclusion",
              "display": "Denominator Exclusion"
            } ]
          },
          "count": 1
        }, {
          "code": {
            "coding": [ {
              "system": "http://terminology.hl7.org/CodeSystem/measure-population",
              "code": "numerator",
              "display": "Numerator"
            } ]
          },
          "count": 0
        } ]
      } ],
      "evaluatedResource": [ {
        "reference": "Patient/1b450176-8caa-4133-bc9a-c066969f72ce"
      }, {
        "reference": "Encounter/b79a5427-2483-4662-ad1f-2699c72ed2eb"
      }, {
        "reference": "Procedure/91351b18-3be6-4cf6-811f-f15f16f9a607"
      }, {
        "reference": "Coverage/b4f6487f-5eb3-4ff4-8a22-64f8734de9f5"
      }, {
        "reference": "Organization/165258ba-2775-48d9-bc5f-9813987201e2"
      }, {
        "reference": "Practitioner/0d2c06c8-dfa2-4d26-94e8-4cbf6ad1ee8c"
      } ]
    },
    "request": {
      "method": "PUT",
      "url": "MeasureReport/c4d535f1-a047-494f-8bb9-2fdf0abade38"
    }
  } ]
}