{
  "resourceType": "Bundle",
  "id": "63594c7a6aee9629c82981df",
  "type": "transaction",
  "entry": [ {
    "fullUrl": "https://madie.cms.gov/Patient/50c2615d-0000-442c-92b1-3c3de55e19f7",
    "resource": {
      "resourceType": "Patient",
      "id": "50c2615d-0000-442c-92b1-3c3de55e19f7",
      "meta": {
        "profile": [ "http://hl7.org/fhir/us/qicore/StructureDefinition/qicore-patient" ]
      },
      "text": {
        "status": "generated",
        "div": "<div xmlns=\"http://www.w3.org/1999/xhtml\"><div class=\"hapiHeaderText\">Risk_AutoImmuneDisease<b>RISKPass </b></div><table class=\"hapiPropertyTable\"><tbody><tr><td>Date of birth</td><td><span>01 February 2004</span></td></tr></tbody></table></div>"
      },
      "extension": [ {
        "url": "http://hl7.org/fhir/us/core/StructureDefinition/us-core-race",
        "extension": [ {
          "url": "ombCategory",
          "valueCoding": {
            "system": "urn:oid:2.16.840.1.113883.6.238",
            "code": "1002-5",
            "display": "American Indian or Alaska Native",
            "userSelected": true
          }
        }, {
          "url": "text",
          "valueString": "American Indian or Alaska Native"
        } ]
      }, {
        "url": "http://hl7.org/fhir/us/core/StructureDefinition/us-core-ethnicity",
        "extension": [ {
          "url": "ombCategory",
          "valueCoding": {
            "system": "urn:oid:2.16.840.1.113883.6.238",
            "code": "2135-2",
            "display": "Hispanic or Latino",
            "userSelected": true
          }
        }, {
          "url": "text",
          "valueString": "Hispanic or Latino"
        } ]
      } ],
      "identifier": [ {
        "type": {
          "coding": [ {
            "system": "http://terminology.hl7.org/CodeSystem/v2-0203",
            "code": "MR"
          } ]
        },
        "system": "https://bonnie-fhir.healthit.gov/",
        "value": "63594c7a6aee9629c82981df"
      } ],
      "active": true,
      "name": [ {
        "use": "usual",
        "family": "RiskPass",
        "given": [ "Risk_AutoImmuneDisease" ]
      } ],
      "gender": "female",
      "birthDate": "2004-02-01"
    },
    "request": {
      "method": "PUT",
      "url": "Patient/50c2615d-0000-442c-92b1-3c3de55e19f7"
    }
  }, {
    "fullUrl": "https://madie.cms.gov/Observation/039e16a0-633c-4922-99d8-83d5db7b92b6",
    "resource": {
      "resourceType": "Observation",
      "id": "039e16a0-633c-4922-99d8-83d5db7b92b6",
      "meta": {
        "profile": [ "http://hl7.org/fhir/us/qicore/StructureDefinition/qicore-observation" ]
      },
      "status": "final",
      "category": [ {
        "coding": [ {
          "system": "http://terminology.hl7.org/CodeSystem/observation-category",
          "code": "exam",
          "display": "exam",
          "userSelected": true
        } ]
      } ],
      "code": {
        "coding": [ {
          "system": "http://loinc.org",
          "code": "93857-1"
        } ]
      },
      "subject": {
        "reference": "Patient/50c2615d-0000-442c-92b1-3c3de55e19f7"
      },
      "effectiveDateTime": "2025-02-01T08:00:00.000+00:00",
      "valueDateTime": "2025-02-01T08:00:00+00:00"
    },
    "request": {
      "method": "PUT",
      "url": "Observation/039e16a0-633c-4922-99d8-83d5db7b92b6"
    }
  }, {
    "fullUrl": "https://madie.cms.gov/Observation/31dd32ef-1935-4f20-97e5-6f8cd0f536c6",
    "resource": {
      "resourceType": "Observation",
      "id": "31dd32ef-1935-4f20-97e5-6f8cd0f536c6",
      "meta": {
        "profile": [ "http://hl7.org/fhir/us/qicore/StructureDefinition/qicore-observation" ]
      },
      "status": "final",
      "category": [ {
        "coding": [ {
          "system": "http://terminology.hl7.org/CodeSystem/observation-category",
          "code": "exam",
          "display": "exam",
          "userSelected": true
        } ]
      } ],
      "code": {
        "coding": [ {
          "system": "http://loinc.org",
          "code": "11778-8"
        } ]
      },
      "subject": {
        "reference": "Patient/50c2615d-0000-442c-92b1-3c3de55e19f7"
      },
      "effectiveDateTime": "2025-02-01T08:00:00.000+00:00",
      "valueDateTime": "2025-02-01T00:00:00.000+00:00"
    },
    "request": {
      "method": "PUT",
      "url": "Observation/31dd32ef-1935-4f20-97e5-6f8cd0f536c6"
    }
  }, {
    "fullUrl": "https://madie.cms.gov/Encounter/4deb72f1-5e91-46ed-b356-b87f322194e4",
    "resource": {
      "resourceType": "Encounter",
      "id": "4deb72f1-5e91-46ed-b356-b87f322194e4",
      "meta": {
        "profile": [ "http://hl7.org/fhir/us/qicore/StructureDefinition/qicore-encounter" ]
      },
      "status": "finished",
      "class": {
        "system": "http://terminology.hl7.org/CodeSystem/v3-ActCode",
        "code": "IMP",
        "display": "inpatient encounter"
      },
      "type": [ {
        "coding": [ {
          "system": "http://snomed.info/sct",
          "code": "183452005"
        } ]
      } ],
      "subject": {
        "reference": "Patient/50c2615d-0000-442c-92b1-3c3de55e19f7"
      },
      "period": {
        "start": "2025-02-01T08:00:00.000Z",
        "end": "2025-02-05T08:15:00.000Z"
      },
      "diagnosis": [ {
        "extension": [ {
          "url": "http://hl7.org/fhir/us/qicore/StructureDefinition/qicore-encounter-diagnosisPresentOnAdmission",
          "valueCodeableConcept": {
            "coding": [ {
              "system": "https://www.cms.gov/Medicare/Medicare-Fee-for-Service-Payment/HospitalAcqCond/Coding",
              "code": "Y"
            } ]
          }
        } ],
        "condition": {
          "reference": "Condition/e2f0c59d-8ac8-43ca-830c-e3aa4da8029d"
        }
      }, {
        "extension": [ {
          "url": "http://hl7.org/fhir/us/qicore/StructureDefinition/qicore-encounter-diagnosisPresentOnAdmission",
          "valueCodeableConcept": {
            "coding": [ {
              "system": "https://www.cms.gov/Medicare/Medicare-Fee-for-Service-Payment/HospitalAcqCond/Coding",
              "code": "N"
            } ]
          }
        } ],
        "condition": {
          "reference": "Condition/40fe6286-6b55-4aa3-b51a-e18fa7afb896"
        }
      } ]
    },
    "request": {
      "method": "PUT",
      "url": "Encounter/4deb72f1-5e91-46ed-b356-b87f322194e4"
    }
  }, {
    "fullUrl": "https://madie.cms.gov/Procedure/b279f04a-c83f-46ce-9ef2-897ceff43244",
    "resource": {
      "resourceType": "Procedure",
      "id": "b279f04a-c83f-46ce-9ef2-897ceff43244",
      "meta": {
        "profile": [ "http://hl7.org/fhir/us/qicore/StructureDefinition/qicore-procedure" ]
      },
      "extension": [ {
        "url": "http://hl7.org/fhir/us/qicore/StructureDefinition/qicore-recorded",
        "valueDateTime": "2013-04-05T09:35:00-04:00"
      } ],
      "status": "completed",
      "code": {
        "coding": [ {
          "system": "http://snomed.info/sct",
          "code": "10745001"
        } ]
      },
      "subject": {
        "reference": "Patient/50c2615d-0000-442c-92b1-3c3de55e19f7"
      },
      "performedDateTime": "2025-02-01T08:00:00.000+00:00"
    },
    "request": {
      "method": "PUT",
      "url": "Procedure/b279f04a-c83f-46ce-9ef2-897ceff43244"
    }
  }, {
    "fullUrl": "https://madie.cms.gov/Condition/40fe6286-6b55-4aa3-b51a-e18fa7afb896",
    "resource": {
      "resourceType": "Condition",
      "id": "40fe6286-6b55-4aa3-b51a-e18fa7afb896",
      "meta": {
        "profile": [ "http://hl7.org/fhir/us/qicore/StructureDefinition/qicore-condition" ]
      },
      "category": [ {
        "coding": [ {
          "system": "http://terminology.hl7.org/CodeSystem/condition-category",
          "code": "encounter-diagnosis",
          "display": "Encounter Diagnosis"
        } ]
      } ],
      "code": {
        "coding": [ {
          "system": "http://hl7.org/fhir/sid/icd-10-cm",
          "version": "2023",
          "code": "A32.7",
          "display": "Listerial sepsis",
          "userSelected": true
        } ]
      },
      "subject": {
        "reference": "Patient/50c2615d-0000-442c-92b1-3c3de55e19f7"
      },
      "recordedDate": "2025-10-26T08:00:00.000+00:00"
    },
    "request": {
      "method": "PUT",
      "url": "Condition/40fe6286-6b55-4aa3-b51a-e18fa7afb896"
    }
  }, {
    "fullUrl": "https://madie.cms.gov/Condition/e2f0c59d-8ac8-43ca-830c-e3aa4da8029d",
    "resource": {
      "resourceType": "Condition",
      "id": "e2f0c59d-8ac8-43ca-830c-e3aa4da8029d",
      "meta": {
        "profile": [ "http://hl7.org/fhir/us/qicore/StructureDefinition/qicore-condition" ]
      },
      "category": [ {
        "coding": [ {
          "system": "http://terminology.hl7.org/CodeSystem/condition-category",
          "code": "encounter-diagnosis",
          "display": "Encounter Diagnosis"
        } ]
      } ],
      "code": {
        "coding": [ {
          "system": "http://hl7.org/fhir/sid/icd-10-cm",
          "version": "2023",
          "code": "M30.0",
          "display": "Autoimmune Disease-81e0",
          "userSelected": true
        } ]
      },
      "subject": {
        "reference": "Patient/50c2615d-0000-442c-92b1-3c3de55e19f7"
      },
      "recordedDate": "2025-10-26T08:00:00.000+00:00"
    },
    "request": {
      "method": "PUT",
      "url": "Condition/e2f0c59d-8ac8-43ca-830c-e3aa4da8029d"
    }
  }, {
    "fullUrl": "https://madie.cms.gov/MeasureReport/fa531fb6-cff3-432a-b234-95758aabab08",
    "resource": {
      "resourceType": "MeasureReport",
      "id": "fa531fb6-cff3-432a-b234-95758aabab08",
      "meta": {
        "profile": [ "http://hl7.org/fhir/us/cqfmeasures/StructureDefinition/test-case-cqfm" ]
      },
      "contained": [ {
        "resourceType": "Parameters",
        "id": "d46c90f1-968a-4602-883b-6f83437c8717-parameters",
        "parameter": [ {
          "name": "subject",
          "valueString": "50c2615d-0000-442c-92b1-3c3de55e19f7"
        } ]
      } ],
      "extension": [ {
        "url": "http://hl7.org/fhir/us/cqfmeasures/StructureDefinition/cqfm-inputParameters",
        "valueReference": {
          "reference": "#d46c90f1-968a-4602-883b-6f83437c8717-parameters"
        }
      }, {
        "url": "http://hl7.org/fhir/us/cqfmeasures/StructureDefinition/cqfm-testCaseDescription",
        "valueMarkdown": "Risk variable of autoimmune disease.\n\n"
      } ],
      "modifierExtension": [ {
        "url": "http://hl7.org/fhir/us/cqfmeasures/StructureDefinition/cqfm-isTestCase",
        "valueBoolean": true
      } ],
      "status": "complete",
      "type": "individual",
      "measure": "https://madie.cms.gov/Measure/CMS1028FHIRPCSevereOBComps",
      "period": {
        "start": "2025-01-01",
        "end": "2025-12-31"
      },
      "group": [ {
        "population": [ {
          "code": {
            "coding": [ {
              "system": "http://terminology.hl7.org/CodeSystem/measure-population",
              "code": "initial-population",
              "display": "Initial Population"
            } ]
          },
          "count": 1
        }, {
          "code": {
            "coding": [ {
              "system": "http://terminology.hl7.org/CodeSystem/measure-population",
              "code": "denominator",
              "display": "Denominator"
            } ]
          },
          "count": 1
        }, {
          "code": {
            "coding": [ {
              "system": "http://terminology.hl7.org/CodeSystem/measure-population",
              "code": "numerator",
              "display": "Numerator"
            } ]
          },
          "count": 1
        }, {
          "code": {
            "coding": [ {
              "system": "http://terminology.hl7.org/CodeSystem/measure-population",
              "code": "numerator-exclusion",
              "display": "Numerator Exclusion"
            } ]
          },
          "count": 0
        } ]
      }, {
        "population": [ {
          "code": {
            "coding": [ {
              "system": "http://terminology.hl7.org/CodeSystem/measure-population",
              "code": "initial-population",
              "display": "Initial Population"
            } ]
          },
          "count": 1
        }, {
          "code": {
            "coding": [ {
              "system": "http://terminology.hl7.org/CodeSystem/measure-population",
              "code": "denominator",
              "display": "Denominator"
            } ]
          },
          "count": 1
        }, {
          "code": {
            "coding": [ {
              "system": "http://terminology.hl7.org/CodeSystem/measure-population",
              "code": "numerator",
              "display": "Numerator"
            } ]
          },
          "count": 1
        }, {
          "code": {
            "coding": [ {
              "system": "http://terminology.hl7.org/CodeSystem/measure-population",
              "code": "numerator-exclusion",
              "display": "Numerator Exclusion"
            } ]
          },
          "count": 0
        } ]
      } ],
      "evaluatedResource": [ {
        "reference": "Patient/50c2615d-0000-442c-92b1-3c3de55e19f7"
      }, {
        "reference": "Observation/039e16a0-633c-4922-99d8-83d5db7b92b6"
      }, {
        "reference": "Observation/31dd32ef-1935-4f20-97e5-6f8cd0f536c6"
      }, {
        "reference": "Encounter/4deb72f1-5e91-46ed-b356-b87f322194e4"
      }, {
        "reference": "Procedure/b279f04a-c83f-46ce-9ef2-897ceff43244"
      }, {
        "reference": "Condition/40fe6286-6b55-4aa3-b51a-e18fa7afb896"
      }, {
        "reference": "Condition/e2f0c59d-8ac8-43ca-830c-e3aa4da8029d"
      } ]
    },
    "request": {
      "method": "PUT",
      "url": "MeasureReport/fa531fb6-cff3-432a-b234-95758aabab08"
    }
  } ]
}