{
  "resourceType": "Bundle",
  "id": "6615806fdb207d74c03b8a5f",
  "type": "transaction",
  "entry": [ {
    "fullUrl": "https://madie.cms.gov/Patient/7fd4f9cd-8fbb-4935-9bfd-959c538166b2",
    "resource": {
      "resourceType": "Patient",
      "id": "7fd4f9cd-8fbb-4935-9bfd-959c538166b2",
      "meta": {
        "profile": [ "http://hl7.org/fhir/us/qicore/StructureDefinition/qicore-patient" ]
      },
      "extension": [ {
        "url": "http://hl7.org/fhir/us/core/StructureDefinition/us-core-race",
        "extension": [ {
          "url": "ombCategory",
          "valueCoding": {
            "system": "urn:oid:2.16.840.1.113883.6.238",
            "code": "1002-5",
            "display": "American Indian or Alaska Native",
            "userSelected": true
          }
        }, {
          "url": "text",
          "valueString": "American Indian or Alaska Native"
        } ]
      }, {
        "url": "http://hl7.org/fhir/us/core/StructureDefinition/us-core-ethnicity",
        "extension": [ {
          "url": "ombCategory",
          "valueCoding": {
            "system": "urn:oid:2.16.840.1.113883.6.238",
            "code": "2135-2",
            "display": "Hispanic or Latino",
            "userSelected": true
          }
        }, {
          "url": "text",
          "valueString": "Hispanic or Latino"
        } ]
      } ],
      "identifier": [ {
        "type": {
          "coding": [ {
            "system": "http://terminology.hl7.org/CodeSystem/v2-0203",
            "code": "MR"
          } ]
        },
        "system": "https://bonnie-fhir.healthit.gov/",
        "value": "6615806fdb207d74c03b8a5f"
      } ],
      "name": [ {
        "family": "NUMERStrat2Fail",
        "given": [ "LWBSButWrongCode" ]
      } ],
      "gender": "male",
      "birthDate": "2007-01-01"
    },
    "request": {
      "method": "PUT",
      "url": "Patient/7fd4f9cd-8fbb-4935-9bfd-959c538166b2"
    }
  }, {
    "fullUrl": "https://madie.cms.gov/Encounter/5ff38b43-cac9-4aa5-b30f-07ea476c6092",
    "resource": {
      "resourceType": "Encounter",
      "id": "5ff38b43-cac9-4aa5-b30f-07ea476c6092",
      "meta": {
        "profile": [ "http://hl7.org/fhir/us/qicore/StructureDefinition/qicore-encounter" ]
      },
      "status": "finished",
      "class": {
        "system": "http://terminology.hl7.org/CodeSystem/v3-ActCode",
        "code": "EMER",
        "display": "emergency"
      },
      "type": [ {
        "coding": [ {
          "system": "http://snomed.info/sct",
          "version": "2023-09",
          "code": "225390008",
          "display": "Triage (procedure)",
          "userSelected": true
        } ]
      } ],
      "subject": {
        "reference": "Patient/7fd4f9cd-8fbb-4935-9bfd-959c538166b2"
      },
      "period": {
        "start": "2026-12-31T08:00:00.000+00:00",
        "end": "2026-12-31T08:15:00.000+00:00"
      },
      "hospitalization": {
        "dischargeDisposition": {
          "coding": [ {
            "system": "http://snomed.info/sct",
            "code": "47492008",
            "display": "Not seen (qualifier value)",
            "userSelected": true
          } ]
        }
      }
    },
    "request": {
      "method": "PUT",
      "url": "Encounter/5ff38b43-cac9-4aa5-b30f-07ea476c6092"
    }
  }, {
    "fullUrl": "https://madie.cms.gov/Coverage/9617db7a-b5b2-4956-91de-2daebcb345ac",
    "resource": {
      "resourceType": "Coverage",
      "id": "9617db7a-b5b2-4956-91de-2daebcb345ac",
      "meta": {
        "profile": [ "http://hl7.org/fhir/us/qicore/StructureDefinition/qicore-coverage" ]
      },
      "status": "active",
      "beneficiary": {
        "reference": "Patient/7fd4f9cd-8fbb-4935-9bfd-959c538166b2"
      },
      "payor": [ {
        "reference": "Organization/1907bf37-1481-4a4e-b703-70138a55d5d3"
      } ]
    },
    "request": {
      "method": "PUT",
      "url": "Coverage/9617db7a-b5b2-4956-91de-2daebcb345ac"
    }
  }, {
    "fullUrl": "https://madie.cms.gov/Organization/1907bf37-1481-4a4e-b703-70138a55d5d3",
    "resource": {
      "resourceType": "Organization",
      "id": "1907bf37-1481-4a4e-b703-70138a55d5d3",
      "meta": {
        "profile": [ "http://hl7.org/fhir/us/qicore/StructureDefinition/qicore-organization" ]
      },
      "identifier": [ {
        "use": "temp",
        "system": "urn:oid:2.16.840.1.113883.4.4",
        "value": "21-3259825"
      } ],
      "active": true,
      "type": [ {
        "coding": [ {
          "system": "http://terminology.hl7.org/CodeSystem/organization-type",
          "code": "pay",
          "display": "Payer"
        } ]
      } ],
      "name": "Blue Cross Blue Shield of Texas",
      "telecom": [ {
        "system": "phone",
        "value": "(+1) 972-766-6900"
      } ],
      "address": [ {
        "use": "billing",
        "type": "postal",
        "line": [ "P.O. Box 660044" ],
        "city": "Dallas",
        "state": "TX",
        "postalCode": "75266-0044",
        "country": "USA"
      } ]
    },
    "request": {
      "method": "PUT",
      "url": "Organization/1907bf37-1481-4a4e-b703-70138a55d5d3"
    }
  }, {
    "fullUrl": "https://madie.cms.gov/Practitioner/d88f8b73-ab19-4832-99ef-66187ca9e339",
    "resource": {
      "resourceType": "Practitioner",
      "id": "d88f8b73-ab19-4832-99ef-66187ca9e339",
      "meta": {
        "profile": [ "http://hl7.org/fhir/us/qicore/StructureDefinition/qicore-practitioner" ]
      },
      "identifier": [ {
        "system": "http://hl7.org/fhir/sid/us-npi",
        "value": "123456"
      } ],
      "name": [ {
        "family": "Evil",
        "prefix": [ "Dr" ]
      } ]
    },
    "request": {
      "method": "PUT",
      "url": "Practitioner/d88f8b73-ab19-4832-99ef-66187ca9e339"
    }
  }, {
    "fullUrl": "https://madie.cms.gov/MeasureReport/feaffe3b-d713-449c-ba68-cc7e1b390790",
    "resource": {
      "resourceType": "MeasureReport",
      "id": "feaffe3b-d713-449c-ba68-cc7e1b390790",
      "meta": {
        "profile": [ "http://hl7.org/fhir/us/cqfmeasures/StructureDefinition/test-case-cqfm" ]
      },
      "contained": [ {
        "resourceType": "Parameters",
        "id": "5bb215c8-2aa6-4138-9e14-0a282ec36f56-parameters",
        "parameter": [ {
          "name": "subject",
          "valueString": "7fd4f9cd-8fbb-4935-9bfd-959c538166b2"
        } ]
      } ],
      "extension": [ {
        "url": "http://hl7.org/fhir/us/cqfmeasures/StructureDefinition/cqfm-inputParameters",
        "valueReference": {
          "reference": "#5bb215c8-2aa6-4138-9e14-0a282ec36f56-parameters"
        }
      }, {
        "url": "http://hl7.org/fhir/us/cqfmeasures/StructureDefinition/cqfm-testCaseDescription",
        "valueMarkdown": "Enc 1st day of MP, pt LWBS but is wrong code  \"Not seen (qualifier value)\""
      } ],
      "modifierExtension": [ {
        "url": "http://hl7.org/fhir/us/cqfmeasures/StructureDefinition/cqfm-isTestCase",
        "valueBoolean": true
      } ],
      "status": "complete",
      "type": "individual",
      "measure": "https://madie.cms.gov/Measure/CMS1264ECCQREHQRFHIR",
      "period": {
        "start": "2026-01-01",
        "end": "2026-12-31"
      },
      "group": [ {
        "population": [ {
          "code": {
            "coding": [ {
              "system": "http://terminology.hl7.org/CodeSystem/measure-population",
              "code": "initial-population",
              "display": "Initial Population"
            } ]
          },
          "count": 1
        }, {
          "code": {
            "coding": [ {
              "system": "http://terminology.hl7.org/CodeSystem/measure-population",
              "code": "denominator",
              "display": "Denominator"
            } ]
          },
          "count": 1
        }, {
          "code": {
            "coding": [ {
              "system": "http://terminology.hl7.org/CodeSystem/measure-population",
              "code": "numerator",
              "display": "Numerator"
            } ]
          },
          "count": 0
        } ]
      } ],
      "evaluatedResource": [ {
        "reference": "Patient/7fd4f9cd-8fbb-4935-9bfd-959c538166b2"
      }, {
        "reference": "Encounter/5ff38b43-cac9-4aa5-b30f-07ea476c6092"
      }, {
        "reference": "Coverage/9617db7a-b5b2-4956-91de-2daebcb345ac"
      }, {
        "reference": "Organization/1907bf37-1481-4a4e-b703-70138a55d5d3"
      }, {
        "reference": "Practitioner/d88f8b73-ab19-4832-99ef-66187ca9e339"
      } ]
    },
    "request": {
      "method": "PUT",
      "url": "MeasureReport/feaffe3b-d713-449c-ba68-cc7e1b390790"
    }
  } ]
}