{"resourceType":"Bundle","id":"tests-26408298-880b-468a-9b05-938cee6d8def-bundle","type":"transaction","entry":[{"resource":{"resourceType":"Bundle","id":"65554884323df77f00c093e6","type":"transaction","entry":[{"fullUrl":"https://madie.cms.gov/Patient/26408298-880b-468a-9b05-938cee6d8def","resource":{"resourceType":"Patient","id":"26408298-880b-468a-9b05-938cee6d8def","meta":{"profile":["http://hl7.org/fhir/us/qicore/StructureDefinition/qicore-patient"]},"extension":[{"url":"http://hl7.org/fhir/us/core/StructureDefinition/us-core-race","extension":[{"url":"ombCategory","valueCoding":{"system":"urn:oid:2.16.840.1.113883.6.238","code":"1002-5","display":"American Indian or Alaska Native","userSelected":true}},{"url":"text","valueString":"American Indian or Alaska Native"}]},{"url":"http://hl7.org/fhir/us/core/StructureDefinition/us-core-ethnicity","extension":[{"url":"ombCategory","valueCoding":{"system":"urn:oid:2.16.840.1.113883.6.238","code":"2135-2","display":"Hispanic or Latino","userSelected":true}},{"url":"text","valueString":"Hispanic or Latino"}]}],"identifier":[{"type":{"coding":[{"system":"http://terminology.hl7.org/CodeSystem/v2-0203","code":"MR"}]},"system":"https://bonnie-fhir.healthit.gov/","value":"65554884323df77f00c093e6"}],"name":[{"family":"DENEXPASS","given":["PTHospServices"]}],"gender":"female","birthDate":"1991-10-21"},"request":{"method":"POST","url":"Patient/26408298-880b-468a-9b05-938cee6d8def"}},{"fullUrl":"https://madie.cms.gov/Observation/hospice-care-minimum-data-set-93e7","resource":{"resourceType":"Observation","id":"hospice-care-minimum-data-set-93e7","meta":{"profile":["http://hl7.org/fhir/StructureDefinition/vitalsigns"]},"status":"final","category":[{"coding":[{"system":"http://terminology.hl7.org/CodeSystem/observation-category","code":"vital-signs","display":"Vital Signs"}],"text":"Vital Signs"}],"code":{"coding":[{"system":"http://loinc.org","code":"45755-6","display":"Hospice care [Minimum Data Set]","userSelected":true}]},"subject":{"reference":"26408298-880b-468a-9b05-938cee6d8def"},"effectiveDateTime":"2023-11-15T08:00:00.000+00:00","issued":"2023-11-15T08:00:00.000+00:00","valueCodeableConcept":{"coding":[{"system":"http://snomed.info/sct","code":"373066001","display":"Yes (qualifier value)","userSelected":true}]}},"request":{"method":"POST","url":"Observation/hospice-care-minimum-data-set-93e7"}},{"fullUrl":"https://madie.cms.gov/Condition/diabetes-93e8","resource":{"resourceType":"Condition","id":"diabetes-93e8","meta":{"profile":["http://hl7.org/fhir/us/qicore/StructureDefinition/qicore-condition"]},"code":{"coding":[{"system":"http://snomed.info/sct","version":"2021-09","code":"102781000119107","display":"Sensory neuropathy due to type 1 diabetes mellitus (disorder)","userSelected":true}]},"onsetDateTime":"2023-11-15T08:00:00.000+00:00","recordedDate":"2023-11-15T08:00:00.000+00:00"},"request":{"method":"POST","url":"Condition/diabetes-93e8"}},{"fullUrl":"https://madie.cms.gov/Encounter/outpatient-consultation-93e9","resource":{"resourceType":"Encounter","id":"outpatient-consultation-93e9","meta":{"profile":["http://hl7.org/fhir/us/qicore/StructureDefinition/qicore-encounter"]},"type":[{"coding":[{"system":"http://snomed.info/sct","version":"2021-09","code":"281036007","display":"Follow-up consultation (procedure)","userSelected":true}]}],"period":{"start":"2023-11-15T08:00:00.000+00:00","end":"2023-11-15T08:15:00.000+00:00"}},"request":{"method":"POST","url":"Encounter/outpatient-consultation-93e9"}},{"fullUrl":"https://madie.cms.gov/Procedure/hospice-care-ambulatory-93eb","resource":{"resourceType":"Procedure","id":"hospice-care-ambulatory-93eb","meta":{"profile":["http://hl7.org/fhir/us/qicore/StructureDefinition/qicore-procedure"]},"status":"completed","code":{"coding":[{"system":"http://snomed.info/sct","version":"2021-09","code":"170935008","display":"Full care by hospice (finding)","userSelected":true}]},"performedDateTime":"2023-01-15T08:00:00.000+00:00"},"request":{"method":"POST","url":"Procedure/hospice-care-ambulatory-93eb"}},{"fullUrl":"https://madie.cms.gov/MeasureReport/7ebdaf4f-663c-410c-bf5a-5354c57bb1c0","resource":{"resourceType":"MeasureReport","id":"7ebdaf4f-663c-410c-bf5a-5354c57bb1c0","meta":{"profile":["http://hl7.org/fhir/us/cqfmeasures/StructureDefinition/test-case-cqfm"]},"contained":[{"resourceType":"Parameters","id":"5016936f-51e8-4e0d-bc70-15e7b223d4ac-parameters","parameter":[{"name":"subject","valueString":"26408298-880b-468a-9b05-938cee6d8def"}]}],"extension":[{"url":"http://hl7.org/fhir/us/cqfmeasures/StructureDefinition/cqfm-inputParameters","valueReference":{"reference":"#5016936f-51e8-4e0d-bc70-15e7b223d4ac-parameters"}},{"url":"http://hl7.org/fhir/us/cqfmeasures/StructureDefinition/cqfm-testCaseDescription","valueMarkdown":"Patient has received hospice services and is excluded from the denominator"}],"modifierExtension":[{"url":"http://hl7.org/fhir/us/cqfmeasures/StructureDefinition/cqfm-isTestCase","valueBoolean":true}],"status":"complete","type":"individual","measure":"https://madie.cms.gov/Measure/KidneyHealthEvaluationFHIR","period":{"start":"2025-01-01","end":"2025-12-31"},"group":[{"population":[{"code":{"coding":[{"system":"http://terminology.hl7.org/CodeSystem/measure-population","code":"initial-population","display":"Initial Population"}]},"count":0},{"code":{"coding":[{"system":"http://terminology.hl7.org/CodeSystem/measure-population","code":"denominator","display":"Denominator"}]},"count":0},{"code":{"coding":[{"system":"http://terminology.hl7.org/CodeSystem/measure-population","code":"denominator-exclusion","display":"Denominator Exclusion"}]},"count":0},{"code":{"coding":[{"system":"http://terminology.hl7.org/CodeSystem/measure-population","code":"numerator","display":"Numerator"}]},"count":0}]}],"evaluatedResource":[{"reference":"https://madie.cms.gov/Patient/26408298-880b-468a-9b05-938cee6d8def"},{"reference":"https://madie.cms.gov/Observation/hospice-care-minimum-data-set-93e7"},{"reference":"https://madie.cms.gov/Condition/diabetes-93e8"},{"reference":"https://madie.cms.gov/Encounter/outpatient-consultation-93e9"},{"reference":"https://madie.cms.gov/Procedure/hospice-care-ambulatory-93eb"}]},"request":{"method":"POST","url":"MeasureReport/7ebdaf4f-663c-410c-bf5a-5354c57bb1c0"}}]},"request":{"method":"PUT","url":"Bundle/65554884323df77f00c093e6"}}]}