{"resourceType":"Bundle","id":"tests-b998e967-eb53-426b-a3a9-8226939efdb6-bundle","type":"transaction","entry":[{"fullUrl":"https://madie.cms.gov/Patient/b998e967-eb53-426b-a3a9-8226939efdb6","resource":{"resourceType":"Patient","id":"b998e967-eb53-426b-a3a9-8226939efdb6","meta":{"profile":["http://hl7.org/fhir/us/qicore/StructureDefinition/qicore-patient"]},"extension":[{"url":"http://hl7.org/fhir/us/core/StructureDefinition/us-core-race","extension":[{"url":"ombCategory","valueCoding":{"system":"urn:oid:2.16.840.1.113883.6.238","code":"2106-3","display":"White","userSelected":true}},{"url":"text","valueString":"White"}]},{"url":"http://hl7.org/fhir/us/core/StructureDefinition/us-core-ethnicity","extension":[{"url":"ombCategory","valueCoding":{"system":"urn:oid:2.16.840.1.113883.6.238","code":"2186-5","display":"Not Hispanic or Latino","userSelected":true}},{"url":"text","valueString":"Not Hispanic or Latino"}]}],"identifier":[{"type":{"coding":[{"system":"http://terminology.hl7.org/CodeSystem/v2-0203","code":"MR"}]},"system":"https://bonnie-fhir.healthit.gov/","value":"62fa58e4f4a8c3cd9f4553a4"}],"name":[{"family":"DenExPass","given":["EndStageRenalHospiceAllVisits"]}],"gender":"male","birthDate":"1989-12-01"},"request":{"method":"PUT","url":"Patient/b998e967-eb53-426b-a3a9-8226939efdb6"}},{"fullUrl":"https://madie.cms.gov/Condition/diabetes-e2ba","resource":{"resourceType":"Condition","id":"7f75f820-7fd3-43e5-bdd0-c84c7517a56b","meta":{"profile":["http://hl7.org/fhir/us/qicore/StructureDefinition/qicore-condition"]},"clinicalStatus":{"coding":[{"system":"http://terminology.hl7.org/CodeSystem/condition-clinical","code":"active","display":"active","userSelected":true}]},"category":[{"coding":[{"system":"http://terminology.hl7.org/CodeSystem/condition-category","code":"encounter-diagnosis","display":"Encounter Diagnosis","userSelected":true}]}],"code":{"coding":[{"system":"http://snomed.info/sct","version":"2021-09","code":"102781000119107","display":"Sensory neuropathy due to type 1 diabetes mellitus (disorder)","userSelected":true}]},"subject":{"reference":"Patient/b998e967-eb53-426b-a3a9-8226939efdb6"},"onsetDateTime":"2023-03-24T08:00:00.000+00:00"},"request":{"method":"PUT","url":"Condition/7f75f820-7fd3-43e5-bdd0-c84c7517a56b"}},{"fullUrl":"https://madie.cms.gov/Encounter/office-visit-e2bb","resource":{"resourceType":"Encounter","id":"2bc32139-cd8e-4019-8008-8e5ff1db08a9","meta":{"profile":["http://hl7.org/fhir/us/qicore/StructureDefinition/qicore-encounter"]},"status":"finished","class":{"system":"http://terminology.hl7.org/CodeSystem/v3-ActCode","code":"AMB","display":"ambulatory","userSelected":true},"type":[{"coding":[{"system":"http://snomed.info/sct","version":"2021-09","code":"185463005","display":"Visit out of hours (procedure)","userSelected":true}]}],"subject":{"reference":"Patient/b998e967-eb53-426b-a3a9-8226939efdb6"},"period":{"start":"2025-08-15T08:00:00.000+00:00","end":"2025-08-15T08:15:00.000+00:00"}},"request":{"method":"PUT","url":"Encounter/2bc32139-cd8e-4019-8008-8e5ff1db08a9"}},{"fullUrl":"https://madie.cms.gov/Observation/estimated-glomerular-filtration-rate-5397","resource":{"resourceType":"Observation","id":"f98e46c0-9d3a-4ba0-8626-830d04b38af8","meta":{"profile":["http://hl7.org/fhir/us/qicore/StructureDefinition/qicore-observation"]},"status":"final","category":[{"coding":[{"system":"http://terminology.hl7.org/CodeSystem/observation-category","code":"laboratory","display":"Laboratory","userSelected":true}]}],"code":{"coding":[{"system":"http://loinc.org","version":"2.71","code":"48642-3","display":"Glomerular filtration rate/1.73 sq M.predicted among non-blacks [Volume Rate/Area] in Serum, Plasma or Blood by Creatinine-based formula (MDRD)","userSelected":true}]},"subject":{"reference":"Patient/b998e967-eb53-426b-a3a9-8226939efdb6"},"effectiveDateTime":"2025-08-15T08:00:00.000+00:00","valueBoolean":true},"request":{"method":"PUT","url":"Observation/f98e46c0-9d3a-4ba0-8626-830d04b38af8"}},{"fullUrl":"https://madie.cms.gov/Observation/urine-albumin-creatinine-ratio-5398","resource":{"resourceType":"Observation","id":"3dc5048f-1492-487a-b968-bafcfebdb069","meta":{"profile":["http://hl7.org/fhir/us/qicore/StructureDefinition/qicore-observation"]},"status":"final","category":[{"coding":[{"system":"http://terminology.hl7.org/CodeSystem/observation-category","code":"laboratory","display":"Laboratory","userSelected":true}]}],"code":{"coding":[{"system":"http://loinc.org","version":"2.71","code":"13705-9","display":"Albumin/Creatinine [Mass Ratio] in 24 hour Urine","userSelected":true}]},"subject":{"reference":"Patient/b998e967-eb53-426b-a3a9-8226939efdb6"},"effectiveDateTime":"2025-08-15T08:00:00.000+00:00","valueBoolean":true},"request":{"method":"PUT","url":"Observation/3dc5048f-1492-487a-b968-bafcfebdb069"}},{"fullUrl":"https://madie.cms.gov/Condition/end-stage-renal-disease-539d","resource":{"resourceType":"Condition","id":"e750b37d-bb0d-4363-a00f-c6cb284410e2","meta":{"profile":["http://hl7.org/fhir/us/qicore/StructureDefinition/qicore-condition"]},"clinicalStatus":{"coding":[{"system":"http://terminology.hl7.org/CodeSystem/condition-clinical","code":"active","display":"active","userSelected":true}]},"category":[{"coding":[{"system":"http://terminology.hl7.org/CodeSystem/condition-category","code":"problem-list-item","display":"Problem List Item","userSelected":true}]}],"code":{"coding":[{"system":"http://snomed.info/sct","version":"2021-09","code":"236434000","display":"End stage renal failure untreated by renal replacement therapy (disorder)","userSelected":true}]},"subject":{"reference":"Patient/b998e967-eb53-426b-a3a9-8226939efdb6"},"onsetDateTime":"2025-08-15T08:00:00.000+00:00","recordedDate":"2025-08-15T08:00:00.000+00:00"},"request":{"method":"PUT","url":"Condition/e750b37d-bb0d-4363-a00f-c6cb284410e2"}},{"fullUrl":"https://madie.cms.gov/Encounter/annual-wellness-visit-53a1","resource":{"resourceType":"Encounter","id":"fdba5234-d7a7-41ca-80ab-9f1f95fb05b5","meta":{"profile":["http://hl7.org/fhir/us/qicore/StructureDefinition/qicore-encounter"]},"status":"finished","class":{"system":"http://terminology.hl7.org/CodeSystem/v3-ActCode","code":"AMB","display":"ambulatory","userSelected":true},"type":[{"coding":[{"system":"http://snomed.info/sct","version":"2021-09","code":"444971000124105","display":"Annual wellness visit (procedure)","userSelected":true}]}],"subject":{"reference":"Patient/b998e967-eb53-426b-a3a9-8226939efdb6"},"period":{"start":"2025-08-15T08:00:00.000+00:00","end":"2025-08-15T08:15:00.000+00:00"}},"request":{"method":"PUT","url":"Encounter/fdba5234-d7a7-41ca-80ab-9f1f95fb05b5"}},{"fullUrl":"https://madie.cms.gov/Encounter/outpatient-consultation-53a2","resource":{"resourceType":"Encounter","id":"87fbc403-9fb1-4a65-9c16-7762f540f732","meta":{"profile":["http://hl7.org/fhir/us/qicore/StructureDefinition/qicore-encounter"]},"status":"finished","class":{"system":"http://terminology.hl7.org/CodeSystem/v3-ActCode","code":"AMB","display":"ambulatory","userSelected":true},"type":[{"coding":[{"system":"http://snomed.info/sct","version":"2021-09","code":"281036007","display":"Follow-up consultation (procedure)","userSelected":true}]}],"subject":{"reference":"Patient/b998e967-eb53-426b-a3a9-8226939efdb6"},"period":{"end":"2025-08-15T08:15:00.000+00:00"}},"request":{"method":"PUT","url":"Encounter/87fbc403-9fb1-4a65-9c16-7762f540f732"}},{"fullUrl":"https://madie.cms.gov/Encounter/hospice-encounter-53a3","resource":{"resourceType":"Encounter","id":"4f173a43-d4fe-41ad-ab87-054b4db01b5f","meta":{"profile":["http://hl7.org/fhir/us/qicore/StructureDefinition/qicore-encounter"]},"status":"finished","class":{"system":"http://terminology.hl7.org/CodeSystem/v3-ActCode","code":"AMB","display":"ambulatory","userSelected":true},"type":[{"coding":[{"system":"http://snomed.info/sct","version":"2021-09","code":"183919006","display":"Urgent admission to hospice (procedure)","userSelected":true}]}],"subject":{"reference":"Patient/b998e967-eb53-426b-a3a9-8226939efdb6"},"period":{"start":"2025-08-15T08:00:00.000+00:00","end":"2025-08-15T08:15:00.000+00:00"}},"request":{"method":"PUT","url":"Encounter/4f173a43-d4fe-41ad-ab87-054b4db01b5f"}},{"fullUrl":"https://madie.cms.gov/Encounter/home-healthcare-services-53a5","resource":{"resourceType":"Encounter","id":"340e8d47-3b39-4578-947d-ffb955ad2e5e","meta":{"profile":["http://hl7.org/fhir/us/qicore/StructureDefinition/qicore-encounter"]},"status":"finished","class":{"system":"http://terminology.hl7.org/CodeSystem/v3-ActCode","code":"AMB","display":"ambulatory","userSelected":true},"type":[{"coding":[{"system":"http://snomed.info/sct","version":"2021-09","code":"185460008","display":"Home visit request by patient (procedure)","userSelected":true}]}],"subject":{"reference":"Patient/b998e967-eb53-426b-a3a9-8226939efdb6"},"period":{"start":"2025-08-15T08:00:00.000+00:00","end":"2025-08-15T08:15:00.000+00:00"}},"request":{"method":"PUT","url":"Encounter/340e8d47-3b39-4578-947d-ffb955ad2e5e"}},{"fullUrl":"https://madie.cms.gov/Encounter/preventive-care-services-initial-office-visit-18-and-up-53a6","resource":{"resourceType":"Encounter","id":"f7ca55de-4af5-4039-adb5-e95d8bcfef57","meta":{"profile":["http://hl7.org/fhir/us/qicore/StructureDefinition/qicore-encounter"]},"status":"finished","class":{"system":"http://terminology.hl7.org/CodeSystem/v3-ActCode","code":"AMB","display":"ambulatory","userSelected":true},"type":[{"coding":[{"system":"http://www.ama-assn.org/go/cpt","version":"2021","code":"99385","display":"Initial comprehensive preventive medicine evaluation and management of an individual including an age and gender appropriate history, examination, counseling/anticipatory guidance/risk factor reduction interventions, and the ordering of laboratory/diagnostic procedures, new patient; 18-39 years","userSelected":true}]}],"subject":{"reference":"Patient/b998e967-eb53-426b-a3a9-8226939efdb6"},"period":{"start":"2025-08-15T08:00:00.000+00:00","end":"2025-08-15T08:15:00.000+00:00"}},"request":{"method":"PUT","url":"Encounter/f7ca55de-4af5-4039-adb5-e95d8bcfef57"}},{"fullUrl":"https://madie.cms.gov/Encounter/telephone-visits-53a7","resource":{"resourceType":"Encounter","id":"07ed31c8-ee7a-4240-a709-c57593c55ac1","meta":{"profile":["http://hl7.org/fhir/us/qicore/StructureDefinition/qicore-encounter"]},"status":"finished","class":{"system":"http://terminology.hl7.org/CodeSystem/v3-ActCode","code":"AMB","display":"ambulatory","userSelected":true},"type":[{"coding":[{"system":"http://snomed.info/sct","version":"2021-09","code":"185317003","display":"Telephone encounter (procedure)","userSelected":true}]}],"subject":{"reference":"Patient/b998e967-eb53-426b-a3a9-8226939efdb6"},"period":{"start":"2025-08-15T08:00:00.000+00:00","end":"2025-08-15T08:15:00.000+00:00"}},"request":{"method":"PUT","url":"Encounter/07ed31c8-ee7a-4240-a709-c57593c55ac1"}},{"fullUrl":"https://madie.cms.gov/Encounter/preventive-care-services-established-office-visit-18-and-up-53a8","resource":{"resourceType":"Encounter","id":"cb2abdc5-d389-4c51-8e7b-3e532173e0b5","meta":{"profile":["http://hl7.org/fhir/us/qicore/StructureDefinition/qicore-encounter"]},"status":"finished","class":{"system":"http://terminology.hl7.org/CodeSystem/v3-ActCode","code":"AMB","display":"ambulatory","userSelected":true},"type":[{"coding":[{"system":"http://www.ama-assn.org/go/cpt","version":"2021","code":"99395","display":"Periodic comprehensive preventive medicine reevaluation and management of an individual including an age and gender appropriate history, examination, counseling/anticipatory guidance/risk factor reduction interventions, and the ordering of laboratory/diagnostic procedures, established patient; 18-39 years","userSelected":true}]}],"subject":{"reference":"Patient/b998e967-eb53-426b-a3a9-8226939efdb6"},"period":{"start":"2025-08-15T08:00:00.000+00:00","end":"2025-08-15T08:15:00.000+00:00"}},"request":{"method":"PUT","url":"Encounter/cb2abdc5-d389-4c51-8e7b-3e532173e0b5"}},{"fullUrl":"https://madie.cms.gov/Encounter/palliative-care-encounter-53a9","resource":{"resourceType":"Encounter","id":"89012357-b1f0-495d-961f-5a8fd256f6c9","meta":{"profile":["http://hl7.org/fhir/us/qicore/StructureDefinition/qicore-encounter"]},"status":"finished","class":{"system":"http://terminology.hl7.org/CodeSystem/v3-ActCode","code":"AMB","display":"ambulatory","userSelected":true},"type":[{"coding":[{"system":"http://snomed.info/sct","version":"2021-09","code":"305284002","display":"Admission by palliative care physician (procedure)","userSelected":true}]}],"subject":{"reference":"Patient/b998e967-eb53-426b-a3a9-8226939efdb6"},"period":{"start":"2025-08-15T08:00:00.000+00:00","end":"2025-08-15T08:15:00.000+00:00"}},"request":{"method":"PUT","url":"Encounter/89012357-b1f0-495d-961f-5a8fd256f6c9"}},{"fullUrl":"https://madie.cms.gov/MeasureReport/4566fdaa-4f1b-45fa-b65e-0343a6e98467","resource":{"resourceType":"MeasureReport","id":"4566fdaa-4f1b-45fa-b65e-0343a6e98467","meta":{"profile":["http://hl7.org/fhir/us/cqfmeasures/StructureDefinition/test-case-cqfm"]},"contained":[{"resourceType":"Parameters","id":"a9a7a030-143e-4dea-b19c-57f8782d6c8d-parameters","parameter":[{"name":"subject","valueString":"b998e967-eb53-426b-a3a9-8226939efdb6"}]}],"extension":[{"url":"http://hl7.org/fhir/us/cqfmeasures/StructureDefinition/cqfm-inputParameters","valueReference":{"reference":"#a9a7a030-143e-4dea-b19c-57f8782d6c8d-parameters"}},{"url":"http://hl7.org/fhir/us/cqfmeasures/StructureDefinition/cqfm-testCaseDescription","valueMarkdown":"This patient has diabetes and both labs, plus end stage renal disease and all possible hospice encounters. This case tests the denominator exclusions."}],"modifierExtension":[{"url":"http://hl7.org/fhir/us/cqfmeasures/StructureDefinition/cqfm-isTestCase","valueBoolean":true}],"status":"complete","type":"individual","measure":"https://madie.cms.gov/Measure/KidneyHealthEvaluationFHIR","period":{"start":"2025-01-01","end":"2025-12-31"},"group":[{"population":[{"code":{"coding":[{"system":"http://terminology.hl7.org/CodeSystem/measure-population","code":"initial-population","display":"Initial Population"}]},"count":1},{"code":{"coding":[{"system":"http://terminology.hl7.org/CodeSystem/measure-population","code":"denominator","display":"Denominator"}]},"count":1},{"code":{"coding":[{"system":"http://terminology.hl7.org/CodeSystem/measure-population","code":"denominator-exclusion","display":"Denominator Exclusion"}]},"count":1},{"code":{"coding":[{"system":"http://terminology.hl7.org/CodeSystem/measure-population","code":"numerator","display":"Numerator"}]},"count":0}]}]},"request":{"method":"PUT","url":"MeasureReport/4566fdaa-4f1b-45fa-b65e-0343a6e98467"}}]}