{"resourceType":"Bundle","id":"tests-8e10675e-b991-4327-9514-6feb9d385b7f-bundle","type":"transaction","entry":[{"fullUrl":"https://madie.cms.gov/Patient/8e10675e-b991-4327-9514-6feb9d385b7f","resource":{"resourceType":"Patient","id":"8e10675e-b991-4327-9514-6feb9d385b7f","meta":{"profile":["http://hl7.org/fhir/us/qicore/StructureDefinition/qicore-patient"]},"extension":[{"url":"http://hl7.org/fhir/us/core/StructureDefinition/us-core-race","extension":[{"url":"ombCategory","valueCoding":{"system":"urn:oid:2.16.840.1.113883.6.238","code":"2076-8","display":"Native Hawaiian or Other Pacific Islander","userSelected":true}},{"url":"text","valueString":"Native Hawaiian or Other Pacific Islander"}]},{"url":"http://hl7.org/fhir/us/core/StructureDefinition/us-core-ethnicity","extension":[{"url":"ombCategory","valueCoding":{"system":"urn:oid:2.16.840.1.113883.6.238","code":"2186-5","display":"Not Hispanic or Latino","userSelected":true}},{"url":"text","valueString":"Not Hispanic or Latino"}]}],"identifier":[{"type":{"coding":[{"system":"http://terminology.hl7.org/CodeSystem/v2-0203","code":"MR"}]},"system":"https://bonnie-fhir.healthit.gov/","value":"641381e24b11b147841ab916"}],"name":[{"family":"NUMERPass","given":["HomeServiceEGFRAndUACR"]}],"gender":"female","birthDate":"1956-12-01"},"request":{"method":"PUT","url":"Patient/8e10675e-b991-4327-9514-6feb9d385b7f"}},{"fullUrl":"https://madie.cms.gov/Condition/diabetes-b917","resource":{"resourceType":"Condition","id":"dbac0657-cfd9-4611-9986-d5e5db1a31cc","meta":{"profile":["http://hl7.org/fhir/us/qicore/StructureDefinition/qicore-condition"]},"clinicalStatus":{"coding":[{"system":"http://terminology.hl7.org/CodeSystem/condition-clinical","code":"active","display":"active","userSelected":true}]},"category":[{"coding":[{"system":"http://terminology.hl7.org/CodeSystem/condition-category","code":"problem-list-item","display":"Problem List Item","userSelected":true}]}],"code":{"coding":[{"system":"http://snomed.info/sct","version":"2021-09","code":"102781000119107","display":"Sensory neuropathy due to type 1 diabetes mellitus (disorder)","userSelected":true}]},"subject":{"reference":"Patient/8e10675e-b991-4327-9514-6feb9d385b7f"},"onsetDateTime":"2023-12-14T08:00:00.000+00:00"},"request":{"method":"PUT","url":"Condition/dbac0657-cfd9-4611-9986-d5e5db1a31cc"}},{"fullUrl":"https://madie.cms.gov/Encounter/home-healthcare-services-b918","resource":{"resourceType":"Encounter","id":"e4be6c69-6e47-4af4-a15c-e529ecc2a397","meta":{"profile":["http://hl7.org/fhir/us/qicore/StructureDefinition/qicore-encounter"]},"status":"finished","class":{"system":"http://terminology.hl7.org/CodeSystem/v3-ActCode","code":"AMB","display":"ambulatory","userSelected":true},"type":[{"coding":[{"system":"http://snomed.info/sct","version":"2021-09","code":"185460008","display":"Home visit request by patient (procedure)","userSelected":true}]}],"subject":{"reference":"Patient/8e10675e-b991-4327-9514-6feb9d385b7f"},"period":{"start":"2025-03-16T08:00:00.000+00:00","end":"2025-03-16T08:15:00.000+00:00"}},"request":{"method":"PUT","url":"Encounter/e4be6c69-6e47-4af4-a15c-e529ecc2a397"}},{"fullUrl":"https://madie.cms.gov/Observation/estimated-glomerular-filtration-rate-b919","resource":{"resourceType":"Observation","id":"a9a341c2-60d1-4c70-abaf-97536d4676f4","meta":{"profile":["http://hl7.org/fhir/us/qicore/StructureDefinition/qicore-observation"]},"status":"final","category":[{"coding":[{"system":"http://terminology.hl7.org/CodeSystem/observation-category","code":"laboratory","display":"Laboratory","userSelected":true}]}],"code":{"coding":[{"system":"http://loinc.org","version":"2.71","code":"48642-3","display":"Glomerular filtration rate/1.73 sq M.predicted among non-blacks [Volume Rate/Area] in Serum, Plasma or Blood by Creatinine-based formula (MDRD)","userSelected":true}]},"subject":{"reference":"Patient/8e10675e-b991-4327-9514-6feb9d385b7f"},"effectiveDateTime":"2025-03-16T08:00:00.000+00:00","valueBoolean":true},"request":{"method":"PUT","url":"Observation/a9a341c2-60d1-4c70-abaf-97536d4676f4"}},{"fullUrl":"https://madie.cms.gov/Observation/urine-albumin-creatinine-ratio-b91a","resource":{"resourceType":"Observation","id":"4b669330-69f6-4431-990a-53e7108bb818","meta":{"profile":["http://hl7.org/fhir/us/qicore/StructureDefinition/qicore-observation"]},"status":"final","category":[{"coding":[{"system":"http://terminology.hl7.org/CodeSystem/observation-category","code":"laboratory","display":"Laboratory","userSelected":true}]}],"code":{"coding":[{"system":"http://loinc.org","version":"2.71","code":"13705-9","display":"Albumin/Creatinine [Mass Ratio] in 24 hour Urine","userSelected":true}]},"subject":{"reference":"Patient/8e10675e-b991-4327-9514-6feb9d385b7f"},"effectiveDateTime":"2025-03-16T08:00:00.000+00:00","issued":"2025-03-16T08:00:00.000+00:00","valueBoolean":true},"request":{"method":"PUT","url":"Observation/4b669330-69f6-4431-990a-53e7108bb818"}},{"fullUrl":"https://madie.cms.gov/MeasureReport/4ddd884e-8fe2-4d52-96ab-644e0d3446e3","resource":{"resourceType":"MeasureReport","id":"4ddd884e-8fe2-4d52-96ab-644e0d3446e3","meta":{"profile":["http://hl7.org/fhir/us/cqfmeasures/StructureDefinition/test-case-cqfm"]},"contained":[{"resourceType":"Parameters","id":"a8c025be-5052-428f-8f03-fae1b1ffe0f7-parameters","parameter":[{"name":"subject","valueString":"8e10675e-b991-4327-9514-6feb9d385b7f"}]}],"extension":[{"url":"http://hl7.org/fhir/us/cqfmeasures/StructureDefinition/cqfm-inputParameters","valueReference":{"reference":"#a8c025be-5052-428f-8f03-fae1b1ffe0f7-parameters"}},{"url":"http://hl7.org/fhir/us/cqfmeasures/StructureDefinition/cqfm-testCaseDescription","valueMarkdown":"This patient is 67 years old with a qualifying home healthcare encounter and active  diabetes, with both qualifying lab tests. This case tests the numerator criteria."}],"modifierExtension":[{"url":"http://hl7.org/fhir/us/cqfmeasures/StructureDefinition/cqfm-isTestCase","valueBoolean":true}],"status":"complete","type":"individual","measure":"https://madie.cms.gov/Measure/KidneyHealthEvaluationFHIR","period":{"start":"2025-01-01","end":"2025-12-31"},"group":[{"population":[{"code":{"coding":[{"system":"http://terminology.hl7.org/CodeSystem/measure-population","code":"initial-population","display":"Initial Population"}]},"count":1},{"code":{"coding":[{"system":"http://terminology.hl7.org/CodeSystem/measure-population","code":"denominator","display":"Denominator"}]},"count":1},{"code":{"coding":[{"system":"http://terminology.hl7.org/CodeSystem/measure-population","code":"denominator-exclusion","display":"Denominator Exclusion"}]},"count":0},{"code":{"coding":[{"system":"http://terminology.hl7.org/CodeSystem/measure-population","code":"numerator","display":"Numerator"}]},"count":1}]}]},"request":{"method":"PUT","url":"MeasureReport/4ddd884e-8fe2-4d52-96ab-644e0d3446e3"}}]}