{"resourceType":"Bundle","id":"tests-40e0c576-25c4-41fc-854a-116db99f1a65-bundle","type":"transaction","entry":[{"fullUrl":"https://madie.cms.gov/Patient/40e0c576-25c4-41fc-854a-116db99f1a65","resource":{"resourceType":"Patient","id":"40e0c576-25c4-41fc-854a-116db99f1a65","meta":{"profile":["http://hl7.org/fhir/us/qicore/StructureDefinition/qicore-patient"]},"extension":[{"url":"http://hl7.org/fhir/us/core/StructureDefinition/us-core-race","extension":[{"url":"ombCategory","valueCoding":{"system":"urn:oid:2.16.840.1.113883.6.238","code":"2106-3","display":"White","userSelected":true}},{"url":"text","valueString":"White"}]},{"url":"http://hl7.org/fhir/us/core/StructureDefinition/us-core-ethnicity","extension":[{"url":"ombCategory","valueCoding":{"system":"urn:oid:2.16.840.1.113883.6.238","code":"2135-2","display":"Hispanic or Latino","userSelected":true}},{"url":"text","valueString":"Hispanic or Latino"}]}],"identifier":[{"type":{"coding":[{"system":"http://terminology.hl7.org/CodeSystem/v2-0203","code":"MR"}]},"system":"https://bonnie-fhir.healthit.gov/","value":"64136dac4b11b147841ab8be"}],"name":[{"family":"DENEXPass","given":["OrderPalliativeHospCare"]}],"gender":"male","birthDate":"1953-10-21"},"request":{"method":"PUT","url":"Patient/40e0c576-25c4-41fc-854a-116db99f1a65"}},{"fullUrl":"https://madie.cms.gov/Condition/diabetes-b8bf","resource":{"resourceType":"Condition","id":"98ddd065-8a3e-4c6b-93a4-fea82dec21c4","meta":{"profile":["http://hl7.org/fhir/us/qicore/StructureDefinition/qicore-condition"]},"clinicalStatus":{"coding":[{"system":"http://terminology.hl7.org/CodeSystem/condition-clinical","code":"active","display":"active","userSelected":true}]},"category":[{"coding":[{"system":"http://terminology.hl7.org/CodeSystem/condition-category","code":"encounter-diagnosis","display":"Encounter Diagnosis","userSelected":true}]}],"code":{"coding":[{"system":"http://snomed.info/sct","version":"2021-09","code":"102781000119107","display":"Sensory neuropathy due to type 1 diabetes mellitus (disorder)","userSelected":true}]},"subject":{"reference":"Patient/40e0c576-25c4-41fc-854a-116db99f1a65"},"onsetDateTime":"2023-03-03T08:00:00.000+00:00"},"request":{"method":"PUT","url":"Condition/98ddd065-8a3e-4c6b-93a4-fea82dec21c4"}},{"fullUrl":"https://madie.cms.gov/Encounter/office-visit-b8c0","resource":{"resourceType":"Encounter","id":"b3a1e41b-f9f9-40d4-953e-0bd47eae39ee","meta":{"profile":["http://hl7.org/fhir/us/qicore/StructureDefinition/qicore-encounter"]},"status":"finished","class":{"system":"http://terminology.hl7.org/CodeSystem/v3-ActCode","code":"AMB","display":"ambulatory","userSelected":true},"type":[{"coding":[{"system":"http://snomed.info/sct","version":"2021-09","code":"185463005","display":"Visit out of hours (procedure)","userSelected":true}]}],"subject":{"reference":"Patient/40e0c576-25c4-41fc-854a-116db99f1a65"},"period":{"start":"2025-02-15T08:00:00.000+00:00","end":"2025-02-15T08:15:00.000+00:00"}},"request":{"method":"PUT","url":"Encounter/b3a1e41b-f9f9-40d4-953e-0bd47eae39ee"}},{"fullUrl":"https://madie.cms.gov/Observation/estimated-glomerular-filtration-rate-b8c1","resource":{"resourceType":"Observation","id":"f6845ec4-0fac-4998-9759-4450f4d8414b","meta":{"profile":["http://hl7.org/fhir/us/qicore/StructureDefinition/qicore-observation"]},"status":"final","category":[{"coding":[{"system":"http://terminology.hl7.org/CodeSystem/observation-category","code":"laboratory","display":"Laboratory","userSelected":true}]}],"code":{"coding":[{"system":"http://loinc.org","version":"2.71","code":"48642-3","display":"Glomerular filtration rate/1.73 sq M.predicted among non-blacks [Volume Rate/Area] in Serum, Plasma or Blood by Creatinine-based formula (MDRD)","userSelected":true}]},"subject":{"reference":"Patient/40e0c576-25c4-41fc-854a-116db99f1a65"},"issued":"2025-02-15T08:00:00.000+00:00"},"request":{"method":"PUT","url":"Observation/f6845ec4-0fac-4998-9759-4450f4d8414b"}},{"fullUrl":"https://madie.cms.gov/Observation/urine-albumin-creatinine-ratio-b8c2","resource":{"resourceType":"Observation","id":"122fdda3-d317-4850-9790-d951108a0f42","meta":{"profile":["http://hl7.org/fhir/us/qicore/StructureDefinition/qicore-observation"]},"status":"final","category":[{"coding":[{"system":"http://terminology.hl7.org/CodeSystem/observation-category","code":"laboratory","display":"Laboratory","userSelected":true}]}],"code":{"coding":[{"system":"http://loinc.org","version":"2.71","code":"13705-9","display":"Albumin/Creatinine [Mass Ratio] in 24 hour Urine","userSelected":true}]},"subject":{"reference":"Patient/40e0c576-25c4-41fc-854a-116db99f1a65"},"issued":"2025-02-15T08:00:00.000+00:00"},"request":{"method":"PUT","url":"Observation/122fdda3-d317-4850-9790-d951108a0f42"}},{"fullUrl":"https://madie.cms.gov/Condition/chronic-kidney-disease-stage-5-b8c3","resource":{"resourceType":"Condition","id":"3e149cd6-5901-48d3-aeff-d8ac74bb3d01","meta":{"profile":["http://hl7.org/fhir/us/qicore/StructureDefinition/qicore-condition"]},"clinicalStatus":{"coding":[{"system":"http://terminology.hl7.org/CodeSystem/condition-clinical","code":"active","display":"active","userSelected":true}]},"category":[{"coding":[{"system":"http://terminology.hl7.org/CodeSystem/condition-category","code":"encounter-diagnosis","display":"Encounter Diagnosis","userSelected":true}]}],"code":{"coding":[{"system":"http://snomed.info/sct","version":"2021-09","code":"433146000","display":"Chronic kidney disease stage 5 (disorder)","userSelected":true}]},"subject":{"reference":"Patient/40e0c576-25c4-41fc-854a-116db99f1a65"},"onsetDateTime":"2025-03-06T08:00:00.000+00:00"},"request":{"method":"PUT","url":"Condition/3e149cd6-5901-48d3-aeff-d8ac74bb3d01"}},{"fullUrl":"https://madie.cms.gov/Procedure/palliative-care-intervention-b8c4","resource":{"resourceType":"Procedure","id":"69fbe6ab-bf0c-4c5f-a75e-8da7311a552c","meta":{"profile":["http://hl7.org/fhir/us/qicore/StructureDefinition/qicore-procedure"]},"extension":[{"url":"http://hl7.org/fhir/us/qicore/StructureDefinition/qicore-recorded","valueDateTime":"2023-03-01T08:00:00.000+00:00"}],"status":"completed","category":{"coding":[{"system":"http://snomed.info/sct","code":"103693007","display":"Diagnostic procedure","userSelected":true}]},"code":{"coding":[{"system":"http://snomed.info/sct","version":"2021-09","code":"103735009","display":"Palliative care (regime/therapy)","userSelected":true}]},"subject":{"reference":"Patient/40e0c576-25c4-41fc-854a-116db99f1a65"},"performedDateTime":"2025-03-01T08:00:00.000+00:00"},"request":{"method":"PUT","url":"Procedure/69fbe6ab-bf0c-4c5f-a75e-8da7311a552c"}},{"fullUrl":"https://madie.cms.gov/Procedure/hospice-care-ambulatory-b8c5","resource":{"resourceType":"Procedure","id":"db217fe1-e64e-4eba-9e0c-ebd42a1f1e07","meta":{"profile":["http://hl7.org/fhir/us/qicore/StructureDefinition/qicore-procedure"]},"extension":[{"url":"http://hl7.org/fhir/us/qicore/StructureDefinition/qicore-recorded","valueDateTime":"2025-03-01T08:00:00.000+00:00"}],"status":"completed","category":{"coding":[{"system":"http://snomed.info/sct","code":"103693007","display":"Diagnostic procedure","userSelected":true}]},"code":{"coding":[{"system":"http://snomed.info/sct","version":"2021-09","code":"170935008","display":"Full care by hospice (finding)","userSelected":true}]},"subject":{"reference":"Patient/40e0c576-25c4-41fc-854a-116db99f1a65"},"performedDateTime":"2025-03-10T08:00:00.000+00:00"},"request":{"method":"PUT","url":"Procedure/db217fe1-e64e-4eba-9e0c-ebd42a1f1e07"}},{"fullUrl":"https://madie.cms.gov/MeasureReport/6c503fbb-4a69-436b-889e-95cfa3dd5dd8","resource":{"resourceType":"MeasureReport","id":"6c503fbb-4a69-436b-889e-95cfa3dd5dd8","meta":{"profile":["http://hl7.org/fhir/us/cqfmeasures/StructureDefinition/test-case-cqfm"]},"contained":[{"resourceType":"Parameters","id":"7797f202-b088-4446-b558-e8a6376772b8-parameters","parameter":[{"name":"subject","valueString":"40e0c576-25c4-41fc-854a-116db99f1a65"}]}],"extension":[{"url":"http://hl7.org/fhir/us/cqfmeasures/StructureDefinition/cqfm-inputParameters","valueReference":{"reference":"#7797f202-b088-4446-b558-e8a6376772b8-parameters"}},{"url":"http://hl7.org/fhir/us/cqfmeasures/StructureDefinition/cqfm-testCaseDescription","valueMarkdown":"This patient is 70 years old with a qualifying encounter and active diabetes diagnosis, two qualifying lab tests, as well as an order for palliative or hospice care. This case tests the denominator exclusion criteria."}],"modifierExtension":[{"url":"http://hl7.org/fhir/us/cqfmeasures/StructureDefinition/cqfm-isTestCase","valueBoolean":true}],"status":"complete","type":"individual","measure":"https://madie.cms.gov/Measure/KidneyHealthEvaluationFHIR","period":{"start":"2025-01-01","end":"2025-12-31"},"group":[{"population":[{"code":{"coding":[{"system":"http://terminology.hl7.org/CodeSystem/measure-population","code":"initial-population","display":"Initial Population"}]},"count":1},{"code":{"coding":[{"system":"http://terminology.hl7.org/CodeSystem/measure-population","code":"denominator","display":"Denominator"}]},"count":1},{"code":{"coding":[{"system":"http://terminology.hl7.org/CodeSystem/measure-population","code":"denominator-exclusion","display":"Denominator Exclusion"}]},"count":1},{"code":{"coding":[{"system":"http://terminology.hl7.org/CodeSystem/measure-population","code":"numerator","display":"Numerator"}]},"count":0}]}]},"request":{"method":"PUT","url":"MeasureReport/6c503fbb-4a69-436b-889e-95cfa3dd5dd8"}}]}