{"resourceType":"Bundle","id":"tests-61c9b47c-2223-4e45-b83b-eee21f031cad-bundle","type":"transaction","entry":[{"fullUrl":"https://madie.cms.gov/Patient/61c9b47c-2223-4e45-b83b-eee21f031cad","resource":{"resourceType":"Patient","id":"61c9b47c-2223-4e45-b83b-eee21f031cad","meta":{"profile":["http://hl7.org/fhir/us/qicore/StructureDefinition/qicore-patient"]},"extension":[{"url":"http://hl7.org/fhir/us/core/StructureDefinition/us-core-race","extension":[{"url":"ombCategory","valueCoding":{"system":"urn:oid:2.16.840.1.113883.6.238","code":"2106-3","display":"White","userSelected":true}},{"url":"text","valueString":"White"}]},{"url":"http://hl7.org/fhir/us/core/StructureDefinition/us-core-ethnicity","extension":[{"url":"ombCategory","valueCoding":{"system":"urn:oid:2.16.840.1.113883.6.238","code":"2135-2","display":"Hispanic or Latino","userSelected":true}},{"url":"text","valueString":"Hispanic or Latino"}]}],"identifier":[{"type":{"coding":[{"system":"http://terminology.hl7.org/CodeSystem/v2-0203","code":"MR"}]},"system":"https://bonnie-fhir.healthit.gov/","value":"641372004b11b147841ab8d1"}],"name":[{"family":"DENEXPass","given":["PerformHospCareMinDataSet"]}],"gender":"male","birthDate":"1953-10-21"},"request":{"method":"PUT","url":"Patient/61c9b47c-2223-4e45-b83b-eee21f031cad"}},{"fullUrl":"https://madie.cms.gov/Condition/diabetes-b8d2","resource":{"resourceType":"Condition","id":"e096792d-ee1f-4339-aff6-75e09b7d1497","meta":{"profile":["http://hl7.org/fhir/us/qicore/StructureDefinition/qicore-condition"]},"clinicalStatus":{"coding":[{"system":"http://terminology.hl7.org/CodeSystem/condition-clinical","code":"active","display":"active","userSelected":true}]},"category":[{"coding":[{"system":"http://terminology.hl7.org/CodeSystem/condition-category","code":"problem-list-item","display":"Problem List Item","userSelected":true}]}],"code":{"coding":[{"system":"http://snomed.info/sct","version":"2021-09","code":"102781000119107","display":"Sensory neuropathy due to type 1 diabetes mellitus (disorder)","userSelected":true}]},"subject":{"reference":"Patient/61c9b47c-2223-4e45-b83b-eee21f031cad"},"onsetDateTime":"2025-02-03T08:00:00.000+00:00"},"request":{"method":"PUT","url":"Condition/e096792d-ee1f-4339-aff6-75e09b7d1497"}},{"fullUrl":"https://madie.cms.gov/Encounter/office-visit-b8d3","resource":{"resourceType":"Encounter","id":"098e54fa-83f5-4af6-9298-0fac14c3ba00","meta":{"profile":["http://hl7.org/fhir/us/qicore/StructureDefinition/qicore-encounter"]},"status":"finished","class":{"system":"http://terminology.hl7.org/CodeSystem/v3-ActCode","code":"AMB","display":"ambulatory","userSelected":true},"type":[{"coding":[{"system":"http://snomed.info/sct","version":"2021-09","code":"185463005","display":"Visit out of hours (procedure)","userSelected":true}]}],"subject":{"reference":"Patient/61c9b47c-2223-4e45-b83b-eee21f031cad"},"period":{"start":"2025-03-01T08:00:00.000+00:00","end":"2025-03-01T08:15:00.000+00:00"}},"request":{"method":"PUT","url":"Encounter/098e54fa-83f5-4af6-9298-0fac14c3ba00"}},{"fullUrl":"https://madie.cms.gov/Observation/estimated-glomerular-filtration-rate-b8d4","resource":{"resourceType":"Observation","id":"08e98125-e9e1-4e2d-9af7-91a9a93322e6","meta":{"profile":["http://hl7.org/fhir/us/qicore/StructureDefinition/qicore-observation"]},"status":"final","category":[{"coding":[{"system":"http://terminology.hl7.org/CodeSystem/observation-category","code":"laboratory","display":"Laboratory","userSelected":true}]}],"code":{"coding":[{"system":"http://loinc.org","version":"2.71","code":"48642-3","display":"Glomerular filtration rate/1.73 sq M.predicted among non-blacks [Volume Rate/Area] in Serum, Plasma or Blood by Creatinine-based formula (MDRD)","userSelected":true}]},"subject":{"reference":"Patient/61c9b47c-2223-4e45-b83b-eee21f031cad"},"issued":"2025-03-01T08:00:00.000+00:00","valueBoolean":true},"request":{"method":"PUT","url":"Observation/08e98125-e9e1-4e2d-9af7-91a9a93322e6"}},{"fullUrl":"https://madie.cms.gov/Observation/urine-albumin-creatinine-ratio-b8d5","resource":{"resourceType":"Observation","id":"9536cb46-2884-4b79-8aa2-297ef670e950","meta":{"profile":["http://hl7.org/fhir/us/qicore/StructureDefinition/qicore-observation"]},"status":"final","category":[{"coding":[{"system":"http://terminology.hl7.org/CodeSystem/observation-category","code":"laboratory","display":"Laboratory","userSelected":true}]}],"code":{"coding":[{"system":"http://loinc.org","version":"2.71","code":"13705-9","display":"Albumin/Creatinine [Mass Ratio] in 24 hour Urine","userSelected":true}]},"subject":{"reference":"Patient/61c9b47c-2223-4e45-b83b-eee21f031cad"},"issued":"2025-03-01T08:00:00.000+00:00","valueBoolean":true},"request":{"method":"PUT","url":"Observation/9536cb46-2884-4b79-8aa2-297ef670e950"}},{"fullUrl":"https://madie.cms.gov/Observation/hospice-care-minimum-data-set-fc3e","resource":{"resourceType":"Observation","id":"12d274b4-eafc-44b0-bfdc-12330119acf3","meta":{"profile":["http://hl7.org/fhir/us/qicore/StructureDefinition/qicore-observation"]},"status":"final","category":[{"coding":[{"system":"http://terminology.hl7.org/CodeSystem/observation-category","code":"survey","display":"survey","userSelected":true}]}],"code":{"coding":[{"system":"http://loinc.org","code":"45755-6","display":"Hospice care [Minimum Data Set]","userSelected":true}]},"subject":{"reference":"Patient/61c9b47c-2223-4e45-b83b-eee21f031cad"},"effectiveDateTime":"2025-03-01T08:00:00.000+00:00","valueCodeableConcept":{"coding":[{"system":"http://snomed.info/sct","code":"373066001","display":"Yes (qualifier value)","userSelected":true}]}},"request":{"method":"PUT","url":"Observation/12d274b4-eafc-44b0-bfdc-12330119acf3"}},{"fullUrl":"https://madie.cms.gov/MeasureReport/21810763-2947-47ba-96ab-6fe5efcd1042","resource":{"resourceType":"MeasureReport","id":"21810763-2947-47ba-96ab-6fe5efcd1042","meta":{"profile":["http://hl7.org/fhir/us/cqfmeasures/StructureDefinition/test-case-cqfm"]},"contained":[{"resourceType":"Parameters","id":"ce6d0377-cc29-4cde-8b4c-35ee3785bf2f-parameters","parameter":[{"name":"subject","valueString":"61c9b47c-2223-4e45-b83b-eee21f031cad"}]}],"extension":[{"url":"http://hl7.org/fhir/us/cqfmeasures/StructureDefinition/cqfm-inputParameters","valueReference":{"reference":"#ce6d0377-cc29-4cde-8b4c-35ee3785bf2f-parameters"}},{"url":"http://hl7.org/fhir/us/cqfmeasures/StructureDefinition/cqfm-testCaseDescription","valueMarkdown":"This patient is 70 years old with a qualifying encounter and active diabetes diagnosis, two qualifying lab tests, as well as Hospice care Minimum Data Set performed. This case tests the denominator exclusion criteria."}],"modifierExtension":[{"url":"http://hl7.org/fhir/us/cqfmeasures/StructureDefinition/cqfm-isTestCase","valueBoolean":true}],"status":"complete","type":"individual","measure":"https://madie.cms.gov/Measure/KidneyHealthEvaluationFHIR","period":{"start":"2025-01-01","end":"2025-12-31"},"group":[{"population":[{"code":{"coding":[{"system":"http://terminology.hl7.org/CodeSystem/measure-population","code":"initial-population","display":"Initial Population"}]},"count":1},{"code":{"coding":[{"system":"http://terminology.hl7.org/CodeSystem/measure-population","code":"denominator","display":"Denominator"}]},"count":1},{"code":{"coding":[{"system":"http://terminology.hl7.org/CodeSystem/measure-population","code":"denominator-exclusion","display":"Denominator Exclusion"}]},"count":1},{"code":{"coding":[{"system":"http://terminology.hl7.org/CodeSystem/measure-population","code":"numerator","display":"Numerator"}]},"count":0}]}]},"request":{"method":"PUT","url":"MeasureReport/21810763-2947-47ba-96ab-6fe5efcd1042"}}]}