{
  "resourceType": "Bundle",
  "id": "63487c2f0968f8012254018e",
  "type": "transaction",
  "entry": [ {
    "fullUrl": "https://madie.cms.gov/Patient/c3028ba0-bc40-4c4a-92da-8ac76bab737b",
    "resource": {
      "resourceType": "Patient",
      "id": "c3028ba0-bc40-4c4a-92da-8ac76bab737b",
      "meta": {
        "profile": [ "http://hl7.org/fhir/us/qicore/StructureDefinition/qicore-patient" ]
      },
      "text": {
        "status": "generated",
        "div": "<div xmlns=\"http://www.w3.org/1999/xhtml\"><div class=\"hapiHeaderText\">ProcDelivStartAtEncInpEnd <b>IPPASS </b></div><table class=\"hapiPropertyTable\"><tbody><tr><td>Identifier</td><td>e52bebbea37da9e58220169c934712d3775011ee8980693450fdc663698cbf06</td></tr><tr><td>Date of birth</td><td><span>14 February 1984</span></td></tr></tbody></table></div>"
      },
      "extension": [ {
        "url": "http://hl7.org/fhir/us/core/StructureDefinition/us-core-race",
        "extension": [ {
          "url": "ombCategory",
          "valueCoding": {
            "system": "urn:oid:2.16.840.1.113883.6.238",
            "code": "1002-5",
            "display": "American Indian or Alaska Native",
            "userSelected": true
          }
        }, {
          "url": "text",
          "valueString": "American Indian or Alaska Native"
        } ]
      }, {
        "url": "http://hl7.org/fhir/us/core/StructureDefinition/us-core-ethnicity",
        "extension": [ {
          "url": "ombCategory",
          "valueCoding": {
            "system": "urn:oid:2.16.840.1.113883.6.238",
            "code": "2135-2",
            "display": "Hispanic or Latino",
            "userSelected": true
          }
        }, {
          "url": "text",
          "valueString": "Hispanic or Latino"
        } ]
      } ],
      "identifier": [ {
        "type": {
          "coding": [ {
            "system": "http://terminology.hl7.org/CodeSystem/v2-0203",
            "code": "MR"
          } ]
        },
        "system": "https://bonnie-fhir.healthit.gov/",
        "value": "63487c2f0968f8012254018e"
      } ],
      "active": true,
      "name": [ {
        "use": "usual",
        "family": "IPPass",
        "given": [ "ProcDelivStartAtEncInpEnd" ]
      } ],
      "gender": "female",
      "birthDate": "1997-02-14"
    },
    "request": {
      "method": "PUT",
      "url": "Patient/c3028ba0-bc40-4c4a-92da-8ac76bab737b"
    }
  }, {
    "fullUrl": "https://madie.cms.gov/Encounter/88053d7f-b601-47ff-9d3a-a243cbd4a14d",
    "resource": {
      "resourceType": "Encounter",
      "id": "88053d7f-b601-47ff-9d3a-a243cbd4a14d",
      "meta": {
        "profile": [ "http://hl7.org/fhir/us/qicore/StructureDefinition/qicore-encounter" ]
      },
      "status": "finished",
      "class": {
        "system": "http://terminology.hl7.org/CodeSystem/v3-ActCode",
        "code": "IMP",
        "display": "inpatient encounter"
      },
      "type": [ {
        "coding": [ {
          "system": "http://snomed.info/sct",
          "code": "8715000"
        } ]
      } ],
      "subject": {
        "reference": "Patient/c3028ba0-bc40-4c4a-92da-8ac76bab737b"
      },
      "period": {
        "start": "2026-11-28T08:00:00.000Z",
        "end": "2026-11-30T08:15:00.000Z"
      },
      "diagnosis": [ {
        "condition": {
          "reference": "Condition/Condition-2"
        },
        "use": {
          "coding": [ {
            "system": "http://snomed.info/sct",
            "code": "169826009",
            "display": "Delivery of Singleton"
          } ]
        }
      } ]
    },
    "request": {
      "method": "PUT",
      "url": "Encounter/88053d7f-b601-47ff-9d3a-a243cbd4a14d"
    }
  }, {
    "fullUrl": "https://madie.cms.gov/Procedure/043dd238-a7fa-4220-8135-a29582551d65",
    "resource": {
      "resourceType": "Procedure",
      "id": "043dd238-a7fa-4220-8135-a29582551d65",
      "meta": {
        "profile": [ "http://hl7.org/fhir/us/qicore/StructureDefinition/qicore-procedure" ]
      },
      "extension": [ {
        "url": "http://hl7.org/fhir/us/qicore/StructureDefinition/qicore-recorded",
        "valueDateTime": "2014-04-05T09:35:00-04:00"
      } ],
      "status": "completed",
      "code": {
        "coding": [ {
          "system": "http://snomed.info/sct",
          "version": "2022-09",
          "code": "10745001",
          "display": "Delivery of transverse presentation (procedure)",
          "userSelected": true
        } ]
      },
      "subject": {
        "reference": "Patient/c3028ba0-bc40-4c4a-92da-8ac76bab737b"
      },
      "performedPeriod": {
        "start": "2026-11-30T08:15:00.000+00:00",
        "end": "2026-11-30T09:00:00.000+00:00"
      }
    },
    "request": {
      "method": "PUT",
      "url": "Procedure/043dd238-a7fa-4220-8135-a29582551d65"
    }
  }, {
    "fullUrl": "https://madie.cms.gov/Coverage/56335a62-9a0d-4053-b710-2aa31d26bc48",
    "resource": {
      "resourceType": "Coverage",
      "id": "56335a62-9a0d-4053-b710-2aa31d26bc48",
      "meta": {
        "profile": [ "http://hl7.org/fhir/us/qicore/StructureDefinition/qicore-coverage" ]
      },
      "status": "active",
      "beneficiary": {
        "reference": "Patient/c3028ba0-bc40-4c4a-92da-8ac76bab737b"
      },
      "payor": [ {
        "reference": "Organization/ecededd2-0200-4b2f-ad9a-92161afe0428"
      } ]
    },
    "request": {
      "method": "PUT",
      "url": "Coverage/56335a62-9a0d-4053-b710-2aa31d26bc48"
    }
  }, {
    "fullUrl": "https://madie.cms.gov/Organization/ecededd2-0200-4b2f-ad9a-92161afe0428",
    "resource": {
      "resourceType": "Organization",
      "id": "ecededd2-0200-4b2f-ad9a-92161afe0428",
      "meta": {
        "profile": [ "http://hl7.org/fhir/us/qicore/StructureDefinition/qicore-organization" ]
      },
      "identifier": [ {
        "use": "temp",
        "system": "urn:oid:2.16.840.1.113883.4.4",
        "value": "21-3259825"
      } ],
      "active": true,
      "type": [ {
        "coding": [ {
          "system": "http://terminology.hl7.org/CodeSystem/organization-type",
          "code": "pay",
          "display": "Payer"
        } ]
      } ],
      "name": "Blue Cross Blue Shield of Texas",
      "telecom": [ {
        "system": "phone",
        "value": "(+1) 972-766-6900"
      } ],
      "address": [ {
        "use": "billing",
        "type": "postal",
        "line": [ "P.O. Box 660044" ],
        "city": "Dallas",
        "state": "TX",
        "postalCode": "75266-0044",
        "country": "USA"
      } ]
    },
    "request": {
      "method": "PUT",
      "url": "Organization/ecededd2-0200-4b2f-ad9a-92161afe0428"
    }
  }, {
    "fullUrl": "https://madie.cms.gov/Practitioner/de44902c-c8d6-4a48-99af-eb28d50fdc98",
    "resource": {
      "resourceType": "Practitioner",
      "id": "de44902c-c8d6-4a48-99af-eb28d50fdc98",
      "identifier": [ {
        "system": "http://hl7.org/fhir/sid/us-npi",
        "value": "123456"
      } ],
      "name": [ {
        "family": "Evil",
        "prefix": [ "Dr" ]
      } ]
    },
    "request": {
      "method": "PUT",
      "url": "Practitioner/de44902c-c8d6-4a48-99af-eb28d50fdc98"
    }
  }, {
    "fullUrl": "https://madie.cms.gov/MeasureReport/d5f23c04-4098-4fb0-9991-d5c1f729c040",
    "resource": {
      "resourceType": "MeasureReport",
      "id": "d5f23c04-4098-4fb0-9991-d5c1f729c040",
      "meta": {
        "profile": [ "http://hl7.org/fhir/us/cqfmeasures/StructureDefinition/test-case-cqfm" ]
      },
      "contained": [ {
        "resourceType": "Parameters",
        "id": "d777b159-2383-448f-b792-f73ea899d179-parameters",
        "parameter": [ {
          "name": "subject",
          "valueString": "c3028ba0-bc40-4c4a-92da-8ac76bab737b"
        } ]
      } ],
      "extension": [ {
        "url": "http://hl7.org/fhir/us/cqfmeasures/StructureDefinition/cqfm-inputParameters",
        "valueReference": {
          "reference": "#d777b159-2383-448f-b792-f73ea899d179-parameters"
        }
      }, {
        "url": "http://hl7.org/fhir/us/cqfmeasures/StructureDefinition/cqfm-testCaseDescription",
        "valueMarkdown": "Passes IP, DEN, NUM. Parity result 0 (auth at 42 weeks) EGA 40 weeks;  DeliveryProcedures.relevantPeriod starts during QualifyingEncounters.relevantPeriod.  Proc Deliv Start Equal To Enc Inp End.\n"
      } ],
      "modifierExtension": [ {
        "url": "http://hl7.org/fhir/us/cqfmeasures/StructureDefinition/cqfm-isTestCase",
        "valueBoolean": true
      } ],
      "status": "complete",
      "type": "individual",
      "measure": "https://madie.cms.gov/Measure/CMS334FHIRPCCesareanBirth",
      "period": {
        "start": "2026-01-01",
        "end": "2026-12-31"
      },
      "group": [ {
        "population": [ {
          "code": {
            "coding": [ {
              "system": "http://terminology.hl7.org/CodeSystem/measure-population",
              "code": "initial-population",
              "display": "Initial Population"
            } ]
          },
          "count": 1
        }, {
          "code": {
            "coding": [ {
              "system": "http://terminology.hl7.org/CodeSystem/measure-population",
              "code": "denominator",
              "display": "Denominator"
            } ]
          },
          "count": 0
        }, {
          "code": {
            "coding": [ {
              "system": "http://terminology.hl7.org/CodeSystem/measure-population",
              "code": "denominator-exclusion",
              "display": "Denominator Exclusion"
            } ]
          },
          "count": 0
        }, {
          "code": {
            "coding": [ {
              "system": "http://terminology.hl7.org/CodeSystem/measure-population",
              "code": "numerator",
              "display": "Numerator"
            } ]
          },
          "count": 0
        } ]
      } ],
      "evaluatedResource": [ {
        "reference": "Patient/c3028ba0-bc40-4c4a-92da-8ac76bab737b"
      }, {
        "reference": "Encounter/88053d7f-b601-47ff-9d3a-a243cbd4a14d"
      }, {
        "reference": "Procedure/043dd238-a7fa-4220-8135-a29582551d65"
      }, {
        "reference": "Coverage/56335a62-9a0d-4053-b710-2aa31d26bc48"
      }, {
        "reference": "Organization/ecededd2-0200-4b2f-ad9a-92161afe0428"
      }, {
        "reference": "Practitioner/de44902c-c8d6-4a48-99af-eb28d50fdc98"
      } ]
    },
    "request": {
      "method": "PUT",
      "url": "MeasureReport/d5f23c04-4098-4fb0-9991-d5c1f729c040"
    }
  } ]
}