{
  "resourceType": "Bundle",
  "id": "RISKVarPass-PrincipalSurgicalProcedurePresent",
  "type": "transaction",
  "entry": [ {
    "fullUrl": "https://madie.cms.gov/Procedure/9b269d8d-7ebf-4492-ac64-7d81e91212ed",
    "resource": {
      "resourceType": "Procedure",
      "id": "9b269d8d-7ebf-4492-ac64-7d81e91212ed",
      "meta": {
        "profile": [ "http://hl7.org/fhir/us/qicore/StructureDefinition/qicore-procedure" ]
      },
      "extension": [ {
        "url": "http://hl7.org/fhir/us/qicore/StructureDefinition/qicore-recorded",
        "valueDateTime": "2026-04-11T10:30:00+00:00"
      } ],
      "status": "completed",
      "category": {
        "coding": [ {
          "system": "http://snomed.info/sct",
          "code": "18286008",
          "display": "General or neuraxial anesthesia"
        } ]
      },
      "code": {
        "coding": [ {
          "system": "http://snomed.info/sct",
          "code": "112943005",
          "display": "Epidural injection of anesthetic substance, diagnostic, caudal, continuous"
        } ]
      },
      "subject": {
        "reference": "Patient/f09836ee-f6c6-4fd0-8e17-547df4d65bff"
      },
      "performedPeriod": {
        "start": "2026-04-11T08:00:00+00:00",
        "end": "2026-04-11T10:15:00+00:00"
      }
    },
    "request": {
      "method": "PUT",
      "url": "Procedure/9b269d8d-7ebf-4492-ac64-7d81e91212ed"
    }
  }, {
    "fullUrl": "https://madie.cms.gov/Encounter/ff71d1c3-ef7e-48d8-9a17-3cb8408b2c09",
    "resource": {
      "resourceType": "Encounter",
      "id": "ff71d1c3-ef7e-48d8-9a17-3cb8408b2c09",
      "meta": {
        "profile": [ "http://hl7.org/fhir/us/qicore/StructureDefinition/qicore-encounter" ]
      },
      "extension": [ {
        "url": "http://hl7.org/fhir/us/qicore/StructureDefinition/qicore-encounter-procedure",
        "extension": [ {
          "url": "type",
          "valueCodeableConcept": {
            "coding": [ {
              "system": "http://snomed.info/sct",
              "code": "80146002",
              "display": "Excision of appendix (procedure)"
            } ],
            "text": "Excision of appendix (procedure)"
          }
        }, {
          "url": "rank",
          "valuePositiveInt": 1
        }, {
          "url": "procedure",
          "valueReference": {
            "reference": "Procedure/9b269d8d-7ebf-4492-ac64-7d81e91212ed"
          }
        } ]
      } ],
      "status": "finished",
      "class": {
        "system": "http://terminology.hl7.org/CodeSystem/v3-ActCode",
        "code": "IMP",
        "display": "inpatient encounter"
      },
      "type": [ {
        "coding": [ {
          "system": "http://snomed.info/sct",
          "code": "112689000"
        } ]
      } ],
      "priority": {
        "coding": [ {
          "system": "http://snomed.info/sct",
          "code": "103390000"
        } ]
      },
      "subject": {
        "reference": "Patient/f09836ee-f6c6-4fd0-8e17-547df4d65bff"
      },
      "period": {
        "start": "2026-04-10T08:00:00+00:00",
        "end": "2026-04-14T08:15:00+00:00"
      },
      "diagnosis": [ {
        "condition": {
          "reference": "Procedure/9b269d8d-7ebf-4492-ac64-7d81e91212ed"
        },
        "rank": 1
      } ]
    },
    "request": {
      "method": "PUT",
      "url": "Encounter/ff71d1c3-ef7e-48d8-9a17-3cb8408b2c09"
    }
  }, {
    "fullUrl": "https://madie.cms.gov/Encounter/0b36accc-4b8a-430a-913f-684a9bbc816a",
    "resource": {
      "resourceType": "Encounter",
      "id": "0b36accc-4b8a-430a-913f-684a9bbc816a",
      "meta": {
        "profile": [ "http://hl7.org/fhir/us/qicore/StructureDefinition/qicore-encounter" ]
      },
      "status": "finished",
      "class": {
        "system": "http://terminology.hl7.org/CodeSystem/v3-ActCode",
        "code": "EMER",
        "display": "emergency"
      },
      "type": [ {
        "coding": [ {
          "system": "http://snomed.info/sct",
          "code": "4525004"
        } ]
      } ],
      "subject": {
        "reference": "Patient/f09836ee-f6c6-4fd0-8e17-547df4d65bff"
      },
      "period": {
        "start": "2026-04-09T08:00:00+00:00",
        "end": "2026-04-09T09:00:00+00:00"
      }
    },
    "request": {
      "method": "PUT",
      "url": "Encounter/0b36accc-4b8a-430a-913f-684a9bbc816a"
    }
  }, {
    "fullUrl": "https://madie.cms.gov/Patient/f09836ee-f6c6-4fd0-8e17-547df4d65bff",
    "resource": {
      "resourceType": "Patient",
      "id": "f09836ee-f6c6-4fd0-8e17-547df4d65bff",
      "meta": {
        "profile": [ "http://hl7.org/fhir/us/qicore/StructureDefinition/qicore-patient" ]
      },
      "extension": [ {
        "url": "http://hl7.org/fhir/us/core/StructureDefinition/us-core-race",
        "extension": [ {
          "url": "ombCategory",
          "valueCoding": {
            "system": "urn:oid:2.16.840.1.113883.6.238",
            "code": "2028-9",
            "display": "Asian",
            "userSelected": true
          }
        }, {
          "url": "text",
          "valueString": "Asian"
        } ]
      }, {
        "url": "http://hl7.org/fhir/us/core/StructureDefinition/us-core-ethnicity",
        "extension": [ {
          "url": "ombCategory",
          "valueCoding": {
            "system": "urn:oid:2.16.840.1.113883.6.238",
            "code": "2186-5",
            "display": "Not Hispanic or Latino",
            "userSelected": true
          }
        }, {
          "url": "text",
          "valueString": "Not Hispanic or Latino"
        } ]
      } ],
      "identifier": [ {
        "type": {
          "coding": [ {
            "system": "http://terminology.hl7.org/CodeSystem/v2-0203",
            "code": "MR"
          } ]
        },
        "system": "https://bonnie-fhir.healthit.gov/",
        "value": "61152a3b98086b7a79cbd7c1"
      } ],
      "active": true,
      "name": [ {
        "use": "usual",
        "family": "RISKVarPass",
        "given": [ "ElecEncWithEDVisitEndDTSameAsIPStartDT" ]
      } ],
      "gender": "female",
      "birthDate": "1966-04-09"
    },
    "request": {
      "method": "PUT",
      "url": "Patient/f09836ee-f6c6-4fd0-8e17-547df4d65bff"
    }
  }, {
    "fullUrl": "https://madie.cms.gov/MeasureReport/48fa9800-6441-47f8-ac8d-0652c4901976",
    "resource": {
      "resourceType": "MeasureReport",
      "id": "48fa9800-6441-47f8-ac8d-0652c4901976",
      "meta": {
        "profile": [ "http://hl7.org/fhir/us/cqfmeasures/StructureDefinition/test-case-cqfm" ]
      },
      "contained": [ {
        "resourceType": "Parameters",
        "id": "c43387f1-d943-420c-a132-19de1f2367c1-parameters",
        "parameter": [ {
          "name": "subject",
          "valueString": "f09836ee-f6c6-4fd0-8e17-547df4d65bff"
        } ]
      } ],
      "extension": [ {
        "url": "http://hl7.org/fhir/us/cqfmeasures/StructureDefinition/cqfm-inputParameters",
        "valueReference": {
          "reference": "#c43387f1-d943-420c-a132-19de1f2367c1-parameters"
        }
      }, {
        "url": "http://hl7.org/fhir/us/cqfmeasures/StructureDefinition/cqfm-testCaseDescription",
        "valueMarkdown": "One encounter with extensions for qicore-encounter-procedure rank=1. This will trigger the population of the \"Risk Variable Principal Surgical Procedure\" definition\n\n"
      } ],
      "modifierExtension": [ {
        "url": "http://hl7.org/fhir/us/cqfmeasures/StructureDefinition/cqfm-isTestCase",
        "valueBoolean": true
      } ],
      "status": "complete",
      "type": "individual",
      "measure": "https://madie.cms.gov/Measure/CMS1218HHRFFHIR",
      "period": {
        "start": "2026-01-01",
        "end": "2026-12-31"
      },
      "group": [ {
        "population": [ {
          "code": {
            "coding": [ {
              "system": "http://terminology.hl7.org/CodeSystem/measure-population",
              "code": "initial-population",
              "display": "Initial Population"
            } ]
          },
          "count": 1
        }, {
          "code": {
            "coding": [ {
              "system": "http://terminology.hl7.org/CodeSystem/measure-population",
              "code": "denominator",
              "display": "Denominator"
            } ]
          },
          "count": 1
        }, {
          "code": {
            "coding": [ {
              "system": "http://terminology.hl7.org/CodeSystem/measure-population",
              "code": "denominator-exclusion",
              "display": "Denominator Exclusion"
            } ]
          },
          "count": 0
        }, {
          "code": {
            "coding": [ {
              "system": "http://terminology.hl7.org/CodeSystem/measure-population",
              "code": "numerator",
              "display": "Numerator"
            } ]
          },
          "count": 0
        } ]
      } ],
      "evaluatedResource": [ {
        "reference": "Procedure/9b269d8d-7ebf-4492-ac64-7d81e91212ed"
      }, {
        "reference": "Encounter/ff71d1c3-ef7e-48d8-9a17-3cb8408b2c09"
      }, {
        "reference": "Encounter/0b36accc-4b8a-430a-913f-684a9bbc816a"
      }, {
        "reference": "Patient/f09836ee-f6c6-4fd0-8e17-547df4d65bff"
      } ]
    },
    "request": {
      "method": "PUT",
      "url": "MeasureReport/48fa9800-6441-47f8-ac8d-0652c4901976"
    }
  } ]
}