{"resourceType":"Bundle","id":"tests-c417d5e6-4cef-4d7b-93c6-d25a61a8a6ca-bundle","type":"transaction","entry":[{"fullUrl":"https://madie.cms.gov/Patient/c417d5e6-4cef-4d7b-93c6-d25a61a8a6ca","resource":{"resourceType":"Patient","id":"c417d5e6-4cef-4d7b-93c6-d25a61a8a6ca","meta":{"profile":["http://hl7.org/fhir/us/qicore/StructureDefinition/qicore-patient"]},"text":{"status":"generated","div":"<div xmlns=\"http://www.w3.org/1999/xhtml\"><div class=\"hapiHeaderText\">CMP_DayOf_RelvPerStart_1MinAfterObsEnd_EDEndLT1hrB4Obs_ObsEndLT1hrB4IP <b>DENEXPASS </b></div><table class=\"hapiPropertyTable\"><tbody><tr><td>Date of birth</td><td><span>01 January 1980</span></td></tr></tbody></table></div>"},"extension":[{"url":"http://hl7.org/fhir/us/core/StructureDefinition/us-core-race","extension":[{"url":"ombCategory","valueCoding":{"system":"urn:oid:2.16.840.1.113883.6.238","code":"2106-3","display":"White","userSelected":true}},{"url":"text","valueString":"White"}]},{"url":"http://hl7.org/fhir/us/core/StructureDefinition/us-core-ethnicity","extension":[{"url":"ombCategory","valueCoding":{"system":"urn:oid:2.16.840.1.113883.6.238","code":"2186-5","display":"Not Hispanic or Latino","userSelected":true}},{"url":"text","valueString":"Not Hispanic or Latino"}]}],"identifier":[{"type":{"coding":[{"system":"http://terminology.hl7.org/CodeSystem/v2-0203","code":"MR"}]},"system":"https://bonnie-fhir.healthit.gov/","value":"60f82c3098086b570510e2ed"}],"active":true,"name":[{"use":"usual","family":"DENEXPass","given":["CMP_DayOf_RelvPerStart_1MinAfterObsEnd_EDEndLT1hrB4Obs_ObsEndLT1hrB4IP"]}],"gender":"female","birthDate":"1981-01-01"},"request":{"method":"PUT","url":"Patient/c417d5e6-4cef-4d7b-93c6-d25a61a8a6ca"}},{"fullUrl":"https://madie.cms.gov/Encounter/e66fc02f-8f55-4845-94ad-7747c63499a1","resource":{"resourceType":"Encounter","id":"e66fc02f-8f55-4845-94ad-7747c63499a1","meta":{"profile":["http://hl7.org/fhir/us/qicore/StructureDefinition/qicore-encounter"]},"status":"finished","class":{"system":"http://terminology.hl7.org/CodeSystem/v3-ActCode","code":"EMER","display":"emergency"},"type":[{"coding":[{"system":"http://snomed.info/sct","code":"4525004"}]}],"subject":{"reference":"Patient/c417d5e6-4cef-4d7b-93c6-d25a61a8a6ca"},"period":{"start":"2026-11-18T07:00:00+00:00","end":"2026-11-18T08:01:00+00:00"},"diagnosis":[{"condition":{"reference":"Condition/7ab040c1-f447-4eb8-abed-d5c1a385cbe2"},"use":{"coding":[{"system":"http://terminology.hl7.org/CodeSystem/diagnosis-role","code":"billing","display":"Billing"}]},"rank":1}]},"request":{"method":"PUT","url":"Encounter/e66fc02f-8f55-4845-94ad-7747c63499a1"}},{"fullUrl":"https://madie.cms.gov/Encounter/ade6f94c-a590-411a-8e60-fff174e4b677","resource":{"resourceType":"Encounter","id":"ade6f94c-a590-411a-8e60-fff174e4b677","meta":{"profile":["http://hl7.org/fhir/us/qicore/StructureDefinition/qicore-encounter"]},"status":"finished","class":{"system":"http://terminology.hl7.org/CodeSystem/v3-ActCode","code":"OBSENC","display":"observation encounter"},"type":[{"coding":[{"system":"http://snomed.info/sct","code":"448951000124107"}]}],"subject":{"reference":"Patient/c417d5e6-4cef-4d7b-93c6-d25a61a8a6ca"},"period":{"start":"2026-11-18T09:00:00+00:00","end":"2026-11-18T10:01:00+00:00"}},"request":{"method":"PUT","url":"Encounter/ade6f94c-a590-411a-8e60-fff174e4b677"}},{"fullUrl":"https://madie.cms.gov/Encounter/702c0400-1994-4971-865a-b519edaa2c2d","resource":{"resourceType":"Encounter","id":"702c0400-1994-4971-865a-b519edaa2c2d","meta":{"profile":["http://hl7.org/fhir/us/qicore/StructureDefinition/qicore-encounter"]},"status":"finished","class":{"system":"http://terminology.hl7.org/CodeSystem/v3-ActCode","code":"IMP","display":"inpatient encounter"},"type":[{"coding":[{"system":"http://snomed.info/sct","code":"183452005"}]}],"subject":{"reference":"Patient/c417d5e6-4cef-4d7b-93c6-d25a61a8a6ca"},"period":{"start":"2026-11-18T11:00:00+00:00","end":"2026-11-20T08:15:00+00:00"},"diagnosis":[{"condition":{"reference":"Condition/7ab040c1-f447-4eb8-abed-d5c1a385cbe2"},"use":{"coding":[{"system":"http://terminology.hl7.org/CodeSystem/diagnosis-role","code":"billing","display":"Billing"}]},"rank":1}]},"request":{"method":"PUT","url":"Encounter/702c0400-1994-4971-865a-b519edaa2c2d"}},{"fullUrl":"https://madie.cms.gov/Procedure/011843b8-f54a-4441-82ad-15cbc812cda4","resource":{"resourceType":"Procedure","id":"011843b8-f54a-4441-82ad-15cbc812cda4","meta":{"profile":["http://hl7.org/fhir/us/qicore/StructureDefinition/qicore-procedure"]},"extension":[{"url":"http://hl7.org/fhir/us/qicore/StructureDefinition/qicore-recorded","valueDateTime":"2026-11-19T09:35:00-04:00"}],"status":"completed","code":{"coding":[{"system":"http://snomed.info/sct","code":"133918004"}]},"subject":{"reference":"Patient/c417d5e6-4cef-4d7b-93c6-d25a61a8a6ca"},"performedPeriod":{"start":"2026-11-18T10:02:00+00:00","end":"2026-11-18T10:02:00+00:00"}},"request":{"method":"PUT","url":"Procedure/011843b8-f54a-4441-82ad-15cbc812cda4"}},{"fullUrl":"https://madie.cms.gov/Condition/7ab040c1-f447-4eb8-abed-d5c1a385cbe2","resource":{"resourceType":"Condition","id":"7ab040c1-f447-4eb8-abed-d5c1a385cbe2","meta":{"profile":["http://hl7.org/fhir/us/qicore/StructureDefinition/qicore-condition"]},"clinicalStatus":{"coding":[{"system":"http://terminology.hl7.org/CodeSystem/condition-clinical","code":"active"}]},"verificationStatus":{"coding":[{"system":"http://terminology.hl7.org/CodeSystem/condition-ver-status","code":"confirmed"}]},"category":[{"coding":[{"system":"http://terminology.hl7.org/CodeSystem/condition-category","code":"encounter-diagnosis","display":"Encounter Diagnosis"}]}],"code":{"coding":[{"system":"http://snomed.info/sct","version":"2020-09","code":"111297002","display":"Nonparalytic stroke (disorder)","userSelected":true}]},"subject":{"reference":"Patient/c417d5e6-4cef-4d7b-93c6-d25a61a8a6ca"},"recordedDate":"2026-08-13T08:00:00.000+00:00"},"request":{"method":"PUT","url":"Condition/7ab040c1-f447-4eb8-abed-d5c1a385cbe2"}},{"fullUrl":"https://madie.cms.gov/Coverage/0c81e35e-95a3-4300-ad37-f88f3f66d8f4","resource":{"resourceType":"Coverage","id":"0c81e35e-95a3-4300-ad37-f88f3f66d8f4","meta":{"profile":["http://hl7.org/fhir/us/qicore/StructureDefinition/qicore-coverage"]},"status":"active","beneficiary":{"reference":"Patient/c417d5e6-4cef-4d7b-93c6-d25a61a8a6ca"},"payor":[{"reference":"Organization/4da248b0-6e59-49b7-b80e-338aa21d299f"}]},"request":{"method":"PUT","url":"Coverage/0c81e35e-95a3-4300-ad37-f88f3f66d8f4"}},{"fullUrl":"https://madie.cms.gov/Organization/c6b42733-dea9-4d04-80b7-17575b63bc0c","resource":{"resourceType":"Organization","id":"4da248b0-6e59-49b7-b80e-338aa21d299f","meta":{"profile":["http://hl7.org/fhir/us/qicore/StructureDefinition/qicore-organization"]},"identifier":[{"use":"temp","system":"urn:oid:2.16.840.1.113883.4.4","value":"21-3259825"}],"active":true,"type":[{"coding":[{"system":"http://terminology.hl7.org/CodeSystem/organization-type","code":"pay","display":"Payer"}]}],"name":"Blue Cross Blue Shield of Texas","telecom":[{"system":"phone","value":"(+1) 972-766-6900"}],"address":[{"use":"billing","type":"postal","line":["P.O. Box 660044"],"city":"Dallas","state":"TX","postalCode":"75266-0044","country":"USA"}]},"request":{"method":"PUT","url":"Organization/4da248b0-6e59-49b7-b80e-338aa21d299f"}},{"fullUrl":"https://madie.cms.gov/MeasureReport/e55a335a-a3fa-424a-b257-0ae1174fe37a","resource":{"resourceType":"MeasureReport","id":"e55a335a-a3fa-424a-b257-0ae1174fe37a","meta":{"profile":["http://hl7.org/fhir/us/cqfmeasures/StructureDefinition/test-case-cqfm"]},"contained":[{"resourceType":"Parameters","id":"870f7b89-3929-407c-90d3-fa205f9d04c1-parameters","parameter":[{"name":"subject","valueString":"c417d5e6-4cef-4d7b-93c6-d25a61a8a6ca"}]}],"extension":[{"url":"http://hl7.org/fhir/us/cqfmeasures/StructureDefinition/cqfm-inputParameters","valueReference":{"reference":"#870f7b89-3929-407c-90d3-fa205f9d04c1-parameters"}},{"url":"http://hl7.org/fhir/us/cqfmeasures/StructureDefinition/cqfm-testCaseDescription","valueMarkdown":"Patient receives comfort measures performed on the day of hospital arrival, 1 min after Obs end. ED ends less than 1 hour before Obs Start, Obs ends less than 1 hour before IP start.\n"}],"modifierExtension":[{"url":"http://hl7.org/fhir/us/cqfmeasures/StructureDefinition/cqfm-isTestCase","valueBoolean":true}],"status":"complete","type":"individual","measure":"https://madie.cms.gov/Measure/CMS72FHIRSTKAntithromboticDay2","period":{"start":"2026-01-01","end":"2026-12-31"},"group":[{"population":[{"code":{"coding":[{"system":"http://terminology.hl7.org/CodeSystem/measure-population","code":"initial-population","display":"Initial Population"}]},"count":1},{"code":{"coding":[{"system":"http://terminology.hl7.org/CodeSystem/measure-population","code":"denominator","display":"Denominator"}]},"count":1},{"code":{"coding":[{"system":"http://terminology.hl7.org/CodeSystem/measure-population","code":"denominator-exclusion","display":"Denominator Exclusion"}]},"count":1},{"code":{"coding":[{"system":"http://terminology.hl7.org/CodeSystem/measure-population","code":"numerator","display":"Numerator"}]},"count":0},{"code":{"coding":[{"system":"http://terminology.hl7.org/CodeSystem/measure-population","code":"denominator-exception","display":"Denominator Exception"}]},"count":0}]}]},"request":{"method":"PUT","url":"MeasureReport/e55a335a-a3fa-424a-b257-0ae1174fe37a"}}]}