{"resourceType":"Bundle","id":"tests-5adf0120-b2f5-415f-b1ff-1684d9f4af7a-bundle","type":"transaction","entry":[{"fullUrl":"https://madie.cms.gov/Patient/5adf0120-b2f5-415f-b1ff-1684d9f4af7a","resource":{"resourceType":"Patient","id":"5adf0120-b2f5-415f-b1ff-1684d9f4af7a","meta":{"profile":["http://hl7.org/fhir/us/qicore/StructureDefinition/qicore-patient"]},"text":{"status":"generated","div":"<div xmlns=\"http://www.w3.org/1999/xhtml\"><div class=\"hapiHeaderText\">CMP&gt;1day_DuringED <b>DENEXFAIL </b></div><table class=\"hapiPropertyTable\"><tbody><tr><td>Identifier</td><td>913895259ed1aaae0168674c79769d52</td></tr><tr><td>Date of birth</td><td><span>26 September 1975</span></td></tr></tbody></table></div>"},"extension":[{"url":"http://hl7.org/fhir/us/core/StructureDefinition/us-core-race","extension":[{"url":"ombCategory","valueCoding":{"system":"urn:oid:2.16.840.1.113883.6.238","code":"2054-5","display":"Black or African American","userSelected":true}},{"url":"text","valueString":"Black or African American"}]},{"url":"http://hl7.org/fhir/us/core/StructureDefinition/us-core-ethnicity","extension":[{"url":"ombCategory","valueCoding":{"system":"urn:oid:2.16.840.1.113883.6.238","code":"2186-5","display":"Not Hispanic or Latino","userSelected":true}},{"url":"text","valueString":"Not Hispanic or Latino"}]}],"identifier":[{"type":{"coding":[{"system":"http://terminology.hl7.org/CodeSystem/v2-0203","code":"MR"}]},"system":"https://bonnie-fhir.healthit.gov/","value":"60f82c2e98086b570510e265"}],"active":true,"name":[{"use":"usual","family":"DENEXFail","given":["CMP>1day_DuringED"]}],"gender":"female","birthDate":"1976-09-26"},"request":{"method":"PUT","url":"Patient/5adf0120-b2f5-415f-b1ff-1684d9f4af7a"}},{"fullUrl":"https://madie.cms.gov/Encounter/97cc9483-37ad-48fe-a714-a797268cac03","resource":{"resourceType":"Encounter","id":"97cc9483-37ad-48fe-a714-a797268cac03","meta":{"profile":["http://hl7.org/fhir/us/qicore/StructureDefinition/qicore-encounter"]},"status":"finished","class":{"system":"http://terminology.hl7.org/CodeSystem/v3-ActCode","code":"EMER","display":"emergency","userSelected":true},"type":[{"coding":[{"system":"http://snomed.info/sct","code":"4525004"}]}],"subject":{"reference":"Patient/5adf0120-b2f5-415f-b1ff-1684d9f4af7a"},"period":{"start":"2026-10-10T06:00:00+00:00","end":"2026-10-12T06:15:00+00:00"},"length":{"value":2,"unit":"days"}},"request":{"method":"PUT","url":"Encounter/97cc9483-37ad-48fe-a714-a797268cac03"}},{"fullUrl":"https://madie.cms.gov/Encounter/975c0dd0-4b66-480a-b2a9-de41e4ad4ad5","resource":{"resourceType":"Encounter","id":"975c0dd0-4b66-480a-b2a9-de41e4ad4ad5","meta":{"profile":["http://hl7.org/fhir/us/qicore/StructureDefinition/qicore-encounter"]},"status":"finished","class":{"system":"http://terminology.hl7.org/CodeSystem/v3-ActCode","code":"IMP","display":"inpatient encounter","userSelected":true},"type":[{"coding":[{"system":"http://snomed.info/sct","code":"32485007"}]}],"subject":{"reference":"Patient/5adf0120-b2f5-415f-b1ff-1684d9f4af7a"},"period":{"start":"2026-10-12T06:15:00+00:00","end":"2026-10-15T11:15:00+00:00"},"length":{"value":3,"unit":"days"},"diagnosis":[{"condition":{"reference":"Condition/38980610-c10d-4bf2-902d-c70f55b7eafa"},"use":{"coding":[{"system":"http://terminology.hl7.org/CodeSystem/diagnosis-role","code":"billing","display":"Billing"}]},"rank":1}]},"request":{"method":"PUT","url":"Encounter/975c0dd0-4b66-480a-b2a9-de41e4ad4ad5"}},{"fullUrl":"https://madie.cms.gov/Procedure/6e683420-2b4a-49d8-af6b-2d4c3cf69e88","resource":{"resourceType":"Procedure","id":"6e683420-2b4a-49d8-af6b-2d4c3cf69e88","meta":{"profile":["http://hl7.org/fhir/us/qicore/StructureDefinition/qicore-procedure"]},"extension":[{"url":"http://hl7.org/fhir/us/qicore/StructureDefinition/qicore-recorded","valueDateTime":"2014-04-05T09:35:00-04:00"}],"status":"completed","code":{"coding":[{"system":"http://snomed.info/sct","code":"133918004"}]},"subject":{"reference":"Patient/5adf0120-b2f5-415f-b1ff-1684d9f4af7a"},"performedPeriod":{"start":"2026-10-12T00:00:00+00:00","end":"2026-10-12T20:15:00+00:00"}},"request":{"method":"PUT","url":"Procedure/6e683420-2b4a-49d8-af6b-2d4c3cf69e88"}},{"fullUrl":"https://madie.cms.gov/Coverage/9e8756f6-d8a5-42cb-982c-5940b50aae3c","resource":{"resourceType":"Coverage","id":"9e8756f6-d8a5-42cb-982c-5940b50aae3c","status":"active","beneficiary":{"reference":"Patient/5adf0120-b2f5-415f-b1ff-1684d9f4af7a"},"period":{"start":"1976-09-26T08:00:00+00:00"},"payor":[{"reference":"Organization/db141f66-a1cc-407b-9e95-adac27adee14"}]},"request":{"method":"PUT","url":"Coverage/9e8756f6-d8a5-42cb-982c-5940b50aae3c"}},{"fullUrl":"https://madie.cms.gov/Condition/38980610-c10d-4bf2-902d-c70f55b7eafa","resource":{"resourceType":"Condition","id":"38980610-c10d-4bf2-902d-c70f55b7eafa","meta":{"profile":["http://hl7.org/fhir/us/qicore/StructureDefinition/qicore-condition"]},"clinicalStatus":{"coding":[{"system":"http://terminology.hl7.org/CodeSystem/condition-clinical","code":"active"}]},"verificationStatus":{"coding":[{"system":"http://terminology.hl7.org/CodeSystem/condition-ver-status","code":"confirmed"}]},"category":[{"coding":[{"system":"http://terminology.hl7.org/CodeSystem/condition-category","code":"encounter-diagnosis","display":"Encounter Diagnosis"}]}],"code":{"coding":[{"system":"http://snomed.info/sct","version":"2020-09","code":"111297002","display":"Nonparalytic stroke (disorder)","userSelected":true}]},"subject":{"reference":"Patient/5adf0120-b2f5-415f-b1ff-1684d9f4af7a"},"recordedDate":"2026-08-11T08:00:00.000+00:00"},"request":{"method":"PUT","url":"Condition/38980610-c10d-4bf2-902d-c70f55b7eafa"}},{"fullUrl":"https://madie.cms.gov/Organization/45360c01-bf48-4fc2-bb64-c904fcd26044","resource":{"resourceType":"Organization","id":"db141f66-a1cc-407b-9e95-adac27adee14","meta":{"profile":["http://hl7.org/fhir/us/qicore/StructureDefinition/qicore-organization"]},"identifier":[{"use":"temp","system":"urn:oid:2.16.840.1.113883.4.4","value":"21-3259825"}],"active":true,"type":[{"coding":[{"system":"http://terminology.hl7.org/CodeSystem/organization-type","code":"pay","display":"Payer"}]}],"name":"Blue Cross Blue Shield of Texas","telecom":[{"system":"phone","value":"(+1) 972-766-6900"}],"address":[{"use":"billing","type":"postal","line":["P.O. Box 660044"],"city":"Dallas","state":"TX","postalCode":"75266-0044","country":"USA"}]},"request":{"method":"PUT","url":"Organization/db141f66-a1cc-407b-9e95-adac27adee14"}},{"fullUrl":"https://madie.cms.gov/MeasureReport/3818a648-bb98-4811-99a3-e75c07a2496c","resource":{"resourceType":"MeasureReport","id":"3818a648-bb98-4811-99a3-e75c07a2496c","meta":{"profile":["http://hl7.org/fhir/us/cqfmeasures/StructureDefinition/test-case-cqfm"]},"contained":[{"resourceType":"Parameters","id":"69e3663f-919d-490d-95c0-9e587abc7183-parameters","parameter":[{"name":"subject","valueString":"5adf0120-b2f5-415f-b1ff-1684d9f4af7a"}]}],"extension":[{"url":"http://hl7.org/fhir/us/cqfmeasures/StructureDefinition/cqfm-inputParameters","valueReference":{"reference":"#69e3663f-919d-490d-95c0-9e587abc7183-parameters"}},{"url":"http://hl7.org/fhir/us/cqfmeasures/StructureDefinition/cqfm-testCaseDescription","valueMarkdown":"Patient receives comfort measures order > 1 day after start of ED visit (long ED stay)\n"}],"modifierExtension":[{"url":"http://hl7.org/fhir/us/cqfmeasures/StructureDefinition/cqfm-isTestCase","valueBoolean":true}],"status":"complete","type":"individual","measure":"https://madie.cms.gov/Measure/CMS72FHIRSTKAntithromboticDay2","period":{"start":"2026-01-01","end":"2026-12-31"},"group":[{"population":[{"code":{"coding":[{"system":"http://terminology.hl7.org/CodeSystem/measure-population","code":"initial-population","display":"Initial Population"}]},"count":1},{"code":{"coding":[{"system":"http://terminology.hl7.org/CodeSystem/measure-population","code":"denominator","display":"Denominator"}]},"count":1},{"code":{"coding":[{"system":"http://terminology.hl7.org/CodeSystem/measure-population","code":"denominator-exclusion","display":"Denominator Exclusion"}]},"count":0},{"code":{"coding":[{"system":"http://terminology.hl7.org/CodeSystem/measure-population","code":"numerator","display":"Numerator"}]},"count":0},{"code":{"coding":[{"system":"http://terminology.hl7.org/CodeSystem/measure-population","code":"denominator-exception","display":"Denominator Exception"}]},"count":0}]}]},"request":{"method":"PUT","url":"MeasureReport/3818a648-bb98-4811-99a3-e75c07a2496c"}}]}