{"resourceType":"Bundle","id":"tests-b3043789-f91a-42f6-848d-6bfd7df331fe-bundle","type":"transaction","entry":[{"fullUrl":"https://madie.cms.gov/Patient/b3043789-f91a-42f6-848d-6bfd7df331fe","resource":{"resourceType":"Patient","id":"b3043789-f91a-42f6-848d-6bfd7df331fe","meta":{"profile":["http://hl7.org/fhir/us/qicore/StructureDefinition/qicore-patient"]},"text":{"status":"generated","div":"<div xmlns=\"http://www.w3.org/1999/xhtml\"><div class=\"hapiHeaderText\">tPADuringInPatientEnc1DayAfterAdmit <b>DENEXPASS-LCG </b></div><table class=\"hapiPropertyTable\"><tbody><tr><td>Identifier</td><td>44863becbb7051abd5e1dad02ddaf594356b765d18873c1d70b102e9efc8cd0b</td></tr><tr><td>Date of birth</td><td><span>26 September 1975</span></td></tr></tbody></table></div>"},"extension":[{"url":"http://hl7.org/fhir/us/core/StructureDefinition/us-core-race","extension":[{"url":"ombCategory","valueCoding":{"system":"urn:oid:2.16.840.1.113883.6.238","code":"2054-5","display":"Black or African American","userSelected":true}},{"url":"text","valueString":"Black or African American"}]},{"url":"http://hl7.org/fhir/us/core/StructureDefinition/us-core-ethnicity","extension":[{"url":"ombCategory","valueCoding":{"system":"urn:oid:2.16.840.1.113883.6.238","code":"2186-5","display":"Not Hispanic or Latino","userSelected":true}},{"url":"text","valueString":"Not Hispanic or Latino"}]}],"identifier":[{"type":{"coding":[{"system":"http://terminology.hl7.org/CodeSystem/v2-0203","code":"MR"}]},"system":"https://bonnie-fhir.healthit.gov/","value":"60f82c2f98086b570510e2c4"}],"active":true,"name":[{"use":"usual","family":"DENEXPass-LCG","given":["tPADuringInPatientEnc1DayAfterAdmit"]}],"gender":"female","birthDate":"1976-09-26"},"request":{"method":"PUT","url":"Patient/b3043789-f91a-42f6-848d-6bfd7df331fe"}},{"fullUrl":"https://madie.cms.gov/Encounter/b15e4cf5-de19-4fb4-860f-20fa2ed34315","resource":{"resourceType":"Encounter","id":"b15e4cf5-de19-4fb4-860f-20fa2ed34315","meta":{"profile":["http://hl7.org/fhir/us/qicore/StructureDefinition/qicore-encounter"]},"status":"finished","class":{"system":"http://terminology.hl7.org/CodeSystem/v3-ActCode","code":"EMER","display":"emergency"},"type":[{"coding":[{"system":"http://snomed.info/sct","code":"4525004"}]}],"subject":{"reference":"Patient/b3043789-f91a-42f6-848d-6bfd7df331fe"},"period":{"start":"2026-10-10T04:00:00+00:00","end":"2026-10-10T10:30:00+00:00"},"length":{"value":0,"unit":"days"}},"request":{"method":"PUT","url":"Encounter/b15e4cf5-de19-4fb4-860f-20fa2ed34315"}},{"fullUrl":"https://madie.cms.gov/Encounter/3d654f83-6b87-4911-bf15-d87684e72e49","resource":{"resourceType":"Encounter","id":"3d654f83-6b87-4911-bf15-d87684e72e49","meta":{"profile":["http://hl7.org/fhir/us/qicore/StructureDefinition/qicore-encounter"]},"status":"finished","class":{"system":"http://terminology.hl7.org/CodeSystem/v3-ActCode","code":"IMP","display":"inpatient encounter"},"type":[{"coding":[{"system":"http://snomed.info/sct","code":"32485007"}]}],"subject":{"reference":"Patient/b3043789-f91a-42f6-848d-6bfd7df331fe"},"period":{"start":"2026-10-11T11:00:00+00:00","end":"2026-10-14T11:30:00+00:00"},"length":{"value":3,"unit":"days"},"diagnosis":[{"condition":{"reference":"Condition/d4e11141-e85e-4ce6-8b6c-40d73bfdec11"},"use":{"coding":[{"system":"http://terminology.hl7.org/CodeSystem/diagnosis-role","code":"billing","display":"Billing"}]},"rank":1}]},"request":{"method":"PUT","url":"Encounter/3d654f83-6b87-4911-bf15-d87684e72e49"}},{"fullUrl":"https://madie.cms.gov/Procedure/7117aad4-d905-46b0-991f-a3f9343b923a","resource":{"resourceType":"Procedure","id":"7117aad4-d905-46b0-991f-a3f9343b923a","meta":{"profile":["http://hl7.org/fhir/us/qicore/StructureDefinition/qicore-procedure"]},"extension":[{"url":"http://hl7.org/fhir/us/qicore/StructureDefinition/qicore-recorded","valueDateTime":"2026-11-19T09:35:00-04:00"}],"status":"completed","code":{"coding":[{"system":"http://snomed.info/sct","code":"307521008"}]},"subject":{"reference":"Patient/b3043789-f91a-42f6-848d-6bfd7df331fe"},"performedPeriod":{"start":"2026-10-12T11:00:00+00:00","end":"2026-10-14T11:30:00+00:00"}},"request":{"method":"PUT","url":"Procedure/7117aad4-d905-46b0-991f-a3f9343b923a"}},{"fullUrl":"https://madie.cms.gov/Condition/d4e11141-e85e-4ce6-8b6c-40d73bfdec11","resource":{"resourceType":"Condition","id":"d4e11141-e85e-4ce6-8b6c-40d73bfdec11","meta":{"profile":["http://hl7.org/fhir/us/qicore/StructureDefinition/qicore-condition"]},"clinicalStatus":{"coding":[{"system":"http://terminology.hl7.org/CodeSystem/condition-clinical","code":"active"}]},"verificationStatus":{"coding":[{"system":"http://terminology.hl7.org/CodeSystem/condition-ver-status","code":"confirmed"}]},"category":[{"coding":[{"system":"http://terminology.hl7.org/CodeSystem/condition-category","code":"encounter-diagnosis","display":"Encounter Diagnosis"}]}],"code":{"coding":[{"system":"http://snomed.info/sct","version":"2020-09","code":"111297002","display":"Nonparalytic stroke (disorder)","userSelected":true}]},"subject":{"reference":"Patient/b3043789-f91a-42f6-848d-6bfd7df331fe"},"recordedDate":"2026-08-13T08:00:00.000+00:00"},"request":{"method":"PUT","url":"Condition/d4e11141-e85e-4ce6-8b6c-40d73bfdec11"}},{"fullUrl":"https://madie.cms.gov/Coverage/42d0d927-264e-44f0-b7a2-2e935febd31a","resource":{"resourceType":"Coverage","id":"42d0d927-264e-44f0-b7a2-2e935febd31a","meta":{"profile":["http://hl7.org/fhir/us/qicore/StructureDefinition/qicore-coverage"]},"status":"active","beneficiary":{"reference":"Patient/b3043789-f91a-42f6-848d-6bfd7df331fe"},"payor":[{"reference":"Organization/aeb2c6be-6577-4bba-a6b6-6eab95111f1b"}]},"request":{"method":"PUT","url":"Coverage/42d0d927-264e-44f0-b7a2-2e935febd31a"}},{"fullUrl":"https://madie.cms.gov/Organization/2df551ca-1390-448f-92a2-0f7649bfd061","resource":{"resourceType":"Organization","id":"aeb2c6be-6577-4bba-a6b6-6eab95111f1b","meta":{"profile":["http://hl7.org/fhir/us/qicore/StructureDefinition/qicore-organization"]},"identifier":[{"use":"temp","system":"urn:oid:2.16.840.1.113883.4.4","value":"21-3259825"}],"active":true,"type":[{"coding":[{"system":"http://terminology.hl7.org/CodeSystem/organization-type","code":"pay","display":"Payer"}]}],"name":"Blue Cross Blue Shield of Texas","telecom":[{"system":"phone","value":"(+1) 972-766-6900"}],"address":[{"use":"billing","type":"postal","line":["P.O. Box 660044"],"city":"Dallas","state":"TX","postalCode":"75266-0044","country":"USA"}]},"request":{"method":"PUT","url":"Organization/aeb2c6be-6577-4bba-a6b6-6eab95111f1b"}},{"fullUrl":"https://madie.cms.gov/Practitioner/d3c3afa8-71c3-4f6a-8d1c-c709e8361fc3","resource":{"resourceType":"Practitioner","id":"d3c3afa8-71c3-4f6a-8d1c-c709e8361fc3","identifier":[{"system":"http://hl7.org/fhir/sid/us-npi","value":"123456"}],"name":[{"family":"Evil","prefix":["Dr"]}]},"request":{"method":"PUT","url":"Practitioner/d3c3afa8-71c3-4f6a-8d1c-c709e8361fc3"}},{"fullUrl":"https://madie.cms.gov/MeasureReport/dc122b34-1dcd-4cbf-9c42-78416266adab","resource":{"resourceType":"MeasureReport","id":"dc122b34-1dcd-4cbf-9c42-78416266adab","meta":{"profile":["http://hl7.org/fhir/us/cqfmeasures/StructureDefinition/test-case-cqfm"]},"contained":[{"resourceType":"Parameters","id":"f3da5ce5-eb31-4ef4-ba32-a2d52c633a63-parameters","parameter":[{"name":"subject","valueString":"b3043789-f91a-42f6-848d-6bfd7df331fe"}]}],"extension":[{"url":"http://hl7.org/fhir/us/cqfmeasures/StructureDefinition/cqfm-inputParameters","valueReference":{"reference":"#f3da5ce5-eb31-4ef4-ba32-a2d52c633a63-parameters"}},{"url":"http://hl7.org/fhir/us/cqfmeasures/StructureDefinition/cqfm-testCaseDescription","valueMarkdown":" Patient received tPA  one day after admission to inpatient hospitalization \n"}],"modifierExtension":[{"url":"http://hl7.org/fhir/us/cqfmeasures/StructureDefinition/cqfm-isTestCase","valueBoolean":true}],"status":"complete","type":"individual","measure":"https://madie.cms.gov/Measure/CMS72FHIRSTKAntithromboticDay2","period":{"start":"2026-01-01","end":"2026-12-31"},"group":[{"population":[{"code":{"coding":[{"system":"http://terminology.hl7.org/CodeSystem/measure-population","code":"initial-population","display":"Initial Population"}]},"count":1},{"code":{"coding":[{"system":"http://terminology.hl7.org/CodeSystem/measure-population","code":"denominator","display":"Denominator"}]},"count":1},{"code":{"coding":[{"system":"http://terminology.hl7.org/CodeSystem/measure-population","code":"denominator-exclusion","display":"Denominator Exclusion"}]},"count":1},{"code":{"coding":[{"system":"http://terminology.hl7.org/CodeSystem/measure-population","code":"numerator","display":"Numerator"}]},"count":0},{"code":{"coding":[{"system":"http://terminology.hl7.org/CodeSystem/measure-population","code":"denominator-exception","display":"Denominator Exception"}]},"count":0}]}]},"request":{"method":"PUT","url":"MeasureReport/dc122b34-1dcd-4cbf-9c42-78416266adab"}}]}