{"resourceType":"Bundle","id":"tests-0eecd949-77bf-4ded-bb95-40e11c2116c7-bundle","type":"transaction","entry":[{"fullUrl":"https://madie.cms.gov/Patient/0eecd949-77bf-4ded-bb95-40e11c2116c7","resource":{"resourceType":"Patient","id":"0eecd949-77bf-4ded-bb95-40e11c2116c7","meta":{"profile":["http://hl7.org/fhir/us/qicore/StructureDefinition/qicore-patient"]},"text":{"status":"generated","div":"<div xmlns=\"http://www.w3.org/1999/xhtml\"><div class=\"hapiHeaderText\">Age=18onDayOfAdmission <b>IPPPASS </b></div><table class=\"hapiPropertyTable\"><tbody><tr><td>Identifier</td><td>a8dee96dd5484d5021ff771f00e38f96</td></tr><tr><td>Date of birth</td><td><span>21 August 1994</span></td></tr></tbody></table></div>"},"extension":[{"url":"http://hl7.org/fhir/us/core/StructureDefinition/us-core-race","extension":[{"url":"ombCategory","valueCoding":{"system":"urn:oid:2.16.840.1.113883.6.238","code":"1002-5","display":"American Indian or Alaska Native","userSelected":true}},{"url":"text","valueString":"American Indian or Alaska Native"}]},{"url":"http://hl7.org/fhir/us/core/StructureDefinition/us-core-ethnicity","extension":[{"url":"ombCategory","valueCoding":{"system":"urn:oid:2.16.840.1.113883.6.238","code":"2186-5","display":"Not Hispanic or Latino","userSelected":true}},{"url":"text","valueString":"Not Hispanic or Latino"}]}],"identifier":[{"type":{"coding":[{"system":"http://terminology.hl7.org/CodeSystem/v2-0203","code":"MR"}]},"system":"https://bonnie-fhir.healthit.gov/","value":"60f82c2d98086b570510e24c"}],"active":true,"name":[{"use":"usual","family":"IPPPass","given":["Age=18onDayOfAdmission"]}],"gender":"male","birthDate":"1995-08-21"},"request":{"method":"PUT","url":"Patient/0eecd949-77bf-4ded-bb95-40e11c2116c7"}},{"fullUrl":"https://madie.cms.gov/Encounter/cc36e861-6a4b-4411-bcc1-b1a56322ff77","resource":{"resourceType":"Encounter","id":"cc36e861-6a4b-4411-bcc1-b1a56322ff77","meta":{"profile":["http://hl7.org/fhir/us/qicore/StructureDefinition/qicore-encounter"]},"status":"finished","class":{"system":"http://terminology.hl7.org/CodeSystem/v3-ActCode","code":"IMP","display":"inpatient encounter"},"type":[{"coding":[{"system":"http://snomed.info/sct","code":"32485007"}]}],"subject":{"reference":"Patient/0eecd949-77bf-4ded-bb95-40e11c2116c7"},"period":{"start":"2026-08-21T00:00:00+00:00","end":"2026-12-19T08:15:00+00:00"},"length":{"value":120,"unit":"days"},"diagnosis":[{"condition":{"reference":"Condition/3336a4d9-2b64-4133-b823-a22698f10f3c"},"use":{"coding":[{"system":"http://terminology.hl7.org/CodeSystem/diagnosis-role","code":"billing","display":"Billing"}]},"rank":1}]},"request":{"method":"PUT","url":"Encounter/cc36e861-6a4b-4411-bcc1-b1a56322ff77"}},{"fullUrl":"https://madie.cms.gov/Coverage/233f4f1f-e75f-48b8-919f-785fc7a1f87a","resource":{"resourceType":"Coverage","id":"233f4f1f-e75f-48b8-919f-785fc7a1f87a","status":"active","beneficiary":{"reference":"Patient/0eecd949-77bf-4ded-bb95-40e11c2116c7"},"period":{"start":"1995-08-21T07:00:00+00:00"},"payor":[{"reference":"Organization/9e9b3f13-a353-4173-b29b-947d6f1f2031"}]},"request":{"method":"PUT","url":"Coverage/233f4f1f-e75f-48b8-919f-785fc7a1f87a"}},{"fullUrl":"https://madie.cms.gov/Condition/3336a4d9-2b64-4133-b823-a22698f10f3c","resource":{"resourceType":"Condition","id":"3336a4d9-2b64-4133-b823-a22698f10f3c","meta":{"profile":["http://hl7.org/fhir/us/qicore/StructureDefinition/qicore-condition"]},"clinicalStatus":{"coding":[{"system":"http://terminology.hl7.org/CodeSystem/condition-clinical","code":"active"}]},"verificationStatus":{"coding":[{"system":"http://terminology.hl7.org/CodeSystem/condition-ver-status","code":"confirmed"}]},"category":[{"coding":[{"system":"http://terminology.hl7.org/CodeSystem/condition-category","code":"encounter-diagnosis","display":"Encounter Diagnosis"}]}],"code":{"coding":[{"system":"http://snomed.info/sct","version":"2020-09","code":"111297002","display":"Nonparalytic stroke (disorder)","userSelected":true}]},"subject":{"reference":"Patient/0eecd949-77bf-4ded-bb95-40e11c2116c7"},"recordedDate":"2026-08-16T08:00:00.000+00:00"},"request":{"method":"PUT","url":"Condition/3336a4d9-2b64-4133-b823-a22698f10f3c"}},{"fullUrl":"https://madie.cms.gov/Organization/518022d5-5930-49dc-9e7e-c75af3e3228f","resource":{"resourceType":"Organization","id":"9e9b3f13-a353-4173-b29b-947d6f1f2031","meta":{"profile":["http://hl7.org/fhir/us/qicore/StructureDefinition/qicore-organization"]},"identifier":[{"use":"temp","system":"urn:oid:2.16.840.1.113883.4.4","value":"21-3259825"}],"active":true,"type":[{"coding":[{"system":"http://terminology.hl7.org/CodeSystem/organization-type","code":"pay","display":"Payer"}]}],"name":"Blue Cross Blue Shield of Texas","telecom":[{"system":"phone","value":"(+1) 972-766-6900"}],"address":[{"use":"billing","type":"postal","line":["P.O. Box 660044"],"city":"Dallas","state":"TX","postalCode":"75266-0044","country":"USA"}]},"request":{"method":"PUT","url":"Organization/9e9b3f13-a353-4173-b29b-947d6f1f2031"}},{"fullUrl":"https://madie.cms.gov/Practitioner/7680c7e7-c706-484f-8a73-2ef94dd1fa0a","resource":{"resourceType":"Practitioner","id":"7680c7e7-c706-484f-8a73-2ef94dd1fa0a","identifier":[{"system":"http://hl7.org/fhir/sid/us-npi","value":"123456"}],"name":[{"family":"Evil","prefix":["Dr"]}]},"request":{"method":"PUT","url":"Practitioner/7680c7e7-c706-484f-8a73-2ef94dd1fa0a"}},{"fullUrl":"https://madie.cms.gov/MeasureReport/563fdd23-f656-4fc3-bc77-77c06bca75d2","resource":{"resourceType":"MeasureReport","id":"563fdd23-f656-4fc3-bc77-77c06bca75d2","meta":{"profile":["http://hl7.org/fhir/us/cqfmeasures/StructureDefinition/test-case-cqfm"]},"contained":[{"resourceType":"Parameters","id":"862d4c2a-98c3-4bac-b4c9-58fdfeab02b9-parameters","parameter":[{"name":"subject","valueString":"0eecd949-77bf-4ded-bb95-40e11c2116c7"}]}],"extension":[{"url":"http://hl7.org/fhir/us/cqfmeasures/StructureDefinition/cqfm-inputParameters","valueReference":{"reference":"#862d4c2a-98c3-4bac-b4c9-58fdfeab02b9-parameters"}},{"url":"http://hl7.org/fhir/us/cqfmeasures/StructureDefinition/cqfm-testCaseDescription","valueMarkdown":"Patient turns 18 day of admission , age=18\n"}],"modifierExtension":[{"url":"http://hl7.org/fhir/us/cqfmeasures/StructureDefinition/cqfm-isTestCase","valueBoolean":true}],"status":"complete","type":"individual","measure":"https://madie.cms.gov/Measure/CMS72FHIRSTKAntithromboticDay2","period":{"start":"2026-01-01","end":"2026-12-31"},"group":[{"population":[{"code":{"coding":[{"system":"http://terminology.hl7.org/CodeSystem/measure-population","code":"initial-population","display":"Initial Population"}]},"count":1},{"code":{"coding":[{"system":"http://terminology.hl7.org/CodeSystem/measure-population","code":"denominator","display":"Denominator"}]},"count":1},{"code":{"coding":[{"system":"http://terminology.hl7.org/CodeSystem/measure-population","code":"denominator-exclusion","display":"Denominator Exclusion"}]},"count":0},{"code":{"coding":[{"system":"http://terminology.hl7.org/CodeSystem/measure-population","code":"numerator","display":"Numerator"}]},"count":0},{"code":{"coding":[{"system":"http://terminology.hl7.org/CodeSystem/measure-population","code":"denominator-exception","display":"Denominator Exception"}]},"count":0}]}]},"request":{"method":"PUT","url":"MeasureReport/563fdd23-f656-4fc3-bc77-77c06bca75d2"}}]}