{"resourceType":"Bundle","id":"tests-bb3dcb0a-5efb-4f55-99a3-56084dd48191-bundle","type":"transaction","entry":[{"fullUrl":"https://madie.cms.gov/Patient/bb3dcb0a-5efb-4f55-99a3-56084dd48191","resource":{"resourceType":"Patient","id":"bb3dcb0a-5efb-4f55-99a3-56084dd48191","meta":{"profile":["http://hl7.org/fhir/us/qicore/StructureDefinition/qicore-patient"]},"text":{"status":"generated","div":"<div xmlns=\"http://www.w3.org/1999/xhtml\"><div class=\"hapiHeaderText\">CMP_DayOf_RelvDat_1minAftObsStart_EDEndLT1hrB4Obs_ObsEndLT1hrB4IP <b>DENEXPASS </b></div><table class=\"hapiPropertyTable\"><tbody><tr><td>Date of birth</td><td><span>01 January 1980</span></td></tr></tbody></table></div>"},"extension":[{"url":"http://hl7.org/fhir/us/core/StructureDefinition/us-core-race","extension":[{"url":"ombCategory","valueCoding":{"system":"urn:oid:2.16.840.1.113883.6.238","code":"2106-3","display":"White","userSelected":true}},{"url":"text","valueString":"White"}]},{"url":"http://hl7.org/fhir/us/core/StructureDefinition/us-core-ethnicity","extension":[{"url":"ombCategory","valueCoding":{"system":"urn:oid:2.16.840.1.113883.6.238","code":"2186-5","display":"Not Hispanic or Latino","userSelected":true}},{"url":"text","valueString":"Not Hispanic or Latino"}]}],"identifier":[{"type":{"coding":[{"system":"http://terminology.hl7.org/CodeSystem/v2-0203","code":"MR"}]},"system":"https://bonnie-fhir.healthit.gov/","value":"60f82c3098086b570510e2da"}],"active":true,"name":[{"use":"usual","family":"DENEXPass","given":["CMP_DayOf_RelvDat_1minAftObsStart_EDEndLT1hrB4Obs_ObsEndLT1hrB4IP"]}],"gender":"female","birthDate":"1981-01-01"},"request":{"method":"PUT","url":"Patient/bb3dcb0a-5efb-4f55-99a3-56084dd48191"}},{"fullUrl":"https://madie.cms.gov/Encounter/8092481d-ecd8-4ef4-8f0e-3963543620a1","resource":{"resourceType":"Encounter","id":"8092481d-ecd8-4ef4-8f0e-3963543620a1","meta":{"profile":["http://hl7.org/fhir/us/qicore/StructureDefinition/qicore-encounter"]},"status":"finished","class":{"system":"http://terminology.hl7.org/CodeSystem/v3-ActCode","code":"EMER","display":"emergency"},"type":[{"coding":[{"system":"http://snomed.info/sct","code":"4525004"}]}],"subject":{"reference":"Patient/bb3dcb0a-5efb-4f55-99a3-56084dd48191"},"period":{"start":"2026-11-18T07:00:00+00:00","end":"2026-11-18T08:01:00+00:00"},"diagnosis":[{"condition":{"reference":"Condition/17c5b4fd-8a60-427d-b8ea-dc026c247f37"},"use":{"coding":[{"system":"http://terminology.hl7.org/CodeSystem/diagnosis-role","code":"billing","display":"Billing"}]},"rank":1}]},"request":{"method":"PUT","url":"Encounter/8092481d-ecd8-4ef4-8f0e-3963543620a1"}},{"fullUrl":"https://madie.cms.gov/Encounter/637f0232-8dc0-4cc3-8ea6-8a3b852c377d","resource":{"resourceType":"Encounter","id":"637f0232-8dc0-4cc3-8ea6-8a3b852c377d","meta":{"profile":["http://hl7.org/fhir/us/qicore/StructureDefinition/qicore-encounter"]},"status":"finished","class":{"system":"http://terminology.hl7.org/CodeSystem/v3-ActCode","code":"OBSENC","display":"observation encounter","userSelected":true},"type":[{"coding":[{"system":"http://snomed.info/sct","code":"448951000124107"}]}],"subject":{"reference":"Patient/bb3dcb0a-5efb-4f55-99a3-56084dd48191"},"period":{"start":"2026-11-18T09:00:00+00:00","end":"2026-11-18T10:01:00+00:00"}},"request":{"method":"PUT","url":"Encounter/637f0232-8dc0-4cc3-8ea6-8a3b852c377d"}},{"fullUrl":"https://madie.cms.gov/Encounter/f24f7768-3133-4b38-ac52-4988de287419","resource":{"resourceType":"Encounter","id":"f24f7768-3133-4b38-ac52-4988de287419","meta":{"profile":["http://hl7.org/fhir/us/qicore/StructureDefinition/qicore-encounter"]},"status":"finished","class":{"system":"http://terminology.hl7.org/CodeSystem/v3-ActCode","code":"IMP","display":"inpatient encounter","userSelected":true},"type":[{"coding":[{"system":"http://snomed.info/sct","code":"183452005"}]}],"subject":{"reference":"Patient/bb3dcb0a-5efb-4f55-99a3-56084dd48191"},"period":{"start":"2026-11-18T11:00:00+00:00","end":"2026-11-20T08:15:00+00:00"},"diagnosis":[{"condition":{"reference":"Condition/17c5b4fd-8a60-427d-b8ea-dc026c247f37"},"use":{"coding":[{"system":"http://terminology.hl7.org/CodeSystem/diagnosis-role","code":"billing","display":"Billing"}]},"rank":1}]},"request":{"method":"PUT","url":"Encounter/f24f7768-3133-4b38-ac52-4988de287419"}},{"fullUrl":"https://madie.cms.gov/Procedure/28439caa-9c91-4a5c-b9b2-1c719330e939","resource":{"resourceType":"Procedure","id":"28439caa-9c91-4a5c-b9b2-1c719330e939","meta":{"profile":["http://hl7.org/fhir/us/qicore/StructureDefinition/qicore-procedure"]},"extension":[{"url":"http://hl7.org/fhir/us/qicore/StructureDefinition/qicore-recorded","valueDateTime":"2026-11-18T09:01:00.000+00:00"}],"status":"completed","code":{"coding":[{"system":"http://snomed.info/sct","code":"133918004"}]},"subject":{"reference":"Patient/bb3dcb0a-5efb-4f55-99a3-56084dd48191"},"performedDateTime":"2026-11-18T09:01:00.000+00:00"},"request":{"method":"PUT","url":"Procedure/28439caa-9c91-4a5c-b9b2-1c719330e939"}},{"fullUrl":"https://madie.cms.gov/Condition/17c5b4fd-8a60-427d-b8ea-dc026c247f37","resource":{"resourceType":"Condition","id":"17c5b4fd-8a60-427d-b8ea-dc026c247f37","meta":{"profile":["http://hl7.org/fhir/us/qicore/StructureDefinition/qicore-condition"]},"clinicalStatus":{"coding":[{"system":"http://terminology.hl7.org/CodeSystem/condition-clinical","code":"active"}]},"verificationStatus":{"coding":[{"system":"http://terminology.hl7.org/CodeSystem/condition-ver-status","code":"confirmed"}]},"category":[{"coding":[{"system":"http://terminology.hl7.org/CodeSystem/condition-category","code":"encounter-diagnosis","display":"Encounter Diagnosis"}]}],"code":{"coding":[{"system":"http://snomed.info/sct","version":"2020-09","code":"111297002","display":"Nonparalytic stroke (disorder)","userSelected":true}]},"subject":{"reference":"Patient/bb3dcb0a-5efb-4f55-99a3-56084dd48191"},"recordedDate":"2026-08-13T08:00:00.000+00:00"},"request":{"method":"PUT","url":"Condition/17c5b4fd-8a60-427d-b8ea-dc026c247f37"}},{"fullUrl":"https://madie.cms.gov/Coverage/f0abdbc0-23f8-42d4-bacb-c845cc3311cf","resource":{"resourceType":"Coverage","id":"f0abdbc0-23f8-42d4-bacb-c845cc3311cf","meta":{"profile":["http://hl7.org/fhir/us/qicore/StructureDefinition/qicore-coverage"]},"status":"active","beneficiary":{"reference":"Patient/bb3dcb0a-5efb-4f55-99a3-56084dd48191"},"payor":[{"reference":"Organization/18ca435c-cae6-4c34-8033-af717477f9fc"}]},"request":{"method":"PUT","url":"Coverage/f0abdbc0-23f8-42d4-bacb-c845cc3311cf"}},{"fullUrl":"https://madie.cms.gov/Organization/04a46d7d-e3a0-4434-9ce4-7182f7dd8813","resource":{"resourceType":"Organization","id":"18ca435c-cae6-4c34-8033-af717477f9fc","meta":{"profile":["http://hl7.org/fhir/us/qicore/StructureDefinition/qicore-organization"]},"identifier":[{"use":"temp","system":"urn:oid:2.16.840.1.113883.4.4","value":"21-3259825"}],"active":true,"type":[{"coding":[{"system":"http://terminology.hl7.org/CodeSystem/organization-type","code":"pay","display":"Payer"}]}],"name":"Blue Cross Blue Shield of Texas","telecom":[{"system":"phone","value":"(+1) 972-766-6900"}],"address":[{"use":"billing","type":"postal","line":["P.O. Box 660044"],"city":"Dallas","state":"TX","postalCode":"75266-0044","country":"USA"}]},"request":{"method":"PUT","url":"Organization/18ca435c-cae6-4c34-8033-af717477f9fc"}},{"fullUrl":"https://madie.cms.gov/MeasureReport/04c73f72-a8f0-4e72-b07c-0a961001dc1e","resource":{"resourceType":"MeasureReport","id":"04c73f72-a8f0-4e72-b07c-0a961001dc1e","meta":{"profile":["http://hl7.org/fhir/us/cqfmeasures/StructureDefinition/test-case-cqfm"]},"contained":[{"resourceType":"Parameters","id":"19b1e78b-de90-431f-95a6-cac4ae079b73-parameters","parameter":[{"name":"subject","valueString":"bb3dcb0a-5efb-4f55-99a3-56084dd48191"}]}],"extension":[{"url":"http://hl7.org/fhir/us/cqfmeasures/StructureDefinition/cqfm-inputParameters","valueReference":{"reference":"#19b1e78b-de90-431f-95a6-cac4ae079b73-parameters"}},{"url":"http://hl7.org/fhir/us/cqfmeasures/StructureDefinition/cqfm-testCaseDescription","valueMarkdown":"Patient receives comfort measures performed on the day of hospital arrival, 1 min after Obs start. ED ends less than 1 hour before Obs Start, Obs ends less than 1 hour before IP start.\n"}],"modifierExtension":[{"url":"http://hl7.org/fhir/us/cqfmeasures/StructureDefinition/cqfm-isTestCase","valueBoolean":true}],"status":"complete","type":"individual","measure":"https://madie.cms.gov/Measure/CMS72FHIRSTKAntithromboticDay2","period":{"start":"2026-01-01","end":"2026-12-31"},"group":[{"population":[{"code":{"coding":[{"system":"http://terminology.hl7.org/CodeSystem/measure-population","code":"initial-population","display":"Initial Population"}]},"count":1},{"code":{"coding":[{"system":"http://terminology.hl7.org/CodeSystem/measure-population","code":"denominator","display":"Denominator"}]},"count":1},{"code":{"coding":[{"system":"http://terminology.hl7.org/CodeSystem/measure-population","code":"denominator-exclusion","display":"Denominator Exclusion"}]},"count":1},{"code":{"coding":[{"system":"http://terminology.hl7.org/CodeSystem/measure-population","code":"numerator","display":"Numerator"}]},"count":0},{"code":{"coding":[{"system":"http://terminology.hl7.org/CodeSystem/measure-population","code":"denominator-exception","display":"Denominator Exception"}]},"count":0}]}]},"request":{"method":"PUT","url":"MeasureReport/04c73f72-a8f0-4e72-b07c-0a961001dc1e"}}]}