{"resourceType":"Bundle","id":"tests-cc23329d-6635-4347-8669-a98c921f4381-bundle","type":"transaction","entry":[{"fullUrl":"https://madie.cms.gov/Patient/cc23329d-6635-4347-8669-a98c921f4381","resource":{"resourceType":"Patient","id":"cc23329d-6635-4347-8669-a98c921f4381","meta":{"profile":["http://hl7.org/fhir/us/qicore/StructureDefinition/qicore-patient"]},"text":{"status":"generated","div":"<div xmlns=\"http://www.w3.org/1999/xhtml\"><div class=\"hapiHeaderText\">INRdurED_ED=1hrNoObsBFEncDayOf_INR_Att <b>DENEXCEPASS </b></div><table class=\"hapiPropertyTable\"><tbody><tr><td>Identifier</td><td>b60c027f1b1c264b4ad909c1c0014b64a063a10a885e293b05b431fd30fe7c78</td></tr><tr><td>Date of birth</td><td><span>26 September 1975</span></td></tr></tbody></table></div>"},"extension":[{"url":"http://hl7.org/fhir/us/core/StructureDefinition/us-core-race","extension":[{"url":"ombCategory","valueCoding":{"system":"urn:oid:2.16.840.1.113883.6.238","code":"2054-5","display":"Black or African American","userSelected":true}},{"url":"text","valueString":"Black or African American"}]},{"url":"http://hl7.org/fhir/us/core/StructureDefinition/us-core-ethnicity","extension":[{"url":"ombCategory","valueCoding":{"system":"urn:oid:2.16.840.1.113883.6.238","code":"2186-5","display":"Not Hispanic or Latino","userSelected":true}},{"url":"text","valueString":"Not Hispanic or Latino"}]}],"identifier":[{"type":{"coding":[{"system":"http://terminology.hl7.org/CodeSystem/v2-0203","code":"MR"}]},"system":"https://bonnie-fhir.healthit.gov/","value":"60f82c2f98086b570510e2ca"}],"active":true,"name":[{"use":"usual","family":"DENEXCEPass","given":["INRdurED_ED=1hrNoObsBFEncDayOf_INR_Att "]}],"gender":"female","birthDate":"1976-09-26"},"request":{"method":"PUT","url":"Patient/cc23329d-6635-4347-8669-a98c921f4381"}},{"fullUrl":"https://madie.cms.gov/Encounter/51c70331-f9fb-4c17-9ceb-9e61f234ecb8","resource":{"resourceType":"Encounter","id":"51c70331-f9fb-4c17-9ceb-9e61f234ecb8","meta":{"profile":["http://hl7.org/fhir/us/qicore/StructureDefinition/qicore-encounter"]},"status":"finished","class":{"system":"http://terminology.hl7.org/CodeSystem/v3-ActCode","code":"EMER","display":"emergency","userSelected":true},"type":[{"coding":[{"system":"http://snomed.info/sct","code":"4525004"}]}],"subject":{"reference":"Patient/cc23329d-6635-4347-8669-a98c921f4381"},"period":{"start":"2026-10-10T06:15:00+00:00","end":"2026-10-10T06:31:00+00:00"},"length":{"value":0,"unit":"days"}},"request":{"method":"PUT","url":"Encounter/51c70331-f9fb-4c17-9ceb-9e61f234ecb8"}},{"fullUrl":"https://madie.cms.gov/Encounter/97de7a9b-4a8c-44b7-862b-81ced4a5572a","resource":{"resourceType":"Encounter","id":"97de7a9b-4a8c-44b7-862b-81ced4a5572a","meta":{"profile":["http://hl7.org/fhir/us/qicore/StructureDefinition/qicore-encounter"]},"status":"finished","class":{"system":"http://terminology.hl7.org/CodeSystem/v3-ActCode","code":"IMP","display":"inpatient encounter","userSelected":true},"type":[{"coding":[{"system":"http://snomed.info/sct","code":"32485007"}]}],"subject":{"reference":"Patient/cc23329d-6635-4347-8669-a98c921f4381"},"period":{"start":"2026-10-10T07:31:00+00:00","end":"2026-10-15T11:30:00+00:00"},"length":{"value":5,"unit":"days"},"diagnosis":[{"condition":{"reference":"Condition/f0d4df0f-c617-45c7-805c-d1f2c5b8de2a"},"use":{"coding":[{"system":"http://terminology.hl7.org/CodeSystem/diagnosis-role","code":"billing","display":"Billing"}]},"rank":1}]},"request":{"method":"PUT","url":"Encounter/97de7a9b-4a8c-44b7-862b-81ced4a5572a"}},{"fullUrl":"https://madie.cms.gov/Observation/f37bf501-c49e-4d4e-8d2f-c6ffd77af684","resource":{"resourceType":"Observation","id":"f37bf501-c49e-4d4e-8d2f-c6ffd77af684","meta":{"profile":["http://hl7.org/fhir/us/qicore/StructureDefinition/qicore-observation"]},"status":"final","category":[{"coding":[{"system":"http://terminology.hl7.org/CodeSystem/observation-category","code":"laboratory","display":"Laboratory"}]}],"code":{"coding":[{"system":"http://loinc.org","code":"34714-6"}]},"subject":{"reference":"Patient/cc23329d-6635-4347-8669-a98c921f4381"},"effectivePeriod":{"start":"2026-10-10T06:15:00+00:00"},"issued":"2026-10-10T06:31:00.000+00:00","valueQuantity":{"value":3.6},"method":{"coding":[{"system":"http://loinc.org","code":"34714-6","display":"INR in Blood by Coagulation assay"}]},"referenceRange":[{"low":{"value":1,"system":"http://unitsofmeasure.org"},"high":{"value":4,"system":"http://unitsofmeasure.org"}}]},"request":{"method":"PUT","url":"Observation/f37bf501-c49e-4d4e-8d2f-c6ffd77af684"}},{"fullUrl":"https://madie.cms.gov/Coverage/a403a74a-dd5c-482c-a066-ac8722f0d6a3","resource":{"resourceType":"Coverage","id":"a403a74a-dd5c-482c-a066-ac8722f0d6a3","status":"active","beneficiary":{"reference":"Patient/cc23329d-6635-4347-8669-a98c921f4381"},"period":{"start":"1976-09-26T08:00:00+00:00"},"payor":[{"reference":"Organization/607fdef9-3983-4cef-ab1a-95434d29b463"}]},"request":{"method":"PUT","url":"Coverage/a403a74a-dd5c-482c-a066-ac8722f0d6a3"}},{"fullUrl":"https://madie.cms.gov/Condition/f0d4df0f-c617-45c7-805c-d1f2c5b8de2a","resource":{"resourceType":"Condition","id":"f0d4df0f-c617-45c7-805c-d1f2c5b8de2a","meta":{"profile":["http://hl7.org/fhir/us/qicore/StructureDefinition/qicore-condition"]},"clinicalStatus":{"coding":[{"system":"http://terminology.hl7.org/CodeSystem/condition-clinical","code":"active"}]},"verificationStatus":{"coding":[{"system":"http://terminology.hl7.org/CodeSystem/condition-ver-status","code":"confirmed"}]},"category":[{"coding":[{"system":"http://terminology.hl7.org/CodeSystem/condition-category","code":"encounter-diagnosis","display":"Encounter Diagnosis"}]}],"code":{"coding":[{"system":"http://snomed.info/sct","version":"2020-09","code":"111297002","display":"Nonparalytic stroke (disorder)","userSelected":true}]},"subject":{"reference":"Patient/cc23329d-6635-4347-8669-a98c921f4381"},"recordedDate":"2026-08-06T08:00:00.000+00:00"},"request":{"method":"PUT","url":"Condition/f0d4df0f-c617-45c7-805c-d1f2c5b8de2a"}},{"fullUrl":"https://madie.cms.gov/Organization/4ffe73ea-4396-465b-b224-7932c6c4f8c3","resource":{"resourceType":"Organization","id":"607fdef9-3983-4cef-ab1a-95434d29b463","meta":{"profile":["http://hl7.org/fhir/us/qicore/StructureDefinition/qicore-organization"]},"identifier":[{"use":"temp","system":"urn:oid:2.16.840.1.113883.4.4","value":"21-3259825"}],"active":true,"type":[{"coding":[{"system":"http://terminology.hl7.org/CodeSystem/organization-type","code":"pay","display":"Payer"}]}],"name":"Blue Cross Blue Shield of Texas","telecom":[{"system":"phone","value":"(+1) 972-766-6900"}],"address":[{"use":"billing","type":"postal","line":["P.O. Box 660044"],"city":"Dallas","state":"TX","postalCode":"75266-0044","country":"USA"}]},"request":{"method":"PUT","url":"Organization/607fdef9-3983-4cef-ab1a-95434d29b463"}},{"fullUrl":"https://madie.cms.gov/MeasureReport/2b2546e0-3d87-4df3-a2a4-4957036ac2d9","resource":{"resourceType":"MeasureReport","id":"2b2546e0-3d87-4df3-a2a4-4957036ac2d9","meta":{"profile":["http://hl7.org/fhir/us/cqfmeasures/StructureDefinition/test-case-cqfm"]},"contained":[{"resourceType":"Parameters","id":"adbcde53-ea29-4356-b597-8b88d7f98055-parameters","parameter":[{"name":"subject","valueString":"cc23329d-6635-4347-8669-a98c921f4381"}]}],"extension":[{"url":"http://hl7.org/fhir/us/cqfmeasures/StructureDefinition/cqfm-inputParameters","valueReference":{"reference":"#adbcde53-ea29-4356-b597-8b88d7f98055-parameters"}},{"url":"http://hl7.org/fhir/us/cqfmeasures/StructureDefinition/cqfm-testCaseDescription","valueMarkdown":"Patient receives INR of 3.6 the day of ED start. ED ends 60 minute before IP on the same day. No Obs. Testing Day of operator with HospitalizationWithObservation function.\n"}],"modifierExtension":[{"url":"http://hl7.org/fhir/us/cqfmeasures/StructureDefinition/cqfm-isTestCase","valueBoolean":true}],"status":"complete","type":"individual","measure":"https://madie.cms.gov/Measure/CMS72FHIRSTKAntithromboticDay2","period":{"start":"2026-01-01","end":"2026-12-31"},"group":[{"population":[{"code":{"coding":[{"system":"http://terminology.hl7.org/CodeSystem/measure-population","code":"initial-population","display":"Initial Population"}]},"count":1},{"code":{"coding":[{"system":"http://terminology.hl7.org/CodeSystem/measure-population","code":"denominator","display":"Denominator"}]},"count":1},{"code":{"coding":[{"system":"http://terminology.hl7.org/CodeSystem/measure-population","code":"denominator-exclusion","display":"Denominator Exclusion"}]},"count":0},{"code":{"coding":[{"system":"http://terminology.hl7.org/CodeSystem/measure-population","code":"numerator","display":"Numerator"}]},"count":0},{"code":{"coding":[{"system":"http://terminology.hl7.org/CodeSystem/measure-population","code":"denominator-exception","display":"Denominator Exception"}]},"count":1}]}]},"request":{"method":"PUT","url":"MeasureReport/2b2546e0-3d87-4df3-a2a4-4957036ac2d9"}}]}