{"resourceType":"Bundle","id":"tests-53e176e2-42f5-4c27-a1fe-23a280982bde-bundle","type":"transaction","entry":[{"fullUrl":"https://madie.cms.gov/Patient/53e176e2-42f5-4c27-a1fe-23a280982bde","resource":{"resourceType":"Patient","id":"53e176e2-42f5-4c27-a1fe-23a280982bde","meta":{"profile":["http://hl7.org/fhir/us/qicore/StructureDefinition/qicore-patient"]},"text":{"status":"generated","div":"<div xmlns=\"http://www.w3.org/1999/xhtml\"><div class=\"hapiHeaderText\">EncPrinDx=IschemicStrokeTestOccurr <b>IPPPASS </b></div><table class=\"hapiPropertyTable\"><tbody><tr><td>Identifier</td><td>6e2b90860fcc9b1c4eb9431a66a27a09b7f448bf6d8d855872a784ef7a54a594</td></tr><tr><td>Date of birth</td><td><span>20 August 1994</span></td></tr></tbody></table></div>"},"extension":[{"url":"http://hl7.org/fhir/us/core/StructureDefinition/us-core-race","extension":[{"url":"ombCategory","valueCoding":{"system":"urn:oid:2.16.840.1.113883.6.238","code":"1002-5","display":"American Indian or Alaska Native","userSelected":true}},{"url":"text","valueString":"American Indian or Alaska Native"}]},{"url":"http://hl7.org/fhir/us/core/StructureDefinition/us-core-ethnicity","extension":[{"url":"ombCategory","valueCoding":{"system":"urn:oid:2.16.840.1.113883.6.238","code":"2186-5","display":"Not Hispanic or Latino","userSelected":true}},{"url":"text","valueString":"Not Hispanic or Latino"}]}],"identifier":[{"type":{"coding":[{"system":"http://terminology.hl7.org/CodeSystem/v2-0203","code":"MR"}]},"system":"https://bonnie-fhir.healthit.gov/","value":"60f82c2f98086b570510e2be"}],"active":true,"name":[{"use":"usual","family":"IPPPass","given":["EncPrinDx=IschemicStrokeTestOccurr"]}],"gender":"male","birthDate":"1995-08-20"},"request":{"method":"PUT","url":"Patient/53e176e2-42f5-4c27-a1fe-23a280982bde"}},{"fullUrl":"https://madie.cms.gov/Encounter/9df02488-f3b2-4043-b4ce-aed8e86d8263","resource":{"resourceType":"Encounter","id":"9df02488-f3b2-4043-b4ce-aed8e86d8263","meta":{"profile":["http://hl7.org/fhir/us/qicore/StructureDefinition/qicore-encounter"]},"status":"finished","class":{"system":"http://terminology.hl7.org/CodeSystem/v3-ActCode","code":"IMP","display":"inpatient encounter"},"type":[{"coding":[{"system":"http://snomed.info/sct","code":"183452005"}]}],"subject":{"reference":"Patient/53e176e2-42f5-4c27-a1fe-23a280982bde"},"period":{"start":"2026-08-20T09:00:00+00:00","end":"2026-08-20T23:59:00+00:00"},"length":{"value":0,"unit":"days"}},"request":{"method":"PUT","url":"Encounter/9df02488-f3b2-4043-b4ce-aed8e86d8263"}},{"fullUrl":"https://madie.cms.gov/Encounter/031a1c0d-2a5b-4dfe-99e3-1e4ad7b53a39","resource":{"resourceType":"Encounter","id":"031a1c0d-2a5b-4dfe-99e3-1e4ad7b53a39","meta":{"profile":["http://hl7.org/fhir/us/qicore/StructureDefinition/qicore-encounter"]},"status":"finished","class":{"system":"http://terminology.hl7.org/CodeSystem/v3-ActCode","code":"IMP","display":"inpatient encounter"},"type":[{"coding":[{"system":"http://snomed.info/sct","code":"32485007"}]}],"subject":{"reference":"Patient/53e176e2-42f5-4c27-a1fe-23a280982bde"},"period":{"start":"2026-08-21T00:00:00+00:00","end":"2026-12-18T23:59:00+00:00"},"length":{"value":119,"unit":"days"},"diagnosis":[{"condition":{"reference":"Condition/8aeffbdc-0abe-4ec8-b01a-9dfdcd42b66d"},"use":{"coding":[{"system":"http://terminology.hl7.org/CodeSystem/diagnosis-role","code":"billing","display":"Billing"}]},"rank":1}]},"request":{"method":"PUT","url":"Encounter/031a1c0d-2a5b-4dfe-99e3-1e4ad7b53a39"}},{"fullUrl":"https://madie.cms.gov/Coverage/510a71b5-de3c-4087-8389-bf3f1de40a69","resource":{"resourceType":"Coverage","id":"510a71b5-de3c-4087-8389-bf3f1de40a69","status":"active","beneficiary":{"reference":"Patient/53e176e2-42f5-4c27-a1fe-23a280982bde"},"period":{"start":"1995-08-20T07:00:00+00:00"},"payor":[{"reference":"Organization/a6c3e6fa-301e-4714-9d04-3dde9a7e7c49"}]},"request":{"method":"PUT","url":"Coverage/510a71b5-de3c-4087-8389-bf3f1de40a69"}},{"fullUrl":"https://madie.cms.gov/Condition/2158d260-5379-467e-9400-b8b84caf1ec6","resource":{"resourceType":"Condition","id":"2158d260-5379-467e-9400-b8b84caf1ec6","meta":{"profile":["http://hl7.org/fhir/us/qicore/StructureDefinition/qicore-condition"]},"clinicalStatus":{"coding":[{"system":"http://terminology.hl7.org/CodeSystem/condition-clinical","code":"active"}]},"verificationStatus":{"coding":[{"system":"http://terminology.hl7.org/CodeSystem/condition-ver-status","code":"confirmed"}]},"category":[{"coding":[{"system":"http://terminology.hl7.org/CodeSystem/condition-category","code":"encounter-diagnosis","display":"Encounter Diagnosis"}]}],"code":{"coding":[{"system":"http://snomed.info/sct","version":"2020-09","code":"111297002","display":"Nonparalytic stroke (disorder)","userSelected":true}]},"subject":{"reference":"Patient/53e176e2-42f5-4c27-a1fe-23a280982bde"},"recordedDate":"2026-08-16T08:00:00.000+00:00"},"request":{"method":"PUT","url":"Condition/2158d260-5379-467e-9400-b8b84caf1ec6"}},{"fullUrl":"https://madie.cms.gov/Condition/8aeffbdc-0abe-4ec8-b01a-9dfdcd42b66d","resource":{"resourceType":"Condition","id":"8aeffbdc-0abe-4ec8-b01a-9dfdcd42b66d","meta":{"profile":["http://hl7.org/fhir/us/qicore/StructureDefinition/qicore-condition"]},"clinicalStatus":{"coding":[{"system":"http://terminology.hl7.org/CodeSystem/condition-clinical","code":"active"}]},"verificationStatus":{"coding":[{"system":"http://terminology.hl7.org/CodeSystem/condition-ver-status","code":"confirmed"}]},"category":[{"coding":[{"system":"http://terminology.hl7.org/CodeSystem/condition-category","code":"encounter-diagnosis","display":"Encounter Diagnosis"}]}],"code":{"coding":[{"system":"http://snomed.info/sct","version":"2020-09","code":"111297002","display":"Nonparalytic stroke (disorder)","userSelected":true}]},"subject":{"reference":"Patient/53e176e2-42f5-4c27-a1fe-23a280982bde"},"recordedDate":"2026-08-16T08:00:00.000+00:00"},"request":{"method":"PUT","url":"Condition/8aeffbdc-0abe-4ec8-b01a-9dfdcd42b66d"}},{"fullUrl":"https://madie.cms.gov/Organization/d3722331-27e4-4bb8-adfa-1bd0511be4d8","resource":{"resourceType":"Organization","id":"a6c3e6fa-301e-4714-9d04-3dde9a7e7c49","meta":{"profile":["http://hl7.org/fhir/us/qicore/StructureDefinition/qicore-organization"]},"identifier":[{"use":"temp","system":"urn:oid:2.16.840.1.113883.4.4","value":"21-3259825"}],"active":true,"type":[{"coding":[{"system":"http://terminology.hl7.org/CodeSystem/organization-type","code":"pay","display":"Payer"}]}],"name":"Blue Cross Blue Shield of Texas","telecom":[{"system":"phone","value":"(+1) 972-766-6900"}],"address":[{"use":"billing","type":"postal","line":["P.O. Box 660044"],"city":"Dallas","state":"TX","postalCode":"75266-0044","country":"USA"}]},"request":{"method":"PUT","url":"Organization/a6c3e6fa-301e-4714-9d04-3dde9a7e7c49"}},{"fullUrl":"https://madie.cms.gov/Practitioner/482e2426-69c0-4a22-9201-e528f2fce254","resource":{"resourceType":"Practitioner","id":"482e2426-69c0-4a22-9201-e528f2fce254","identifier":[{"system":"http://hl7.org/fhir/sid/us-npi","value":"123456"}],"name":[{"family":"Evil","prefix":["Dr"]}]},"request":{"method":"PUT","url":"Practitioner/482e2426-69c0-4a22-9201-e528f2fce254"}},{"fullUrl":"https://madie.cms.gov/MeasureReport/de6f5d07-b414-4b5a-a55a-1820ed77fba0","resource":{"resourceType":"MeasureReport","id":"de6f5d07-b414-4b5a-a55a-1820ed77fba0","meta":{"profile":["http://hl7.org/fhir/us/cqfmeasures/StructureDefinition/test-case-cqfm"]},"contained":[{"resourceType":"Parameters","id":"bead4aa5-7b3d-40d2-b687-81262efed9ff-parameters","parameter":[{"name":"subject","valueString":"53e176e2-42f5-4c27-a1fe-23a280982bde"}]}],"extension":[{"url":"http://hl7.org/fhir/us/cqfmeasures/StructureDefinition/cqfm-inputParameters","valueReference":{"reference":"#bead4aa5-7b3d-40d2-b687-81262efed9ff-parameters"}},{"url":"http://hl7.org/fhir/us/cqfmeasures/StructureDefinition/cqfm-testCaseDescription","valueMarkdown":"EncPrinDx=IschemicStroke LOS<120. Testing multiple occurrences\n"}],"modifierExtension":[{"url":"http://hl7.org/fhir/us/cqfmeasures/StructureDefinition/cqfm-isTestCase","valueBoolean":true}],"status":"complete","type":"individual","measure":"https://madie.cms.gov/Measure/CMS72FHIRSTKAntithromboticDay2","period":{"start":"2026-01-01","end":"2026-12-31"},"group":[{"population":[{"code":{"coding":[{"system":"http://terminology.hl7.org/CodeSystem/measure-population","code":"initial-population","display":"Initial Population"}]},"count":1},{"code":{"coding":[{"system":"http://terminology.hl7.org/CodeSystem/measure-population","code":"denominator","display":"Denominator"}]},"count":1},{"code":{"coding":[{"system":"http://terminology.hl7.org/CodeSystem/measure-population","code":"denominator-exclusion","display":"Denominator Exclusion"}]},"count":0},{"code":{"coding":[{"system":"http://terminology.hl7.org/CodeSystem/measure-population","code":"numerator","display":"Numerator"}]},"count":0},{"code":{"coding":[{"system":"http://terminology.hl7.org/CodeSystem/measure-population","code":"denominator-exception","display":"Denominator Exception"}]},"count":0}]}]},"request":{"method":"PUT","url":"MeasureReport/de6f5d07-b414-4b5a-a55a-1820ed77fba0"}}]}