{"resourceType":"Bundle","id":"tests-d181a3fc-f968-4952-b4e0-1255d029bf48-bundle","type":"transaction","entry":[{"fullUrl":"https://madie.cms.gov/Patient/d181a3fc-f968-4952-b4e0-1255d029bf48","resource":{"resourceType":"Patient","id":"d181a3fc-f968-4952-b4e0-1255d029bf48","meta":{"profile":["http://hl7.org/fhir/us/qicore/StructureDefinition/qicore-patient"]},"text":{"status":"generated","div":"<div xmlns=\"http://www.w3.org/1999/xhtml\"><div class=\"hapiHeaderText\">LOS&gt;2Days_NoED <b>DENEXFAIL </b></div><table class=\"hapiPropertyTable\"><tbody><tr><td>Identifier</td><td>faada1a35d05db1b5b65cc8a73a790b2</td></tr><tr><td>Date of birth</td><td><span>20 August 1994</span></td></tr></tbody></table></div>"},"extension":[{"url":"http://hl7.org/fhir/us/core/StructureDefinition/us-core-race","extension":[{"url":"ombCategory","valueCoding":{"system":"urn:oid:2.16.840.1.113883.6.238","code":"1002-5","display":"American Indian or Alaska Native","userSelected":true}},{"url":"text","valueString":"American Indian or Alaska Native"}]},{"url":"http://hl7.org/fhir/us/core/StructureDefinition/us-core-ethnicity","extension":[{"url":"ombCategory","valueCoding":{"system":"urn:oid:2.16.840.1.113883.6.238","code":"2135-2","display":"Hispanic or Latino","userSelected":true}},{"url":"text","valueString":"Hispanic or Latino"}]}],"identifier":[{"type":{"coding":[{"system":"http://terminology.hl7.org/CodeSystem/v2-0203","code":"MR"}]},"system":"https://bonnie-fhir.healthit.gov/","value":"60f82c2d98086b570510e256"}],"active":true,"name":[{"use":"usual","family":"DENEXFail","given":["LOS>2Days_NoED"]}],"gender":"male","birthDate":"1995-08-20"},"request":{"method":"PUT","url":"Patient/d181a3fc-f968-4952-b4e0-1255d029bf48"}},{"fullUrl":"https://madie.cms.gov/Encounter/a58b2ce1-bf5e-41cf-9608-43ceb36054f1","resource":{"resourceType":"Encounter","id":"a58b2ce1-bf5e-41cf-9608-43ceb36054f1","meta":{"profile":["http://hl7.org/fhir/us/qicore/StructureDefinition/qicore-encounter"]},"status":"finished","class":{"system":"http://terminology.hl7.org/CodeSystem/v3-ActCode","code":"IMP","display":"inpatient encounter","userSelected":true},"type":[{"coding":[{"system":"http://snomed.info/sct","code":"32485007"}]}],"subject":{"reference":"Patient/d181a3fc-f968-4952-b4e0-1255d029bf48"},"period":{"start":"2026-08-21T00:00:00+00:00","end":"2026-08-24T12:00:00+00:00"},"length":{"value":3,"unit":"days"},"diagnosis":[{"condition":{"reference":"Condition/28350482-4132-4493-b372-1cfa6f44cad1"},"use":{"coding":[{"system":"http://terminology.hl7.org/CodeSystem/diagnosis-role","code":"billing","display":"Billing"}]},"rank":1}]},"request":{"method":"PUT","url":"Encounter/a58b2ce1-bf5e-41cf-9608-43ceb36054f1"}},{"fullUrl":"https://madie.cms.gov/Coverage/8b74a342-cf03-48d8-97e5-834455e92729","resource":{"resourceType":"Coverage","id":"8b74a342-cf03-48d8-97e5-834455e92729","status":"active","beneficiary":{"reference":"Patient/d181a3fc-f968-4952-b4e0-1255d029bf48"},"period":{"start":"1995-08-20T07:00:00+00:00"},"payor":[{"reference":"Organization/3e899f33-84eb-4634-a770-a5a0bd7a80e7"}]},"request":{"method":"PUT","url":"Coverage/8b74a342-cf03-48d8-97e5-834455e92729"}},{"fullUrl":"https://madie.cms.gov/Condition/28350482-4132-4493-b372-1cfa6f44cad1","resource":{"resourceType":"Condition","id":"28350482-4132-4493-b372-1cfa6f44cad1","meta":{"profile":["http://hl7.org/fhir/us/qicore/StructureDefinition/qicore-condition"]},"clinicalStatus":{"coding":[{"system":"http://terminology.hl7.org/CodeSystem/condition-clinical","code":"active"}]},"verificationStatus":{"coding":[{"system":"http://terminology.hl7.org/CodeSystem/condition-ver-status","code":"confirmed"}]},"category":[{"coding":[{"system":"http://terminology.hl7.org/CodeSystem/condition-category","code":"encounter-diagnosis","display":"Encounter Diagnosis"}]}],"code":{"coding":[{"system":"http://snomed.info/sct","version":"2020-09","code":"111297002","display":"Nonparalytic stroke (disorder)","userSelected":true}]},"subject":{"reference":"Patient/d181a3fc-f968-4952-b4e0-1255d029bf48"},"recordedDate":"2026-08-12T08:00:00.000+00:00"},"request":{"method":"PUT","url":"Condition/28350482-4132-4493-b372-1cfa6f44cad1"}},{"fullUrl":"https://madie.cms.gov/Organization/7e2a65dd-5b13-48cb-a4e8-2e9d0321de26","resource":{"resourceType":"Organization","id":"3e899f33-84eb-4634-a770-a5a0bd7a80e7","meta":{"profile":["http://hl7.org/fhir/us/qicore/StructureDefinition/qicore-organization"]},"identifier":[{"use":"temp","system":"urn:oid:2.16.840.1.113883.4.4","value":"21-3259825"}],"active":true,"type":[{"coding":[{"system":"http://terminology.hl7.org/CodeSystem/organization-type","code":"pay","display":"Payer"}]}],"name":"Blue Cross Blue Shield of Texas","telecom":[{"system":"phone","value":"(+1) 972-766-6900"}],"address":[{"use":"billing","type":"postal","line":["P.O. Box 660044"],"city":"Dallas","state":"TX","postalCode":"75266-0044","country":"USA"}]},"request":{"method":"PUT","url":"Organization/3e899f33-84eb-4634-a770-a5a0bd7a80e7"}},{"fullUrl":"https://madie.cms.gov/MeasureReport/dedc6f36-4b8a-4316-97c9-747a1a768b92","resource":{"resourceType":"MeasureReport","id":"dedc6f36-4b8a-4316-97c9-747a1a768b92","meta":{"profile":["http://hl7.org/fhir/us/cqfmeasures/StructureDefinition/test-case-cqfm"]},"contained":[{"resourceType":"Parameters","id":"fe61a668-4d62-44a0-80b1-f331a0c1575b-parameters","parameter":[{"name":"subject","valueString":"d181a3fc-f968-4952-b4e0-1255d029bf48"}]}],"extension":[{"url":"http://hl7.org/fhir/us/cqfmeasures/StructureDefinition/cqfm-inputParameters","valueReference":{"reference":"#fe61a668-4d62-44a0-80b1-f331a0c1575b-parameters"}},{"url":"http://hl7.org/fhir/us/cqfmeasures/StructureDefinition/cqfm-testCaseDescription","valueMarkdown":"Patient has LOS > 2 days AND NOT an ED Visit , global.Hospitalization( =Enc IP)\n"}],"modifierExtension":[{"url":"http://hl7.org/fhir/us/cqfmeasures/StructureDefinition/cqfm-isTestCase","valueBoolean":true}],"status":"complete","type":"individual","measure":"https://madie.cms.gov/Measure/CMS72FHIRSTKAntithromboticDay2","period":{"start":"2026-01-01","end":"2026-12-31"},"group":[{"population":[{"code":{"coding":[{"system":"http://terminology.hl7.org/CodeSystem/measure-population","code":"initial-population","display":"Initial Population"}]},"count":1},{"code":{"coding":[{"system":"http://terminology.hl7.org/CodeSystem/measure-population","code":"denominator","display":"Denominator"}]},"count":1},{"code":{"coding":[{"system":"http://terminology.hl7.org/CodeSystem/measure-population","code":"denominator-exclusion","display":"Denominator Exclusion"}]},"count":0},{"code":{"coding":[{"system":"http://terminology.hl7.org/CodeSystem/measure-population","code":"numerator","display":"Numerator"}]},"count":0},{"code":{"coding":[{"system":"http://terminology.hl7.org/CodeSystem/measure-population","code":"denominator-exception","display":"Denominator Exception"}]},"count":0}]}]},"request":{"method":"PUT","url":"MeasureReport/dedc6f36-4b8a-4316-97c9-747a1a768b92"}}]}