{"resourceType":"Bundle","id":"tests-47b12717-f90f-406a-a114-16fddfbaf8c2-bundle","type":"transaction","entry":[{"fullUrl":"https://madie.cms.gov/Patient/47b12717-f90f-406a-a114-16fddfbaf8c2","resource":{"resourceType":"Patient","id":"47b12717-f90f-406a-a114-16fddfbaf8c2","meta":{"profile":["http://hl7.org/fhir/us/qicore/StructureDefinition/qicore-patient"]},"text":{"status":"generated","div":"<div xmlns=\"http://www.w3.org/1999/xhtml\"><div class=\"hapiHeaderText\">EncPrinDx=Afib/Flutter <b>IPPFAIL </b></div><table class=\"hapiPropertyTable\"><tbody><tr><td>Identifier</td><td>6b4f64b42db275e27090e0e95feaf581</td></tr><tr><td>Date of birth</td><td><span>01 December 1960</span></td></tr></tbody></table></div>"},"extension":[{"url":"http://hl7.org/fhir/us/core/StructureDefinition/us-core-race","extension":[{"url":"ombCategory","valueCoding":{"system":"urn:oid:2.16.840.1.113883.6.238","code":"1002-5","display":"American Indian or Alaska Native","userSelected":true}},{"url":"text","valueString":"American Indian or Alaska Native"}]},{"url":"http://hl7.org/fhir/us/core/StructureDefinition/us-core-ethnicity","extension":[{"url":"ombCategory","valueCoding":{"system":"urn:oid:2.16.840.1.113883.6.238","code":"2135-2","display":"Hispanic or Latino","userSelected":true}},{"url":"text","valueString":"Hispanic or Latino"}]}],"identifier":[{"type":{"coding":[{"system":"http://terminology.hl7.org/CodeSystem/v2-0203","code":"MR"}]},"system":"https://bonnie-fhir.healthit.gov/","value":"60f82c2e98086b570510e271"}],"active":true,"name":[{"use":"usual","family":"IPPFail","given":["EncPrinDx=Afib/Flutter"]}],"gender":"male","birthDate":"1961-12-01"},"request":{"method":"PUT","url":"Patient/47b12717-f90f-406a-a114-16fddfbaf8c2"}},{"fullUrl":"https://madie.cms.gov/Encounter/b353c17d-d5fc-4358-b333-b4a91da1116c","resource":{"resourceType":"Encounter","id":"b353c17d-d5fc-4358-b333-b4a91da1116c","meta":{"profile":["http://hl7.org/fhir/us/qicore/StructureDefinition/qicore-encounter"]},"status":"finished","class":{"system":"http://terminology.hl7.org/CodeSystem/v3-ActCode","code":"IMP","display":"inpatient encounter"},"type":[{"coding":[{"system":"http://snomed.info/sct","code":"32485007"}]}],"subject":{"reference":"Patient/47b12717-f90f-406a-a114-16fddfbaf8c2"},"period":{"start":"2026-02-08T08:00:00+00:00","end":"2026-02-10T08:15:00+00:00"},"length":{"value":2.0,"unit":"days"},"diagnosis":[{"condition":{"reference":"Condition/ischemic-stroke-824c"},"use":{"coding":[{"system":"http://snomed.info/sct","code":"120041000119109","display":"Atrial Fibrillation/Flutter"}]},"rank":1}]},"request":{"method":"PUT","url":"Encounter/b353c17d-d5fc-4358-b333-b4a91da1116c"}},{"fullUrl":"https://madie.cms.gov/Coverage/48c8aeae-3841-44bd-acfc-4dd23379d13a","resource":{"resourceType":"Coverage","id":"48c8aeae-3841-44bd-acfc-4dd23379d13a","status":"active","beneficiary":{"reference":"Patient/47b12717-f90f-406a-a114-16fddfbaf8c2"},"period":{"start":"1961-12-01T08:00:00+00:00"},"payor":[{"reference":"Organization/9e9b3f13-a353-4173-b29b-947d6f1f2031"}]},"request":{"method":"PUT","url":"Coverage/48c8aeae-3841-44bd-acfc-4dd23379d13a"}},{"fullUrl":"https://madie.cms.gov/Organization/d7f6f95b-86be-4f7e-87c2-81fd74064cc2","resource":{"resourceType":"Organization","id":"9e9b3f13-a353-4173-b29b-947d6f1f2031","meta":{"profile":["http://hl7.org/fhir/us/qicore/StructureDefinition/qicore-organization"]},"identifier":[{"use":"temp","system":"urn:oid:2.16.840.1.113883.4.4","value":"21-3259825"}],"active":true,"type":[{"coding":[{"system":"http://terminology.hl7.org/CodeSystem/organization-type","code":"pay","display":"Payer"}]}],"name":"Blue Cross Blue Shield of Texas","telecom":[{"system":"phone","value":"(+1) 972-766-6900"}],"address":[{"use":"billing","type":"postal","line":["P.O. Box 660044"],"city":"Dallas","state":"TX","postalCode":"75266-0044","country":"USA"}]},"request":{"method":"PUT","url":"Organization/9e9b3f13-a353-4173-b29b-947d6f1f2031"}},{"fullUrl":"https://madie.cms.gov/Practitioner/84d5e011-7312-4f4f-9bc7-05b1198f8a22","resource":{"resourceType":"Practitioner","id":"84d5e011-7312-4f4f-9bc7-05b1198f8a22","identifier":[{"system":"http://hl7.org/fhir/sid/us-npi","value":"123456"}],"name":[{"family":"Evil","prefix":["Dr"]}]},"request":{"method":"PUT","url":"Practitioner/84d5e011-7312-4f4f-9bc7-05b1198f8a22"}},{"fullUrl":"https://madie.cms.gov/MeasureReport/f99e8dac-943a-45fe-9602-a605e180199f","resource":{"resourceType":"MeasureReport","id":"f99e8dac-943a-45fe-9602-a605e180199f","meta":{"profile":["http://hl7.org/fhir/us/cqfmeasures/StructureDefinition/test-case-cqfm"]},"contained":[{"resourceType":"Parameters","id":"3a44c807-f7f4-40e8-856d-a27e7ba70bf0-parameters","parameter":[{"name":"subject","valueString":"47b12717-f90f-406a-a114-16fddfbaf8c2"}]}],"extension":[{"url":"http://hl7.org/fhir/us/cqfmeasures/StructureDefinition/cqfm-inputParameters","valueReference":{"reference":"#3a44c807-f7f4-40e8-856d-a27e7ba70bf0-parameters"}},{"url":"http://hl7.org/fhir/us/cqfmeasures/StructureDefinition/cqfm-testCaseDescription","valueMarkdown":"Enc Principal diagnosis not in value set ( is Afib/Flutter)\n"}],"modifierExtension":[{"url":"http://hl7.org/fhir/us/cqfmeasures/StructureDefinition/cqfm-isTestCase","valueBoolean":true}],"status":"complete","type":"individual","measure":"https://madie.cms.gov/Measure/CMS72FHIRSTKAntithromboticDay2","period":{"start":"2026-01-01","end":"2026-12-31"},"group":[{"population":[{"code":{"coding":[{"system":"http://terminology.hl7.org/CodeSystem/measure-population","code":"initial-population","display":"Initial Population"}]},"count":0},{"code":{"coding":[{"system":"http://terminology.hl7.org/CodeSystem/measure-population","code":"denominator","display":"Denominator"}]},"count":0},{"code":{"coding":[{"system":"http://terminology.hl7.org/CodeSystem/measure-population","code":"denominator-exclusion","display":"Denominator Exclusion"}]},"count":0},{"code":{"coding":[{"system":"http://terminology.hl7.org/CodeSystem/measure-population","code":"numerator","display":"Numerator"}]},"count":0},{"code":{"coding":[{"system":"http://terminology.hl7.org/CodeSystem/measure-population","code":"denominator-exception","display":"Denominator Exception"}]},"count":0}]}]},"request":{"method":"PUT","url":"MeasureReport/f99e8dac-943a-45fe-9602-a605e180199f"}}]}