{"resourceType":"Bundle","id":"tests-d82d5f38-a1b7-4f28-a3db-25f42f7e64b2-bundle","type":"transaction","entry":[{"fullUrl":"https://madie.cms.gov/Patient/d82d5f38-a1b7-4f28-a3db-25f42f7e64b2","resource":{"resourceType":"Patient","id":"d82d5f38-a1b7-4f28-a3db-25f42f7e64b2","meta":{"profile":["http://hl7.org/fhir/us/qicore/StructureDefinition/qicore-patient"]},"text":{"status":"generated","div":"<div xmlns=\"http://www.w3.org/1999/xhtml\"><div class=\"hapiHeaderText\">INRGT3.5.resultDatetime_EQHospEncStartday <b>DENEXPASS </b></div><table class=\"hapiPropertyTable\"><tbody><tr><td>Identifier</td><td>dfa8445af2775eb6d72ac78e5253d54ae4b88f8656f6a0b4bf81ce35b6315a00</td></tr><tr><td>Date of birth</td><td><span>26 September 1975</span></td></tr></tbody></table></div>"},"extension":[{"url":"http://hl7.org/fhir/us/core/StructureDefinition/us-core-race","extension":[{"url":"ombCategory","valueCoding":{"system":"urn:oid:2.16.840.1.113883.6.238","code":"2054-5","display":"Black or African American","userSelected":true}},{"url":"text","valueString":"Black or African American"}]},{"url":"http://hl7.org/fhir/us/core/StructureDefinition/us-core-ethnicity","extension":[{"url":"ombCategory","valueCoding":{"system":"urn:oid:2.16.840.1.113883.6.238","code":"2186-5","display":"Not Hispanic or Latino","userSelected":true}},{"url":"text","valueString":"Not Hispanic or Latino"}]}],"identifier":[{"type":{"coding":[{"system":"http://terminology.hl7.org/CodeSystem/v2-0203","code":"MR"}]},"system":"https://bonnie-fhir.healthit.gov/","value":"60f82c2f98086b570510e2c2"}],"active":true,"name":[{"use":"usual","family":"DENEXCEPPass","given":["INRGT3.5.resultDatetime_EQHospEncStartday"]}],"gender":"female","birthDate":"1976-09-26"},"request":{"method":"PUT","url":"Patient/d82d5f38-a1b7-4f28-a3db-25f42f7e64b2"}},{"fullUrl":"https://madie.cms.gov/Encounter/edeef4a4-036e-4ad4-ad13-07c3efba7992","resource":{"resourceType":"Encounter","id":"edeef4a4-036e-4ad4-ad13-07c3efba7992","meta":{"profile":["http://hl7.org/fhir/us/qicore/StructureDefinition/qicore-encounter"]},"status":"finished","class":{"system":"http://terminology.hl7.org/CodeSystem/v3-ActCode","code":"IMP","display":"inpatient encounter"},"type":[{"coding":[{"system":"http://snomed.info/sct","code":"32485007"}]}],"subject":{"reference":"Patient/d82d5f38-a1b7-4f28-a3db-25f42f7e64b2"},"period":{"start":"2026-10-10T06:30:00+00:00","end":"2026-10-15T11:30:00+00:00"},"length":{"value":5,"unit":"days"},"diagnosis":[{"condition":{"reference":"Condition/275ab2c4-aa92-44ff-9271-296084960d68"},"use":{"coding":[{"system":"http://terminology.hl7.org/CodeSystem/diagnosis-role","code":"billing","display":"Billing"}]},"rank":1}]},"request":{"method":"PUT","url":"Encounter/edeef4a4-036e-4ad4-ad13-07c3efba7992"}},{"fullUrl":"https://madie.cms.gov/Observation/e301a562-5829-452c-8ac8-399e924b998a","resource":{"resourceType":"Observation","id":"e301a562-5829-452c-8ac8-399e924b998a","meta":{"profile":["http://hl7.org/fhir/us/qicore/StructureDefinition/qicore-observation"]},"status":"final","category":[{"coding":[{"system":"http://terminology.hl7.org/CodeSystem/observation-category","code":"laboratory","display":"Laboratory"}]}],"code":{"coding":[{"system":"http://loinc.org","code":"34714-6"}]},"subject":{"reference":"Patient/d82d5f38-a1b7-4f28-a3db-25f42f7e64b2"},"effectivePeriod":{"start":"2026-10-10T06:15:00+00:00"},"issued":"2026-10-10T06:30:00.000+00:00","valueQuantity":{"value":3.6}},"request":{"method":"PUT","url":"Observation/e301a562-5829-452c-8ac8-399e924b998a"}},{"fullUrl":"https://madie.cms.gov/Coverage/030c0ba2-3a34-4104-9ae5-3cdfbfb059e9","resource":{"resourceType":"Coverage","id":"030c0ba2-3a34-4104-9ae5-3cdfbfb059e9","status":"active","beneficiary":{"reference":"Patient/d82d5f38-a1b7-4f28-a3db-25f42f7e64b2"},"period":{"start":"1976-09-26T08:00:00+00:00"},"payor":[{"reference":"Organization/aeb2c6be-6577-4bba-a6b6-6eab95111f1b"}]},"request":{"method":"PUT","url":"Coverage/030c0ba2-3a34-4104-9ae5-3cdfbfb059e9"}},{"fullUrl":"https://madie.cms.gov/Condition/275ab2c4-aa92-44ff-9271-296084960d68","resource":{"resourceType":"Condition","id":"275ab2c4-aa92-44ff-9271-296084960d68","meta":{"profile":["http://hl7.org/fhir/us/qicore/StructureDefinition/qicore-condition"]},"clinicalStatus":{"coding":[{"system":"http://terminology.hl7.org/CodeSystem/condition-clinical","code":"active"}]},"verificationStatus":{"coding":[{"system":"http://terminology.hl7.org/CodeSystem/condition-ver-status","code":"confirmed"}]},"category":[{"coding":[{"system":"http://terminology.hl7.org/CodeSystem/condition-category","code":"encounter-diagnosis","display":"Encounter Diagnosis"}]}],"code":{"coding":[{"system":"http://snomed.info/sct","version":"2020-09","code":"111297002","display":"Nonparalytic stroke (disorder)","userSelected":true}]},"subject":{"reference":"Patient/d82d5f38-a1b7-4f28-a3db-25f42f7e64b2"},"recordedDate":"2026-08-13T08:00:00.000+00:00"},"request":{"method":"PUT","url":"Condition/275ab2c4-aa92-44ff-9271-296084960d68"}},{"fullUrl":"https://madie.cms.gov/Organization/ef55cb06-b9d8-42ca-9a40-ec983e4e4ce8","resource":{"resourceType":"Organization","id":"aeb2c6be-6577-4bba-a6b6-6eab95111f1b","meta":{"profile":["http://hl7.org/fhir/us/qicore/StructureDefinition/qicore-organization"]},"identifier":[{"use":"temp","system":"urn:oid:2.16.840.1.113883.4.4","value":"21-3259825"}],"active":true,"type":[{"coding":[{"system":"http://terminology.hl7.org/CodeSystem/organization-type","code":"pay","display":"Payer"}]}],"name":"Blue Cross Blue Shield of Texas","telecom":[{"system":"phone","value":"(+1) 972-766-6900"}],"address":[{"use":"billing","type":"postal","line":["P.O. Box 660044"],"city":"Dallas","state":"TX","postalCode":"75266-0044","country":"USA"}]},"request":{"method":"PUT","url":"Organization/aeb2c6be-6577-4bba-a6b6-6eab95111f1b"}},{"fullUrl":"https://madie.cms.gov/MeasureReport/4a98cb14-5e89-4733-a4b9-82a2cf290893","resource":{"resourceType":"MeasureReport","id":"4a98cb14-5e89-4733-a4b9-82a2cf290893","meta":{"profile":["http://hl7.org/fhir/us/cqfmeasures/StructureDefinition/test-case-cqfm"]},"contained":[{"resourceType":"Parameters","id":"b84a2056-339d-4f9e-be7a-1b8ef9af6c9a-parameters","parameter":[{"name":"subject","valueString":"d82d5f38-a1b7-4f28-a3db-25f42f7e64b2"}]}],"extension":[{"url":"http://hl7.org/fhir/us/cqfmeasures/StructureDefinition/cqfm-inputParameters","valueReference":{"reference":"#b84a2056-339d-4f9e-be7a-1b8ef9af6c9a-parameters"}},{"url":"http://hl7.org/fhir/us/cqfmeasures/StructureDefinition/cqfm-testCaseDescription","valueMarkdown":"Patient receives INR of greater than 3.5 equal to the day of IP start. No ED. No Obs. INR value of 100.\n"}],"modifierExtension":[{"url":"http://hl7.org/fhir/us/cqfmeasures/StructureDefinition/cqfm-isTestCase","valueBoolean":true}],"status":"complete","type":"individual","measure":"https://madie.cms.gov/Measure/CMS72FHIRSTKAntithromboticDay2","period":{"start":"2026-01-01","end":"2026-12-31"},"group":[{"population":[{"code":{"coding":[{"system":"http://terminology.hl7.org/CodeSystem/measure-population","code":"initial-population","display":"Initial Population"}]},"count":1},{"code":{"coding":[{"system":"http://terminology.hl7.org/CodeSystem/measure-population","code":"denominator","display":"Denominator"}]},"count":1},{"code":{"coding":[{"system":"http://terminology.hl7.org/CodeSystem/measure-population","code":"denominator-exclusion","display":"Denominator Exclusion"}]},"count":0},{"code":{"coding":[{"system":"http://terminology.hl7.org/CodeSystem/measure-population","code":"numerator","display":"Numerator"}]},"count":0},{"code":{"coding":[{"system":"http://terminology.hl7.org/CodeSystem/measure-population","code":"denominator-exception","display":"Denominator Exception"}]},"count":1}]}]},"request":{"method":"PUT","url":"MeasureReport/4a98cb14-5e89-4733-a4b9-82a2cf290893"}}]}