{"resourceType":"Bundle","id":"tests-152dd69a-9bdb-4d12-83ef-c1552a45abca-bundle","type":"transaction","entry":[{"fullUrl":"https://madie.cms.gov/Patient/152dd69a-9bdb-4d12-83ef-c1552a45abca","resource":{"resourceType":"Patient","id":"152dd69a-9bdb-4d12-83ef-c1552a45abca","meta":{"profile":["http://hl7.org/fhir/us/qicore/StructureDefinition/qicore-patient"]},"text":{"status":"generated","div":"<div xmlns=\"http://www.w3.org/1999/xhtml\"><div class=\"hapiHeaderText\">FailAllNoSTK <b>IPPFAIL </b></div><table class=\"hapiPropertyTable\"><tbody><tr><td>Identifier</td><td>9dd0a99db88099b7782887910f1740bb</td></tr><tr><td>Date of birth</td><td><span>21 August 1994</span></td></tr></tbody></table></div>"},"extension":[{"url":"http://hl7.org/fhir/us/core/StructureDefinition/us-core-race","extension":[{"url":"ombCategory","valueCoding":{"system":"urn:oid:2.16.840.1.113883.6.238","code":"2028-9","display":"Asian","userSelected":true}},{"url":"text","valueString":"Asian"}]},{"url":"http://hl7.org/fhir/us/core/StructureDefinition/us-core-ethnicity","extension":[{"url":"ombCategory","valueCoding":{"system":"urn:oid:2.16.840.1.113883.6.238","code":"2186-5","display":"Not Hispanic or Latino","userSelected":true}},{"url":"text","valueString":"Not Hispanic or Latino"}]}],"identifier":[{"type":{"coding":[{"system":"http://terminology.hl7.org/CodeSystem/v2-0203","code":"MR"}]},"system":"https://bonnie-fhir.healthit.gov/","value":"60f82c2d98086b570510e251"}],"active":true,"name":[{"use":"usual","family":"IPPFail","given":["FailAllNoSTK"]}],"gender":"female","birthDate":"1995-08-21"},"request":{"method":"PUT","url":"Patient/152dd69a-9bdb-4d12-83ef-c1552a45abca"}},{"fullUrl":"https://madie.cms.gov/Encounter/4f0695f3-2cce-4d72-97d5-a581867a87c0","resource":{"resourceType":"Encounter","id":"4f0695f3-2cce-4d72-97d5-a581867a87c0","meta":{"profile":["http://hl7.org/fhir/us/qicore/StructureDefinition/qicore-encounter"]},"status":"finished","class":{"system":"http://terminology.hl7.org/CodeSystem/v3-ActCode","code":"IMP","display":"inpatient encounter"},"type":[{"coding":[{"system":"http://snomed.info/sct","code":"32485007"}]}],"subject":{"reference":"Patient/152dd69a-9bdb-4d12-83ef-c1552a45abca"},"period":{"start":"2026-08-21T09:30:00+00:00","end":"2026-12-19T10:30:00+00:00"},"length":{"value":120.0,"unit":"days"}},"request":{"method":"PUT","url":"Encounter/4f0695f3-2cce-4d72-97d5-a581867a87c0"}},{"fullUrl":"https://madie.cms.gov/Coverage/8578668c-585c-4bca-91db-238d8b155bf4","resource":{"resourceType":"Coverage","id":"8578668c-585c-4bca-91db-238d8b155bf4","status":"active","beneficiary":{"reference":"Patient/152dd69a-9bdb-4d12-83ef-c1552a45abca"},"period":{"start":"1995-08-21T07:00:00+00:00"},"payor":[{"reference":"Organization/3778262e-e084-4bb5-9a47-1a144735f786"}]},"request":{"method":"PUT","url":"Coverage/8578668c-585c-4bca-91db-238d8b155bf4"}},{"fullUrl":"https://madie.cms.gov/Organization/23aa4c19-b735-487e-988d-a177cd3ed67e","resource":{"resourceType":"Organization","id":"3778262e-e084-4bb5-9a47-1a144735f786","meta":{"profile":["http://hl7.org/fhir/us/qicore/StructureDefinition/qicore-organization"]},"identifier":[{"use":"temp","system":"urn:oid:2.16.840.1.113883.4.4","value":"21-3259825"}],"active":true,"type":[{"coding":[{"system":"http://terminology.hl7.org/CodeSystem/organization-type","code":"pay","display":"Payer"}]}],"name":"Blue Cross Blue Shield of Texas","telecom":[{"system":"phone","value":"(+1) 972-766-6900"}],"address":[{"use":"billing","type":"postal","line":["P.O. Box 660044"],"city":"Dallas","state":"TX","postalCode":"75266-0044","country":"USA"}]},"request":{"method":"PUT","url":"Organization/3778262e-e084-4bb5-9a47-1a144735f786"}},{"fullUrl":"https://madie.cms.gov/Practitioner/21747cbd-5e0f-4b1c-a46e-26e478794b51","resource":{"resourceType":"Practitioner","id":"21747cbd-5e0f-4b1c-a46e-26e478794b51","identifier":[{"system":"http://hl7.org/fhir/sid/us-npi","value":"123456"}],"name":[{"family":"Evil","prefix":["Dr"]}]},"request":{"method":"PUT","url":"Practitioner/21747cbd-5e0f-4b1c-a46e-26e478794b51"}},{"fullUrl":"https://madie.cms.gov/MeasureReport/6a031581-bd84-4adc-8950-f48d9d982616","resource":{"resourceType":"MeasureReport","id":"6a031581-bd84-4adc-8950-f48d9d982616","meta":{"profile":["http://hl7.org/fhir/us/cqfmeasures/StructureDefinition/test-case-cqfm"]},"contained":[{"resourceType":"Parameters","id":"b3b067d6-96ff-4ac2-b8e2-07aec3fca331-parameters","parameter":[{"name":"subject","valueString":"152dd69a-9bdb-4d12-83ef-c1552a45abca"}]}],"extension":[{"url":"http://hl7.org/fhir/us/cqfmeasures/StructureDefinition/cqfm-inputParameters","valueReference":{"reference":"#b3b067d6-96ff-4ac2-b8e2-07aec3fca331-parameters"}},{"url":"http://hl7.org/fhir/us/cqfmeasures/StructureDefinition/cqfm-testCaseDescription","valueMarkdown":" no principal diagnosis of stroke (ischemic or hemorrhagic)\n"}],"modifierExtension":[{"url":"http://hl7.org/fhir/us/cqfmeasures/StructureDefinition/cqfm-isTestCase","valueBoolean":true}],"status":"complete","type":"individual","measure":"https://madie.cms.gov/Measure/CMS72FHIRSTKAntithromboticDay2","period":{"start":"2026-01-01","end":"2026-12-31"},"group":[{"population":[{"code":{"coding":[{"system":"http://terminology.hl7.org/CodeSystem/measure-population","code":"initial-population","display":"Initial Population"}]},"count":0},{"code":{"coding":[{"system":"http://terminology.hl7.org/CodeSystem/measure-population","code":"denominator","display":"Denominator"}]},"count":0},{"code":{"coding":[{"system":"http://terminology.hl7.org/CodeSystem/measure-population","code":"denominator-exclusion","display":"Denominator Exclusion"}]},"count":0},{"code":{"coding":[{"system":"http://terminology.hl7.org/CodeSystem/measure-population","code":"numerator","display":"Numerator"}]},"count":0},{"code":{"coding":[{"system":"http://terminology.hl7.org/CodeSystem/measure-population","code":"denominator-exception","display":"Denominator Exception"}]},"count":0}]}]},"request":{"method":"PUT","url":"MeasureReport/6a031581-bd84-4adc-8950-f48d9d982616"}}]}