{"resourceType":"Bundle","id":"tests-70e86911-43d6-41de-bfb9-933d8f539b98-bundle","type":"transaction","entry":[{"fullUrl":"https://madie.cms.gov/Patient/70e86911-43d6-41de-bfb9-933d8f539b98","resource":{"resourceType":"Patient","id":"70e86911-43d6-41de-bfb9-933d8f539b98","meta":{"profile":["http://hl7.org/fhir/us/qicore/StructureDefinition/qicore-patient"]},"text":{"status":"generated","div":"<div xmlns=\"http://www.w3.org/1999/xhtml\"><div class=\"hapiHeaderText\">INR1minBFDayOfEncStart_NoEDNoObsBFEncDayOf <b>DENEXCEPASS </b></div><table class=\"hapiPropertyTable\"><tbody><tr><td>Identifier</td><td>d5994cf841b7ad6e3a6bba580fb9aaa65e9de71cb0b11577054e2d6bbb469e0f</td></tr><tr><td>Date of birth</td><td><span>26 September 1975</span></td></tr></tbody></table></div>"},"extension":[{"url":"http://hl7.org/fhir/us/core/StructureDefinition/us-core-race","extension":[{"url":"ombCategory","valueCoding":{"system":"urn:oid:2.16.840.1.113883.6.238","code":"2054-5","display":"Black or African American","userSelected":true}},{"url":"text","valueString":"Black or African American"}]},{"url":"http://hl7.org/fhir/us/core/StructureDefinition/us-core-ethnicity","extension":[{"url":"ombCategory","valueCoding":{"system":"urn:oid:2.16.840.1.113883.6.238","code":"2186-5","display":"Not Hispanic or Latino","userSelected":true}},{"url":"text","valueString":"Not Hispanic or Latino"}]}],"identifier":[{"type":{"coding":[{"system":"http://terminology.hl7.org/CodeSystem/v2-0203","code":"MR"}]},"system":"https://bonnie-fhir.healthit.gov/","value":"60f82c2e98086b570510e299"}],"active":true,"name":[{"use":"usual","family":"DENEXCEPass","given":["INR1minBFDayOfEncStart_NoEDNoObsBFEncDayOf"]}],"gender":"female","birthDate":"1976-09-26"},"request":{"method":"PUT","url":"Patient/70e86911-43d6-41de-bfb9-933d8f539b98"}},{"fullUrl":"https://madie.cms.gov/Encounter/2f45ebe8-7b43-4475-a98e-87a81a25c681","resource":{"resourceType":"Encounter","id":"2f45ebe8-7b43-4475-a98e-87a81a25c681","meta":{"profile":["http://hl7.org/fhir/us/qicore/StructureDefinition/qicore-encounter"]},"status":"finished","class":{"system":"http://terminology.hl7.org/CodeSystem/v3-ActCode","code":"IMP","display":"inpatient encounter","userSelected":true},"type":[{"coding":[{"system":"http://snomed.info/sct","code":"32485007"}]}],"subject":{"reference":"Patient/70e86911-43d6-41de-bfb9-933d8f539b98"},"period":{"start":"2026-10-10T06:15:00+00:00","end":"2026-10-15T11:30:00+00:00"},"length":{"value":5,"unit":"days"},"diagnosis":[{"condition":{"reference":"Condition/696a098a-5fe8-44e9-bb9c-7b9a468d9ae7"},"use":{"coding":[{"system":"http://terminology.hl7.org/CodeSystem/diagnosis-role","code":"billing","display":"Billing"}]},"rank":1}]},"request":{"method":"PUT","url":"Encounter/2f45ebe8-7b43-4475-a98e-87a81a25c681"}},{"fullUrl":"https://madie.cms.gov/Observation/ecee75c9-b5a9-4d25-9f78-58806778e250","resource":{"resourceType":"Observation","id":"ecee75c9-b5a9-4d25-9f78-58806778e250","meta":{"profile":["http://hl7.org/fhir/us/qicore/StructureDefinition/qicore-observation"]},"status":"final","category":[{"coding":[{"system":"http://terminology.hl7.org/CodeSystem/observation-category","code":"laboratory","display":"Laboratory"}]}],"code":{"coding":[{"system":"http://loinc.org","code":"34714-6"}]},"subject":{"reference":"Patient/70e86911-43d6-41de-bfb9-933d8f539b98"},"effectivePeriod":{"start":"2026-10-10T06:15:00+00:00"},"issued":"2026-10-10T06:14:00.000+00:00","valueQuantity":{"value":3.6}},"request":{"method":"PUT","url":"Observation/ecee75c9-b5a9-4d25-9f78-58806778e250"}},{"fullUrl":"https://madie.cms.gov/Coverage/1ce08e92-6c4a-471f-862a-49603532ba10","resource":{"resourceType":"Coverage","id":"1ce08e92-6c4a-471f-862a-49603532ba10","status":"active","beneficiary":{"reference":"Patient/70e86911-43d6-41de-bfb9-933d8f539b98"},"period":{"start":"1976-09-26T08:00:00+00:00"},"payor":[{"reference":"Organization/18ca435c-cae6-4c34-8033-af717477f9fc"}]},"request":{"method":"PUT","url":"Coverage/1ce08e92-6c4a-471f-862a-49603532ba10"}},{"fullUrl":"https://madie.cms.gov/Condition/696a098a-5fe8-44e9-bb9c-7b9a468d9ae7","resource":{"resourceType":"Condition","id":"696a098a-5fe8-44e9-bb9c-7b9a468d9ae7","meta":{"profile":["http://hl7.org/fhir/us/qicore/StructureDefinition/qicore-condition"]},"clinicalStatus":{"coding":[{"system":"http://terminology.hl7.org/CodeSystem/condition-clinical","code":"active"}]},"verificationStatus":{"coding":[{"system":"http://terminology.hl7.org/CodeSystem/condition-ver-status","code":"confirmed"}]},"category":[{"coding":[{"system":"http://terminology.hl7.org/CodeSystem/condition-category","code":"encounter-diagnosis","display":"Encounter Diagnosis"}]}],"code":{"coding":[{"system":"http://snomed.info/sct","version":"2020-09","code":"111297002","display":"Nonparalytic stroke (disorder)","userSelected":true}]},"subject":{"reference":"Patient/70e86911-43d6-41de-bfb9-933d8f539b98"},"recordedDate":"2026-08-06T08:00:00.000+00:00"},"request":{"method":"PUT","url":"Condition/696a098a-5fe8-44e9-bb9c-7b9a468d9ae7"}},{"fullUrl":"https://madie.cms.gov/Organization/3611cbff-f86a-441f-9875-f753c7bec9af","resource":{"resourceType":"Organization","id":"18ca435c-cae6-4c34-8033-af717477f9fc","meta":{"profile":["http://hl7.org/fhir/us/qicore/StructureDefinition/qicore-organization"]},"identifier":[{"use":"temp","system":"urn:oid:2.16.840.1.113883.4.4","value":"21-3259825"}],"active":true,"type":[{"coding":[{"system":"http://terminology.hl7.org/CodeSystem/organization-type","code":"pay","display":"Payer"}]}],"name":"Blue Cross Blue Shield of Texas","telecom":[{"system":"phone","value":"(+1) 972-766-6900"}],"address":[{"use":"billing","type":"postal","line":["P.O. Box 660044"],"city":"Dallas","state":"TX","postalCode":"75266-0044","country":"USA"}]},"request":{"method":"PUT","url":"Organization/18ca435c-cae6-4c34-8033-af717477f9fc"}},{"fullUrl":"https://madie.cms.gov/MeasureReport/884b0a79-b3e3-4193-b084-664858af9199","resource":{"resourceType":"MeasureReport","id":"884b0a79-b3e3-4193-b084-664858af9199","meta":{"profile":["http://hl7.org/fhir/us/cqfmeasures/StructureDefinition/test-case-cqfm"]},"contained":[{"resourceType":"Parameters","id":"18541814-83e5-4b48-b8fa-25beeb642b6f-parameters","parameter":[{"name":"subject","valueString":"70e86911-43d6-41de-bfb9-933d8f539b98"}]}],"extension":[{"url":"http://hl7.org/fhir/us/cqfmeasures/StructureDefinition/cqfm-inputParameters","valueReference":{"reference":"#18541814-83e5-4b48-b8fa-25beeb642b6f-parameters"}},{"url":"http://hl7.org/fhir/us/cqfmeasures/StructureDefinition/cqfm-testCaseDescription","valueMarkdown":"Patient receives INR of 3.6 the day of IP start at 1 minute before. No ED. No Obs. Testing Day of operator with HospitalizationWithObservation function.\n"}],"modifierExtension":[{"url":"http://hl7.org/fhir/us/cqfmeasures/StructureDefinition/cqfm-isTestCase","valueBoolean":true}],"status":"complete","type":"individual","measure":"https://madie.cms.gov/Measure/CMS72FHIRSTKAntithromboticDay2","period":{"start":"2026-01-01","end":"2026-12-31"},"group":[{"population":[{"code":{"coding":[{"system":"http://terminology.hl7.org/CodeSystem/measure-population","code":"initial-population","display":"Initial Population"}]},"count":1},{"code":{"coding":[{"system":"http://terminology.hl7.org/CodeSystem/measure-population","code":"denominator","display":"Denominator"}]},"count":1},{"code":{"coding":[{"system":"http://terminology.hl7.org/CodeSystem/measure-population","code":"denominator-exclusion","display":"Denominator Exclusion"}]},"count":0},{"code":{"coding":[{"system":"http://terminology.hl7.org/CodeSystem/measure-population","code":"numerator","display":"Numerator"}]},"count":0},{"code":{"coding":[{"system":"http://terminology.hl7.org/CodeSystem/measure-population","code":"denominator-exception","display":"Denominator Exception"}]},"count":1}]}]},"request":{"method":"PUT","url":"MeasureReport/884b0a79-b3e3-4193-b084-664858af9199"}}]}