{"resourceType":"Bundle","id":"tests-54381296-da32-4474-85b7-209d99c52e7e-bundle","type":"transaction","entry":[{"fullUrl":"https://madie.cms.gov/Patient/54381296-da32-4474-85b7-209d99c52e7e","resource":{"resourceType":"Patient","id":"54381296-da32-4474-85b7-209d99c52e7e","meta":{"profile":["http://hl7.org/fhir/us/qicore/StructureDefinition/qicore-patient"]},"text":{"status":"generated","div":"<div xmlns=\"http://www.w3.org/1999/xhtml\"><div class=\"hapiHeaderText\">MedTPAStart_After_EncIPEnd <b>DENEXFAIL </b></div><table class=\"hapiPropertyTable\"><tbody><tr><td>Identifier</td><td>4a2b2274b0d09f11067c460fe3a5f7ec</td></tr><tr><td>Date of birth</td><td><span>26 September 1975</span></td></tr></tbody></table></div>"},"extension":[{"url":"http://hl7.org/fhir/us/core/StructureDefinition/us-core-race","extension":[{"url":"ombCategory","valueCoding":{"system":"urn:oid:2.16.840.1.113883.6.238","code":"2054-5","display":"Black or African American","userSelected":true}},{"url":"text","valueString":"Black or African American"}]},{"url":"http://hl7.org/fhir/us/core/StructureDefinition/us-core-ethnicity","extension":[{"url":"ombCategory","valueCoding":{"system":"urn:oid:2.16.840.1.113883.6.238","code":"2186-5","display":"Not Hispanic or Latino","userSelected":true}},{"url":"text","valueString":"Not Hispanic or Latino"}]}],"identifier":[{"type":{"coding":[{"system":"http://terminology.hl7.org/CodeSystem/v2-0203","code":"MR"}]},"system":"https://bonnie-fhir.healthit.gov/","value":"60f82c2e98086b570510e263"}],"active":true,"name":[{"use":"usual","family":"DENEXFail","given":["MedTPAStart_After_EncIPEnd"]}],"gender":"female","birthDate":"1976-09-26"},"request":{"method":"PUT","url":"Patient/54381296-da32-4474-85b7-209d99c52e7e"}},{"fullUrl":"https://madie.cms.gov/Encounter/7c07e964-7845-412b-b5d1-df2c486b436e","resource":{"resourceType":"Encounter","id":"7c07e964-7845-412b-b5d1-df2c486b436e","meta":{"profile":["http://hl7.org/fhir/us/qicore/StructureDefinition/qicore-encounter"]},"status":"finished","class":{"system":"http://terminology.hl7.org/CodeSystem/v3-ActCode","code":"IMP","display":"inpatient encounter","userSelected":true},"type":[{"coding":[{"system":"http://snomed.info/sct","code":"32485007"}]}],"subject":{"reference":"Patient/54381296-da32-4474-85b7-209d99c52e7e"},"period":{"start":"2026-10-10T09:00:00+00:00","end":"2026-10-12T11:15:00+00:00"},"length":{"value":2,"unit":"days"},"diagnosis":[{"condition":{"reference":"Condition/9ea6123f-2adb-47fd-b4f7-141fb691daeb"},"use":{"coding":[{"system":"http://terminology.hl7.org/CodeSystem/diagnosis-role","code":"billing","display":"Billing"}]},"rank":1}]},"request":{"method":"PUT","url":"Encounter/7c07e964-7845-412b-b5d1-df2c486b436e"}},{"fullUrl":"https://madie.cms.gov/MedicationAdministration/d568b1ee-7faa-4c84-86c4-a8df828c78d7","resource":{"resourceType":"MedicationAdministration","id":"d568b1ee-7faa-4c84-86c4-a8df828c78d7","meta":{"profile":["http://hl7.org/fhir/us/qicore/StructureDefinition/qicore-medicationadministration"]},"status":"completed","medicationCodeableConcept":{"coding":[{"system":"http://www.nlm.nih.gov/research/umls/rxnorm","code":"1804799"}]},"subject":{"reference":"Patient/54381296-da32-4474-85b7-209d99c52e7e"},"effectivePeriod":{"start":"2026-10-12T11:16:00+00:00"}},"request":{"method":"PUT","url":"MedicationAdministration/d568b1ee-7faa-4c84-86c4-a8df828c78d7"}},{"fullUrl":"https://madie.cms.gov/Coverage/649b44d4-dee8-4cfd-8e23-d3775c54cac2","resource":{"resourceType":"Coverage","id":"649b44d4-dee8-4cfd-8e23-d3775c54cac2","status":"active","beneficiary":{"reference":"Patient/54381296-da32-4474-85b7-209d99c52e7e"},"period":{"start":"1976-09-26T08:00:00+00:00"},"payor":[{"reference":"Organization/f7da4368-fb6d-4d73-a75b-f78024cbb18d"}]},"request":{"method":"PUT","url":"Coverage/649b44d4-dee8-4cfd-8e23-d3775c54cac2"}},{"fullUrl":"https://madie.cms.gov/Condition/9ea6123f-2adb-47fd-b4f7-141fb691daeb","resource":{"resourceType":"Condition","id":"9ea6123f-2adb-47fd-b4f7-141fb691daeb","meta":{"profile":["http://hl7.org/fhir/us/qicore/StructureDefinition/qicore-condition"]},"clinicalStatus":{"coding":[{"system":"http://terminology.hl7.org/CodeSystem/condition-clinical","code":"active"}]},"verificationStatus":{"coding":[{"system":"http://terminology.hl7.org/CodeSystem/condition-ver-status","code":"confirmed"}]},"category":[{"coding":[{"system":"http://terminology.hl7.org/CodeSystem/condition-category","code":"encounter-diagnosis","display":"Encounter Diagnosis"}]}],"code":{"coding":[{"system":"http://snomed.info/sct","version":"2020-09","code":"111297002","display":"Nonparalytic stroke (disorder)","userSelected":true}]},"subject":{"reference":"Patient/54381296-da32-4474-85b7-209d99c52e7e"},"recordedDate":"2026-08-12T08:00:00.000+00:00"},"request":{"method":"PUT","url":"Condition/9ea6123f-2adb-47fd-b4f7-141fb691daeb"}},{"fullUrl":"https://madie.cms.gov/Organization/685a5273-1efa-45c0-a4c6-68ef05e6b5ba","resource":{"resourceType":"Organization","id":"f7da4368-fb6d-4d73-a75b-f78024cbb18d","meta":{"profile":["http://hl7.org/fhir/us/qicore/StructureDefinition/qicore-organization"]},"identifier":[{"use":"temp","system":"urn:oid:2.16.840.1.113883.4.4","value":"21-3259825"}],"active":true,"type":[{"coding":[{"system":"http://terminology.hl7.org/CodeSystem/organization-type","code":"pay","display":"Payer"}]}],"name":"Blue Cross Blue Shield of Texas","telecom":[{"system":"phone","value":"(+1) 972-766-6900"}],"address":[{"use":"billing","type":"postal","line":["P.O. Box 660044"],"city":"Dallas","state":"TX","postalCode":"75266-0044","country":"USA"}]},"request":{"method":"PUT","url":"Organization/f7da4368-fb6d-4d73-a75b-f78024cbb18d"}},{"fullUrl":"https://madie.cms.gov/MeasureReport/37657b90-bd8e-4d22-aea5-fc7fbad19187","resource":{"resourceType":"MeasureReport","id":"37657b90-bd8e-4d22-aea5-fc7fbad19187","meta":{"profile":["http://hl7.org/fhir/us/cqfmeasures/StructureDefinition/test-case-cqfm"]},"contained":[{"resourceType":"Parameters","id":"2084fe7f-f47a-4573-b22b-8aeae6846a5f-parameters","parameter":[{"name":"subject","valueString":"54381296-da32-4474-85b7-209d99c52e7e"}]}],"extension":[{"url":"http://hl7.org/fhir/us/cqfmeasures/StructureDefinition/cqfm-inputParameters","valueReference":{"reference":"#2084fe7f-f47a-4573-b22b-8aeae6846a5f-parameters"}},{"url":"http://hl7.org/fhir/us/cqfmeasures/StructureDefinition/cqfm-testCaseDescription","valueMarkdown":"Patient receives TPA after IP encounter\n"}],"modifierExtension":[{"url":"http://hl7.org/fhir/us/cqfmeasures/StructureDefinition/cqfm-isTestCase","valueBoolean":true}],"status":"complete","type":"individual","measure":"https://madie.cms.gov/Measure/CMS72FHIRSTKAntithromboticDay2","period":{"start":"2026-01-01","end":"2026-12-31"},"group":[{"population":[{"code":{"coding":[{"system":"http://terminology.hl7.org/CodeSystem/measure-population","code":"initial-population","display":"Initial Population"}]},"count":1},{"code":{"coding":[{"system":"http://terminology.hl7.org/CodeSystem/measure-population","code":"denominator","display":"Denominator"}]},"count":1},{"code":{"coding":[{"system":"http://terminology.hl7.org/CodeSystem/measure-population","code":"denominator-exclusion","display":"Denominator Exclusion"}]},"count":0},{"code":{"coding":[{"system":"http://terminology.hl7.org/CodeSystem/measure-population","code":"numerator","display":"Numerator"}]},"count":0},{"code":{"coding":[{"system":"http://terminology.hl7.org/CodeSystem/measure-population","code":"denominator-exception","display":"Denominator Exception"}]},"count":0}]}]},"request":{"method":"PUT","url":"MeasureReport/37657b90-bd8e-4d22-aea5-fc7fbad19187"}}]}