{"resourceType":"Bundle","id":"tests-a0ced1fb-191d-404b-80f4-761e51cf9de2-bundle","type":"transaction","entry":[{"fullUrl":"https://madie.cms.gov/Patient/a0ced1fb-191d-404b-80f4-761e51cf9de2","resource":{"resourceType":"Patient","id":"a0ced1fb-191d-404b-80f4-761e51cf9de2","meta":{"profile":["http://hl7.org/fhir/us/qicore/StructureDefinition/qicore-patient"]},"text":{"status":"generated","div":"<div xmlns=\"http://www.w3.org/1999/xhtml\"><div class=\"hapiHeaderText\">PharmContraDayOfEncStart_NoEDNoObsBFEnc <b>DENEXCEPPASS </b></div><table class=\"hapiPropertyTable\"><tbody><tr><td>Identifier</td><td>23ca8d220e136a05792f06f1300ec35c968458532c76c051729199b6b17df285</td></tr><tr><td>Date of birth</td><td><span>26 September 1975</span></td></tr></tbody></table></div>"},"extension":[{"url":"http://hl7.org/fhir/us/core/StructureDefinition/us-core-race","extension":[{"url":"ombCategory","valueCoding":{"system":"urn:oid:2.16.840.1.113883.6.238","code":"2054-5","display":"Black or African American","userSelected":true}},{"url":"text","valueString":"Black or African American"}]},{"url":"http://hl7.org/fhir/us/core/StructureDefinition/us-core-ethnicity","extension":[{"url":"ombCategory","valueCoding":{"system":"urn:oid:2.16.840.1.113883.6.238","code":"2186-5","display":"Not Hispanic or Latino","userSelected":true}},{"url":"text","valueString":"Not Hispanic or Latino"}]}],"identifier":[{"type":{"coding":[{"system":"http://terminology.hl7.org/CodeSystem/v2-0203","code":"MR"}]},"system":"https://bonnie-fhir.healthit.gov/","value":"60f82c2f98086b570510e2a0"}],"active":true,"name":[{"use":"usual","family":"DENEXCEPPass","given":["PharmContraDayOfEncStart_NoEDNoObsBFEnc"]}],"gender":"female","birthDate":"1976-09-26"},"request":{"method":"PUT","url":"Patient/a0ced1fb-191d-404b-80f4-761e51cf9de2"}},{"fullUrl":"https://madie.cms.gov/Encounter/29855fef-65d2-42d7-9708-0cad0a733383","resource":{"resourceType":"Encounter","id":"29855fef-65d2-42d7-9708-0cad0a733383","meta":{"profile":["http://hl7.org/fhir/us/qicore/StructureDefinition/qicore-encounter"]},"status":"finished","class":{"system":"http://terminology.hl7.org/CodeSystem/v3-ActCode","code":"IMP","display":"inpatient encounter","userSelected":true},"type":[{"coding":[{"system":"http://snomed.info/sct","code":"32485007"}]}],"subject":{"reference":"Patient/a0ced1fb-191d-404b-80f4-761e51cf9de2"},"period":{"start":"2026-10-10T09:00:00+00:00","end":"2026-10-12T11:15:00+00:00"},"length":{"value":2,"unit":"days"},"diagnosis":[{"condition":{"reference":"Condition/fa4c5783-6a0b-406a-96cf-b97093e98e78"},"use":{"coding":[{"system":"http://terminology.hl7.org/CodeSystem/diagnosis-role","code":"billing","display":"Billing"}]},"rank":1}]},"request":{"method":"PUT","url":"Encounter/29855fef-65d2-42d7-9708-0cad0a733383"}},{"fullUrl":"https://madie.cms.gov/MedicationAdministration/a043d416-6891-42ca-89c4-3439b2ba9c8d","resource":{"resourceType":"MedicationAdministration","id":"a043d416-6891-42ca-89c4-3439b2ba9c8d","meta":{"profile":["http://hl7.org/fhir/us/qicore/StructureDefinition/qicore-medicationadministration"]},"status":"completed","medicationCodeableConcept":{"coding":[{"system":"http://www.nlm.nih.gov/research/umls/rxnorm","code":"855812","display":"prasugrel 10 MG Oral Tablet","userSelected":true}]},"subject":{"reference":"Patient/a0ced1fb-191d-404b-80f4-761e51cf9de2"},"effectivePeriod":{"start":"2026-10-10T09:00:00+00:00"}},"request":{"method":"PUT","url":"MedicationAdministration/a043d416-6891-42ca-89c4-3439b2ba9c8d"}},{"fullUrl":"https://madie.cms.gov/Coverage/074f872d-a309-4841-8cfe-c5098c0a3b3f","resource":{"resourceType":"Coverage","id":"074f872d-a309-4841-8cfe-c5098c0a3b3f","status":"active","beneficiary":{"reference":"Patient/a0ced1fb-191d-404b-80f4-761e51cf9de2"},"period":{"start":"1976-09-26T08:00:00+00:00"},"payor":[{"reference":"Organization/80e3e0d1-b2aa-43a6-b1d2-00bfa3164a0f"}]},"request":{"method":"PUT","url":"Coverage/074f872d-a309-4841-8cfe-c5098c0a3b3f"}},{"fullUrl":"https://madie.cms.gov/Condition/fa4c5783-6a0b-406a-96cf-b97093e98e78","resource":{"resourceType":"Condition","id":"fa4c5783-6a0b-406a-96cf-b97093e98e78","meta":{"profile":["http://hl7.org/fhir/us/qicore/StructureDefinition/qicore-condition"]},"clinicalStatus":{"coding":[{"system":"http://terminology.hl7.org/CodeSystem/condition-clinical","code":"active"}]},"verificationStatus":{"coding":[{"system":"http://terminology.hl7.org/CodeSystem/condition-ver-status","code":"confirmed"}]},"category":[{"coding":[{"system":"http://terminology.hl7.org/CodeSystem/condition-category","code":"encounter-diagnosis","display":"Encounter Diagnosis"}]}],"code":{"coding":[{"system":"http://snomed.info/sct","version":"2020-09","code":"111297002","display":"Nonparalytic stroke (disorder)","userSelected":true}]},"subject":{"reference":"Patient/a0ced1fb-191d-404b-80f4-761e51cf9de2"},"recordedDate":"2026-08-06T08:00:00.000+00:00"},"request":{"method":"PUT","url":"Condition/fa4c5783-6a0b-406a-96cf-b97093e98e78"}},{"fullUrl":"https://madie.cms.gov/Organization/229bce94-181f-46c5-8061-92dce11d2c83","resource":{"resourceType":"Organization","id":"80e3e0d1-b2aa-43a6-b1d2-00bfa3164a0f","meta":{"profile":["http://hl7.org/fhir/us/qicore/StructureDefinition/qicore-organization"]},"identifier":[{"use":"temp","system":"urn:oid:2.16.840.1.113883.4.4","value":"21-3259825"}],"active":true,"type":[{"coding":[{"system":"http://terminology.hl7.org/CodeSystem/organization-type","code":"pay","display":"Payer"}]}],"name":"Blue Cross Blue Shield of Texas","telecom":[{"system":"phone","value":"(+1) 972-766-6900"}],"address":[{"use":"billing","type":"postal","line":["P.O. Box 660044"],"city":"Dallas","state":"TX","postalCode":"75266-0044","country":"USA"}]},"request":{"method":"PUT","url":"Organization/80e3e0d1-b2aa-43a6-b1d2-00bfa3164a0f"}},{"fullUrl":"https://madie.cms.gov/MeasureReport/717452f8-7a8b-4c53-99e4-99c0ca3a0f93","resource":{"resourceType":"MeasureReport","id":"717452f8-7a8b-4c53-99e4-99c0ca3a0f93","meta":{"profile":["http://hl7.org/fhir/us/cqfmeasures/StructureDefinition/test-case-cqfm"]},"contained":[{"resourceType":"Parameters","id":"0a1c5153-55b3-4fd8-83d5-a2f66c2cce46-parameters","parameter":[{"name":"subject","valueString":"a0ced1fb-191d-404b-80f4-761e51cf9de2"}]}],"extension":[{"url":"http://hl7.org/fhir/us/cqfmeasures/StructureDefinition/cqfm-inputParameters","valueReference":{"reference":"#0a1c5153-55b3-4fd8-83d5-a2f66c2cce46-parameters"}},{"url":"http://hl7.org/fhir/us/cqfmeasures/StructureDefinition/cqfm-testCaseDescription","valueMarkdown":"Patient receives Ticagrelor Day of Obs. ED ends 1 min before Obs.Obs ends 1 min before midnight. IP starts at midnight. Testing Day of operator with HospitalizationWithObservation function.\n"}],"modifierExtension":[{"url":"http://hl7.org/fhir/us/cqfmeasures/StructureDefinition/cqfm-isTestCase","valueBoolean":true}],"status":"complete","type":"individual","measure":"https://madie.cms.gov/Measure/CMS72FHIRSTKAntithromboticDay2","period":{"start":"2026-01-01","end":"2026-12-31"},"group":[{"population":[{"code":{"coding":[{"system":"http://terminology.hl7.org/CodeSystem/measure-population","code":"initial-population","display":"Initial Population"}]},"count":1},{"code":{"coding":[{"system":"http://terminology.hl7.org/CodeSystem/measure-population","code":"denominator","display":"Denominator"}]},"count":1},{"code":{"coding":[{"system":"http://terminology.hl7.org/CodeSystem/measure-population","code":"denominator-exclusion","display":"Denominator Exclusion"}]},"count":0},{"code":{"coding":[{"system":"http://terminology.hl7.org/CodeSystem/measure-population","code":"numerator","display":"Numerator"}]},"count":0},{"code":{"coding":[{"system":"http://terminology.hl7.org/CodeSystem/measure-population","code":"denominator-exception","display":"Denominator Exception"}]},"count":1}]}]},"request":{"method":"PUT","url":"MeasureReport/717452f8-7a8b-4c53-99e4-99c0ca3a0f93"}}]}