{"resourceType":"Bundle","id":"tests-5736982d-6c82-4815-b0d2-3416ebe105f4-bundle","type":"transaction","entry":[{"fullUrl":"https://madie.cms.gov/Patient/5736982d-6c82-4815-b0d2-3416ebe105f4","resource":{"resourceType":"Patient","id":"5736982d-6c82-4815-b0d2-3416ebe105f4","meta":{"profile":["http://hl7.org/fhir/us/qicore/StructureDefinition/qicore-patient"]},"text":{"status":"generated","div":"<div xmlns=\"http://www.w3.org/1999/xhtml\"><div class=\"hapiHeaderText\">PriorThrombolyticTherapy <b>DENEXPASS </b></div><table class=\"hapiPropertyTable\"><tbody><tr><td>Identifier</td><td>565104711a5f65734f311e1bcaee8e27aafbba4f5261e5e5779c11e36e48777e</td></tr><tr><td>Date of birth</td><td><span>26 September 1975</span></td></tr></tbody></table></div>"},"extension":[{"url":"http://hl7.org/fhir/us/core/StructureDefinition/us-core-race","extension":[{"url":"ombCategory","valueCoding":{"system":"urn:oid:2.16.840.1.113883.6.238","code":"2054-5","display":"Black or African American","userSelected":true}},{"url":"text","valueString":"Black or African American"}]},{"url":"http://hl7.org/fhir/us/core/StructureDefinition/us-core-ethnicity","extension":[{"url":"ombCategory","valueCoding":{"system":"urn:oid:2.16.840.1.113883.6.238","code":"2186-5","display":"Not Hispanic or Latino","userSelected":true}},{"url":"text","valueString":"Not Hispanic or Latino"}]}],"identifier":[{"type":{"coding":[{"system":"http://terminology.hl7.org/CodeSystem/v2-0203","code":"MR"}]},"system":"https://bonnie-fhir.healthit.gov/","value":"60f82c2f98086b570510e29a"}],"active":true,"name":[{"use":"usual","family":"DENEXFail","given":["PriorThrombolyticTherapy"]}],"gender":"female","birthDate":"1976-09-26"},"request":{"method":"PUT","url":"Patient/5736982d-6c82-4815-b0d2-3416ebe105f4"}},{"fullUrl":"https://madie.cms.gov/Encounter/b1bfa490-b769-4ef4-89df-9a0ca9a791d6","resource":{"resourceType":"Encounter","id":"b1bfa490-b769-4ef4-89df-9a0ca9a791d6","meta":{"profile":["http://hl7.org/fhir/us/qicore/StructureDefinition/qicore-encounter"]},"status":"finished","class":{"system":"http://terminology.hl7.org/CodeSystem/v3-ActCode","code":"IMP","display":"inpatient encounter","userSelected":true},"type":[{"coding":[{"system":"http://snomed.info/sct","code":"32485007"}]}],"subject":{"reference":"Patient/5736982d-6c82-4815-b0d2-3416ebe105f4"},"period":{"start":"2026-10-10T06:15:00+00:00","end":"2026-10-24T11:30:00+00:00"},"length":{"value":14,"unit":"days"},"diagnosis":[{"condition":{"reference":"Condition/62719e28-efd4-4910-a6be-654c5137f7ac"},"use":{"coding":[{"system":"http://terminology.hl7.org/CodeSystem/diagnosis-role","code":"billing","display":"Billing"}]},"rank":1},{"condition":{"reference":"Condition/60b6cdd7-ce9a-4784-85de-195d05af5236"},"use":{"coding":[{"system":"http://terminology.hl7.org/CodeSystem/diagnosis-role","code":"billing","display":"Billing"}]},"rank":2}]},"request":{"method":"PUT","url":"Encounter/b1bfa490-b769-4ef4-89df-9a0ca9a791d6"}},{"fullUrl":"https://madie.cms.gov/Condition/62719e28-efd4-4910-a6be-654c5137f7ac","resource":{"resourceType":"Condition","id":"62719e28-efd4-4910-a6be-654c5137f7ac","meta":{"profile":["http://hl7.org/fhir/us/qicore/StructureDefinition/qicore-condition"]},"clinicalStatus":{"coding":[{"system":"http://terminology.hl7.org/CodeSystem/condition-clinical","code":"active"}]},"verificationStatus":{"coding":[{"system":"http://terminology.hl7.org/CodeSystem/condition-ver-status","code":"confirmed"}]},"category":[{"coding":[{"system":"http://terminology.hl7.org/CodeSystem/condition-category","code":"encounter-diagnosis","display":"Encounter Diagnosis"}]}],"code":{"coding":[{"system":"http://snomed.info/sct","version":"2020-09","code":"111297002","display":"Nonparalytic stroke (disorder)","userSelected":true}]},"subject":{"reference":"Patient/5736982d-6c82-4815-b0d2-3416ebe105f4"},"recordedDate":"2026-08-12T08:00:00.000+00:00"},"request":{"method":"PUT","url":"Condition/62719e28-efd4-4910-a6be-654c5137f7ac"}},{"fullUrl":"https://madie.cms.gov/Condition/60b6cdd7-ce9a-4784-85de-195d05af5236","resource":{"resourceType":"Condition","id":"60b6cdd7-ce9a-4784-85de-195d05af5236","meta":{"profile":["http://hl7.org/fhir/us/qicore/StructureDefinition/qicore-condition"]},"clinicalStatus":{"coding":[{"system":"http://terminology.hl7.org/CodeSystem/condition-clinical","code":"active"}]},"verificationStatus":{"coding":[{"system":"http://terminology.hl7.org/CodeSystem/condition-ver-status","code":"confirmed"}]},"category":[{"coding":[{"system":"http://terminology.hl7.org/CodeSystem/condition-category","code":"encounter-diagnosis","display":"Encounter Diagnosis"}]}],"code":{"coding":[{"system":"http://hl7.org/fhir/sid/icd-10-cm","version":"2020-09","code":"Z92.82","display":"Status post administration of tPA (rtPA) in a different facility within the last 24 hours prior to admission to current facility","userSelected":true}]},"subject":{"reference":"Patient/5736982d-6c82-4815-b0d2-3416ebe105f4"},"recordedDate":"2026-10-10T06:16:00+00:00"},"request":{"method":"PUT","url":"Condition/60b6cdd7-ce9a-4784-85de-195d05af5236"}},{"fullUrl":"https://madie.cms.gov/Coverage/4c0a123a-fb7c-4b99-9252-fc9098550e74","resource":{"resourceType":"Coverage","id":"4c0a123a-fb7c-4b99-9252-fc9098550e74","meta":{"profile":["http://hl7.org/fhir/us/qicore/StructureDefinition/qicore-coverage"]},"status":"active","beneficiary":{"reference":"Patient/5736982d-6c82-4815-b0d2-3416ebe105f4"},"payor":[{"reference":"Organization/18ca435c-cae6-4c34-8033-af717477f9fc"}]},"request":{"method":"PUT","url":"Coverage/4c0a123a-fb7c-4b99-9252-fc9098550e74"}},{"fullUrl":"https://madie.cms.gov/Organization/775a7e3d-6b80-45e7-8ae2-99d006b6d5a3","resource":{"resourceType":"Organization","id":"18ca435c-cae6-4c34-8033-af717477f9fc","meta":{"profile":["http://hl7.org/fhir/us/qicore/StructureDefinition/qicore-organization"]},"identifier":[{"use":"temp","system":"urn:oid:2.16.840.1.113883.4.4","value":"21-3259825"}],"active":true,"type":[{"coding":[{"system":"http://terminology.hl7.org/CodeSystem/organization-type","code":"pay","display":"Payer"}]}],"name":"Blue Cross Blue Shield of Texas","telecom":[{"system":"phone","value":"(+1) 972-766-6900"}],"address":[{"use":"billing","type":"postal","line":["P.O. Box 660044"],"city":"Dallas","state":"TX","postalCode":"75266-0044","country":"USA"}]},"request":{"method":"PUT","url":"Organization/18ca435c-cae6-4c34-8033-af717477f9fc"}},{"fullUrl":"https://madie.cms.gov/MeasureReport/eb71c5b6-1ffc-4acb-a091-1f38f7055d25","resource":{"resourceType":"MeasureReport","id":"eb71c5b6-1ffc-4acb-a091-1f38f7055d25","meta":{"profile":["http://hl7.org/fhir/us/cqfmeasures/StructureDefinition/test-case-cqfm"]},"contained":[{"resourceType":"Parameters","id":"8b911eaf-17f3-4dd5-b253-378efc5d6b29-parameters","parameter":[{"name":"subject","valueString":"5736982d-6c82-4815-b0d2-3416ebe105f4"}]}],"extension":[{"url":"http://hl7.org/fhir/us/cqfmeasures/StructureDefinition/cqfm-inputParameters","valueReference":{"reference":"#8b911eaf-17f3-4dd5-b253-378efc5d6b29-parameters"}},{"url":"http://hl7.org/fhir/us/cqfmeasures/StructureDefinition/cqfm-testCaseDescription","valueMarkdown":"Encounter Diagnosis Z-code Z92.82 signifying prior thrombolytic therapy. This causes DENEX to pass."}],"modifierExtension":[{"url":"http://hl7.org/fhir/us/cqfmeasures/StructureDefinition/cqfm-isTestCase","valueBoolean":true}],"status":"complete","type":"individual","measure":"https://madie.cms.gov/Measure/CMS72FHIRSTKAntithromboticDay2","period":{"start":"2026-01-01","end":"2026-12-31"},"group":[{"population":[{"code":{"coding":[{"system":"http://terminology.hl7.org/CodeSystem/measure-population","code":"initial-population","display":"Initial Population"}]},"count":1},{"code":{"coding":[{"system":"http://terminology.hl7.org/CodeSystem/measure-population","code":"denominator","display":"Denominator"}]},"count":1},{"code":{"coding":[{"system":"http://terminology.hl7.org/CodeSystem/measure-population","code":"denominator-exclusion","display":"Denominator Exclusion"}]},"count":1},{"code":{"coding":[{"system":"http://terminology.hl7.org/CodeSystem/measure-population","code":"numerator","display":"Numerator"}]},"count":0},{"code":{"coding":[{"system":"http://terminology.hl7.org/CodeSystem/measure-population","code":"denominator-exception","display":"Denominator Exception"}]},"count":0}]}]},"request":{"method":"PUT","url":"MeasureReport/eb71c5b6-1ffc-4acb-a091-1f38f7055d25"}}]}