{"resourceType":"Bundle","id":"tests-a938e0ff-51b3-4001-b33e-5fd2c00a9147-bundle","type":"transaction","entry":[{"fullUrl":"https://madie.cms.gov/Patient/a938e0ff-51b3-4001-b33e-5fd2c00a9147","resource":{"resourceType":"Patient","id":"a938e0ff-51b3-4001-b33e-5fd2c00a9147","meta":{"profile":["http://hl7.org/fhir/us/qicore/StructureDefinition/qicore-patient"]},"text":{"status":"generated","div":"<div xmlns=\"http://www.w3.org/1999/xhtml\"><div class=\"hapiHeaderText\">MedAntithromboticStart_eq0dayAtEdStart <b>NUMERPASS </b></div><table class=\"hapiPropertyTable\"><tbody><tr><td>Identifier</td><td>168b1b1f52f949d3490002df317e49f8</td></tr><tr><td>Date of birth</td><td><span>26 September 1975</span></td></tr></tbody></table></div>"},"extension":[{"url":"http://hl7.org/fhir/us/core/StructureDefinition/us-core-race","extension":[{"url":"ombCategory","valueCoding":{"system":"urn:oid:2.16.840.1.113883.6.238","code":"2054-5","display":"Black or African American","userSelected":true}},{"url":"text","valueString":"Black or African American"}]},{"url":"http://hl7.org/fhir/us/core/StructureDefinition/us-core-ethnicity","extension":[{"url":"ombCategory","valueCoding":{"system":"urn:oid:2.16.840.1.113883.6.238","code":"2186-5","display":"Not Hispanic or Latino","userSelected":true}},{"url":"text","valueString":"Not Hispanic or Latino"}]}],"identifier":[{"type":{"coding":[{"system":"http://terminology.hl7.org/CodeSystem/v2-0203","code":"MR"}]},"system":"https://bonnie-fhir.healthit.gov/","value":"60f82c2e98086b570510e28e"}],"active":true,"name":[{"use":"usual","family":"NUMERPass","given":["MedAntithromboticStart_eq0dayAtEdStart"]}],"gender":"female","birthDate":"1976-09-26"},"request":{"method":"PUT","url":"Patient/a938e0ff-51b3-4001-b33e-5fd2c00a9147"}},{"fullUrl":"https://madie.cms.gov/Encounter/5f82df2b-f737-4ddd-87fd-00862b01da63","resource":{"resourceType":"Encounter","id":"5f82df2b-f737-4ddd-87fd-00862b01da63","meta":{"profile":["http://hl7.org/fhir/us/qicore/StructureDefinition/qicore-encounter"]},"status":"finished","class":{"system":"http://terminology.hl7.org/CodeSystem/v3-ActCode","code":"EMER","display":"emergency"},"type":[{"coding":[{"system":"http://snomed.info/sct","code":"4525004"}]}],"subject":{"reference":"Patient/a938e0ff-51b3-4001-b33e-5fd2c00a9147"},"period":{"start":"2026-10-10T06:00:00+00:00","end":"2026-10-10T08:30:00+00:00"},"length":{"value":0,"unit":"days"}},"request":{"method":"PUT","url":"Encounter/5f82df2b-f737-4ddd-87fd-00862b01da63"}},{"fullUrl":"https://madie.cms.gov/Encounter/63af3135-b0d9-4339-b20e-b5c568eda49e","resource":{"resourceType":"Encounter","id":"63af3135-b0d9-4339-b20e-b5c568eda49e","meta":{"profile":["http://hl7.org/fhir/us/qicore/StructureDefinition/qicore-encounter"]},"status":"finished","class":{"system":"http://terminology.hl7.org/CodeSystem/v3-ActCode","code":"IMP","display":"inpatient encounter"},"type":[{"coding":[{"system":"http://snomed.info/sct","code":"32485007"}]}],"subject":{"reference":"Patient/a938e0ff-51b3-4001-b33e-5fd2c00a9147"},"period":{"start":"2026-10-10T09:00:00+00:00","end":"2026-10-12T11:30:00+00:00"},"length":{"value":2,"unit":"days"},"diagnosis":[{"condition":{"reference":"Condition/2d91ba97-1378-432d-91df-4997447d38e9"},"use":{"coding":[{"system":"http://terminology.hl7.org/CodeSystem/diagnosis-role","code":"billing","display":"Billing"}]},"rank":1}]},"request":{"method":"PUT","url":"Encounter/63af3135-b0d9-4339-b20e-b5c568eda49e"}},{"fullUrl":"https://madie.cms.gov/MedicationAdministration/c1056c5d-6b07-4e22-88f7-9a653aa05a1e","resource":{"resourceType":"MedicationAdministration","id":"c1056c5d-6b07-4e22-88f7-9a653aa05a1e","meta":{"profile":["http://hl7.org/fhir/us/qicore/StructureDefinition/qicore-medicationadministration"]},"status":"completed","medicationCodeableConcept":{"coding":[{"system":"http://www.nlm.nih.gov/research/umls/rxnorm","code":"1037045"}]},"subject":{"reference":"Patient/a938e0ff-51b3-4001-b33e-5fd2c00a9147"},"effectivePeriod":{"start":"2026-10-10T06:00:00+00:00","end":"2026-10-10T07:20:00+00:00"}},"request":{"method":"PUT","url":"MedicationAdministration/c1056c5d-6b07-4e22-88f7-9a653aa05a1e"}},{"fullUrl":"https://madie.cms.gov/Coverage/79b37869-b978-43fa-ba9a-b819b299d3da","resource":{"resourceType":"Coverage","id":"79b37869-b978-43fa-ba9a-b819b299d3da","status":"active","beneficiary":{"reference":"Patient/a938e0ff-51b3-4001-b33e-5fd2c00a9147"},"period":{"start":"1976-09-26T08:00:00+00:00"},"payor":[{"reference":"Organization/aeb2c6be-6577-4bba-a6b6-6eab95111f1b"}]},"request":{"method":"PUT","url":"Coverage/79b37869-b978-43fa-ba9a-b819b299d3da"}},{"fullUrl":"https://madie.cms.gov/Condition/2d91ba97-1378-432d-91df-4997447d38e9","resource":{"resourceType":"Condition","id":"2d91ba97-1378-432d-91df-4997447d38e9","meta":{"profile":["http://hl7.org/fhir/us/qicore/StructureDefinition/qicore-condition"]},"clinicalStatus":{"coding":[{"system":"http://terminology.hl7.org/CodeSystem/condition-clinical","code":"active"}]},"verificationStatus":{"coding":[{"system":"http://terminology.hl7.org/CodeSystem/condition-ver-status","code":"confirmed"}]},"category":[{"coding":[{"system":"http://terminology.hl7.org/CodeSystem/condition-category","code":"encounter-diagnosis","display":"Encounter Diagnosis"}]}],"code":{"coding":[{"system":"http://snomed.info/sct","version":"2020-09","code":"111297002","display":"Nonparalytic stroke (disorder)","userSelected":true}]},"subject":{"reference":"Patient/a938e0ff-51b3-4001-b33e-5fd2c00a9147"},"recordedDate":"2026-08-16T08:00:00.000+00:00"},"request":{"method":"PUT","url":"Condition/2d91ba97-1378-432d-91df-4997447d38e9"}},{"fullUrl":"https://madie.cms.gov/Organization/347020f5-4a56-4326-9578-531641573176","resource":{"resourceType":"Organization","id":"aeb2c6be-6577-4bba-a6b6-6eab95111f1b","meta":{"profile":["http://hl7.org/fhir/us/qicore/StructureDefinition/qicore-organization"]},"identifier":[{"use":"temp","system":"urn:oid:2.16.840.1.113883.4.4","value":"21-3259825"}],"active":true,"type":[{"coding":[{"system":"http://terminology.hl7.org/CodeSystem/organization-type","code":"pay","display":"Payer"}]}],"name":"Blue Cross Blue Shield of Texas","telecom":[{"system":"phone","value":"(+1) 972-766-6900"}],"address":[{"use":"billing","type":"postal","line":["P.O. Box 660044"],"city":"Dallas","state":"TX","postalCode":"75266-0044","country":"USA"}]},"request":{"method":"PUT","url":"Organization/aeb2c6be-6577-4bba-a6b6-6eab95111f1b"}},{"fullUrl":"https://madie.cms.gov/Practitioner/94fdbd8c-5fe6-499f-a35f-31b2667bf1f2","resource":{"resourceType":"Practitioner","id":"94fdbd8c-5fe6-499f-a35f-31b2667bf1f2","identifier":[{"system":"http://hl7.org/fhir/sid/us-npi","value":"123456"}],"name":[{"family":"Evil","prefix":["Dr"]}]},"request":{"method":"PUT","url":"Practitioner/94fdbd8c-5fe6-499f-a35f-31b2667bf1f2"}},{"fullUrl":"https://madie.cms.gov/MeasureReport/69bff1c6-f3ce-4bf5-8b04-6021921defa7","resource":{"resourceType":"MeasureReport","id":"69bff1c6-f3ce-4bf5-8b04-6021921defa7","meta":{"profile":["http://hl7.org/fhir/us/cqfmeasures/StructureDefinition/test-case-cqfm"]},"contained":[{"resourceType":"Parameters","id":"57216019-3a95-4caa-bbbc-1e988bcd0718-parameters","parameter":[{"name":"subject","valueString":"a938e0ff-51b3-4001-b33e-5fd2c00a9147"}]}],"extension":[{"url":"http://hl7.org/fhir/us/cqfmeasures/StructureDefinition/cqfm-inputParameters","valueReference":{"reference":"#57216019-3a95-4caa-bbbc-1e988bcd0718-parameters"}},{"url":"http://hl7.org/fhir/us/cqfmeasures/StructureDefinition/cqfm-testCaseDescription","valueMarkdown":"\"Patient receives antithrombotic in the ED.MedAntithromboticStart EQ 0day at ED start\nglobal.\"\"Hospitalization\"\" =(Ed+IP)\"\n"}],"modifierExtension":[{"url":"http://hl7.org/fhir/us/cqfmeasures/StructureDefinition/cqfm-isTestCase","valueBoolean":true}],"status":"complete","type":"individual","measure":"https://madie.cms.gov/Measure/CMS72FHIRSTKAntithromboticDay2","period":{"start":"2026-01-01","end":"2026-12-31"},"group":[{"population":[{"code":{"coding":[{"system":"http://terminology.hl7.org/CodeSystem/measure-population","code":"initial-population","display":"Initial Population"}]},"count":1},{"code":{"coding":[{"system":"http://terminology.hl7.org/CodeSystem/measure-population","code":"denominator","display":"Denominator"}]},"count":1},{"code":{"coding":[{"system":"http://terminology.hl7.org/CodeSystem/measure-population","code":"denominator-exclusion","display":"Denominator Exclusion"}]},"count":0},{"code":{"coding":[{"system":"http://terminology.hl7.org/CodeSystem/measure-population","code":"numerator","display":"Numerator"}]},"count":1},{"code":{"coding":[{"system":"http://terminology.hl7.org/CodeSystem/measure-population","code":"denominator-exception","display":"Denominator Exception"}]},"count":0}]}]},"request":{"method":"PUT","url":"MeasureReport/69bff1c6-f3ce-4bf5-8b04-6021921defa7"}}]}