{"resourceType":"Bundle","id":"tests-ab024aef-425c-43ba-a856-882a3e3c91f1-bundle","type":"transaction","entry":[{"fullUrl":"https://madie.cms.gov/Patient/ab024aef-425c-43ba-a856-882a3e3c91f1","resource":{"resourceType":"Patient","id":"ab024aef-425c-43ba-a856-882a3e3c91f1","meta":{"profile":["http://hl7.org/fhir/us/qicore/StructureDefinition/qicore-patient"]},"text":{"status":"generated","div":"<div xmlns=\"http://www.w3.org/1999/xhtml\"><div class=\"hapiHeaderText\">MedOrdMedReason_eq1dayduringEncIPwEd <b>DENEXCEPPASS </b></div><table class=\"hapiPropertyTable\"><tbody><tr><td>Identifier</td><td>d01ec8ce54fb7862a4ff6666af6c3f64</td></tr><tr><td>Date of birth</td><td><span>26 September 1975</span></td></tr></tbody></table></div>"},"extension":[{"url":"http://hl7.org/fhir/us/core/StructureDefinition/us-core-race","extension":[{"url":"ombCategory","valueCoding":{"system":"urn:oid:2.16.840.1.113883.6.238","code":"2054-5","display":"Black or African American","userSelected":true}},{"url":"text","valueString":"Black or African American"}]},{"url":"http://hl7.org/fhir/us/core/StructureDefinition/us-core-ethnicity","extension":[{"url":"ombCategory","valueCoding":{"system":"urn:oid:2.16.840.1.113883.6.238","code":"2186-5","display":"Not Hispanic or Latino","userSelected":true}},{"url":"text","valueString":"Not Hispanic or Latino"}]}],"identifier":[{"type":{"coding":[{"system":"http://terminology.hl7.org/CodeSystem/v2-0203","code":"MR"}]},"system":"https://bonnie-fhir.healthit.gov/","value":"60f82c2e98086b570510e292"}],"active":true,"name":[{"use":"usual","family":"DENEXCEPPass","given":["MedOrdMedReason_eq1dayduringEncIPwEd"]}],"gender":"female","birthDate":"1976-09-26"},"request":{"method":"PUT","url":"Patient/ab024aef-425c-43ba-a856-882a3e3c91f1"}},{"fullUrl":"https://madie.cms.gov/Encounter/7c4077cb-076f-49a8-af60-deb8004fe239","resource":{"resourceType":"Encounter","id":"7c4077cb-076f-49a8-af60-deb8004fe239","meta":{"profile":["http://hl7.org/fhir/us/qicore/StructureDefinition/qicore-encounter"]},"status":"finished","class":{"system":"http://terminology.hl7.org/CodeSystem/v3-ActCode","code":"EMER","display":"emergency","userSelected":true},"type":[{"coding":[{"system":"http://snomed.info/sct","code":"4525004"}]}],"subject":{"reference":"Patient/ab024aef-425c-43ba-a856-882a3e3c91f1"},"period":{"start":"2026-10-10T08:00:00+00:00","end":"2026-10-10T08:15:00+00:00"},"length":{"value":0,"unit":"days"}},"request":{"method":"PUT","url":"Encounter/7c4077cb-076f-49a8-af60-deb8004fe239"}},{"fullUrl":"https://madie.cms.gov/Encounter/1409299b-9e2c-4f6f-aceb-b261e95dad7d","resource":{"resourceType":"Encounter","id":"1409299b-9e2c-4f6f-aceb-b261e95dad7d","meta":{"profile":["http://hl7.org/fhir/us/qicore/StructureDefinition/qicore-encounter"]},"status":"finished","class":{"system":"http://terminology.hl7.org/CodeSystem/v3-ActCode","code":"IMP","display":"inpatient encounter","userSelected":true},"type":[{"coding":[{"system":"http://snomed.info/sct","code":"32485007"}]}],"subject":{"reference":"Patient/ab024aef-425c-43ba-a856-882a3e3c91f1"},"period":{"start":"2026-10-10T09:00:00+00:00","end":"2026-10-12T11:15:00+00:00"},"length":{"value":2,"unit":"days"},"diagnosis":[{"condition":{"reference":"Condition/9f362bc9-ac91-4322-b8c2-af1cb0724a33"},"use":{"coding":[{"system":"http://terminology.hl7.org/CodeSystem/diagnosis-role","code":"billing","display":"Billing"}]},"rank":1}]},"request":{"method":"PUT","url":"Encounter/1409299b-9e2c-4f6f-aceb-b261e95dad7d"}},{"fullUrl":"https://madie.cms.gov/MedicationRequest/487ce041-191b-4f0c-9ac7-913df1fb2aa9","resource":{"resourceType":"MedicationRequest","id":"487ce041-191b-4f0c-9ac7-913df1fb2aa9","meta":{"profile":["http://hl7.org/fhir/us/qicore/StructureDefinition/qicore-mednotrequested"]},"status":"completed","intent":"order","category":[{"coding":[{"system":"http://terminology.hl7.org/CodeSystem/medicationrequest-category","code":"community"}]}],"doNotPerform":true,"medicationCodeableConcept":{"coding":[{"system":"http://www.nlm.nih.gov/research/umls/rxnorm","code":"1037045"}]},"subject":{"reference":"Patient/ab024aef-425c-43ba-a856-882a3e3c91f1"},"authoredOn":"2026-10-11T11:00:00+00:00","requester":{"reference":"Practitioner/example"},"reasonCode":[{"coding":[{"system":"http://snomed.info/sct","code":"183932001","display":"Procedure contraindicated (situation)","userSelected":true}]}],"dosageInstruction":[{"timing":{"repeat":{"boundsPeriod":{"start":"2026-10-11T11:00:00+00:00"}}}}]},"request":{"method":"PUT","url":"MedicationRequest/487ce041-191b-4f0c-9ac7-913df1fb2aa9"}},{"fullUrl":"https://madie.cms.gov/Coverage/979ea11a-dcb5-4acf-a3ca-deda5c2c28b1","resource":{"resourceType":"Coverage","id":"979ea11a-dcb5-4acf-a3ca-deda5c2c28b1","status":"active","beneficiary":{"reference":"Patient/ab024aef-425c-43ba-a856-882a3e3c91f1"},"period":{"start":"1976-09-26T08:00:00+00:00"},"payor":[{"reference":"Organization/890316dc-a4ad-43b4-ba6f-9fb9e6eca282"}]},"request":{"method":"PUT","url":"Coverage/979ea11a-dcb5-4acf-a3ca-deda5c2c28b1"}},{"fullUrl":"https://madie.cms.gov/Condition/9f362bc9-ac91-4322-b8c2-af1cb0724a33","resource":{"resourceType":"Condition","id":"9f362bc9-ac91-4322-b8c2-af1cb0724a33","meta":{"profile":["http://hl7.org/fhir/us/qicore/StructureDefinition/qicore-condition"]},"clinicalStatus":{"coding":[{"system":"http://terminology.hl7.org/CodeSystem/condition-clinical","code":"active"}]},"verificationStatus":{"coding":[{"system":"http://terminology.hl7.org/CodeSystem/condition-ver-status","code":"confirmed"}]},"category":[{"coding":[{"system":"http://terminology.hl7.org/CodeSystem/condition-category","code":"encounter-diagnosis","display":"Encounter Diagnosis"}]}],"code":{"coding":[{"system":"http://snomed.info/sct","version":"2020-09","code":"111297002","display":"Nonparalytic stroke (disorder)","userSelected":true}]},"subject":{"reference":"Patient/ab024aef-425c-43ba-a856-882a3e3c91f1"},"recordedDate":"2026-08-06T08:00:00.000+00:00"},"request":{"method":"PUT","url":"Condition/9f362bc9-ac91-4322-b8c2-af1cb0724a33"}},{"fullUrl":"https://madie.cms.gov/Organization/e70f205f-4d9d-4856-89b2-a4a2b070f09f","resource":{"resourceType":"Organization","id":"890316dc-a4ad-43b4-ba6f-9fb9e6eca282","meta":{"profile":["http://hl7.org/fhir/us/qicore/StructureDefinition/qicore-organization"]},"identifier":[{"use":"temp","system":"urn:oid:2.16.840.1.113883.4.4","value":"21-3259825"}],"active":true,"type":[{"coding":[{"system":"http://terminology.hl7.org/CodeSystem/organization-type","code":"pay","display":"Payer"}]}],"name":"Blue Cross Blue Shield of Texas","telecom":[{"system":"phone","value":"(+1) 972-766-6900"}],"address":[{"use":"billing","type":"postal","line":["P.O. Box 660044"],"city":"Dallas","state":"TX","postalCode":"75266-0044","country":"USA"}]},"request":{"method":"PUT","url":"Organization/890316dc-a4ad-43b4-ba6f-9fb9e6eca282"}},{"fullUrl":"https://madie.cms.gov/MeasureReport/ba093cbe-6a8d-4b20-a916-463a43efa62c","resource":{"resourceType":"MeasureReport","id":"ba093cbe-6a8d-4b20-a916-463a43efa62c","meta":{"profile":["http://hl7.org/fhir/us/cqfmeasures/StructureDefinition/test-case-cqfm"]},"contained":[{"resourceType":"Parameters","id":"88e5decd-3d83-4b60-b234-05842427cbd5-parameters","parameter":[{"name":"subject","valueString":"ab024aef-425c-43ba-a856-882a3e3c91f1"}]}],"extension":[{"url":"http://hl7.org/fhir/us/cqfmeasures/StructureDefinition/cqfm-inputParameters","valueReference":{"reference":"#88e5decd-3d83-4b60-b234-05842427cbd5-parameters"}},{"url":"http://hl7.org/fhir/us/cqfmeasures/StructureDefinition/cqfm-testCaseDescription","valueMarkdown":"ED visit AND antithrombotic is not ordered due to medical reason but = 1 day after start of ED visit,  global.\"Hospitalization\" =(Ed+IP)\n"}],"modifierExtension":[{"url":"http://hl7.org/fhir/us/cqfmeasures/StructureDefinition/cqfm-isTestCase","valueBoolean":true}],"status":"complete","type":"individual","measure":"https://madie.cms.gov/Measure/CMS72FHIRSTKAntithromboticDay2","period":{"start":"2026-01-01","end":"2026-12-31"},"group":[{"population":[{"code":{"coding":[{"system":"http://terminology.hl7.org/CodeSystem/measure-population","code":"initial-population","display":"Initial Population"}]},"count":1},{"code":{"coding":[{"system":"http://terminology.hl7.org/CodeSystem/measure-population","code":"denominator","display":"Denominator"}]},"count":1},{"code":{"coding":[{"system":"http://terminology.hl7.org/CodeSystem/measure-population","code":"denominator-exclusion","display":"Denominator Exclusion"}]},"count":0},{"code":{"coding":[{"system":"http://terminology.hl7.org/CodeSystem/measure-population","code":"numerator","display":"Numerator"}]},"count":0},{"code":{"coding":[{"system":"http://terminology.hl7.org/CodeSystem/measure-population","code":"denominator-exception","display":"Denominator Exception"}]},"count":1}]}]},"request":{"method":"PUT","url":"MeasureReport/ba093cbe-6a8d-4b20-a916-463a43efa62c"}}]}