{"resourceType":"Bundle","id":"tests-cbe5f41b-754f-49d8-91c4-85823628ceff-bundle","type":"transaction","entry":[{"fullUrl":"https://madie.cms.gov/Patient/cbe5f41b-754f-49d8-91c4-85823628ceff","resource":{"resourceType":"Patient","id":"cbe5f41b-754f-49d8-91c4-85823628ceff","meta":{"profile":["http://hl7.org/fhir/us/qicore/StructureDefinition/qicore-patient"]},"identifier":[{"type":{"coding":[{"system":"http://terminology.hl7.org/CodeSystem/v2-0203","code":"MR"}]},"system":"https://bonnie-fhir.healthit.gov/","value":"60f82c2e98086b570510e281"}],"active":true,"name":[{"use":"usual","family":"DENEXPass","given":["ProcTPA=EDStart"]}],"gender":"female","birthDate":"1976-09-26"},"request":{"method":"PUT","url":"Patient/cbe5f41b-754f-49d8-91c4-85823628ceff"}},{"fullUrl":"https://madie.cms.gov/Encounter/5fb95a42-369b-43fa-9950-6e625f9dfdf7","resource":{"resourceType":"Encounter","id":"5fb95a42-369b-43fa-9950-6e625f9dfdf7","meta":{"profile":["http://hl7.org/fhir/us/qicore/StructureDefinition/qicore-encounter"]},"status":"finished","class":{"system":"http://terminology.hl7.org/CodeSystem/v3-ActCode","code":"EMER","display":"emergency"},"type":[{"coding":[{"system":"http://snomed.info/sct","code":"4525004"}]}],"subject":{"reference":"Patient/cbe5f41b-754f-49d8-91c4-85823628ceff"},"period":{"start":"2026-10-10T06:00:00+00:00","end":"2026-10-10T08:30:00+00:00"},"length":{"value":0,"unit":"days"}},"request":{"method":"PUT","url":"Encounter/5fb95a42-369b-43fa-9950-6e625f9dfdf7"}},{"fullUrl":"https://madie.cms.gov/Encounter/bd983cb5-94ed-4319-91fd-f40619bb64c7","resource":{"resourceType":"Encounter","id":"bd983cb5-94ed-4319-91fd-f40619bb64c7","meta":{"profile":["http://hl7.org/fhir/us/qicore/StructureDefinition/qicore-encounter"]},"status":"finished","class":{"system":"http://terminology.hl7.org/CodeSystem/v3-ActCode","code":"IMP","display":"inpatient encounter"},"type":[{"coding":[{"system":"http://snomed.info/sct","code":"32485007"}]}],"subject":{"reference":"Patient/cbe5f41b-754f-49d8-91c4-85823628ceff"},"period":{"start":"2026-10-10T09:00:00+00:00","end":"2026-10-12T11:15:00+00:00"},"length":{"value":2,"unit":"days"},"diagnosis":[{"condition":{"reference":"Condition/c4db5166-7263-4dc5-aeda-b9ad4cbfa70b"},"use":{"coding":[{"system":"http://terminology.hl7.org/CodeSystem/diagnosis-role","code":"billing","display":"Billing"}]},"rank":1}]},"request":{"method":"PUT","url":"Encounter/bd983cb5-94ed-4319-91fd-f40619bb64c7"}},{"fullUrl":"https://madie.cms.gov/Coverage/d6fad94e-f4ac-4abb-ba19-cb1ec7aa9d4f","resource":{"resourceType":"Coverage","id":"d6fad94e-f4ac-4abb-ba19-cb1ec7aa9d4f","status":"active","beneficiary":{"reference":"Patient/cbe5f41b-754f-49d8-91c4-85823628ceff"},"period":{"start":"1976-09-26T08:00:00+00:00"},"payor":[{"reference":"Organization/18ca435c-cae6-4c34-8033-af717477f9fc"}]},"request":{"method":"PUT","url":"Coverage/d6fad94e-f4ac-4abb-ba19-cb1ec7aa9d4f"}},{"fullUrl":"https://madie.cms.gov/Condition/c4db5166-7263-4dc5-aeda-b9ad4cbfa70b","resource":{"resourceType":"Condition","id":"c4db5166-7263-4dc5-aeda-b9ad4cbfa70b","meta":{"profile":["http://hl7.org/fhir/us/qicore/StructureDefinition/qicore-condition"]},"clinicalStatus":{"coding":[{"system":"http://terminology.hl7.org/CodeSystem/condition-clinical","code":"active"}]},"verificationStatus":{"coding":[{"system":"http://terminology.hl7.org/CodeSystem/condition-ver-status","code":"confirmed"}]},"category":[{"coding":[{"system":"http://terminology.hl7.org/CodeSystem/condition-category","code":"encounter-diagnosis","display":"Encounter Diagnosis"}]}],"code":{"coding":[{"system":"http://snomed.info/sct","version":"2020-09","code":"111297002","display":"Nonparalytic stroke (disorder)","userSelected":true}]},"subject":{"reference":"Patient/cbe5f41b-754f-49d8-91c4-85823628ceff"},"recordedDate":"2026-10-12T11:15:00+00:00"},"request":{"method":"PUT","url":"Condition/c4db5166-7263-4dc5-aeda-b9ad4cbfa70b"}},{"fullUrl":"https://madie.cms.gov/Procedure/a9fb1868-a252-4780-aace-137a0775f05d","resource":{"resourceType":"Procedure","id":"a9fb1868-a252-4780-aace-137a0775f05d","meta":{"profile":["http://hl7.org/fhir/us/qicore/StructureDefinition/qicore-procedure"]},"extension":[{"url":"http://hl7.org/fhir/us/qicore/StructureDefinition/qicore-recorded","valueDateTime":"2026-10-10T06:00:00+00:00"}],"status":"completed","code":{"coding":[{"system":"http://snomed.info/sct","code":"307521008"}]},"subject":{"reference":"Patient/cbe5f41b-754f-49d8-91c4-85823628ceff"},"performedPeriod":{"start":"2026-10-10T06:00:00+00:00","end":"2026-10-10T08:30:00+00:00"}},"request":{"method":"PUT","url":"Procedure/a9fb1868-a252-4780-aace-137a0775f05d"}},{"fullUrl":"https://madie.cms.gov/Organization/51f5a87d-fafe-4486-a8fc-4a70c0af4cc6","resource":{"resourceType":"Organization","id":"18ca435c-cae6-4c34-8033-af717477f9fc","meta":{"profile":["http://hl7.org/fhir/us/qicore/StructureDefinition/qicore-organization"]},"identifier":[{"use":"temp","system":"urn:oid:2.16.840.1.113883.4.4","value":"21-3259825"}],"active":true,"type":[{"coding":[{"system":"http://terminology.hl7.org/CodeSystem/organization-type","code":"pay","display":"Payer"}]}],"name":"Blue Cross Blue Shield of Texas","telecom":[{"system":"phone","value":"(+1) 972-766-6900"}],"address":[{"use":"billing","type":"postal","line":["P.O. Box 660044"],"city":"Dallas","state":"TX","postalCode":"75266-0044","country":"USA"}]},"request":{"method":"PUT","url":"Organization/18ca435c-cae6-4c34-8033-af717477f9fc"}},{"fullUrl":"https://madie.cms.gov/Practitioner/32cd7f23-dbac-4c56-9dfd-24501bfc07b4","resource":{"resourceType":"Practitioner","id":"32cd7f23-dbac-4c56-9dfd-24501bfc07b4","identifier":[{"system":"http://hl7.org/fhir/sid/us-npi","value":"123456"}],"name":[{"family":"Evil","prefix":["Dr"]}]},"request":{"method":"PUT","url":"Practitioner/32cd7f23-dbac-4c56-9dfd-24501bfc07b4"}},{"fullUrl":"https://madie.cms.gov/MeasureReport/f5f8efe1-da81-41fe-830b-f61544799f3e","resource":{"resourceType":"MeasureReport","id":"f5f8efe1-da81-41fe-830b-f61544799f3e","meta":{"profile":["http://hl7.org/fhir/us/cqfmeasures/StructureDefinition/test-case-cqfm"]},"contained":[{"resourceType":"Parameters","id":"9dc64849-92bf-4924-a296-aab4846e0f36-parameters","parameter":[{"name":"subject","valueString":"cbe5f41b-754f-49d8-91c4-85823628ceff"}]}],"extension":[{"url":"http://hl7.org/fhir/us/cqfmeasures/StructureDefinition/cqfm-inputParameters","valueReference":{"reference":"#9dc64849-92bf-4924-a296-aab4846e0f36-parameters"}},{"url":"http://hl7.org/fhir/us/cqfmeasures/StructureDefinition/cqfm-testCaseDescription","valueMarkdown":"Patient has  Proc IV or IA TPA concurrent with start of ED encounter, global.\"Hospitalization\" =(Ed+IP)\n"}],"modifierExtension":[{"url":"http://hl7.org/fhir/us/cqfmeasures/StructureDefinition/cqfm-isTestCase","valueBoolean":true}],"status":"complete","type":"individual","measure":"https://madie.cms.gov/Measure/CMS72FHIRSTKAntithromboticDay2","period":{"start":"2026-01-01","end":"2026-12-31"},"group":[{"population":[{"code":{"coding":[{"system":"http://terminology.hl7.org/CodeSystem/measure-population","code":"initial-population","display":"Initial Population"}]},"count":1},{"code":{"coding":[{"system":"http://terminology.hl7.org/CodeSystem/measure-population","code":"denominator","display":"Denominator"}]},"count":1},{"code":{"coding":[{"system":"http://terminology.hl7.org/CodeSystem/measure-population","code":"denominator-exclusion","display":"Denominator Exclusion"}]},"count":1},{"code":{"coding":[{"system":"http://terminology.hl7.org/CodeSystem/measure-population","code":"numerator","display":"Numerator"}]},"count":0},{"code":{"coding":[{"system":"http://terminology.hl7.org/CodeSystem/measure-population","code":"denominator-exception","display":"Denominator Exception"}]},"count":0}]}]},"request":{"method":"PUT","url":"MeasureReport/f5f8efe1-da81-41fe-830b-f61544799f3e"}}]}