{"resourceType":"Bundle","id":"tests-2505f602-4b0b-4e31-bd98-83ea0fac484f-bundle","type":"transaction","entry":[{"fullUrl":"https://madie.cms.gov/Patient/2505f602-4b0b-4e31-bd98-83ea0fac484f","resource":{"resourceType":"Patient","id":"2505f602-4b0b-4e31-bd98-83ea0fac484f","meta":{"profile":["http://hl7.org/fhir/us/qicore/StructureDefinition/qicore-patient"]},"text":{"status":"generated","div":"<div xmlns=\"http://www.w3.org/1999/xhtml\"><div class=\"hapiHeaderText\">CMP&lt;1day_DuringEncIP <b>DENEXPASS </b></div><table class=\"hapiPropertyTable\"><tbody><tr><td>Identifier</td><td>29ee7c03f9bc2d520cd864a0cadbd62a</td></tr><tr><td>Date of birth</td><td><span>26 September 1975</span></td></tr></tbody></table></div>"},"extension":[{"url":"http://hl7.org/fhir/us/core/StructureDefinition/us-core-race","extension":[{"url":"ombCategory","valueCoding":{"system":"urn:oid:2.16.840.1.113883.6.238","code":"2054-5","display":"Black or African American","userSelected":true}},{"url":"text","valueString":"Black or African American"}]},{"url":"http://hl7.org/fhir/us/core/StructureDefinition/us-core-ethnicity","extension":[{"url":"ombCategory","valueCoding":{"system":"urn:oid:2.16.840.1.113883.6.238","code":"2186-5","display":"Not Hispanic or Latino","userSelected":true}},{"url":"text","valueString":"Not Hispanic or Latino"}]}],"identifier":[{"type":{"coding":[{"system":"http://terminology.hl7.org/CodeSystem/v2-0203","code":"MR"}]},"system":"https://bonnie-fhir.healthit.gov/","value":"60f82c2e98086b570510e288"}],"active":true,"name":[{"use":"usual","family":"DENEXPass","given":["CMP<1day_DuringEncIP"]}],"gender":"female","birthDate":"1976-09-26"},"request":{"method":"PUT","url":"Patient/2505f602-4b0b-4e31-bd98-83ea0fac484f"}},{"fullUrl":"https://madie.cms.gov/Encounter/11a319fc-35d3-4c18-852e-712242a39ad9","resource":{"resourceType":"Encounter","id":"11a319fc-35d3-4c18-852e-712242a39ad9","meta":{"profile":["http://hl7.org/fhir/us/qicore/StructureDefinition/qicore-encounter"]},"status":"finished","class":{"system":"http://terminology.hl7.org/CodeSystem/v3-ActCode","code":"EMER","display":"emergency","userSelected":true},"type":[{"coding":[{"system":"http://snomed.info/sct","code":"4525004"}]}],"subject":{"reference":"Patient/2505f602-4b0b-4e31-bd98-83ea0fac484f"},"period":{"start":"2026-10-10T04:00:00+00:00","end":"2026-10-10T06:00:00+00:00"},"length":{"value":0,"unit":"days"}},"request":{"method":"PUT","url":"Encounter/11a319fc-35d3-4c18-852e-712242a39ad9"}},{"fullUrl":"https://madie.cms.gov/Encounter/8e3bf6ba-9bea-4516-b745-cd9a1f2cc0a7","resource":{"resourceType":"Encounter","id":"8e3bf6ba-9bea-4516-b745-cd9a1f2cc0a7","meta":{"profile":["http://hl7.org/fhir/us/qicore/StructureDefinition/qicore-encounter"]},"status":"finished","class":{"system":"http://terminology.hl7.org/CodeSystem/v3-ActCode","code":"IMP","display":"inpatient encounter","userSelected":true},"type":[{"coding":[{"system":"http://snomed.info/sct","code":"32485007"}]}],"subject":{"reference":"Patient/2505f602-4b0b-4e31-bd98-83ea0fac484f"},"period":{"start":"2026-10-10T06:15:00+00:00","end":"2026-10-11T11:30:00+00:00"},"length":{"value":1,"unit":"days"},"diagnosis":[{"condition":{"reference":"Condition/61cee242-c1f8-46b0-82f8-a90e68febb03"},"use":{"coding":[{"system":"http://terminology.hl7.org/CodeSystem/diagnosis-role","code":"billing","display":"Billing"}]},"rank":1}]},"request":{"method":"PUT","url":"Encounter/8e3bf6ba-9bea-4516-b745-cd9a1f2cc0a7"}},{"fullUrl":"https://madie.cms.gov/Procedure/be142070-563f-412f-bf3f-d83a7ffaf4d4","resource":{"resourceType":"Procedure","id":"be142070-563f-412f-bf3f-d83a7ffaf4d4","meta":{"profile":["http://hl7.org/fhir/us/qicore/StructureDefinition/qicore-procedure"]},"extension":[{"url":"http://hl7.org/fhir/us/qicore/StructureDefinition/qicore-recorded","valueDateTime":"2026-11-19T09:35:00-04:00"}],"status":"completed","code":{"coding":[{"system":"http://snomed.info/sct","code":"133918004"}]},"subject":{"reference":"Patient/2505f602-4b0b-4e31-bd98-83ea0fac484f"},"performedPeriod":{"start":"2026-10-10T11:14:00+00:00"}},"request":{"method":"PUT","url":"Procedure/be142070-563f-412f-bf3f-d83a7ffaf4d4"}},{"fullUrl":"https://madie.cms.gov/Coverage/22974665-4f3b-47e6-8b5c-cee44b5cee10","resource":{"resourceType":"Coverage","id":"22974665-4f3b-47e6-8b5c-cee44b5cee10","status":"active","beneficiary":{"reference":"Patient/2505f602-4b0b-4e31-bd98-83ea0fac484f"},"period":{"start":"1976-09-26T08:00:00+00:00"},"payor":[{"reference":"Organization/890316dc-a4ad-43b4-ba6f-9fb9e6eca282"}]},"request":{"method":"PUT","url":"Coverage/22974665-4f3b-47e6-8b5c-cee44b5cee10"}},{"fullUrl":"https://madie.cms.gov/Condition/61cee242-c1f8-46b0-82f8-a90e68febb03","resource":{"resourceType":"Condition","id":"61cee242-c1f8-46b0-82f8-a90e68febb03","meta":{"profile":["http://hl7.org/fhir/us/qicore/StructureDefinition/qicore-condition"]},"clinicalStatus":{"coding":[{"system":"http://terminology.hl7.org/CodeSystem/condition-clinical","code":"active"}]},"verificationStatus":{"coding":[{"system":"http://terminology.hl7.org/CodeSystem/condition-ver-status","code":"confirmed"}]},"category":[{"coding":[{"system":"http://terminology.hl7.org/CodeSystem/condition-category","code":"encounter-diagnosis","display":"Encounter Diagnosis"}]}],"code":{"coding":[{"system":"http://snomed.info/sct","version":"2020-09","code":"111297002","display":"Nonparalytic stroke (disorder)","userSelected":true}]},"subject":{"reference":"Patient/2505f602-4b0b-4e31-bd98-83ea0fac484f"},"recordedDate":"2026-08-13T08:00:00.000+00:00"},"request":{"method":"PUT","url":"Condition/61cee242-c1f8-46b0-82f8-a90e68febb03"}},{"fullUrl":"https://madie.cms.gov/Organization/18e994d5-0a48-4aac-b845-bbb5aafebbbf","resource":{"resourceType":"Organization","id":"890316dc-a4ad-43b4-ba6f-9fb9e6eca282","meta":{"profile":["http://hl7.org/fhir/us/qicore/StructureDefinition/qicore-organization"]},"identifier":[{"use":"temp","system":"urn:oid:2.16.840.1.113883.4.4","value":"21-3259825"}],"active":true,"type":[{"coding":[{"system":"http://terminology.hl7.org/CodeSystem/organization-type","code":"pay","display":"Payer"}]}],"name":"Blue Cross Blue Shield of Texas","telecom":[{"system":"phone","value":"(+1) 972-766-6900"}],"address":[{"use":"billing","type":"postal","line":["P.O. Box 660044"],"city":"Dallas","state":"TX","postalCode":"75266-0044","country":"USA"}]},"request":{"method":"PUT","url":"Organization/890316dc-a4ad-43b4-ba6f-9fb9e6eca282"}},{"fullUrl":"https://madie.cms.gov/MeasureReport/9527b451-6707-4694-bcec-bfb8b3c89ad0","resource":{"resourceType":"MeasureReport","id":"9527b451-6707-4694-bcec-bfb8b3c89ad0","meta":{"profile":["http://hl7.org/fhir/us/cqfmeasures/StructureDefinition/test-case-cqfm"]},"contained":[{"resourceType":"Parameters","id":"f3889593-a52e-41ff-b4b4-75e2d0bf2e37-parameters","parameter":[{"name":"subject","valueString":"2505f602-4b0b-4e31-bd98-83ea0fac484f"}]}],"extension":[{"url":"http://hl7.org/fhir/us/cqfmeasures/StructureDefinition/cqfm-inputParameters","valueReference":{"reference":"#f3889593-a52e-41ff-b4b4-75e2d0bf2e37-parameters"}},{"url":"http://hl7.org/fhir/us/cqfmeasures/StructureDefinition/cqfm-testCaseDescription","valueMarkdown":"Patient receives comfort measures performed CMP<1day (=0 day)   during Enc IP   global.\"Hospitalization\" =(Ed+IP)\n"}],"modifierExtension":[{"url":"http://hl7.org/fhir/us/cqfmeasures/StructureDefinition/cqfm-isTestCase","valueBoolean":true}],"status":"complete","type":"individual","measure":"https://madie.cms.gov/Measure/CMS72FHIRSTKAntithromboticDay2","period":{"start":"2026-01-01","end":"2026-12-31"},"group":[{"population":[{"code":{"coding":[{"system":"http://terminology.hl7.org/CodeSystem/measure-population","code":"initial-population","display":"Initial Population"}]},"count":1},{"code":{"coding":[{"system":"http://terminology.hl7.org/CodeSystem/measure-population","code":"denominator","display":"Denominator"}]},"count":1},{"code":{"coding":[{"system":"http://terminology.hl7.org/CodeSystem/measure-population","code":"denominator-exclusion","display":"Denominator Exclusion"}]},"count":1},{"code":{"coding":[{"system":"http://terminology.hl7.org/CodeSystem/measure-population","code":"numerator","display":"Numerator"}]},"count":0},{"code":{"coding":[{"system":"http://terminology.hl7.org/CodeSystem/measure-population","code":"denominator-exception","display":"Denominator Exception"}]},"count":0}]}]},"request":{"method":"PUT","url":"MeasureReport/9527b451-6707-4694-bcec-bfb8b3c89ad0"}}]}