{"resourceType":"Bundle","id":"tests-b8af7899-c18a-4070-a987-202949b4446a-bundle","type":"transaction","entry":[{"fullUrl":"https://madie.cms.gov/Patient/b8af7899-c18a-4070-a987-202949b4446a","resource":{"resourceType":"Patient","id":"b8af7899-c18a-4070-a987-202949b4446a","meta":{"profile":["http://hl7.org/fhir/us/qicore/StructureDefinition/qicore-patient"]},"text":{"status":"generated","div":"<div xmlns=\"http://www.w3.org/1999/xhtml\"><div class=\"hapiHeaderText\">ProcTPA=24HrsB4IPEnc <b>DENEXPASS </b></div><table class=\"hapiPropertyTable\"><tbody><tr><td>Identifier</td><td>e1ccb8d7064ef318a17ff487851987df</td></tr><tr><td>Date of birth</td><td><span>26 September 1975</span></td></tr></tbody></table></div>"},"extension":[{"url":"http://hl7.org/fhir/us/core/StructureDefinition/us-core-race","extension":[{"url":"ombCategory","valueCoding":{"system":"urn:oid:2.16.840.1.113883.6.238","code":"2054-5","display":"Black or African American","userSelected":true}},{"url":"text","valueString":"Black or African American"}]},{"url":"http://hl7.org/fhir/us/core/StructureDefinition/us-core-ethnicity","extension":[{"url":"ombCategory","valueCoding":{"system":"urn:oid:2.16.840.1.113883.6.238","code":"2186-5","display":"Not Hispanic or Latino","userSelected":true}},{"url":"text","valueString":"Not Hispanic or Latino"}]}],"identifier":[{"type":{"coding":[{"system":"http://terminology.hl7.org/CodeSystem/v2-0203","code":"MR"}]},"system":"https://bonnie-fhir.healthit.gov/","value":"60f82c2e98086b570510e262"}],"active":true,"name":[{"use":"usual","family":"DENEXPass","given":["ProcTPA=24HrsB4IPEnc"]}],"gender":"female","birthDate":"1976-09-26"},"request":{"method":"PUT","url":"Patient/b8af7899-c18a-4070-a987-202949b4446a"}},{"fullUrl":"https://madie.cms.gov/Encounter/4f993cb3-1036-4d49-98f5-21ac8910714a","resource":{"resourceType":"Encounter","id":"4f993cb3-1036-4d49-98f5-21ac8910714a","meta":{"profile":["http://hl7.org/fhir/us/qicore/StructureDefinition/qicore-encounter"]},"status":"finished","class":{"system":"http://terminology.hl7.org/CodeSystem/v3-ActCode","code":"IMP","display":"inpatient encounter"},"type":[{"coding":[{"system":"http://snomed.info/sct","code":"32485007"}]}],"subject":{"reference":"Patient/b8af7899-c18a-4070-a987-202949b4446a"},"period":{"start":"2026-10-10T09:00:00+00:00","end":"2026-10-12T11:15:00+00:00"},"length":{"value":2,"unit":"days"},"diagnosis":[{"condition":{"reference":"Condition/36561616-1bda-4a34-883b-1b0fe97e879a"},"use":{"coding":[{"system":"http://terminology.hl7.org/CodeSystem/diagnosis-role","code":"billing","display":"Billing"}]},"rank":1}]},"request":{"method":"PUT","url":"Encounter/4f993cb3-1036-4d49-98f5-21ac8910714a"}},{"fullUrl":"https://madie.cms.gov/Coverage/e725fe9b-3ed9-46ea-be2e-1683a7353972","resource":{"resourceType":"Coverage","id":"e725fe9b-3ed9-46ea-be2e-1683a7353972","status":"active","beneficiary":{"reference":"Patient/b8af7899-c18a-4070-a987-202949b4446a"},"period":{"start":"1976-09-26T08:00:00+00:00"},"payor":[{"reference":"Organization/f4907415-83c5-4eae-ab0b-cb63a840880d"}]},"request":{"method":"PUT","url":"Coverage/e725fe9b-3ed9-46ea-be2e-1683a7353972"}},{"fullUrl":"https://madie.cms.gov/Procedure/aeccb854-0228-48fe-af30-c66fac33bbb0","resource":{"resourceType":"Procedure","id":"aeccb854-0228-48fe-af30-c66fac33bbb0","meta":{"profile":["http://hl7.org/fhir/us/qicore/StructureDefinition/qicore-procedure"]},"extension":[{"url":"http://hl7.org/fhir/us/qicore/StructureDefinition/qicore-recorded","valueDateTime":"2026-10-09T09:00:00+00:00"}],"status":"completed","code":{"coding":[{"system":"http://snomed.info/sct","code":"307521008"}]},"subject":{"reference":"Patient/b8af7899-c18a-4070-a987-202949b4446a"},"performedPeriod":{"start":"2026-10-10T09:00:00+00:00","end":"2026-10-12T11:15:00+00:00"}},"request":{"method":"PUT","url":"Procedure/aeccb854-0228-48fe-af30-c66fac33bbb0"}},{"fullUrl":"https://madie.cms.gov/Condition/36561616-1bda-4a34-883b-1b0fe97e879a","resource":{"resourceType":"Condition","id":"36561616-1bda-4a34-883b-1b0fe97e879a","meta":{"profile":["http://hl7.org/fhir/us/qicore/StructureDefinition/qicore-condition"]},"clinicalStatus":{"coding":[{"system":"http://terminology.hl7.org/CodeSystem/condition-clinical","code":"active"}]},"verificationStatus":{"coding":[{"system":"http://terminology.hl7.org/CodeSystem/condition-ver-status","code":"confirmed"}]},"category":[{"coding":[{"system":"http://terminology.hl7.org/CodeSystem/condition-category","code":"encounter-diagnosis","display":"Encounter Diagnosis"}]}],"code":{"coding":[{"system":"http://snomed.info/sct","version":"2020-09","code":"111297002","display":"Nonparalytic stroke (disorder)","userSelected":true}]},"subject":{"reference":"Patient/b8af7899-c18a-4070-a987-202949b4446a"},"recordedDate":"2026-08-13T08:00:00.000+00:00"},"request":{"method":"PUT","url":"Condition/36561616-1bda-4a34-883b-1b0fe97e879a"}},{"fullUrl":"https://madie.cms.gov/Organization/0c6f3f18-1ab8-4b81-b6de-245caabdec47","resource":{"resourceType":"Organization","id":"f4907415-83c5-4eae-ab0b-cb63a840880d","meta":{"profile":["http://hl7.org/fhir/us/qicore/StructureDefinition/qicore-organization"]},"identifier":[{"use":"temp","system":"urn:oid:2.16.840.1.113883.4.4","value":"21-3259825"}],"active":true,"type":[{"coding":[{"system":"http://terminology.hl7.org/CodeSystem/organization-type","code":"pay","display":"Payer"}]}],"name":"Blue Cross Blue Shield of Texas","telecom":[{"system":"phone","value":"(+1) 972-766-6900"}],"address":[{"use":"billing","type":"postal","line":["P.O. Box 660044"],"city":"Dallas","state":"TX","postalCode":"75266-0044","country":"USA"}]},"request":{"method":"PUT","url":"Organization/f4907415-83c5-4eae-ab0b-cb63a840880d"}},{"fullUrl":"https://madie.cms.gov/MeasureReport/4750235e-9730-4154-a31b-cb6a22dd5ee9","resource":{"resourceType":"MeasureReport","id":"4750235e-9730-4154-a31b-cb6a22dd5ee9","meta":{"profile":["http://hl7.org/fhir/us/cqfmeasures/StructureDefinition/test-case-cqfm"]},"contained":[{"resourceType":"Parameters","id":"8afdf1d6-d2cf-4e69-8df9-40cddd47c188-parameters","parameter":[{"name":"subject","valueString":"b8af7899-c18a-4070-a987-202949b4446a"}]}],"extension":[{"url":"http://hl7.org/fhir/us/cqfmeasures/StructureDefinition/cqfm-inputParameters","valueReference":{"reference":"#8afdf1d6-d2cf-4e69-8df9-40cddd47c188-parameters"}},{"url":"http://hl7.org/fhir/us/cqfmeasures/StructureDefinition/cqfm-testCaseDescription","valueMarkdown":"Patient receives IV or IA TPA  procedure = 24 hours before IP encounter starts\n"}],"modifierExtension":[{"url":"http://hl7.org/fhir/us/cqfmeasures/StructureDefinition/cqfm-isTestCase","valueBoolean":true}],"status":"complete","type":"individual","measure":"https://madie.cms.gov/Measure/CMS72FHIRSTKAntithromboticDay2","period":{"start":"2026-01-01","end":"2026-12-31"},"group":[{"population":[{"code":{"coding":[{"system":"http://terminology.hl7.org/CodeSystem/measure-population","code":"initial-population","display":"Initial Population"}]},"count":1},{"code":{"coding":[{"system":"http://terminology.hl7.org/CodeSystem/measure-population","code":"denominator","display":"Denominator"}]},"count":1},{"code":{"coding":[{"system":"http://terminology.hl7.org/CodeSystem/measure-population","code":"denominator-exclusion","display":"Denominator Exclusion"}]},"count":1},{"code":{"coding":[{"system":"http://terminology.hl7.org/CodeSystem/measure-population","code":"numerator","display":"Numerator"}]},"count":0},{"code":{"coding":[{"system":"http://terminology.hl7.org/CodeSystem/measure-population","code":"denominator-exception","display":"Denominator Exception"}]},"count":0}]}]},"request":{"method":"PUT","url":"MeasureReport/4750235e-9730-4154-a31b-cb6a22dd5ee9"}}]}