{"resourceType":"Bundle","id":"tests-844d9440-ab79-4206-9893-bcf9a786970e-bundle","type":"transaction","entry":[{"fullUrl":"https://madie.cms.gov/Patient/844d9440-ab79-4206-9893-bcf9a786970e","resource":{"resourceType":"Patient","id":"844d9440-ab79-4206-9893-bcf9a786970e","meta":{"profile":["http://hl7.org/fhir/us/qicore/StructureDefinition/qicore-patient"]},"text":{"status":"generated","div":"<div xmlns=\"http://www.w3.org/1999/xhtml\"><div class=\"hapiHeaderText\">MedAntithromboticStart_eq1dayDuringEncIPwEd <b>NUMERPASS </b></div><table class=\"hapiPropertyTable\"><tbody><tr><td>Identifier</td><td>31f584b75330393256fa59b34c307941</td></tr><tr><td>Date of birth</td><td><span>26 September 1975</span></td></tr></tbody></table></div>"},"extension":[{"url":"http://hl7.org/fhir/us/core/StructureDefinition/us-core-race","extension":[{"url":"ombCategory","valueCoding":{"system":"urn:oid:2.16.840.1.113883.6.238","code":"2054-5","display":"Black or African American","userSelected":true}},{"url":"text","valueString":"Black or African American"}]},{"url":"http://hl7.org/fhir/us/core/StructureDefinition/us-core-ethnicity","extension":[{"url":"ombCategory","valueCoding":{"system":"urn:oid:2.16.840.1.113883.6.238","code":"2186-5","display":"Not Hispanic or Latino","userSelected":true}},{"url":"text","valueString":"Not Hispanic or Latino"}]}],"identifier":[{"type":{"coding":[{"system":"http://terminology.hl7.org/CodeSystem/v2-0203","code":"MR"}]},"system":"https://bonnie-fhir.healthit.gov/","value":"60f82c2e98086b570510e28d"}],"active":true,"name":[{"use":"usual","family":"NUMERPass","given":["MedAntithromboticStart_eq1dayDuringEncIPwEd"]}],"gender":"female","birthDate":"1976-09-26"},"request":{"method":"PUT","url":"Patient/844d9440-ab79-4206-9893-bcf9a786970e"}},{"fullUrl":"https://madie.cms.gov/Encounter/9f8befad-4d57-406f-94e2-f8072c8e3313","resource":{"resourceType":"Encounter","id":"9f8befad-4d57-406f-94e2-f8072c8e3313","meta":{"profile":["http://hl7.org/fhir/us/qicore/StructureDefinition/qicore-encounter"]},"status":"finished","class":{"system":"http://terminology.hl7.org/CodeSystem/v3-ActCode","code":"EMER","display":"emergency"},"type":[{"coding":[{"system":"http://snomed.info/sct","code":"4525004"}]}],"subject":{"reference":"Patient/844d9440-ab79-4206-9893-bcf9a786970e"},"period":{"start":"2026-10-10T06:00:00+00:00","end":"2026-10-10T08:30:00+00:00"},"length":{"value":0,"unit":"days"}},"request":{"method":"PUT","url":"Encounter/9f8befad-4d57-406f-94e2-f8072c8e3313"}},{"fullUrl":"https://madie.cms.gov/Encounter/f163c3b5-eebd-4618-873c-2e46becc8899","resource":{"resourceType":"Encounter","id":"f163c3b5-eebd-4618-873c-2e46becc8899","meta":{"profile":["http://hl7.org/fhir/us/qicore/StructureDefinition/qicore-encounter"]},"status":"finished","class":{"system":"http://terminology.hl7.org/CodeSystem/v3-ActCode","code":"IMP","display":"inpatient encounter"},"type":[{"coding":[{"system":"http://snomed.info/sct","code":"32485007"}]}],"subject":{"reference":"Patient/844d9440-ab79-4206-9893-bcf9a786970e"},"period":{"start":"2026-10-10T09:00:00+00:00","end":"2026-10-12T11:30:00+00:00"},"length":{"value":2,"unit":"days"},"diagnosis":[{"condition":{"reference":"Condition/94e449c3-c41b-4042-b514-45ca17f5a549"},"use":{"coding":[{"system":"http://terminology.hl7.org/CodeSystem/diagnosis-role","code":"billing","display":"Billing"}]},"rank":1}]},"request":{"method":"PUT","url":"Encounter/f163c3b5-eebd-4618-873c-2e46becc8899"}},{"fullUrl":"https://madie.cms.gov/MedicationAdministration/b69dfa14-183c-4889-8ae2-104098deb056","resource":{"resourceType":"MedicationAdministration","id":"b69dfa14-183c-4889-8ae2-104098deb056","meta":{"profile":["http://hl7.org/fhir/us/qicore/StructureDefinition/qicore-medicationadministration"]},"status":"completed","medicationCodeableConcept":{"coding":[{"system":"http://www.nlm.nih.gov/research/umls/rxnorm","code":"1037045"}]},"subject":{"reference":"Patient/844d9440-ab79-4206-9893-bcf9a786970e"},"effectivePeriod":{"start":"2026-10-11T07:00:00+00:00","end":"2026-10-11T08:20:00+00:00"}},"request":{"method":"PUT","url":"MedicationAdministration/b69dfa14-183c-4889-8ae2-104098deb056"}},{"fullUrl":"https://madie.cms.gov/Coverage/7fc3ba68-ff46-440a-8bef-3432b72e7405","resource":{"resourceType":"Coverage","id":"7fc3ba68-ff46-440a-8bef-3432b72e7405","status":"active","beneficiary":{"reference":"Patient/844d9440-ab79-4206-9893-bcf9a786970e"},"period":{"start":"1976-09-26T08:00:00+00:00"},"payor":[{"reference":"Organization/f4907415-83c5-4eae-ab0b-cb63a840880d"}]},"request":{"method":"PUT","url":"Coverage/7fc3ba68-ff46-440a-8bef-3432b72e7405"}},{"fullUrl":"https://madie.cms.gov/Condition/94e449c3-c41b-4042-b514-45ca17f5a549","resource":{"resourceType":"Condition","id":"94e449c3-c41b-4042-b514-45ca17f5a549","meta":{"profile":["http://hl7.org/fhir/us/qicore/StructureDefinition/qicore-condition"]},"clinicalStatus":{"coding":[{"system":"http://terminology.hl7.org/CodeSystem/condition-clinical","code":"active"}]},"verificationStatus":{"coding":[{"system":"http://terminology.hl7.org/CodeSystem/condition-ver-status","code":"confirmed"}]},"category":[{"coding":[{"system":"http://terminology.hl7.org/CodeSystem/condition-category","code":"encounter-diagnosis","display":"Encounter Diagnosis"}]}],"code":{"coding":[{"system":"http://snomed.info/sct","version":"2020-09","code":"111297002","display":"Nonparalytic stroke (disorder)","userSelected":true}]},"subject":{"reference":"Patient/844d9440-ab79-4206-9893-bcf9a786970e"},"recordedDate":"2026-08-16T08:00:00.000+00:00"},"request":{"method":"PUT","url":"Condition/94e449c3-c41b-4042-b514-45ca17f5a549"}},{"fullUrl":"https://madie.cms.gov/Organization/d1dc5702-8cd6-44b2-976d-79dddda659bb","resource":{"resourceType":"Organization","id":"f4907415-83c5-4eae-ab0b-cb63a840880d","meta":{"profile":["http://hl7.org/fhir/us/qicore/StructureDefinition/qicore-organization"]},"identifier":[{"use":"temp","system":"urn:oid:2.16.840.1.113883.4.4","value":"21-3259825"}],"active":true,"type":[{"coding":[{"system":"http://terminology.hl7.org/CodeSystem/organization-type","code":"pay","display":"Payer"}]}],"name":"Blue Cross Blue Shield of Texas","telecom":[{"system":"phone","value":"(+1) 972-766-6900"}],"address":[{"use":"billing","type":"postal","line":["P.O. Box 660044"],"city":"Dallas","state":"TX","postalCode":"75266-0044","country":"USA"}]},"request":{"method":"PUT","url":"Organization/f4907415-83c5-4eae-ab0b-cb63a840880d"}},{"fullUrl":"https://madie.cms.gov/Practitioner/4b314f52-9788-4cb1-ae19-088f8a6e88c1","resource":{"resourceType":"Practitioner","id":"4b314f52-9788-4cb1-ae19-088f8a6e88c1","identifier":[{"system":"http://hl7.org/fhir/sid/us-npi","value":"123456"}],"name":[{"family":"Evil","prefix":["Dr"]}]},"request":{"method":"PUT","url":"Practitioner/4b314f52-9788-4cb1-ae19-088f8a6e88c1"}},{"fullUrl":"https://madie.cms.gov/MeasureReport/2f4e295c-27db-4116-b909-be216fb58184","resource":{"resourceType":"MeasureReport","id":"2f4e295c-27db-4116-b909-be216fb58184","meta":{"profile":["http://hl7.org/fhir/us/cqfmeasures/StructureDefinition/test-case-cqfm"]},"contained":[{"resourceType":"Parameters","id":"6ff0e580-91f2-4210-a03e-97bf89a45c73-parameters","parameter":[{"name":"subject","valueString":"844d9440-ab79-4206-9893-bcf9a786970e"}]}],"extension":[{"url":"http://hl7.org/fhir/us/cqfmeasures/StructureDefinition/cqfm-inputParameters","valueReference":{"reference":"#6ff0e580-91f2-4210-a03e-97bf89a45c73-parameters"}},{"url":"http://hl7.org/fhir/us/cqfmeasures/StructureDefinition/cqfm-testCaseDescription","valueMarkdown":"\"Patient receives antithrombotic in the ED.\n global.\"\"Hospitalization\"\" =(Ed+IP)\"\n"}],"modifierExtension":[{"url":"http://hl7.org/fhir/us/cqfmeasures/StructureDefinition/cqfm-isTestCase","valueBoolean":true}],"status":"complete","type":"individual","measure":"https://madie.cms.gov/Measure/CMS72FHIRSTKAntithromboticDay2","period":{"start":"2026-01-01","end":"2026-12-31"},"group":[{"population":[{"code":{"coding":[{"system":"http://terminology.hl7.org/CodeSystem/measure-population","code":"initial-population","display":"Initial Population"}]},"count":1},{"code":{"coding":[{"system":"http://terminology.hl7.org/CodeSystem/measure-population","code":"denominator","display":"Denominator"}]},"count":1},{"code":{"coding":[{"system":"http://terminology.hl7.org/CodeSystem/measure-population","code":"denominator-exclusion","display":"Denominator Exclusion"}]},"count":0},{"code":{"coding":[{"system":"http://terminology.hl7.org/CodeSystem/measure-population","code":"numerator","display":"Numerator"}]},"count":1},{"code":{"coding":[{"system":"http://terminology.hl7.org/CodeSystem/measure-population","code":"denominator-exception","display":"Denominator Exception"}]},"count":0}]}]},"request":{"method":"PUT","url":"MeasureReport/2f4e295c-27db-4116-b909-be216fb58184"}}]}