{"resourceType":"Bundle","id":"tests-d0a59b97-c3ab-4028-9109-a31359a93c47-bundle","type":"transaction","entry":[{"fullUrl":"https://madie.cms.gov/Patient/d0a59b97-c3ab-4028-9109-a31359a93c47","resource":{"resourceType":"Patient","id":"d0a59b97-c3ab-4028-9109-a31359a93c47","meta":{"profile":["http://hl7.org/fhir/us/qicore/StructureDefinition/qicore-patient"]},"text":{"status":"generated","div":"<div xmlns=\"http://www.w3.org/1999/xhtml\"><div class=\"hapiHeaderText\">MedAntithromboticStart_eq0dayB4EdStart <b>NUMERPASS </b></div><table class=\"hapiPropertyTable\"><tbody><tr><td>Identifier</td><td>9d6a651043dc0df124664bf2c17e439c</td></tr><tr><td>Date of birth</td><td><span>26 September 1975</span></td></tr></tbody></table></div>"},"extension":[{"url":"http://hl7.org/fhir/us/core/StructureDefinition/us-core-race","extension":[{"url":"ombCategory","valueCoding":{"system":"urn:oid:2.16.840.1.113883.6.238","code":"2054-5","display":"Black or African American","userSelected":true}},{"url":"text","valueString":"Black or African American"}]},{"url":"http://hl7.org/fhir/us/core/StructureDefinition/us-core-ethnicity","extension":[{"url":"ombCategory","valueCoding":{"system":"urn:oid:2.16.840.1.113883.6.238","code":"2186-5","display":"Not Hispanic or Latino","userSelected":true}},{"url":"text","valueString":"Not Hispanic or Latino"}]}],"identifier":[{"type":{"coding":[{"system":"http://terminology.hl7.org/CodeSystem/v2-0203","code":"MR"}]},"system":"https://bonnie-fhir.healthit.gov/","value":"60f82c2e98086b570510e290"}],"active":true,"name":[{"use":"usual","family":"NUMERPass","given":["MedAntithromboticStart_eq0dayB4EdStart"]}],"gender":"female","birthDate":"1976-09-26"},"request":{"method":"PUT","url":"Patient/d0a59b97-c3ab-4028-9109-a31359a93c47"}},{"fullUrl":"https://madie.cms.gov/Encounter/c753a261-e2e8-4ae9-b664-7ab4202a9026","resource":{"resourceType":"Encounter","id":"c753a261-e2e8-4ae9-b664-7ab4202a9026","meta":{"profile":["http://hl7.org/fhir/us/qicore/StructureDefinition/qicore-encounter"]},"status":"finished","class":{"system":"http://terminology.hl7.org/CodeSystem/v3-ActCode","code":"EMER","display":"emergency"},"type":[{"coding":[{"system":"http://snomed.info/sct","code":"4525004"}]}],"subject":{"reference":"Patient/d0a59b97-c3ab-4028-9109-a31359a93c47"},"period":{"start":"2026-10-10T06:00:00+00:00","end":"2026-10-10T08:30:00+00:00"},"length":{"value":0,"unit":"days"}},"request":{"method":"PUT","url":"Encounter/c753a261-e2e8-4ae9-b664-7ab4202a9026"}},{"fullUrl":"https://madie.cms.gov/Encounter/388c4a50-8e24-4d0c-866c-a4769698d69d","resource":{"resourceType":"Encounter","id":"388c4a50-8e24-4d0c-866c-a4769698d69d","meta":{"profile":["http://hl7.org/fhir/us/qicore/StructureDefinition/qicore-encounter"]},"status":"finished","class":{"system":"http://terminology.hl7.org/CodeSystem/v3-ActCode","code":"IMP","display":"inpatient encounter"},"type":[{"coding":[{"system":"http://snomed.info/sct","code":"32485007"}]}],"subject":{"reference":"Patient/d0a59b97-c3ab-4028-9109-a31359a93c47"},"period":{"start":"2026-10-10T09:00:00+00:00","end":"2026-10-12T11:30:00+00:00"},"length":{"value":2,"unit":"days"},"diagnosis":[{"condition":{"reference":"Condition/3850c631-8e2b-404e-a68d-6c9f051abb20"},"use":{"coding":[{"system":"http://terminology.hl7.org/CodeSystem/diagnosis-role","code":"billing","display":"Billing"}]},"rank":1}]},"request":{"method":"PUT","url":"Encounter/388c4a50-8e24-4d0c-866c-a4769698d69d"}},{"fullUrl":"https://madie.cms.gov/MedicationAdministration/519b58d5-cac6-4f5d-848f-a47ec189dc38","resource":{"resourceType":"MedicationAdministration","id":"519b58d5-cac6-4f5d-848f-a47ec189dc38","meta":{"profile":["http://hl7.org/fhir/us/qicore/StructureDefinition/qicore-medicationadministration"]},"status":"completed","medicationCodeableConcept":{"coding":[{"system":"http://www.nlm.nih.gov/research/umls/rxnorm","code":"1037045"}]},"subject":{"reference":"Patient/d0a59b97-c3ab-4028-9109-a31359a93c47"},"effectivePeriod":{"start":"2026-10-10T05:00:00+00:00","end":"2026-10-10T05:20:00+00:00"}},"request":{"method":"PUT","url":"MedicationAdministration/519b58d5-cac6-4f5d-848f-a47ec189dc38"}},{"fullUrl":"https://madie.cms.gov/Coverage/5976c2f1-2d1d-4ac0-9ec6-7d75923a595b","resource":{"resourceType":"Coverage","id":"5976c2f1-2d1d-4ac0-9ec6-7d75923a595b","status":"active","beneficiary":{"reference":"Patient/d0a59b97-c3ab-4028-9109-a31359a93c47"},"period":{"start":"1976-09-26T08:00:00+00:00"},"payor":[{"reference":"Organization/9e9b3f13-a353-4173-b29b-947d6f1f2031"}]},"request":{"method":"PUT","url":"Coverage/5976c2f1-2d1d-4ac0-9ec6-7d75923a595b"}},{"fullUrl":"https://madie.cms.gov/Condition/3850c631-8e2b-404e-a68d-6c9f051abb20","resource":{"resourceType":"Condition","id":"3850c631-8e2b-404e-a68d-6c9f051abb20","meta":{"profile":["http://hl7.org/fhir/us/qicore/StructureDefinition/qicore-condition"]},"clinicalStatus":{"coding":[{"system":"http://terminology.hl7.org/CodeSystem/condition-clinical","code":"active"}]},"verificationStatus":{"coding":[{"system":"http://terminology.hl7.org/CodeSystem/condition-ver-status","code":"confirmed"}]},"category":[{"coding":[{"system":"http://terminology.hl7.org/CodeSystem/condition-category","code":"encounter-diagnosis","display":"Encounter Diagnosis"}]}],"code":{"coding":[{"system":"http://snomed.info/sct","version":"2020-09","code":"111297002","display":"Nonparalytic stroke (disorder)","userSelected":true}]},"subject":{"reference":"Patient/d0a59b97-c3ab-4028-9109-a31359a93c47"},"recordedDate":"2026-08-16T08:00:00.000+00:00"},"request":{"method":"PUT","url":"Condition/3850c631-8e2b-404e-a68d-6c9f051abb20"}},{"fullUrl":"https://madie.cms.gov/Organization/8bac53a3-fc02-463d-a9dd-a6ee1c359975","resource":{"resourceType":"Organization","id":"9e9b3f13-a353-4173-b29b-947d6f1f2031","meta":{"profile":["http://hl7.org/fhir/us/qicore/StructureDefinition/qicore-organization"]},"identifier":[{"use":"temp","system":"urn:oid:2.16.840.1.113883.4.4","value":"21-3259825"}],"active":true,"type":[{"coding":[{"system":"http://terminology.hl7.org/CodeSystem/organization-type","code":"pay","display":"Payer"}]}],"name":"Blue Cross Blue Shield of Texas","telecom":[{"system":"phone","value":"(+1) 972-766-6900"}],"address":[{"use":"billing","type":"postal","line":["P.O. Box 660044"],"city":"Dallas","state":"TX","postalCode":"75266-0044","country":"USA"}]},"request":{"method":"PUT","url":"Organization/9e9b3f13-a353-4173-b29b-947d6f1f2031"}},{"fullUrl":"https://madie.cms.gov/Practitioner/b16baa3f-725f-4df0-8f5d-6f1ca1980372","resource":{"resourceType":"Practitioner","id":"b16baa3f-725f-4df0-8f5d-6f1ca1980372","identifier":[{"system":"http://hl7.org/fhir/sid/us-npi","value":"123456"}],"name":[{"family":"Evil","prefix":["Dr"]}]},"request":{"method":"PUT","url":"Practitioner/b16baa3f-725f-4df0-8f5d-6f1ca1980372"}},{"fullUrl":"https://madie.cms.gov/MeasureReport/24f68b72-ea45-485e-9720-cdedab6803f8","resource":{"resourceType":"MeasureReport","id":"24f68b72-ea45-485e-9720-cdedab6803f8","meta":{"profile":["http://hl7.org/fhir/us/cqfmeasures/StructureDefinition/test-case-cqfm"]},"contained":[{"resourceType":"Parameters","id":"1a16f8cd-ec2d-48cf-89bb-90ec3ba961d8-parameters","parameter":[{"name":"subject","valueString":"d0a59b97-c3ab-4028-9109-a31359a93c47"}]}],"extension":[{"url":"http://hl7.org/fhir/us/cqfmeasures/StructureDefinition/cqfm-inputParameters","valueReference":{"reference":"#1a16f8cd-ec2d-48cf-89bb-90ec3ba961d8-parameters"}},{"url":"http://hl7.org/fhir/us/cqfmeasures/StructureDefinition/cqfm-testCaseDescription","valueMarkdown":"\"Patient receives antithrombotic before ED , (=0day)\nglobal.\"\"Hospitalization\"\" =(Ed+IP)\"\n"}],"modifierExtension":[{"url":"http://hl7.org/fhir/us/cqfmeasures/StructureDefinition/cqfm-isTestCase","valueBoolean":true}],"status":"complete","type":"individual","measure":"https://madie.cms.gov/Measure/CMS72FHIRSTKAntithromboticDay2","period":{"start":"2026-01-01","end":"2026-12-31"},"group":[{"population":[{"code":{"coding":[{"system":"http://terminology.hl7.org/CodeSystem/measure-population","code":"initial-population","display":"Initial Population"}]},"count":1},{"code":{"coding":[{"system":"http://terminology.hl7.org/CodeSystem/measure-population","code":"denominator","display":"Denominator"}]},"count":1},{"code":{"coding":[{"system":"http://terminology.hl7.org/CodeSystem/measure-population","code":"denominator-exclusion","display":"Denominator Exclusion"}]},"count":0},{"code":{"coding":[{"system":"http://terminology.hl7.org/CodeSystem/measure-population","code":"numerator","display":"Numerator"}]},"count":1},{"code":{"coding":[{"system":"http://terminology.hl7.org/CodeSystem/measure-population","code":"denominator-exception","display":"Denominator Exception"}]},"count":0}]}]},"request":{"method":"PUT","url":"MeasureReport/24f68b72-ea45-485e-9720-cdedab6803f8"}}]}