{"resourceType":"Bundle","id":"tests-036c2c6b-c5b7-4e1f-8a85-ac0787e3a15d-bundle","type":"transaction","entry":[{"fullUrl":"https://madie.cms.gov/Patient/036c2c6b-c5b7-4e1f-8a85-ac0787e3a15d","resource":{"resourceType":"Patient","id":"036c2c6b-c5b7-4e1f-8a85-ac0787e3a15d","meta":{"profile":["http://hl7.org/fhir/us/qicore/StructureDefinition/qicore-patient"]},"text":{"status":"generated","div":"<div xmlns=\"http://www.w3.org/1999/xhtml\"><div class=\"hapiHeaderText\">LowINRDayOfEncStart_NoEDNoObsBFEncDayOf <b>DENEXFAIL </b></div><table class=\"hapiPropertyTable\"><tbody><tr><td>Identifier</td><td>10c7f70e4cd70973731e86c309e8b6a062eba3f3b6c0ee06101848d8dd42fe3a</td></tr><tr><td>Date of birth</td><td><span>26 September 1975</span></td></tr></tbody></table></div>"},"extension":[{"url":"http://hl7.org/fhir/us/core/StructureDefinition/us-core-race","extension":[{"url":"ombCategory","valueCoding":{"system":"urn:oid:2.16.840.1.113883.6.238","code":"2054-5","display":"Black or African American","userSelected":true}},{"url":"text","valueString":"Black or African American"}]},{"url":"http://hl7.org/fhir/us/core/StructureDefinition/us-core-ethnicity","extension":[{"url":"ombCategory","valueCoding":{"system":"urn:oid:2.16.840.1.113883.6.238","code":"2186-5","display":"Not Hispanic or Latino","userSelected":true}},{"url":"text","valueString":"Not Hispanic or Latino"}]}],"identifier":[{"type":{"coding":[{"system":"http://terminology.hl7.org/CodeSystem/v2-0203","code":"MR"}]},"system":"https://bonnie-fhir.healthit.gov/","value":"60f82c2f98086b570510e2a6"}],"active":true,"name":[{"use":"usual","family":"DENEXFail","given":["LowINRDayOfEncStart_NoEDNoObsBFEncDayOf "]}],"gender":"female","birthDate":"1976-09-26"},"request":{"method":"PUT","url":"Patient/036c2c6b-c5b7-4e1f-8a85-ac0787e3a15d"}},{"fullUrl":"https://madie.cms.gov/Encounter/11d08320-0d6b-4b46-90c9-a26d001f1c57","resource":{"resourceType":"Encounter","id":"11d08320-0d6b-4b46-90c9-a26d001f1c57","meta":{"profile":["http://hl7.org/fhir/us/qicore/StructureDefinition/qicore-encounter"]},"status":"finished","class":{"system":"http://terminology.hl7.org/CodeSystem/v3-ActCode","code":"IMP","display":"inpatient encounter","userSelected":true},"type":[{"coding":[{"system":"http://snomed.info/sct","code":"32485007"}]}],"subject":{"reference":"Patient/036c2c6b-c5b7-4e1f-8a85-ac0787e3a15d"},"period":{"start":"2026-10-10T06:15:00+00:00","end":"2026-10-15T11:30:00+00:00"},"length":{"value":5,"unit":"days"},"diagnosis":[{"condition":{"reference":"Condition/7796884a-ad63-45d3-944e-ebc55c1e7c41"},"use":{"coding":[{"system":"http://terminology.hl7.org/CodeSystem/diagnosis-role","code":"billing","display":"Billing"}]},"rank":1}]},"request":{"method":"PUT","url":"Encounter/11d08320-0d6b-4b46-90c9-a26d001f1c57"}},{"fullUrl":"https://madie.cms.gov/Observation/920e3529-c783-44cd-8327-d664c9b4be3a","resource":{"resourceType":"Observation","id":"920e3529-c783-44cd-8327-d664c9b4be3a","meta":{"profile":["http://hl7.org/fhir/us/qicore/StructureDefinition/qicore-observation"]},"status":"final","category":[{"coding":[{"system":"http://terminology.hl7.org/CodeSystem/observation-category","code":"laboratory","display":"Laboratory"}]}],"code":{"coding":[{"system":"http://loinc.org","code":"34714-6"}]},"subject":{"reference":"Patient/036c2c6b-c5b7-4e1f-8a85-ac0787e3a15d"},"effectivePeriod":{"start":"2026-10-10T06:15:00+00:00"},"issued":"2026-10-10T06:30:00.000+00:00","valueQuantity":{"value":3.5}},"request":{"method":"PUT","url":"Observation/920e3529-c783-44cd-8327-d664c9b4be3a"}},{"fullUrl":"https://madie.cms.gov/Coverage/222909af-26e9-41de-9b1b-b00de6fa0a59","resource":{"resourceType":"Coverage","id":"222909af-26e9-41de-9b1b-b00de6fa0a59","status":"active","beneficiary":{"reference":"Patient/036c2c6b-c5b7-4e1f-8a85-ac0787e3a15d"},"period":{"start":"1976-09-26T08:00:00+00:00"},"payor":[{"reference":"Organization/18ca435c-cae6-4c34-8033-af717477f9fc"}]},"request":{"method":"PUT","url":"Coverage/222909af-26e9-41de-9b1b-b00de6fa0a59"}},{"fullUrl":"https://madie.cms.gov/Condition/7796884a-ad63-45d3-944e-ebc55c1e7c41","resource":{"resourceType":"Condition","id":"7796884a-ad63-45d3-944e-ebc55c1e7c41","meta":{"profile":["http://hl7.org/fhir/us/qicore/StructureDefinition/qicore-condition"]},"clinicalStatus":{"coding":[{"system":"http://terminology.hl7.org/CodeSystem/condition-clinical","code":"active"}]},"verificationStatus":{"coding":[{"system":"http://terminology.hl7.org/CodeSystem/condition-ver-status","code":"confirmed"}]},"category":[{"coding":[{"system":"http://terminology.hl7.org/CodeSystem/condition-category","code":"encounter-diagnosis","display":"Encounter Diagnosis"}]}],"code":{"coding":[{"system":"http://snomed.info/sct","version":"2020-09","code":"111297002","display":"Nonparalytic stroke (disorder)","userSelected":true}]},"subject":{"reference":"Patient/036c2c6b-c5b7-4e1f-8a85-ac0787e3a15d"},"recordedDate":"2026-08-12T08:00:00.000+00:00"},"request":{"method":"PUT","url":"Condition/7796884a-ad63-45d3-944e-ebc55c1e7c41"}},{"fullUrl":"https://madie.cms.gov/Organization/5eaaa66c-b964-4b3b-9892-7a56fad0bc91","resource":{"resourceType":"Organization","id":"18ca435c-cae6-4c34-8033-af717477f9fc","meta":{"profile":["http://hl7.org/fhir/us/qicore/StructureDefinition/qicore-organization"]},"identifier":[{"use":"temp","system":"urn:oid:2.16.840.1.113883.4.4","value":"21-3259825"}],"active":true,"type":[{"coding":[{"system":"http://terminology.hl7.org/CodeSystem/organization-type","code":"pay","display":"Payer"}]}],"name":"Blue Cross Blue Shield of Texas","telecom":[{"system":"phone","value":"(+1) 972-766-6900"}],"address":[{"use":"billing","type":"postal","line":["P.O. Box 660044"],"city":"Dallas","state":"TX","postalCode":"75266-0044","country":"USA"}]},"request":{"method":"PUT","url":"Organization/18ca435c-cae6-4c34-8033-af717477f9fc"}},{"fullUrl":"https://madie.cms.gov/MeasureReport/dbe09002-7b86-4491-ae36-00f0faf3cd87","resource":{"resourceType":"MeasureReport","id":"dbe09002-7b86-4491-ae36-00f0faf3cd87","meta":{"profile":["http://hl7.org/fhir/us/cqfmeasures/StructureDefinition/test-case-cqfm"]},"contained":[{"resourceType":"Parameters","id":"ad990b33-a06e-4031-ad16-33dd450012f7-parameters","parameter":[{"name":"subject","valueString":"036c2c6b-c5b7-4e1f-8a85-ac0787e3a15d"}]}],"extension":[{"url":"http://hl7.org/fhir/us/cqfmeasures/StructureDefinition/cqfm-inputParameters","valueReference":{"reference":"#ad990b33-a06e-4031-ad16-33dd450012f7-parameters"}},{"url":"http://hl7.org/fhir/us/cqfmeasures/StructureDefinition/cqfm-testCaseDescription","valueMarkdown":"Patient receives INR of 3.5 the day of IP start. No ED. No Obs. negative test for lab value.\n"}],"modifierExtension":[{"url":"http://hl7.org/fhir/us/cqfmeasures/StructureDefinition/cqfm-isTestCase","valueBoolean":true}],"status":"complete","type":"individual","measure":"https://madie.cms.gov/Measure/CMS72FHIRSTKAntithromboticDay2","period":{"start":"2026-01-01","end":"2026-12-31"},"group":[{"population":[{"code":{"coding":[{"system":"http://terminology.hl7.org/CodeSystem/measure-population","code":"initial-population","display":"Initial Population"}]},"count":1},{"code":{"coding":[{"system":"http://terminology.hl7.org/CodeSystem/measure-population","code":"denominator","display":"Denominator"}]},"count":1},{"code":{"coding":[{"system":"http://terminology.hl7.org/CodeSystem/measure-population","code":"denominator-exclusion","display":"Denominator Exclusion"}]},"count":0},{"code":{"coding":[{"system":"http://terminology.hl7.org/CodeSystem/measure-population","code":"numerator","display":"Numerator"}]},"count":0},{"code":{"coding":[{"system":"http://terminology.hl7.org/CodeSystem/measure-population","code":"denominator-exception","display":"Denominator Exception"}]},"count":0}]}]},"request":{"method":"PUT","url":"MeasureReport/dbe09002-7b86-4491-ae36-00f0faf3cd87"}}]}