{"resourceType":"Bundle","id":"tests-075dc91f-0aef-4a59-aee5-a95ec22fe2b5-bundle","type":"transaction","entry":[{"fullUrl":"https://madie.cms.gov/Patient/075dc91f-0aef-4a59-aee5-a95ec22fe2b5","resource":{"resourceType":"Patient","id":"075dc91f-0aef-4a59-aee5-a95ec22fe2b5","meta":{"profile":["http://hl7.org/fhir/us/qicore/StructureDefinition/qicore-patient"]},"text":{"status":"generated","div":"<div xmlns=\"http://www.w3.org/1999/xhtml\"><div class=\"hapiHeaderText\">CMP_DayOf_RelvDat_1minB4EDStart_EDEndLT1hrB4Obs_ObsEndLT1hrB4IP <b>DENEXPASS </b></div><table class=\"hapiPropertyTable\"><tbody><tr><td>Date of birth</td><td><span>01 January 1980</span></td></tr></tbody></table></div>"},"extension":[{"url":"http://hl7.org/fhir/us/core/StructureDefinition/us-core-race","extension":[{"url":"ombCategory","valueCoding":{"system":"urn:oid:2.16.840.1.113883.6.238","code":"2106-3","display":"White","userSelected":true}},{"url":"text","valueString":"White"}]},{"url":"http://hl7.org/fhir/us/core/StructureDefinition/us-core-ethnicity","extension":[{"url":"ombCategory","valueCoding":{"system":"urn:oid:2.16.840.1.113883.6.238","code":"2186-5","display":"Not Hispanic or Latino","userSelected":true}},{"url":"text","valueString":"Not Hispanic or Latino"}]}],"identifier":[{"type":{"coding":[{"system":"http://terminology.hl7.org/CodeSystem/v2-0203","code":"MR"}]},"system":"https://bonnie-fhir.healthit.gov/","value":"60f82c3098086b570510e2d4"}],"active":true,"name":[{"use":"usual","family":"DENEXPass","given":["CMP_DayOf_RelvDat_1minB4EDStart_EDEndLT1hrB4Obs_ObsEndLT1hrB4IP"]}],"gender":"female","birthDate":"1981-01-01"},"request":{"method":"PUT","url":"Patient/075dc91f-0aef-4a59-aee5-a95ec22fe2b5"}},{"fullUrl":"https://madie.cms.gov/Encounter/ea6ac5f9-a061-4643-8c2a-3b12ac1ba59f","resource":{"resourceType":"Encounter","id":"ea6ac5f9-a061-4643-8c2a-3b12ac1ba59f","meta":{"profile":["http://hl7.org/fhir/us/qicore/StructureDefinition/qicore-encounter"]},"status":"finished","class":{"system":"http://terminology.hl7.org/CodeSystem/v3-ActCode","code":"EMER","display":"emergency"},"type":[{"coding":[{"system":"http://snomed.info/sct","code":"4525004"}]}],"subject":{"reference":"Patient/075dc91f-0aef-4a59-aee5-a95ec22fe2b5"},"period":{"start":"2026-11-18T07:00:00+00:00","end":"2026-11-18T08:01:00+00:00"},"diagnosis":[{"condition":{"reference":"Condition/0dca4511-6304-4cac-8b1c-0ee7ced86de5"},"use":{"coding":[{"system":"http://terminology.hl7.org/CodeSystem/diagnosis-role","code":"billing","display":"Billing"}]},"rank":1}]},"request":{"method":"PUT","url":"Encounter/ea6ac5f9-a061-4643-8c2a-3b12ac1ba59f"}},{"fullUrl":"https://madie.cms.gov/Encounter/b83d6e45-0201-44cb-9857-d9d4e61d6eff","resource":{"resourceType":"Encounter","id":"b83d6e45-0201-44cb-9857-d9d4e61d6eff","meta":{"profile":["http://hl7.org/fhir/us/qicore/StructureDefinition/qicore-encounter"]},"status":"finished","class":{"system":"http://terminology.hl7.org/CodeSystem/v3-ActCode","code":"OBSENC","display":"observation encounter"},"type":[{"coding":[{"system":"http://snomed.info/sct","code":"448951000124107"}]}],"subject":{"reference":"Patient/075dc91f-0aef-4a59-aee5-a95ec22fe2b5"},"period":{"start":"2026-11-18T09:00:00+00:00","end":"2026-11-18T10:01:00+00:00"}},"request":{"method":"PUT","url":"Encounter/b83d6e45-0201-44cb-9857-d9d4e61d6eff"}},{"fullUrl":"https://madie.cms.gov/Encounter/29dd852d-5665-46f2-9e4d-2fe6abe9502d","resource":{"resourceType":"Encounter","id":"29dd852d-5665-46f2-9e4d-2fe6abe9502d","meta":{"profile":["http://hl7.org/fhir/us/qicore/StructureDefinition/qicore-encounter"]},"status":"finished","class":{"system":"http://terminology.hl7.org/CodeSystem/v3-ActCode","code":"IMP","display":"inpatient encounter"},"type":[{"coding":[{"system":"http://snomed.info/sct","code":"183452005"}]}],"subject":{"reference":"Patient/075dc91f-0aef-4a59-aee5-a95ec22fe2b5"},"period":{"start":"2026-11-18T11:00:00+00:00","end":"2026-11-20T08:15:00+00:00"},"diagnosis":[{"condition":{"reference":"Condition/0dca4511-6304-4cac-8b1c-0ee7ced86de5"},"use":{"coding":[{"system":"http://terminology.hl7.org/CodeSystem/diagnosis-role","code":"billing","display":"Billing"}]},"rank":1}]},"request":{"method":"PUT","url":"Encounter/29dd852d-5665-46f2-9e4d-2fe6abe9502d"}},{"fullUrl":"https://madie.cms.gov/Procedure/fbc9fe7b-b08b-4920-bf2f-beee980758b3","resource":{"resourceType":"Procedure","id":"fbc9fe7b-b08b-4920-bf2f-beee980758b3","meta":{"profile":["http://hl7.org/fhir/us/qicore/StructureDefinition/qicore-procedure"]},"extension":[{"url":"http://hl7.org/fhir/us/qicore/StructureDefinition/qicore-recorded","valueDateTime":"2026-11-18T06:59:00.000+00:00"}],"status":"completed","code":{"coding":[{"system":"http://snomed.info/sct","code":"133918004"}]},"subject":{"reference":"Patient/075dc91f-0aef-4a59-aee5-a95ec22fe2b5"},"performedDateTime":"2026-11-18T06:59:00.000+00:00"},"request":{"method":"PUT","url":"Procedure/fbc9fe7b-b08b-4920-bf2f-beee980758b3"}},{"fullUrl":"https://madie.cms.gov/Condition/0dca4511-6304-4cac-8b1c-0ee7ced86de5","resource":{"resourceType":"Condition","id":"0dca4511-6304-4cac-8b1c-0ee7ced86de5","meta":{"profile":["http://hl7.org/fhir/us/qicore/StructureDefinition/qicore-condition"]},"clinicalStatus":{"coding":[{"system":"http://terminology.hl7.org/CodeSystem/condition-clinical","code":"active"}]},"verificationStatus":{"coding":[{"system":"http://terminology.hl7.org/CodeSystem/condition-ver-status","code":"confirmed"}]},"category":[{"coding":[{"system":"http://terminology.hl7.org/CodeSystem/condition-category","code":"encounter-diagnosis","display":"Encounter Diagnosis"}]}],"code":{"coding":[{"system":"http://snomed.info/sct","version":"2020-09","code":"111297002","display":"Nonparalytic stroke (disorder)","userSelected":true}]},"subject":{"reference":"Patient/075dc91f-0aef-4a59-aee5-a95ec22fe2b5"},"recordedDate":"2026-08-13T08:00:00.000+00:00"},"request":{"method":"PUT","url":"Condition/0dca4511-6304-4cac-8b1c-0ee7ced86de5"}},{"fullUrl":"https://madie.cms.gov/Coverage/db37a018-a69d-49e3-b28c-ee4e364aa483","resource":{"resourceType":"Coverage","id":"db37a018-a69d-49e3-b28c-ee4e364aa483","meta":{"profile":["http://hl7.org/fhir/us/qicore/StructureDefinition/qicore-coverage"]},"status":"active","beneficiary":{"reference":"Patient/075dc91f-0aef-4a59-aee5-a95ec22fe2b5"},"payor":[{"reference":"Organization/3778262e-e084-4bb5-9a47-1a144735f786"}]},"request":{"method":"PUT","url":"Coverage/db37a018-a69d-49e3-b28c-ee4e364aa483"}},{"fullUrl":"https://madie.cms.gov/Organization/5d76dc1d-59be-47bb-ab16-85699334ed8b","resource":{"resourceType":"Organization","id":"3778262e-e084-4bb5-9a47-1a144735f786","meta":{"profile":["http://hl7.org/fhir/us/qicore/StructureDefinition/qicore-organization"]},"identifier":[{"use":"temp","system":"urn:oid:2.16.840.1.113883.4.4","value":"21-3259825"}],"active":true,"type":[{"coding":[{"system":"http://terminology.hl7.org/CodeSystem/organization-type","code":"pay","display":"Payer"}]}],"name":"Blue Cross Blue Shield of Texas","telecom":[{"system":"phone","value":"(+1) 972-766-6900"}],"address":[{"use":"billing","type":"postal","line":["P.O. Box 660044"],"city":"Dallas","state":"TX","postalCode":"75266-0044","country":"USA"}]},"request":{"method":"PUT","url":"Organization/3778262e-e084-4bb5-9a47-1a144735f786"}},{"fullUrl":"https://madie.cms.gov/MeasureReport/06236933-f693-4cdd-b328-e76b44350bbc","resource":{"resourceType":"MeasureReport","id":"06236933-f693-4cdd-b328-e76b44350bbc","meta":{"profile":["http://hl7.org/fhir/us/cqfmeasures/StructureDefinition/test-case-cqfm"]},"contained":[{"resourceType":"Parameters","id":"91f4f4c2-35ca-4580-9045-284e4a2ff4fa-parameters","parameter":[{"name":"subject","valueString":"075dc91f-0aef-4a59-aee5-a95ec22fe2b5"}]}],"extension":[{"url":"http://hl7.org/fhir/us/cqfmeasures/StructureDefinition/cqfm-inputParameters","valueReference":{"reference":"#91f4f4c2-35ca-4580-9045-284e4a2ff4fa-parameters"}},{"url":"http://hl7.org/fhir/us/cqfmeasures/StructureDefinition/cqfm-testCaseDescription","valueMarkdown":"Patient receives comfort measures performed on the day of hospital arrival, 1 minute before the start of the ED start. ED ends less than 1 hour before Obs Start, Obs ends less than 1 hour before IP start.\n"}],"modifierExtension":[{"url":"http://hl7.org/fhir/us/cqfmeasures/StructureDefinition/cqfm-isTestCase","valueBoolean":true}],"status":"complete","type":"individual","measure":"https://madie.cms.gov/Measure/CMS72FHIRSTKAntithromboticDay2","period":{"start":"2026-01-01","end":"2026-12-31"},"group":[{"population":[{"code":{"coding":[{"system":"http://terminology.hl7.org/CodeSystem/measure-population","code":"initial-population","display":"Initial Population"}]},"count":1},{"code":{"coding":[{"system":"http://terminology.hl7.org/CodeSystem/measure-population","code":"denominator","display":"Denominator"}]},"count":1},{"code":{"coding":[{"system":"http://terminology.hl7.org/CodeSystem/measure-population","code":"denominator-exclusion","display":"Denominator Exclusion"}]},"count":1},{"code":{"coding":[{"system":"http://terminology.hl7.org/CodeSystem/measure-population","code":"numerator","display":"Numerator"}]},"count":0},{"code":{"coding":[{"system":"http://terminology.hl7.org/CodeSystem/measure-population","code":"denominator-exception","display":"Denominator Exception"}]},"count":0}]}]},"request":{"method":"PUT","url":"MeasureReport/06236933-f693-4cdd-b328-e76b44350bbc"}}]}