{"resourceType":"Bundle","id":"tests-871d38c3-6822-4136-8fe0-2ed0f226888f-bundle","type":"transaction","entry":[{"fullUrl":"https://madie.cms.gov/Patient/871d38c3-6822-4136-8fe0-2ed0f226888f","resource":{"resourceType":"Patient","id":"871d38c3-6822-4136-8fe0-2ed0f226888f","meta":{"profile":["http://hl7.org/fhir/us/qicore/StructureDefinition/qicore-patient"]},"text":{"status":"generated","div":"<div xmlns=\"http://www.w3.org/1999/xhtml\"><div class=\"hapiHeaderText\">EncDx=IschemicStroke <b>IPPFAIL </b></div><table class=\"hapiPropertyTable\"><tbody><tr><td>Identifier</td><td>89a98bc05b4643f22db6eeb5f4cd4a58</td></tr><tr><td>Date of birth</td><td><span>20 August 1994</span></td></tr></tbody></table></div>"},"extension":[{"url":"http://hl7.org/fhir/us/core/StructureDefinition/us-core-race","extension":[{"url":"ombCategory","valueCoding":{"system":"urn:oid:2.16.840.1.113883.6.238","code":"1002-5","display":"American Indian or Alaska Native","userSelected":true}},{"url":"text","valueString":"American Indian or Alaska Native"}]},{"url":"http://hl7.org/fhir/us/core/StructureDefinition/us-core-ethnicity","extension":[{"url":"ombCategory","valueCoding":{"system":"urn:oid:2.16.840.1.113883.6.238","code":"2186-5","display":"Not Hispanic or Latino","userSelected":true}},{"url":"text","valueString":"Not Hispanic or Latino"}]}],"identifier":[{"type":{"coding":[{"system":"http://terminology.hl7.org/CodeSystem/v2-0203","code":"MR"}]},"system":"https://bonnie-fhir.healthit.gov/","value":"60f82c2e98086b570510e275"}],"active":true,"name":[{"use":"usual","family":"IPPFail","given":["EncDx=IschemicStroke"]}],"gender":"male","birthDate":"1995-08-20"},"request":{"method":"PUT","url":"Patient/871d38c3-6822-4136-8fe0-2ed0f226888f"}},{"fullUrl":"https://madie.cms.gov/Encounter/8a8c54a9-819f-4cfc-8cf8-c895de65f206","resource":{"resourceType":"Encounter","id":"8a8c54a9-819f-4cfc-8cf8-c895de65f206","meta":{"profile":["http://hl7.org/fhir/us/qicore/StructureDefinition/qicore-encounter"]},"status":"finished","class":{"system":"http://terminology.hl7.org/CodeSystem/v3-ActCode","code":"IMP","display":"inpatient encounter"},"type":[{"coding":[{"system":"http://snomed.info/sct","code":"32485007"}]}],"subject":{"reference":"Patient/871d38c3-6822-4136-8fe0-2ed0f226888f"},"period":{"start":"2026-08-21T00:00:00+00:00","end":"2026-12-18T23:59:00+00:00"},"length":{"value":119.0,"unit":"days"},"diagnosis":[{"condition":{"reference":"Condition/74134235-8e7f-43da-9420-2cbebf9d093d"},"use":{"coding":[{"system":"http://snomed.info/sct","code":"111297002","display":"Ischemic Stroke"}]}}]},"request":{"method":"PUT","url":"Encounter/8a8c54a9-819f-4cfc-8cf8-c895de65f206"}},{"fullUrl":"https://madie.cms.gov/Coverage/e8e772e2-d216-46f5-8342-a6a3000f5eaf","resource":{"resourceType":"Coverage","id":"e8e772e2-d216-46f5-8342-a6a3000f5eaf","status":"active","beneficiary":{"reference":"Patient/871d38c3-6822-4136-8fe0-2ed0f226888f"},"period":{"start":"1995-08-20T07:00:00+00:00"},"payor":[{"reference":"Organization/880a275e-1cf2-4fb9-869b-f1d2173fdc2b"}]},"request":{"method":"PUT","url":"Coverage/e8e772e2-d216-46f5-8342-a6a3000f5eaf"}},{"fullUrl":"https://madie.cms.gov/Condition/74134235-8e7f-43da-9420-2cbebf9d093d","resource":{"resourceType":"Condition","id":"74134235-8e7f-43da-9420-2cbebf9d093d","meta":{"profile":["http://hl7.org/fhir/us/qicore/StructureDefinition/qicore-condition"]},"clinicalStatus":{"coding":[{"system":"http://terminology.hl7.org/CodeSystem/condition-clinical","code":"active"}]},"verificationStatus":{"coding":[{"system":"http://terminology.hl7.org/CodeSystem/condition-ver-status","code":"confirmed"}]},"category":[{"coding":[{"system":"http://terminology.hl7.org/CodeSystem/condition-category","code":"encounter-diagnosis","display":"Encounter Diagnosis"}]}],"code":{"coding":[{"system":"http://snomed.info/sct","version":"2020-09","code":"111297002","display":"Nonparalytic stroke (disorder)","userSelected":true}]},"subject":{"reference":"Patient/871d38c3-6822-4136-8fe0-2ed0f226888f"},"recordedDate":"2026-08-16T08:00:00.000+00:00"},"request":{"method":"PUT","url":"Condition/74134235-8e7f-43da-9420-2cbebf9d093d"}},{"fullUrl":"https://madie.cms.gov/Organization/a1b83a27-21e6-49dc-b432-2e9df625d790","resource":{"resourceType":"Organization","id":"880a275e-1cf2-4fb9-869b-f1d2173fdc2b","meta":{"profile":["http://hl7.org/fhir/us/qicore/StructureDefinition/qicore-organization"]},"identifier":[{"use":"temp","system":"urn:oid:2.16.840.1.113883.4.4","value":"21-3259825"}],"active":true,"type":[{"coding":[{"system":"http://terminology.hl7.org/CodeSystem/organization-type","code":"pay","display":"Payer"}]}],"name":"Blue Cross Blue Shield of Texas","telecom":[{"system":"phone","value":"(+1) 972-766-6900"}],"address":[{"use":"billing","type":"postal","line":["P.O. Box 660044"],"city":"Dallas","state":"TX","postalCode":"75266-0044","country":"USA"}]},"request":{"method":"PUT","url":"Organization/880a275e-1cf2-4fb9-869b-f1d2173fdc2b"}},{"fullUrl":"https://madie.cms.gov/Practitioner/abf03695-401f-48e5-8e7e-67dbac83bd84","resource":{"resourceType":"Practitioner","id":"abf03695-401f-48e5-8e7e-67dbac83bd84","identifier":[{"system":"http://hl7.org/fhir/sid/us-npi","value":"123456"}],"name":[{"family":"Evil","prefix":["Dr"]}]},"request":{"method":"PUT","url":"Practitioner/abf03695-401f-48e5-8e7e-67dbac83bd84"}},{"fullUrl":"https://madie.cms.gov/MeasureReport/667b6a02-e905-41a8-b080-94ee8a30cdd4","resource":{"resourceType":"MeasureReport","id":"667b6a02-e905-41a8-b080-94ee8a30cdd4","meta":{"profile":["http://hl7.org/fhir/us/cqfmeasures/StructureDefinition/test-case-cqfm"]},"contained":[{"resourceType":"Parameters","id":"4f053028-42a4-4428-8918-40ca36542132-parameters","parameter":[{"name":"subject","valueString":"871d38c3-6822-4136-8fe0-2ed0f226888f"}]}],"extension":[{"url":"http://hl7.org/fhir/us/cqfmeasures/StructureDefinition/cqfm-inputParameters","valueReference":{"reference":"#4f053028-42a4-4428-8918-40ca36542132-parameters"}},{"url":"http://hl7.org/fhir/us/cqfmeasures/StructureDefinition/cqfm-testCaseDescription","valueMarkdown":"EncDx=IschemicStroke    LOS<120\n"}],"modifierExtension":[{"url":"http://hl7.org/fhir/us/cqfmeasures/StructureDefinition/cqfm-isTestCase","valueBoolean":true}],"status":"complete","type":"individual","measure":"https://madie.cms.gov/Measure/CMS72FHIRSTKAntithromboticDay2","period":{"start":"2026-01-01","end":"2026-12-31"},"group":[{"population":[{"code":{"coding":[{"system":"http://terminology.hl7.org/CodeSystem/measure-population","code":"initial-population","display":"Initial Population"}]},"count":0},{"code":{"coding":[{"system":"http://terminology.hl7.org/CodeSystem/measure-population","code":"denominator","display":"Denominator"}]},"count":0},{"code":{"coding":[{"system":"http://terminology.hl7.org/CodeSystem/measure-population","code":"denominator-exclusion","display":"Denominator Exclusion"}]},"count":0},{"code":{"coding":[{"system":"http://terminology.hl7.org/CodeSystem/measure-population","code":"numerator","display":"Numerator"}]},"count":0},{"code":{"coding":[{"system":"http://terminology.hl7.org/CodeSystem/measure-population","code":"denominator-exception","display":"Denominator Exception"}]},"count":0}]}]},"request":{"method":"PUT","url":"MeasureReport/667b6a02-e905-41a8-b080-94ee8a30cdd4"}}]}