{"resourceType":"Bundle","id":"tests-624c0305-d8a4-41eb-bbc9-30aea2c53304-bundle","type":"transaction","entry":[{"fullUrl":"https://madie.cms.gov/Patient/624c0305-d8a4-41eb-bbc9-30aea2c53304","resource":{"resourceType":"Patient","id":"624c0305-d8a4-41eb-bbc9-30aea2c53304","meta":{"profile":["http://hl7.org/fhir/us/qicore/StructureDefinition/qicore-patient"]},"text":{"status":"generated","div":"<div xmlns=\"http://www.w3.org/1999/xhtml\"><div class=\"hapiHeaderText\">Med1TPAStart_EQEncIPEnd <b>DENEXPASS </b></div><table class=\"hapiPropertyTable\"><tbody><tr><td>Identifier</td><td>b7c8fe1527ff5967acb0869e0406ab63</td></tr><tr><td>Date of birth</td><td><span>26 September 1975</span></td></tr></tbody></table></div>"},"extension":[{"url":"http://hl7.org/fhir/us/core/StructureDefinition/us-core-race","extension":[{"url":"ombCategory","valueCoding":{"system":"urn:oid:2.16.840.1.113883.6.238","code":"2054-5","display":"Black or African American","userSelected":true}},{"url":"text","valueString":"Black or African American"}]},{"url":"http://hl7.org/fhir/us/core/StructureDefinition/us-core-ethnicity","extension":[{"url":"ombCategory","valueCoding":{"system":"urn:oid:2.16.840.1.113883.6.238","code":"2186-5","display":"Not Hispanic or Latino","userSelected":true}},{"url":"text","valueString":"Not Hispanic or Latino"}]}],"identifier":[{"type":{"coding":[{"system":"http://terminology.hl7.org/CodeSystem/v2-0203","code":"MR"}]},"system":"https://bonnie-fhir.healthit.gov/","value":"60f82c2e98086b570510e285"}],"active":true,"name":[{"use":"usual","family":"DENEXPass","given":["Med1TPAStart_EQEncIPEnd"]}],"gender":"female","birthDate":"1976-09-26"},"request":{"method":"PUT","url":"Patient/624c0305-d8a4-41eb-bbc9-30aea2c53304"}},{"fullUrl":"https://madie.cms.gov/Encounter/12fd3807-1818-4167-b475-de8b36eadcd8","resource":{"resourceType":"Encounter","id":"12fd3807-1818-4167-b475-de8b36eadcd8","meta":{"profile":["http://hl7.org/fhir/us/qicore/StructureDefinition/qicore-encounter"]},"status":"finished","class":{"system":"http://terminology.hl7.org/CodeSystem/v3-ActCode","code":"EMER","display":"emergency"},"type":[{"coding":[{"system":"http://snomed.info/sct","code":"4525004"}]}],"subject":{"reference":"Patient/624c0305-d8a4-41eb-bbc9-30aea2c53304"},"period":{"start":"2026-10-10T06:00:00+00:00","end":"2026-10-10T08:30:00+00:00"},"length":{"value":0,"unit":"days"}},"request":{"method":"PUT","url":"Encounter/12fd3807-1818-4167-b475-de8b36eadcd8"}},{"fullUrl":"https://madie.cms.gov/Encounter/0913ceef-8819-4960-bf87-4d4f38cbde70","resource":{"resourceType":"Encounter","id":"0913ceef-8819-4960-bf87-4d4f38cbde70","meta":{"profile":["http://hl7.org/fhir/us/qicore/StructureDefinition/qicore-encounter"]},"status":"finished","class":{"system":"http://terminology.hl7.org/CodeSystem/v3-ActCode","code":"IMP","display":"inpatient encounter"},"type":[{"coding":[{"system":"http://snomed.info/sct","code":"32485007"}]}],"subject":{"reference":"Patient/624c0305-d8a4-41eb-bbc9-30aea2c53304"},"period":{"start":"2026-10-10T09:00:00+00:00","end":"2026-10-12T09:00:00+00:00"},"length":{"value":2,"unit":"days"},"diagnosis":[{"condition":{"reference":"Condition/0a5eeda3-dae6-4394-9d03-1915f04f78da"},"use":{"coding":[{"system":"http://terminology.hl7.org/CodeSystem/diagnosis-role","code":"billing","display":"Billing"}]},"rank":1}]},"request":{"method":"PUT","url":"Encounter/0913ceef-8819-4960-bf87-4d4f38cbde70"}},{"fullUrl":"https://madie.cms.gov/MedicationAdministration/9ecddba6-b02e-42dc-911e-223207bfff47","resource":{"resourceType":"MedicationAdministration","id":"9ecddba6-b02e-42dc-911e-223207bfff47","meta":{"profile":["http://hl7.org/fhir/us/qicore/StructureDefinition/qicore-medicationadministration"]},"extension":[{"url":"http://hl7.org/fhir/us/qicore/StructureDefinition/qicore-recorded","valueDateTime":"2026-10-11T09:00:00+00:00"}],"status":"completed","medicationCodeableConcept":{"coding":[{"system":"http://www.nlm.nih.gov/research/umls/rxnorm","code":"1804799"}]},"subject":{"reference":"Patient/624c0305-d8a4-41eb-bbc9-30aea2c53304"},"effectivePeriod":{"start":"2026-10-11T09:00:00+00:00","end":"2026-10-12T09:00:00+00:00"}},"request":{"method":"PUT","url":"MedicationAdministration/9ecddba6-b02e-42dc-911e-223207bfff47"}},{"fullUrl":"https://madie.cms.gov/Coverage/86cb871f-dc00-4bef-beb8-807f40530186","resource":{"resourceType":"Coverage","id":"86cb871f-dc00-4bef-beb8-807f40530186","status":"active","beneficiary":{"reference":"Patient/624c0305-d8a4-41eb-bbc9-30aea2c53304"},"period":{"start":"1976-09-26T08:00:00+00:00"},"payor":[{"reference":"Organization/f4907415-83c5-4eae-ab0b-cb63a840880d"}]},"request":{"method":"PUT","url":"Coverage/86cb871f-dc00-4bef-beb8-807f40530186"}},{"fullUrl":"https://madie.cms.gov/Condition/0a5eeda3-dae6-4394-9d03-1915f04f78da","resource":{"resourceType":"Condition","id":"0a5eeda3-dae6-4394-9d03-1915f04f78da","meta":{"profile":["http://hl7.org/fhir/us/qicore/StructureDefinition/qicore-condition"]},"clinicalStatus":{"coding":[{"system":"http://terminology.hl7.org/CodeSystem/condition-clinical","code":"active"}]},"verificationStatus":{"coding":[{"system":"http://terminology.hl7.org/CodeSystem/condition-ver-status","code":"confirmed"}]},"category":[{"coding":[{"system":"http://terminology.hl7.org/CodeSystem/condition-category","code":"encounter-diagnosis","display":"Encounter Diagnosis"}]}],"code":{"coding":[{"system":"http://snomed.info/sct","version":"2020-09","code":"111297002","display":"Nonparalytic stroke (disorder)","userSelected":true}]},"subject":{"reference":"Patient/624c0305-d8a4-41eb-bbc9-30aea2c53304"},"recordedDate":"2026-08-13T08:00:00.000+00:00"},"request":{"method":"PUT","url":"Condition/0a5eeda3-dae6-4394-9d03-1915f04f78da"}},{"fullUrl":"https://madie.cms.gov/Organization/4fa58a98-2932-44ff-bc14-fff0e868ae03","resource":{"resourceType":"Organization","id":"f4907415-83c5-4eae-ab0b-cb63a840880d","meta":{"profile":["http://hl7.org/fhir/us/qicore/StructureDefinition/qicore-organization"]},"identifier":[{"use":"temp","system":"urn:oid:2.16.840.1.113883.4.4","value":"21-3259825"}],"active":true,"type":[{"coding":[{"system":"http://terminology.hl7.org/CodeSystem/organization-type","code":"pay","display":"Payer"}]}],"name":"Blue Cross Blue Shield of Texas","telecom":[{"system":"phone","value":"(+1) 972-766-6900"}],"address":[{"use":"billing","type":"postal","line":["P.O. Box 660044"],"city":"Dallas","state":"TX","postalCode":"75266-0044","country":"USA"}]},"request":{"method":"PUT","url":"Organization/f4907415-83c5-4eae-ab0b-cb63a840880d"}},{"fullUrl":"https://madie.cms.gov/MeasureReport/9caf94ef-95b6-4659-927f-e2000b80f861","resource":{"resourceType":"MeasureReport","id":"9caf94ef-95b6-4659-927f-e2000b80f861","meta":{"profile":["http://hl7.org/fhir/us/cqfmeasures/StructureDefinition/test-case-cqfm"]},"contained":[{"resourceType":"Parameters","id":"64bb15d0-f710-4acf-ae9c-4405f34fdfb4-parameters","parameter":[{"name":"subject","valueString":"624c0305-d8a4-41eb-bbc9-30aea2c53304"}]}],"extension":[{"url":"http://hl7.org/fhir/us/cqfmeasures/StructureDefinition/cqfm-inputParameters","valueReference":{"reference":"#64bb15d0-f710-4acf-ae9c-4405f34fdfb4-parameters"}},{"url":"http://hl7.org/fhir/us/cqfmeasures/StructureDefinition/cqfm-testCaseDescription","valueMarkdown":"Patient has ED visit <=1hour before IP encounter AND receives TPA=EncIP End tm,  global.\"Hospitalization\" =(Ed+IP)\n"}],"modifierExtension":[{"url":"http://hl7.org/fhir/us/cqfmeasures/StructureDefinition/cqfm-isTestCase","valueBoolean":true}],"status":"complete","type":"individual","measure":"https://madie.cms.gov/Measure/CMS72FHIRSTKAntithromboticDay2","period":{"start":"2026-01-01","end":"2026-12-31"},"group":[{"population":[{"code":{"coding":[{"system":"http://terminology.hl7.org/CodeSystem/measure-population","code":"initial-population","display":"Initial Population"}]},"count":1},{"code":{"coding":[{"system":"http://terminology.hl7.org/CodeSystem/measure-population","code":"denominator","display":"Denominator"}]},"count":1},{"code":{"coding":[{"system":"http://terminology.hl7.org/CodeSystem/measure-population","code":"denominator-exclusion","display":"Denominator Exclusion"}]},"count":1},{"code":{"coding":[{"system":"http://terminology.hl7.org/CodeSystem/measure-population","code":"numerator","display":"Numerator"}]},"count":0},{"code":{"coding":[{"system":"http://terminology.hl7.org/CodeSystem/measure-population","code":"denominator-exception","display":"Denominator Exception"}]},"count":0}]}]},"request":{"method":"PUT","url":"MeasureReport/9caf94ef-95b6-4659-927f-e2000b80f861"}}]}