{"resourceType":"Bundle","id":"tests-febd4b3e-99bc-4c55-bba9-3b2136c2160b-bundle","type":"transaction","entry":[{"fullUrl":"https://madie.cms.gov/Patient/febd4b3e-99bc-4c55-bba9-3b2136c2160b","resource":{"resourceType":"Patient","id":"febd4b3e-99bc-4c55-bba9-3b2136c2160b","meta":{"profile":["http://hl7.org/fhir/us/qicore/StructureDefinition/qicore-patient"]},"text":{"status":"generated","div":"<div xmlns=\"http://www.w3.org/1999/xhtml\"><div class=\"hapiHeaderText\">4Enc2WithAntithrombic2WithtPA <b>NUMER&amp;DENEXPASS-LCG </b></div><table class=\"hapiPropertyTable\"><tbody><tr><td>Identifier</td><td>020dc4464ac8810d734b6702e424d7c5d535f8554cec1d7976a2fc68ac0b3268</td></tr><tr><td>Date of birth</td><td><span>26 September 1975</span></td></tr></tbody></table></div>"},"extension":[{"url":"http://hl7.org/fhir/us/core/StructureDefinition/us-core-race","extension":[{"url":"ombCategory","valueCoding":{"system":"urn:oid:2.16.840.1.113883.6.238","code":"2054-5","display":"Black or African American","userSelected":true}},{"url":"text","valueString":"Black or African American"}]},{"url":"http://hl7.org/fhir/us/core/StructureDefinition/us-core-ethnicity","extension":[{"url":"ombCategory","valueCoding":{"system":"urn:oid:2.16.840.1.113883.6.238","code":"2186-5","display":"Not Hispanic or Latino","userSelected":true}},{"url":"text","valueString":"Not Hispanic or Latino"}]}],"identifier":[{"type":{"coding":[{"system":"http://terminology.hl7.org/CodeSystem/v2-0203","code":"MR"}]},"system":"https://bonnie-fhir.healthit.gov/","value":"60f82c2f98086b570510e2cc"}],"active":true,"name":[{"use":"usual","family":"NUMER&DENEXPass-LCG","given":["4Enc2WithAntithrombic2WithtPA"]}],"gender":"female","birthDate":"1976-09-26"},"request":{"method":"PUT","url":"Patient/febd4b3e-99bc-4c55-bba9-3b2136c2160b"}},{"fullUrl":"https://madie.cms.gov/Encounter/505f8780-3895-484f-9072-af0b01200399","resource":{"resourceType":"Encounter","id":"505f8780-3895-484f-9072-af0b01200399","meta":{"profile":["http://hl7.org/fhir/us/qicore/StructureDefinition/qicore-encounter"]},"status":"finished","class":{"system":"http://terminology.hl7.org/CodeSystem/v3-ActCode","code":"IMP","display":"inpatient encounter"},"type":[{"coding":[{"system":"http://snomed.info/sct","code":"183452005"}]}],"subject":{"reference":"Patient/febd4b3e-99bc-4c55-bba9-3b2136c2160b"},"period":{"start":"2026-09-09T09:00:00+00:00","end":"2026-09-12T11:15:00+00:00"},"length":{"value":0,"unit":"days"},"diagnosis":[{"condition":{"reference":"Condition/3ad390ab-7273-43cc-acfc-3f14003c841c"},"use":{"coding":[{"system":"http://terminology.hl7.org/CodeSystem/diagnosis-role","code":"billing","display":"Billing"}]},"rank":1}]},"request":{"method":"PUT","url":"Encounter/505f8780-3895-484f-9072-af0b01200399"}},{"fullUrl":"https://madie.cms.gov/Encounter/bd68bb61-6dfc-4dbb-a2ae-82b4742b4913","resource":{"resourceType":"Encounter","id":"bd68bb61-6dfc-4dbb-a2ae-82b4742b4913","meta":{"profile":["http://hl7.org/fhir/us/qicore/StructureDefinition/qicore-encounter"]},"status":"finished","class":{"system":"http://terminology.hl7.org/CodeSystem/v3-ActCode","code":"IMP","display":"inpatient encounter"},"type":[{"coding":[{"system":"http://snomed.info/sct","code":"32485007"}]}],"subject":{"reference":"Patient/febd4b3e-99bc-4c55-bba9-3b2136c2160b"},"period":{"start":"2026-10-10T09:00:00+00:00","end":"2026-10-12T11:15:00+00:00"},"length":{"value":2,"unit":"days"},"diagnosis":[{"condition":{"reference":"Condition/fa02cd1b-00d6-4104-8998-d17fbe1e830c"},"use":{"coding":[{"system":"http://terminology.hl7.org/CodeSystem/diagnosis-role","code":"billing","display":"Billing"}]},"rank":1}]},"request":{"method":"PUT","url":"Encounter/bd68bb61-6dfc-4dbb-a2ae-82b4742b4913"}},{"fullUrl":"https://madie.cms.gov/Encounter/0719f81c-69f2-4831-8780-2d674a66a681","resource":{"resourceType":"Encounter","id":"0719f81c-69f2-4831-8780-2d674a66a681","meta":{"profile":["http://hl7.org/fhir/us/qicore/StructureDefinition/qicore-encounter"]},"status":"finished","class":{"system":"http://terminology.hl7.org/CodeSystem/v3-ActCode","code":"IMP","display":"inpatient encounter"},"type":[{"coding":[{"system":"http://snomed.info/sct","code":"183452005"}]}],"subject":{"reference":"Patient/febd4b3e-99bc-4c55-bba9-3b2136c2160b"},"period":{"start":"2026-07-09T09:00:00+00:00","end":"2026-07-17T11:15:00+00:00"},"diagnosis":[{"condition":{"reference":"Condition/d5dcf10d-33d1-4743-b735-fb320ce1ef29"},"use":{"coding":[{"system":"http://terminology.hl7.org/CodeSystem/diagnosis-role","code":"billing","display":"Billing"}]},"rank":1}]},"request":{"method":"PUT","url":"Encounter/0719f81c-69f2-4831-8780-2d674a66a681"}},{"fullUrl":"https://madie.cms.gov/Encounter/10be20a7-380c-47f7-98e0-0d3787c5db71","resource":{"resourceType":"Encounter","id":"10be20a7-380c-47f7-98e0-0d3787c5db71","meta":{"profile":["http://hl7.org/fhir/us/qicore/StructureDefinition/qicore-encounter"]},"status":"finished","class":{"system":"http://terminology.hl7.org/CodeSystem/v3-ActCode","code":"IMP","display":"inpatient encounter"},"type":[{"coding":[{"system":"http://snomed.info/sct","code":"32485007"}]}],"subject":{"reference":"Patient/febd4b3e-99bc-4c55-bba9-3b2136c2160b"},"period":{"start":"2026-11-01T08:00:00+00:00","end":"2026-11-07T08:15:00+00:00"},"length":{"value":7,"unit":"days"},"diagnosis":[{"condition":{"reference":"Condition/7ea79799-5b77-4aab-9b13-3bffbc97d892"},"use":{"coding":[{"system":"http://terminology.hl7.org/CodeSystem/diagnosis-role","code":"billing","display":"Billing"}]},"rank":1}]},"request":{"method":"PUT","url":"Encounter/10be20a7-380c-47f7-98e0-0d3787c5db71"}},{"fullUrl":"https://madie.cms.gov/Observation/3a4cec38-e4fb-46fa-984d-d4f11773cc69","resource":{"resourceType":"Observation","id":"3a4cec38-e4fb-46fa-984d-d4f11773cc69","meta":{"profile":["http://hl7.org/fhir/us/qicore/StructureDefinition/qicore-observation"]},"status":"final","category":[{"coding":[{"system":"http://terminology.hl7.org/CodeSystem/observation-category","code":"laboratory","display":"Laboratory"}]}],"code":{"coding":[{"system":"http://loinc.org","code":"34714-6"}]},"subject":{"reference":"Patient/febd4b3e-99bc-4c55-bba9-3b2136c2160b"},"effectivePeriod":{"start":"2026-11-01T08:00:00+00:00","end":"2026-11-07T08:15:00+00:00"},"issued":"2026-11-01T08:00:00.000+00:00","valueInteger":2},"request":{"method":"PUT","url":"Observation/3a4cec38-e4fb-46fa-984d-d4f11773cc69"}},{"fullUrl":"https://madie.cms.gov/MedicationAdministration/66144f7c-d940-446b-8eac-57902f409f0c","resource":{"resourceType":"MedicationAdministration","id":"66144f7c-d940-446b-8eac-57902f409f0c","meta":{"profile":["http://hl7.org/fhir/us/qicore/StructureDefinition/qicore-medicationadministration"]},"extension":[{"url":"http://hl7.org/fhir/us/qicore/StructureDefinition/qicore-recorded","valueDateTime":"2026-10-10T09:00:00+00:00"}],"status":"completed","medicationCodeableConcept":{"coding":[{"system":"http://www.nlm.nih.gov/research/umls/rxnorm","code":"1037045"}]},"subject":{"reference":"Patient/febd4b3e-99bc-4c55-bba9-3b2136c2160b"},"effectivePeriod":{"start":"2026-10-10T09:00:00+00:00","end":"2026-10-12T11:15:00+00:00"}},"request":{"method":"PUT","url":"MedicationAdministration/66144f7c-d940-446b-8eac-57902f409f0c"}},{"fullUrl":"https://madie.cms.gov/MedicationAdministration/a4ac5fd3-3c91-46f3-89dc-0cfa14d7654f","resource":{"resourceType":"MedicationAdministration","id":"a4ac5fd3-3c91-46f3-89dc-0cfa14d7654f","meta":{"profile":["http://hl7.org/fhir/us/qicore/StructureDefinition/qicore-medicationadministration"]},"status":"completed","medicationCodeableConcept":{"coding":[{"system":"http://www.nlm.nih.gov/research/umls/rxnorm","code":"1804799"}]},"subject":{"reference":"Patient/febd4b3e-99bc-4c55-bba9-3b2136c2160b"},"effectivePeriod":{"start":"2026-09-09T11:00:00+00:00"}},"request":{"method":"PUT","url":"MedicationAdministration/a4ac5fd3-3c91-46f3-89dc-0cfa14d7654f"}},{"fullUrl":"https://madie.cms.gov/MedicationAdministration/3247f19c-77b9-4908-86ac-ed44df6bc67b","resource":{"resourceType":"MedicationAdministration","id":"3247f19c-77b9-4908-86ac-ed44df6bc67b","meta":{"profile":["http://hl7.org/fhir/us/qicore/StructureDefinition/qicore-medicationadministration"]},"extension":[{"url":"http://hl7.org/fhir/us/qicore/StructureDefinition/qicore-recorded","valueDateTime":"2026-11-01T08:30:00+00:00"}],"status":"completed","medicationCodeableConcept":{"coding":[{"system":"http://www.nlm.nih.gov/research/umls/rxnorm","code":"1037045"},{"system":"http://www.nlm.nih.gov/research/umls/rxnorm","code":"1992427"}]},"subject":{"reference":"Patient/febd4b3e-99bc-4c55-bba9-3b2136c2160b"},"effectivePeriod":{"start":"2026-11-01T08:15:00+00:00","end":"2026-11-07T08:15:00+00:00"}},"request":{"method":"PUT","url":"MedicationAdministration/3247f19c-77b9-4908-86ac-ed44df6bc67b"}},{"fullUrl":"https://madie.cms.gov/Coverage/56d82f24-e72c-454d-a94d-225e1a57069d","resource":{"resourceType":"Coverage","id":"56d82f24-e72c-454d-a94d-225e1a57069d","status":"active","beneficiary":{"reference":"Patient/febd4b3e-99bc-4c55-bba9-3b2136c2160b"},"period":{"start":"1976-09-26T08:00:00+00:00"},"payor":[{"reference":"Organization/f7da4368-fb6d-4d73-a75b-f78024cbb18d"}]},"request":{"method":"PUT","url":"Coverage/56d82f24-e72c-454d-a94d-225e1a57069d"}},{"fullUrl":"https://madie.cms.gov/Procedure/52df71ed-4b28-4f64-87ae-eb90354b1292","resource":{"resourceType":"Procedure","id":"52df71ed-4b28-4f64-87ae-eb90354b1292","meta":{"profile":["http://hl7.org/fhir/us/qicore/StructureDefinition/qicore-procedure"]},"extension":[{"url":"http://hl7.org/fhir/us/qicore/StructureDefinition/qicore-recorded","valueDateTime":"2026-11-19T09:35:00-04:00"}],"status":"completed","code":{"coding":[{"system":"http://snomed.info/sct","code":"307521008"}]},"subject":{"reference":"Patient/febd4b3e-99bc-4c55-bba9-3b2136c2160b"},"performedPeriod":{"start":"2026-07-10T09:00:00+00:00"}},"request":{"method":"PUT","url":"Procedure/52df71ed-4b28-4f64-87ae-eb90354b1292"}},{"fullUrl":"https://madie.cms.gov/Condition/3ad390ab-7273-43cc-acfc-3f14003c841c","resource":{"resourceType":"Condition","id":"3ad390ab-7273-43cc-acfc-3f14003c841c","meta":{"profile":["http://hl7.org/fhir/us/qicore/StructureDefinition/qicore-condition"]},"clinicalStatus":{"coding":[{"system":"http://terminology.hl7.org/CodeSystem/condition-clinical","code":"active"}]},"verificationStatus":{"coding":[{"system":"http://terminology.hl7.org/CodeSystem/condition-ver-status","code":"confirmed"}]},"category":[{"coding":[{"system":"http://terminology.hl7.org/CodeSystem/condition-category","code":"encounter-diagnosis","display":"Encounter Diagnosis"}]}],"code":{"coding":[{"system":"http://snomed.info/sct","version":"2020-09","code":"111297002","display":"Nonparalytic stroke (disorder)","userSelected":true}]},"subject":{"reference":"Patient/febd4b3e-99bc-4c55-bba9-3b2136c2160b"},"recordedDate":"2026-08-16T08:00:00.000+00:00"},"request":{"method":"PUT","url":"Condition/3ad390ab-7273-43cc-acfc-3f14003c841c"}},{"fullUrl":"https://madie.cms.gov/Condition/fa02cd1b-00d6-4104-8998-d17fbe1e830c","resource":{"resourceType":"Condition","id":"fa02cd1b-00d6-4104-8998-d17fbe1e830c","meta":{"profile":["http://hl7.org/fhir/us/qicore/StructureDefinition/qicore-condition"]},"clinicalStatus":{"coding":[{"system":"http://terminology.hl7.org/CodeSystem/condition-clinical","code":"active"}]},"verificationStatus":{"coding":[{"system":"http://terminology.hl7.org/CodeSystem/condition-ver-status","code":"confirmed"}]},"category":[{"coding":[{"system":"http://terminology.hl7.org/CodeSystem/condition-category","code":"encounter-diagnosis","display":"Encounter Diagnosis"}]}],"code":{"coding":[{"system":"http://snomed.info/sct","version":"2020-09","code":"111297002","display":"Nonparalytic stroke (disorder)","userSelected":true}]},"subject":{"reference":"Patient/febd4b3e-99bc-4c55-bba9-3b2136c2160b"},"recordedDate":"2026-08-16T08:00:00.000+00:00"},"request":{"method":"PUT","url":"Condition/fa02cd1b-00d6-4104-8998-d17fbe1e830c"}},{"fullUrl":"https://madie.cms.gov/Condition/d5dcf10d-33d1-4743-b735-fb320ce1ef29","resource":{"resourceType":"Condition","id":"d5dcf10d-33d1-4743-b735-fb320ce1ef29","meta":{"profile":["http://hl7.org/fhir/us/qicore/StructureDefinition/qicore-condition"]},"clinicalStatus":{"coding":[{"system":"http://terminology.hl7.org/CodeSystem/condition-clinical","code":"active"}]},"verificationStatus":{"coding":[{"system":"http://terminology.hl7.org/CodeSystem/condition-ver-status","code":"confirmed"}]},"category":[{"coding":[{"system":"http://terminology.hl7.org/CodeSystem/condition-category","code":"encounter-diagnosis","display":"Encounter Diagnosis"}]}],"code":{"coding":[{"system":"http://snomed.info/sct","version":"2020-09","code":"111297002","display":"Nonparalytic stroke (disorder)","userSelected":true}]},"subject":{"reference":"Patient/febd4b3e-99bc-4c55-bba9-3b2136c2160b"},"recordedDate":"2026-08-16T08:00:00.000+00:00"},"request":{"method":"PUT","url":"Condition/d5dcf10d-33d1-4743-b735-fb320ce1ef29"}},{"fullUrl":"https://madie.cms.gov/Condition/7ea79799-5b77-4aab-9b13-3bffbc97d892","resource":{"resourceType":"Condition","id":"7ea79799-5b77-4aab-9b13-3bffbc97d892","meta":{"profile":["http://hl7.org/fhir/us/qicore/StructureDefinition/qicore-condition"]},"clinicalStatus":{"coding":[{"system":"http://terminology.hl7.org/CodeSystem/condition-clinical","code":"active"}]},"verificationStatus":{"coding":[{"system":"http://terminology.hl7.org/CodeSystem/condition-ver-status","code":"confirmed"}]},"category":[{"coding":[{"system":"http://terminology.hl7.org/CodeSystem/condition-category","code":"encounter-diagnosis","display":"Encounter Diagnosis"}]}],"code":{"coding":[{"system":"http://snomed.info/sct","version":"2020-09","code":"422504002","display":"Ischemic stroke (disorder)","userSelected":true}]},"subject":{"reference":"Patient/febd4b3e-99bc-4c55-bba9-3b2136c2160b"},"recordedDate":"2026-08-16T08:00:00.000+00:00"},"request":{"method":"PUT","url":"Condition/7ea79799-5b77-4aab-9b13-3bffbc97d892"}},{"fullUrl":"https://madie.cms.gov/Organization/14e76b90-f985-4567-946e-19ea2de898f6","resource":{"resourceType":"Organization","id":"f7da4368-fb6d-4d73-a75b-f78024cbb18d","meta":{"profile":["http://hl7.org/fhir/us/qicore/StructureDefinition/qicore-organization"]},"identifier":[{"use":"temp","system":"urn:oid:2.16.840.1.113883.4.4","value":"21-3259825"}],"active":true,"type":[{"coding":[{"system":"http://terminology.hl7.org/CodeSystem/organization-type","code":"pay","display":"Payer"}]}],"name":"Blue Cross Blue Shield of Texas","telecom":[{"system":"phone","value":"(+1) 972-766-6900"}],"address":[{"use":"billing","type":"postal","line":["P.O. Box 660044"],"city":"Dallas","state":"TX","postalCode":"75266-0044","country":"USA"}]},"request":{"method":"PUT","url":"Organization/f7da4368-fb6d-4d73-a75b-f78024cbb18d"}},{"fullUrl":"https://madie.cms.gov/Practitioner/a6eda36c-2b1a-4486-b13a-02a8ddfb33f5","resource":{"resourceType":"Practitioner","id":"a6eda36c-2b1a-4486-b13a-02a8ddfb33f5","identifier":[{"system":"http://hl7.org/fhir/sid/us-npi","value":"123456"}],"name":[{"family":"Evil","prefix":["Dr"]}]},"request":{"method":"PUT","url":"Practitioner/a6eda36c-2b1a-4486-b13a-02a8ddfb33f5"}},{"fullUrl":"https://madie.cms.gov/MeasureReport/0eec3369-d81e-42c7-ab23-53827a69e6af","resource":{"resourceType":"MeasureReport","id":"0eec3369-d81e-42c7-ab23-53827a69e6af","meta":{"profile":["http://hl7.org/fhir/us/cqfmeasures/StructureDefinition/test-case-cqfm"]},"contained":[{"resourceType":"Parameters","id":"06bfbd56-ec55-4576-b788-db94556f1746-parameters","parameter":[{"name":"subject","valueString":"febd4b3e-99bc-4c55-bba9-3b2136c2160b"}]}],"extension":[{"url":"http://hl7.org/fhir/us/cqfmeasures/StructureDefinition/cqfm-inputParameters","valueReference":{"reference":"#06bfbd56-ec55-4576-b788-db94556f1746-parameters"}},{"url":"http://hl7.org/fhir/us/cqfmeasures/StructureDefinition/cqfm-testCaseDescription","valueMarkdown":"Patient receives tPA in first encounter and antithrombotics in last 2 encounters. Testing to ensure medications without end dates do not interfere with encounters that follow. Executes as expected. \n"}],"modifierExtension":[{"url":"http://hl7.org/fhir/us/cqfmeasures/StructureDefinition/cqfm-isTestCase","valueBoolean":true}],"status":"complete","type":"individual","measure":"https://madie.cms.gov/Measure/CMS72FHIRSTKAntithromboticDay2","period":{"start":"2026-01-01","end":"2026-12-31"},"group":[{"population":[{"code":{"coding":[{"system":"http://terminology.hl7.org/CodeSystem/measure-population","code":"initial-population","display":"Initial Population"}]},"count":4},{"code":{"coding":[{"system":"http://terminology.hl7.org/CodeSystem/measure-population","code":"denominator","display":"Denominator"}]},"count":4},{"code":{"coding":[{"system":"http://terminology.hl7.org/CodeSystem/measure-population","code":"denominator-exclusion","display":"Denominator Exclusion"}]},"count":2},{"code":{"coding":[{"system":"http://terminology.hl7.org/CodeSystem/measure-population","code":"numerator","display":"Numerator"}]},"count":2},{"code":{"coding":[{"system":"http://terminology.hl7.org/CodeSystem/measure-population","code":"denominator-exception","display":"Denominator Exception"}]},"count":0}]}]},"request":{"method":"PUT","url":"MeasureReport/0eec3369-d81e-42c7-ab23-53827a69e6af"}}]}