{"resourceType":"Bundle","id":"tests-5450abfd-a667-4eb9-9b59-e85feed4865c-bundle","type":"transaction","entry":[{"fullUrl":"https://madie.cms.gov/Patient/5450abfd-a667-4eb9-9b59-e85feed4865c","resource":{"resourceType":"Patient","id":"5450abfd-a667-4eb9-9b59-e85feed4865c","meta":{"profile":["http://hl7.org/fhir/us/qicore/StructureDefinition/qicore-patient"]},"text":{"status":"generated","div":"<div xmlns=\"http://www.w3.org/1999/xhtml\"><div class=\"hapiHeaderText\">ProcTPA&lt;24hrB4_ED_Test_Interval <b>DENEXPASS </b></div><table class=\"hapiPropertyTable\"><tbody><tr><td>Date of birth</td><td><span>05 April 1979</span></td></tr></tbody></table></div>"},"extension":[{"url":"http://hl7.org/fhir/us/core/StructureDefinition/us-core-race","extension":[{"url":"ombCategory","valueCoding":{"system":"urn:oid:2.16.840.1.113883.6.238","code":"2106-3","display":"White","userSelected":true}},{"url":"text","valueString":"White"}]},{"url":"http://hl7.org/fhir/us/core/StructureDefinition/us-core-ethnicity","extension":[{"url":"ombCategory","valueCoding":{"system":"urn:oid:2.16.840.1.113883.6.238","code":"2186-5","display":"Not Hispanic or Latino","userSelected":true}},{"url":"text","valueString":"Not Hispanic or Latino"}]}],"identifier":[{"type":{"coding":[{"system":"http://terminology.hl7.org/CodeSystem/v2-0203","code":"MR"}]},"system":"https://bonnie-fhir.healthit.gov/","value":"60f82c3098086b570510e2cf"}],"active":true,"name":[{"use":"usual","family":"DENEXPass","given":["ProcTPA<24hrB4_ED_Test_Interval"]}],"gender":"male","birthDate":"1980-04-05"},"request":{"method":"PUT","url":"Patient/5450abfd-a667-4eb9-9b59-e85feed4865c"}},{"fullUrl":"https://madie.cms.gov/Encounter/a837565b-2278-4880-89c7-1ff8855fd5a9","resource":{"resourceType":"Encounter","id":"a837565b-2278-4880-89c7-1ff8855fd5a9","meta":{"profile":["http://hl7.org/fhir/us/qicore/StructureDefinition/qicore-encounter"]},"status":"finished","class":{"system":"http://terminology.hl7.org/CodeSystem/v3-ActCode","code":"IMP","display":"inpatient encounter"},"type":[{"coding":[{"system":"http://snomed.info/sct","code":"183452005"}]}],"subject":{"reference":"Patient/5450abfd-a667-4eb9-9b59-e85feed4865c"},"period":{"start":"2026-03-23T08:00:00+00:00","end":"2026-03-30T07:15:00+00:00"},"diagnosis":[{"condition":{"reference":"Condition/1c4b84f6-4e65-4aa2-9ae7-71c0478fc5f0"},"use":{"coding":[{"system":"http://terminology.hl7.org/CodeSystem/diagnosis-role","code":"billing","display":"Billing"}]},"rank":1}]},"request":{"method":"PUT","url":"Encounter/a837565b-2278-4880-89c7-1ff8855fd5a9"}},{"fullUrl":"https://madie.cms.gov/Encounter/7e8e1c5d-9cf0-47cd-ab2d-8d05ff627bf0","resource":{"resourceType":"Encounter","id":"7e8e1c5d-9cf0-47cd-ab2d-8d05ff627bf0","meta":{"profile":["http://hl7.org/fhir/us/qicore/StructureDefinition/qicore-encounter"]},"status":"finished","class":{"system":"http://terminology.hl7.org/CodeSystem/v3-ActCode","code":"EMER","display":"emergency"},"type":[{"coding":[{"system":"http://snomed.info/sct","code":"4525004"}]}],"subject":{"reference":"Patient/5450abfd-a667-4eb9-9b59-e85feed4865c"},"period":{"start":"2026-03-22T06:00:00+00:00","end":"2026-03-23T07:15:00+00:00"}},"request":{"method":"PUT","url":"Encounter/7e8e1c5d-9cf0-47cd-ab2d-8d05ff627bf0"}},{"fullUrl":"https://madie.cms.gov/MedicationAdministration/8f43f141-0736-4222-9ed7-ad02c67030a7","resource":{"resourceType":"MedicationAdministration","id":"8f43f141-0736-4222-9ed7-ad02c67030a7","meta":{"profile":["http://hl7.org/fhir/us/qicore/StructureDefinition/qicore-medicationadministration"]},"status":"completed","medicationCodeableConcept":{"coding":[{"system":"http://www.nlm.nih.gov/research/umls/rxnorm","code":"1804799"}]},"subject":{"reference":"Patient/5450abfd-a667-4eb9-9b59-e85feed4865c"},"effectivePeriod":{"start":"2026-03-21T06:00:00+00:00","end":"2026-03-22T06:15:00+00:00"}},"request":{"method":"PUT","url":"MedicationAdministration/8f43f141-0736-4222-9ed7-ad02c67030a7"}},{"fullUrl":"https://madie.cms.gov/MedicationRequest/6539ad5e-87c1-4397-afcb-576b90eb7078","resource":{"resourceType":"MedicationRequest","id":"6539ad5e-87c1-4397-afcb-576b90eb7078","meta":{"profile":["http://hl7.org/fhir/us/qicore/StructureDefinition/qicore-medicationrequest"]},"status":"completed","intent":"order","medicationCodeableConcept":{"coding":[{"system":"http://www.nlm.nih.gov/research/umls/rxnorm","code":"1037045"}]},"subject":{"reference":"Patient/5450abfd-a667-4eb9-9b59-e85feed4865c"},"authoredOn":"2026-03-23T08:00:00+00:00","requester":{"reference":"Practitioner/example"},"dosageInstruction":[{"timing":{"repeat":{"boundsPeriod":{"start":"2026-03-23T08:00:00+00:00","end":"2026-03-24T07:15:00+00:00"}}}}]},"request":{"method":"PUT","url":"MedicationRequest/6539ad5e-87c1-4397-afcb-576b90eb7078"}},{"fullUrl":"https://madie.cms.gov/Condition/1c4b84f6-4e65-4aa2-9ae7-71c0478fc5f0","resource":{"resourceType":"Condition","id":"1c4b84f6-4e65-4aa2-9ae7-71c0478fc5f0","meta":{"profile":["http://hl7.org/fhir/us/qicore/StructureDefinition/qicore-condition"]},"clinicalStatus":{"coding":[{"system":"http://terminology.hl7.org/CodeSystem/condition-clinical","code":"active"}]},"verificationStatus":{"coding":[{"system":"http://terminology.hl7.org/CodeSystem/condition-ver-status","code":"confirmed"}]},"category":[{"coding":[{"system":"http://terminology.hl7.org/CodeSystem/condition-category","code":"encounter-diagnosis","display":"Encounter Diagnosis"}]}],"code":{"coding":[{"system":"http://snomed.info/sct","version":"2020-09","code":"111297002","display":"Nonparalytic stroke (disorder)","userSelected":true}]},"subject":{"reference":"Patient/5450abfd-a667-4eb9-9b59-e85feed4865c"},"recordedDate":"2026-08-13T08:00:00.000+00:00"},"request":{"method":"PUT","url":"Condition/1c4b84f6-4e65-4aa2-9ae7-71c0478fc5f0"}},{"fullUrl":"https://madie.cms.gov/Coverage/4e05f4f4-868a-4d96-a380-520d27831aab","resource":{"resourceType":"Coverage","id":"4e05f4f4-868a-4d96-a380-520d27831aab","meta":{"profile":["http://hl7.org/fhir/us/qicore/StructureDefinition/qicore-coverage"]},"status":"active","beneficiary":{"reference":"Patient/5450abfd-a667-4eb9-9b59-e85feed4865c"},"payor":[{"reference":"Organization/890316dc-a4ad-43b4-ba6f-9fb9e6eca282"}]},"request":{"method":"PUT","url":"Coverage/4e05f4f4-868a-4d96-a380-520d27831aab"}},{"fullUrl":"https://madie.cms.gov/Organization/143d216d-2508-4cd1-ac61-6250e029cfac","resource":{"resourceType":"Organization","id":"890316dc-a4ad-43b4-ba6f-9fb9e6eca282","meta":{"profile":["http://hl7.org/fhir/us/qicore/StructureDefinition/qicore-organization"]},"identifier":[{"use":"temp","system":"urn:oid:2.16.840.1.113883.4.4","value":"21-3259825"}],"active":true,"type":[{"coding":[{"system":"http://terminology.hl7.org/CodeSystem/organization-type","code":"pay","display":"Payer"}]}],"name":"Blue Cross Blue Shield of Texas","telecom":[{"system":"phone","value":"(+1) 972-766-6900"}],"address":[{"use":"billing","type":"postal","line":["P.O. Box 660044"],"city":"Dallas","state":"TX","postalCode":"75266-0044","country":"USA"}]},"request":{"method":"PUT","url":"Organization/890316dc-a4ad-43b4-ba6f-9fb9e6eca282"}},{"fullUrl":"https://madie.cms.gov/MeasureReport/ce37a709-8253-47ea-bc68-b1d1b2ba5c78","resource":{"resourceType":"MeasureReport","id":"ce37a709-8253-47ea-bc68-b1d1b2ba5c78","meta":{"profile":["http://hl7.org/fhir/us/cqfmeasures/StructureDefinition/test-case-cqfm"]},"contained":[{"resourceType":"Parameters","id":"4ab10ade-3c9c-42cd-82e1-29738ec8db58-parameters","parameter":[{"name":"subject","valueString":"5450abfd-a667-4eb9-9b59-e85feed4865c"}]}],"extension":[{"url":"http://hl7.org/fhir/us/cqfmeasures/StructureDefinition/cqfm-inputParameters","valueReference":{"reference":"#4ab10ade-3c9c-42cd-82e1-29738ec8db58-parameters"}},{"url":"http://hl7.org/fhir/us/cqfmeasures/StructureDefinition/cqfm-testCaseDescription","valueMarkdown":"Patient has ED visit <=1hour before IP encounter AND receives IV or IA TPA 59 min before ED visit  (ProcTPA  <    24hr   before ED)\n"}],"modifierExtension":[{"url":"http://hl7.org/fhir/us/cqfmeasures/StructureDefinition/cqfm-isTestCase","valueBoolean":true}],"status":"complete","type":"individual","measure":"https://madie.cms.gov/Measure/CMS72FHIRSTKAntithromboticDay2","period":{"start":"2026-01-01","end":"2026-12-31"},"group":[{"population":[{"code":{"coding":[{"system":"http://terminology.hl7.org/CodeSystem/measure-population","code":"initial-population","display":"Initial Population"}]},"count":1},{"code":{"coding":[{"system":"http://terminology.hl7.org/CodeSystem/measure-population","code":"denominator","display":"Denominator"}]},"count":1},{"code":{"coding":[{"system":"http://terminology.hl7.org/CodeSystem/measure-population","code":"denominator-exclusion","display":"Denominator Exclusion"}]},"count":1},{"code":{"coding":[{"system":"http://terminology.hl7.org/CodeSystem/measure-population","code":"numerator","display":"Numerator"}]},"count":0},{"code":{"coding":[{"system":"http://terminology.hl7.org/CodeSystem/measure-population","code":"denominator-exception","display":"Denominator Exception"}]},"count":0}]}]},"request":{"method":"PUT","url":"MeasureReport/ce37a709-8253-47ea-bc68-b1d1b2ba5c78"}}]}