{"resourceType":"Bundle","id":"tests-6bbc3f38-7f5f-4da9-9beb-eb32874fd1ed-bundle","type":"transaction","entry":[{"fullUrl":"https://madie.cms.gov/Patient/6bbc3f38-7f5f-4da9-9beb-eb32874fd1ed","resource":{"resourceType":"Patient","id":"6bbc3f38-7f5f-4da9-9beb-eb32874fd1ed","meta":{"profile":["http://hl7.org/fhir/us/qicore/StructureDefinition/qicore-patient"]},"text":{"status":"generated","div":"<div xmlns=\"http://www.w3.org/1999/xhtml\"><div class=\"hapiHeaderText\">CMP_DayOf_RelvPerStart_1minAftIPEnd_EDEndLT1hrB4Obs_ObsEndLT1hrB4IP <b>DENEXFAIL </b></div><table class=\"hapiPropertyTable\"><tbody><tr><td>Date of birth</td><td><span>01 January 1980</span></td></tr></tbody></table></div>"},"extension":[{"url":"http://hl7.org/fhir/us/core/StructureDefinition/us-core-race","extension":[{"url":"ombCategory","valueCoding":{"system":"urn:oid:2.16.840.1.113883.6.238","code":"2054-5","display":"Black or African American","userSelected":true}},{"url":"text","valueString":"Black or African American"}]},{"url":"http://hl7.org/fhir/us/core/StructureDefinition/us-core-ethnicity","extension":[{"url":"ombCategory","valueCoding":{"system":"urn:oid:2.16.840.1.113883.6.238","code":"2186-5","display":"Not Hispanic or Latino","userSelected":true}},{"url":"text","valueString":"Not Hispanic or Latino"}]}],"identifier":[{"type":{"coding":[{"system":"http://terminology.hl7.org/CodeSystem/v2-0203","code":"MR"}]},"system":"https://bonnie-fhir.healthit.gov/","value":"60f82c3098086b570510e2f3"}],"active":true,"name":[{"use":"usual","family":"DENEXFail","given":["CMP_DayOf_RelvPerStart_1minAftIPEnd_EDEndLT1hrB4Obs_ObsEndLT1hrB4IP"]}],"gender":"female","birthDate":"1981-01-01"},"request":{"method":"PUT","url":"Patient/6bbc3f38-7f5f-4da9-9beb-eb32874fd1ed"}},{"fullUrl":"https://madie.cms.gov/Encounter/11820360-a6bd-4738-b0f6-89adbbb8a56b","resource":{"resourceType":"Encounter","id":"11820360-a6bd-4738-b0f6-89adbbb8a56b","meta":{"profile":["http://hl7.org/fhir/us/qicore/StructureDefinition/qicore-encounter"]},"status":"finished","class":{"system":"http://terminology.hl7.org/CodeSystem/v3-ActCode","code":"EMER","display":"emergency","userSelected":true},"type":[{"coding":[{"system":"http://snomed.info/sct","code":"4525004"}]}],"subject":{"reference":"Patient/6bbc3f38-7f5f-4da9-9beb-eb32874fd1ed"},"period":{"start":"2026-11-18T07:00:00+00:00","end":"2026-11-18T08:01:00+00:00"},"diagnosis":[{"condition":{"reference":"Condition/34c27d9b-56ed-42b1-9602-05589e8b973a"},"use":{"coding":[{"system":"http://snomed.info/sct","code":"111297002","display":"Nonparalytic stroke (disorder)"}]},"rank":1}]},"request":{"method":"PUT","url":"Encounter/11820360-a6bd-4738-b0f6-89adbbb8a56b"}},{"fullUrl":"https://madie.cms.gov/Encounter/5cc18876-59b5-4abd-b307-5deb5c9b84ee","resource":{"resourceType":"Encounter","id":"5cc18876-59b5-4abd-b307-5deb5c9b84ee","meta":{"profile":["http://hl7.org/fhir/us/qicore/StructureDefinition/qicore-encounter"]},"status":"finished","class":{"system":"http://terminology.hl7.org/CodeSystem/v3-ActCode","code":"OBSENC","display":"observation encounter","userSelected":true},"type":[{"coding":[{"system":"http://snomed.info/sct","code":"448951000124107"}]}],"subject":{"reference":"Patient/6bbc3f38-7f5f-4da9-9beb-eb32874fd1ed"},"period":{"start":"2026-11-18T09:00:00+00:00","end":"2026-11-18T10:01:00+00:00"}},"request":{"method":"PUT","url":"Encounter/5cc18876-59b5-4abd-b307-5deb5c9b84ee"}},{"fullUrl":"https://madie.cms.gov/Encounter/fa1c45a4-46ff-47fe-bac8-e654761b9bf9","resource":{"resourceType":"Encounter","id":"fa1c45a4-46ff-47fe-bac8-e654761b9bf9","meta":{"profile":["http://hl7.org/fhir/us/qicore/StructureDefinition/qicore-encounter"]},"status":"finished","class":{"system":"http://terminology.hl7.org/CodeSystem/v3-ActCode","code":"IMP","display":"inpatient encounter","userSelected":true},"type":[{"coding":[{"system":"http://snomed.info/sct","code":"183452005"}]}],"subject":{"reference":"Patient/6bbc3f38-7f5f-4da9-9beb-eb32874fd1ed"},"period":{"start":"2026-11-18T11:00:00+00:00","end":"2026-11-20T08:15:00+00:00"},"diagnosis":[{"condition":{"reference":"Condition/34c27d9b-56ed-42b1-9602-05589e8b973a"},"use":{"coding":[{"system":"http://terminology.hl7.org/CodeSystem/diagnosis-role","code":"billing","display":"Billing"}]},"rank":1}]},"request":{"method":"PUT","url":"Encounter/fa1c45a4-46ff-47fe-bac8-e654761b9bf9"}},{"fullUrl":"https://madie.cms.gov/Procedure/0d3e942b-c322-43e5-b539-fb915b72b49f","resource":{"resourceType":"Procedure","id":"0d3e942b-c322-43e5-b539-fb915b72b49f","meta":{"profile":["http://hl7.org/fhir/us/qicore/StructureDefinition/qicore-procedure"]},"extension":[{"url":"http://hl7.org/fhir/us/qicore/StructureDefinition/qicore-recorded","valueDateTime":"2014-04-05T09:35:00-04:00"}],"status":"completed","code":{"coding":[{"system":"http://snomed.info/sct","code":"133918004"}]},"subject":{"reference":"Patient/6bbc3f38-7f5f-4da9-9beb-eb32874fd1ed"},"performedPeriod":{"start":"2026-11-20T08:16:00+00:00","end":"2026-11-20T08:16:00+00:00"}},"request":{"method":"PUT","url":"Procedure/0d3e942b-c322-43e5-b539-fb915b72b49f"}},{"fullUrl":"https://madie.cms.gov/Condition/34c27d9b-56ed-42b1-9602-05589e8b973a","resource":{"resourceType":"Condition","id":"34c27d9b-56ed-42b1-9602-05589e8b973a","meta":{"profile":["http://hl7.org/fhir/us/qicore/StructureDefinition/qicore-condition"]},"clinicalStatus":{"coding":[{"system":"http://terminology.hl7.org/CodeSystem/condition-clinical","code":"active"}]},"verificationStatus":{"coding":[{"system":"http://terminology.hl7.org/CodeSystem/condition-ver-status","code":"confirmed"}]},"category":[{"coding":[{"system":"http://terminology.hl7.org/CodeSystem/condition-category","code":"encounter-diagnosis","display":"Encounter Diagnosis"}]}],"code":{"coding":[{"system":"http://snomed.info/sct","version":"2020-09","code":"111297002","display":"Nonparalytic stroke (disorder)","userSelected":true}]},"subject":{"reference":"Patient/6bbc3f38-7f5f-4da9-9beb-eb32874fd1ed"},"recordedDate":"2026-08-11T08:00:00.000+00:00"},"request":{"method":"PUT","url":"Condition/34c27d9b-56ed-42b1-9602-05589e8b973a"}},{"fullUrl":"https://madie.cms.gov/Coverage/35336637-be59-4205-97cf-0126714d9f5d","resource":{"resourceType":"Coverage","id":"35336637-be59-4205-97cf-0126714d9f5d","meta":{"profile":["http://hl7.org/fhir/us/qicore/StructureDefinition/qicore-coverage"]},"status":"active","beneficiary":{"reference":"Patient/6bbc3f38-7f5f-4da9-9beb-eb32874fd1ed"},"payor":[{"reference":"Organization/9e9b3f13-a353-4173-b29b-947d6f1f2031"}]},"request":{"method":"PUT","url":"Coverage/35336637-be59-4205-97cf-0126714d9f5d"}},{"fullUrl":"https://madie.cms.gov/Organization/0c6684e3-dd1d-46ce-a13a-a7cc527f03b3","resource":{"resourceType":"Organization","id":"9e9b3f13-a353-4173-b29b-947d6f1f2031","meta":{"profile":["http://hl7.org/fhir/us/qicore/StructureDefinition/qicore-organization"]},"identifier":[{"use":"temp","system":"urn:oid:2.16.840.1.113883.4.4","value":"21-3259825"}],"active":true,"type":[{"coding":[{"system":"http://terminology.hl7.org/CodeSystem/organization-type","code":"pay","display":"Payer"}]}],"name":"Blue Cross Blue Shield of Texas","telecom":[{"system":"phone","value":"(+1) 972-766-6900"}],"address":[{"use":"billing","type":"postal","line":["P.O. Box 660044"],"city":"Dallas","state":"TX","postalCode":"75266-0044","country":"USA"}]},"request":{"method":"PUT","url":"Organization/9e9b3f13-a353-4173-b29b-947d6f1f2031"}},{"fullUrl":"https://madie.cms.gov/MeasureReport/f3092dd0-3276-42b7-b610-7aaf4ce6cf91","resource":{"resourceType":"MeasureReport","id":"f3092dd0-3276-42b7-b610-7aaf4ce6cf91","meta":{"profile":["http://hl7.org/fhir/us/cqfmeasures/StructureDefinition/test-case-cqfm"]},"contained":[{"resourceType":"Parameters","id":"2efa2750-e271-4de9-8836-b45b7ad47d98-parameters","parameter":[{"name":"subject","valueString":"6bbc3f38-7f5f-4da9-9beb-eb32874fd1ed"}]}],"extension":[{"url":"http://hl7.org/fhir/us/cqfmeasures/StructureDefinition/cqfm-inputParameters","valueReference":{"reference":"#2efa2750-e271-4de9-8836-b45b7ad47d98-parameters"}},{"url":"http://hl7.org/fhir/us/cqfmeasures/StructureDefinition/cqfm-testCaseDescription","valueMarkdown":"Patient receives comfort measures performed on the day of hospital arrival,  1 min after IP end. ED ends less than 1 hour before Obs Start, Obs ends less than 1 hour before IP start.\n"}],"modifierExtension":[{"url":"http://hl7.org/fhir/us/cqfmeasures/StructureDefinition/cqfm-isTestCase","valueBoolean":true}],"status":"complete","type":"individual","measure":"https://madie.cms.gov/Measure/CMS72FHIRSTKAntithromboticDay2","period":{"start":"2026-01-01","end":"2026-12-31"},"group":[{"population":[{"code":{"coding":[{"system":"http://terminology.hl7.org/CodeSystem/measure-population","code":"initial-population","display":"Initial Population"}]},"count":1},{"code":{"coding":[{"system":"http://terminology.hl7.org/CodeSystem/measure-population","code":"denominator","display":"Denominator"}]},"count":1},{"code":{"coding":[{"system":"http://terminology.hl7.org/CodeSystem/measure-population","code":"denominator-exclusion","display":"Denominator Exclusion"}]},"count":0},{"code":{"coding":[{"system":"http://terminology.hl7.org/CodeSystem/measure-population","code":"numerator","display":"Numerator"}]},"count":0},{"code":{"coding":[{"system":"http://terminology.hl7.org/CodeSystem/measure-population","code":"denominator-exception","display":"Denominator Exception"}]},"count":0}]}]},"request":{"method":"PUT","url":"MeasureReport/f3092dd0-3276-42b7-b610-7aaf4ce6cf91"}}]}