{"resourceType":"Bundle","id":"tests-1b785f3f-23e7-4b52-889c-d9f66945e7f1-bundle","type":"transaction","entry":[{"fullUrl":"https://madie.cms.gov/Patient/1b785f3f-23e7-4b52-889c-d9f66945e7f1","resource":{"resourceType":"Patient","id":"1b785f3f-23e7-4b52-889c-d9f66945e7f1","meta":{"profile":["http://hl7.org/fhir/us/qicore/StructureDefinition/qicore-patient"]},"text":{"status":"generated","div":"<div xmlns=\"http://www.w3.org/1999/xhtml\"><div class=\"hapiHeaderText\">CMO&lt;1day_DuringEncIP <b>DENEXPASS </b></div><table class=\"hapiPropertyTable\"><tbody><tr><td>Identifier</td><td>d9671613ad13fc4c07e2f7a63a584374</td></tr><tr><td>Date of birth</td><td><span>26 September 1975</span></td></tr></tbody></table></div>"},"extension":[{"url":"http://hl7.org/fhir/us/core/StructureDefinition/us-core-race","extension":[{"url":"ombCategory","valueCoding":{"system":"urn:oid:2.16.840.1.113883.6.238","code":"2054-5","display":"Black or African American","userSelected":true}},{"url":"text","valueString":"Black or African American"}]},{"url":"http://hl7.org/fhir/us/core/StructureDefinition/us-core-ethnicity","extension":[{"url":"ombCategory","valueCoding":{"system":"urn:oid:2.16.840.1.113883.6.238","code":"2186-5","display":"Not Hispanic or Latino","userSelected":true}},{"url":"text","valueString":"Not Hispanic or Latino"}]}],"identifier":[{"type":{"coding":[{"system":"http://terminology.hl7.org/CodeSystem/v2-0203","code":"MR"}]},"system":"https://bonnie-fhir.healthit.gov/","value":"60f82c2e98086b570510e28b"}],"active":true,"name":[{"use":"usual","family":"DENEXPass","given":["CMO<1day_DuringEncIP"]}],"gender":"female","birthDate":"1976-09-26"},"request":{"method":"PUT","url":"Patient/1b785f3f-23e7-4b52-889c-d9f66945e7f1"}},{"fullUrl":"https://madie.cms.gov/Encounter/89fb3dc6-9028-4ac1-b8d5-0e1d80d47821","resource":{"resourceType":"Encounter","id":"89fb3dc6-9028-4ac1-b8d5-0e1d80d47821","meta":{"profile":["http://hl7.org/fhir/us/qicore/StructureDefinition/qicore-encounter"]},"status":"finished","class":{"system":"http://terminology.hl7.org/CodeSystem/v3-ActCode","code":"EMER","display":"emergency","userSelected":true},"type":[{"coding":[{"system":"http://snomed.info/sct","code":"4525004"}]}],"subject":{"reference":"Patient/1b785f3f-23e7-4b52-889c-d9f66945e7f1"},"period":{"start":"2026-10-10T04:00:00+00:00","end":"2026-10-10T06:00:00+00:00"},"length":{"value":0,"unit":"days"}},"request":{"method":"PUT","url":"Encounter/89fb3dc6-9028-4ac1-b8d5-0e1d80d47821"}},{"fullUrl":"https://madie.cms.gov/Encounter/55b0a5a2-31de-4f4c-b95a-877ce1b0078d","resource":{"resourceType":"Encounter","id":"55b0a5a2-31de-4f4c-b95a-877ce1b0078d","meta":{"profile":["http://hl7.org/fhir/us/qicore/StructureDefinition/qicore-encounter"]},"status":"finished","class":{"system":"http://terminology.hl7.org/CodeSystem/v3-ActCode","code":"IMP","display":"inpatient encounter","userSelected":true},"type":[{"coding":[{"system":"http://snomed.info/sct","code":"32485007"}]}],"subject":{"reference":"Patient/1b785f3f-23e7-4b52-889c-d9f66945e7f1"},"period":{"start":"2026-10-10T06:15:00+00:00","end":"2026-10-11T11:30:00+00:00"},"length":{"value":1,"unit":"days"},"diagnosis":[{"condition":{"reference":"Condition/8d0f7165-65ac-4da7-b91b-08d5d6a98d39"},"use":{"coding":[{"system":"http://terminology.hl7.org/CodeSystem/diagnosis-role","code":"billing","display":"Billing"}]},"rank":1}]},"request":{"method":"PUT","url":"Encounter/55b0a5a2-31de-4f4c-b95a-877ce1b0078d"}},{"fullUrl":"https://madie.cms.gov/ServiceRequest/825054ba-37ca-42eb-806e-aebae7af4821","resource":{"resourceType":"ServiceRequest","id":"825054ba-37ca-42eb-806e-aebae7af4821","meta":{"profile":["http://hl7.org/fhir/us/qicore/StructureDefinition/qicore-servicerequest"]},"status":"active","intent":"order","code":{"coding":[{"system":"http://snomed.info/sct","code":"133918004"}]},"subject":{"reference":"Patient/1b785f3f-23e7-4b52-889c-d9f66945e7f1"},"authoredOn":"2026-10-10T11:00:00+00:00"},"request":{"method":"PUT","url":"ServiceRequest/825054ba-37ca-42eb-806e-aebae7af4821"}},{"fullUrl":"https://madie.cms.gov/Coverage/6b122460-a6f9-428a-9304-3c9f316cfef8","resource":{"resourceType":"Coverage","id":"6b122460-a6f9-428a-9304-3c9f316cfef8","status":"active","beneficiary":{"reference":"Patient/1b785f3f-23e7-4b52-889c-d9f66945e7f1"},"period":{"start":"1976-09-26T08:00:00+00:00"},"payor":[{"reference":"Organization/18ca435c-cae6-4c34-8033-af717477f9fc"}]},"request":{"method":"PUT","url":"Coverage/6b122460-a6f9-428a-9304-3c9f316cfef8"}},{"fullUrl":"https://madie.cms.gov/Condition/8d0f7165-65ac-4da7-b91b-08d5d6a98d39","resource":{"resourceType":"Condition","id":"8d0f7165-65ac-4da7-b91b-08d5d6a98d39","meta":{"profile":["http://hl7.org/fhir/us/qicore/StructureDefinition/qicore-condition"]},"clinicalStatus":{"coding":[{"system":"http://terminology.hl7.org/CodeSystem/condition-clinical","code":"active"}]},"verificationStatus":{"coding":[{"system":"http://terminology.hl7.org/CodeSystem/condition-ver-status","code":"confirmed"}]},"category":[{"coding":[{"system":"http://terminology.hl7.org/CodeSystem/condition-category","code":"encounter-diagnosis","display":"Encounter Diagnosis"}]}],"code":{"coding":[{"system":"http://snomed.info/sct","version":"2020-09","code":"111297002","display":"Nonparalytic stroke (disorder)","userSelected":true}]},"subject":{"reference":"Patient/1b785f3f-23e7-4b52-889c-d9f66945e7f1"},"recordedDate":"2026-08-12T08:00:00.000+00:00"},"request":{"method":"PUT","url":"Condition/8d0f7165-65ac-4da7-b91b-08d5d6a98d39"}},{"fullUrl":"https://madie.cms.gov/Organization/cb4b8d54-cf55-4e52-be1c-aa4a04da798a","resource":{"resourceType":"Organization","id":"18ca435c-cae6-4c34-8033-af717477f9fc","meta":{"profile":["http://hl7.org/fhir/us/qicore/StructureDefinition/qicore-organization"]},"identifier":[{"use":"temp","system":"urn:oid:2.16.840.1.113883.4.4","value":"21-3259825"}],"active":true,"type":[{"coding":[{"system":"http://terminology.hl7.org/CodeSystem/organization-type","code":"pay","display":"Payer"}]}],"name":"Blue Cross Blue Shield of Texas","telecom":[{"system":"phone","value":"(+1) 972-766-6900"}],"address":[{"use":"billing","type":"postal","line":["P.O. Box 660044"],"city":"Dallas","state":"TX","postalCode":"75266-0044","country":"USA"}]},"request":{"method":"PUT","url":"Organization/18ca435c-cae6-4c34-8033-af717477f9fc"}},{"fullUrl":"https://madie.cms.gov/MeasureReport/4a518c1d-97c2-4947-8ec7-f6189711bfb0","resource":{"resourceType":"MeasureReport","id":"4a518c1d-97c2-4947-8ec7-f6189711bfb0","meta":{"profile":["http://hl7.org/fhir/us/cqfmeasures/StructureDefinition/test-case-cqfm"]},"contained":[{"resourceType":"Parameters","id":"4d573e27-7656-4ef6-9073-1be26e8677ff-parameters","parameter":[{"name":"subject","valueString":"1b785f3f-23e7-4b52-889c-d9f66945e7f1"}]}],"extension":[{"url":"http://hl7.org/fhir/us/cqfmeasures/StructureDefinition/cqfm-inputParameters","valueReference":{"reference":"#4d573e27-7656-4ef6-9073-1be26e8677ff-parameters"}},{"url":"http://hl7.org/fhir/us/cqfmeasures/StructureDefinition/cqfm-testCaseDescription","valueMarkdown":"Patient receives comfort measures order CMP<1day (=0 day)   during Enc IP   global.\"Hospitalization\" =(Ed+IP)\n"}],"modifierExtension":[{"url":"http://hl7.org/fhir/us/cqfmeasures/StructureDefinition/cqfm-isTestCase","valueBoolean":true}],"status":"complete","type":"individual","measure":"https://madie.cms.gov/Measure/CMS72FHIRSTKAntithromboticDay2","period":{"start":"2026-01-01","end":"2026-12-31"},"group":[{"population":[{"code":{"coding":[{"system":"http://terminology.hl7.org/CodeSystem/measure-population","code":"initial-population","display":"Initial Population"}]},"count":1},{"code":{"coding":[{"system":"http://terminology.hl7.org/CodeSystem/measure-population","code":"denominator","display":"Denominator"}]},"count":1},{"code":{"coding":[{"system":"http://terminology.hl7.org/CodeSystem/measure-population","code":"denominator-exclusion","display":"Denominator Exclusion"}]},"count":1},{"code":{"coding":[{"system":"http://terminology.hl7.org/CodeSystem/measure-population","code":"numerator","display":"Numerator"}]},"count":0},{"code":{"coding":[{"system":"http://terminology.hl7.org/CodeSystem/measure-population","code":"denominator-exception","display":"Denominator Exception"}]},"count":0}]}]},"request":{"method":"PUT","url":"MeasureReport/4a518c1d-97c2-4947-8ec7-f6189711bfb0"}}]}