{"resourceType":"Bundle","id":"tests-145ddce1-5ecd-4bcb-b58d-6c39b55e4f54-bundle","type":"transaction","entry":[{"fullUrl":"https://madie.cms.gov/Patient/145ddce1-5ecd-4bcb-b58d-6c39b55e4f54","resource":{"resourceType":"Patient","id":"145ddce1-5ecd-4bcb-b58d-6c39b55e4f54","meta":{"profile":["http://hl7.org/fhir/us/qicore/StructureDefinition/qicore-patient"]},"text":{"status":"generated","div":"<div xmlns=\"http://www.w3.org/1999/xhtml\"><div class=\"hapiHeaderText\">EncB4MP <b>IPPFAIL </b></div><table class=\"hapiPropertyTable\"><tbody><tr><td>Identifier</td><td>7592b753ea9652ea4df9928763a65677</td></tr><tr><td>Date of birth</td><td><span>21 August 1993</span></td></tr></tbody></table></div>"},"extension":[{"url":"http://hl7.org/fhir/us/core/StructureDefinition/us-core-race","extension":[{"url":"ombCategory","valueCoding":{"system":"urn:oid:2.16.840.1.113883.6.238","code":"1002-5","display":"American Indian or Alaska Native","userSelected":true}},{"url":"text","valueString":"American Indian or Alaska Native"}]},{"url":"http://hl7.org/fhir/us/core/StructureDefinition/us-core-ethnicity","extension":[{"url":"ombCategory","valueCoding":{"system":"urn:oid:2.16.840.1.113883.6.238","code":"2186-5","display":"Not Hispanic or Latino","userSelected":true}},{"url":"text","valueString":"Not Hispanic or Latino"}]}],"identifier":[{"type":{"coding":[{"system":"http://terminology.hl7.org/CodeSystem/v2-0203","code":"MR"}]},"system":"https://bonnie-fhir.healthit.gov/","value":"60f82c2d98086b570510e250"}],"active":true,"name":[{"use":"usual","family":"IPPFail","given":["EncB4MP"]}],"gender":"male","birthDate":"1994-08-21"},"request":{"method":"PUT","url":"Patient/145ddce1-5ecd-4bcb-b58d-6c39b55e4f54"}},{"fullUrl":"https://madie.cms.gov/Encounter/c78541ee-3e15-40c4-a1bd-654a93658c0d","resource":{"resourceType":"Encounter","id":"c78541ee-3e15-40c4-a1bd-654a93658c0d","meta":{"profile":["http://hl7.org/fhir/us/qicore/StructureDefinition/qicore-encounter"]},"status":"finished","class":{"system":"http://terminology.hl7.org/CodeSystem/v3-ActCode","code":"IMP","display":"inpatient encounter"},"type":[{"coding":[{"system":"http://snomed.info/sct","code":"32485007"}]}],"subject":{"reference":"Patient/145ddce1-5ecd-4bcb-b58d-6c39b55e4f54"},"period":{"start":"2024-08-21T09:30:00+00:00","end":"2024-12-19T10:30:00+00:00"},"length":{"value":120.0,"unit":"days"},"diagnosis":[{"condition":{"reference":"Condition/ischemic-stroke-824c"},"use":{"coding":[{"system":"http://snomed.info/sct","code":"64586002","display":"Ischemic Stroke Snomed Ct"}]},"rank":1}]},"request":{"method":"PUT","url":"Encounter/c78541ee-3e15-40c4-a1bd-654a93658c0d"}},{"fullUrl":"https://madie.cms.gov/Coverage/071eaa38-7b15-4c67-8d4b-4250ea89892a","resource":{"resourceType":"Coverage","id":"071eaa38-7b15-4c67-8d4b-4250ea89892a","status":"active","beneficiary":{"reference":"Patient/145ddce1-5ecd-4bcb-b58d-6c39b55e4f54"},"period":{"start":"1994-08-21T07:00:00+00:00"},"payor":[{"reference":"Organization/f7da4368-fb6d-4d73-a75b-f78024cbb18d"}]},"request":{"method":"PUT","url":"Coverage/071eaa38-7b15-4c67-8d4b-4250ea89892a"}},{"fullUrl":"https://madie.cms.gov/Organization/f662a55c-40b5-45b7-8079-aa16b8e01c41","resource":{"resourceType":"Organization","id":"f7da4368-fb6d-4d73-a75b-f78024cbb18d","meta":{"profile":["http://hl7.org/fhir/us/qicore/StructureDefinition/qicore-organization"]},"identifier":[{"use":"temp","system":"urn:oid:2.16.840.1.113883.4.4","value":"21-3259825"}],"active":true,"type":[{"coding":[{"system":"http://terminology.hl7.org/CodeSystem/organization-type","code":"pay","display":"Payer"}]}],"name":"Blue Cross Blue Shield of Texas","telecom":[{"system":"phone","value":"(+1) 972-766-6900"}],"address":[{"use":"billing","type":"postal","line":["P.O. Box 660044"],"city":"Dallas","state":"TX","postalCode":"75266-0044","country":"USA"}]},"request":{"method":"PUT","url":"Organization/f7da4368-fb6d-4d73-a75b-f78024cbb18d"}},{"fullUrl":"https://madie.cms.gov/Practitioner/a1520093-182d-4d72-860c-2263dbac9933","resource":{"resourceType":"Practitioner","id":"a1520093-182d-4d72-860c-2263dbac9933","identifier":[{"system":"http://hl7.org/fhir/sid/us-npi","value":"123456"}],"name":[{"family":"Evil","prefix":["Dr"]}]},"request":{"method":"PUT","url":"Practitioner/a1520093-182d-4d72-860c-2263dbac9933"}},{"fullUrl":"https://madie.cms.gov/MeasureReport/7e59a5c8-8a14-4c8e-863d-d1f0da74112d","resource":{"resourceType":"MeasureReport","id":"7e59a5c8-8a14-4c8e-863d-d1f0da74112d","meta":{"profile":["http://hl7.org/fhir/us/cqfmeasures/StructureDefinition/test-case-cqfm"]},"contained":[{"resourceType":"Parameters","id":"32fdb621-7024-4843-a93e-b5ca4a836e0c-parameters","parameter":[{"name":"subject","valueString":"145ddce1-5ecd-4bcb-b58d-6c39b55e4f54"}]}],"extension":[{"url":"http://hl7.org/fhir/us/cqfmeasures/StructureDefinition/cqfm-inputParameters","valueReference":{"reference":"#32fdb621-7024-4843-a93e-b5ca4a836e0c-parameters"}},{"url":"http://hl7.org/fhir/us/cqfmeasures/StructureDefinition/cqfm-testCaseDescription","valueMarkdown":"encounter ends before MP \n"}],"modifierExtension":[{"url":"http://hl7.org/fhir/us/cqfmeasures/StructureDefinition/cqfm-isTestCase","valueBoolean":true}],"status":"complete","type":"individual","measure":"https://madie.cms.gov/Measure/CMS72FHIRSTKAntithromboticDay2","period":{"start":"2026-01-01","end":"2026-12-31"},"group":[{"population":[{"code":{"coding":[{"system":"http://terminology.hl7.org/CodeSystem/measure-population","code":"initial-population","display":"Initial Population"}]},"count":0},{"code":{"coding":[{"system":"http://terminology.hl7.org/CodeSystem/measure-population","code":"denominator","display":"Denominator"}]},"count":0},{"code":{"coding":[{"system":"http://terminology.hl7.org/CodeSystem/measure-population","code":"denominator-exclusion","display":"Denominator Exclusion"}]},"count":0},{"code":{"coding":[{"system":"http://terminology.hl7.org/CodeSystem/measure-population","code":"numerator","display":"Numerator"}]},"count":0},{"code":{"coding":[{"system":"http://terminology.hl7.org/CodeSystem/measure-population","code":"denominator-exception","display":"Denominator Exception"}]},"count":0}]}]},"request":{"method":"PUT","url":"MeasureReport/7e59a5c8-8a14-4c8e-863d-d1f0da74112d"}}]}