{"resourceType":"Bundle","id":"tests-67023b3d-31a7-444d-a689-76697cc9dfd5-bundle","type":"transaction","entry":[{"fullUrl":"https://madie.cms.gov/Patient/67023b3d-31a7-444d-a689-76697cc9dfd5","resource":{"resourceType":"Patient","id":"67023b3d-31a7-444d-a689-76697cc9dfd5","meta":{"profile":["http://hl7.org/fhir/us/qicore/StructureDefinition/qicore-patient"]},"text":{"status":"generated","div":"<div xmlns=\"http://www.w3.org/1999/xhtml\"><div class=\"hapiHeaderText\">Age&lt;18 <b>IPPFAIL </b></div><table class=\"hapiPropertyTable\"><tbody><tr><td>Identifier</td><td>ca0ad36b04d118a398c691ba55e7c7f9</td></tr><tr><td>Date of birth</td><td><span>22 August 1994</span></td></tr></tbody></table></div>"},"extension":[{"url":"http://hl7.org/fhir/us/core/StructureDefinition/us-core-race","extension":[{"url":"ombCategory","valueCoding":{"system":"urn:oid:2.16.840.1.113883.6.238","code":"1002-5","display":"American Indian or Alaska Native","userSelected":true}},{"url":"text","valueString":"American Indian or Alaska Native"}]},{"url":"http://hl7.org/fhir/us/core/StructureDefinition/us-core-ethnicity","extension":[{"url":"ombCategory","valueCoding":{"system":"urn:oid:2.16.840.1.113883.6.238","code":"2135-2","display":"Hispanic or Latino","userSelected":true}},{"url":"text","valueString":"Hispanic or Latino"}]}],"identifier":[{"type":{"coding":[{"system":"http://terminology.hl7.org/CodeSystem/v2-0203","code":"MR"}]},"system":"https://bonnie-fhir.healthit.gov/","value":"60f82c2d98086b570510e24b"}],"active":true,"name":[{"use":"usual","family":"IPPFail","given":["Age<18"]}],"gender":"male","birthDate":"2008-08-22"},"request":{"method":"PUT","url":"Patient/67023b3d-31a7-444d-a689-76697cc9dfd5"}},{"fullUrl":"https://madie.cms.gov/Encounter/1a6e03bd-7a35-4b42-b467-6312d24c7745","resource":{"resourceType":"Encounter","id":"1a6e03bd-7a35-4b42-b467-6312d24c7745","meta":{"profile":["http://hl7.org/fhir/us/qicore/StructureDefinition/qicore-encounter"]},"status":"finished","class":{"system":"http://terminology.hl7.org/CodeSystem/v3-ActCode","code":"IMP","display":"inpatient encounter"},"type":[{"coding":[{"system":"http://snomed.info/sct","code":"32485007"}]}],"subject":{"reference":"Patient/67023b3d-31a7-444d-a689-76697cc9dfd5"},"period":{"start":"2026-08-21T00:00:00+00:00","end":"2026-12-19T08:15:00+00:00"},"length":{"value":120.0,"unit":"days"},"diagnosis":[{"condition":{"reference":"Condition/ef6448ce-e519-40ab-8390-9cb3ffec9aba"},"use":{"coding":[{"system":"http://snomed.info/sct","code":"111297002","display":"Ischemic Stroke"}]},"rank":1}]},"request":{"method":"PUT","url":"Encounter/1a6e03bd-7a35-4b42-b467-6312d24c7745"}},{"fullUrl":"https://madie.cms.gov/Coverage/fe77213d-834d-4ccc-b52e-36443867410c","resource":{"resourceType":"Coverage","id":"fe77213d-834d-4ccc-b52e-36443867410c","status":"active","beneficiary":{"reference":"Patient/67023b3d-31a7-444d-a689-76697cc9dfd5"},"period":{"start":"1995-08-22T07:00:00+00:00"},"payor":[{"reference":"Organization/f7da4368-fb6d-4d73-a75b-f78024cbb18d"}]},"request":{"method":"PUT","url":"Coverage/fe77213d-834d-4ccc-b52e-36443867410c"}},{"fullUrl":"https://madie.cms.gov/Condition/ef6448ce-e519-40ab-8390-9cb3ffec9aba","resource":{"resourceType":"Condition","id":"ef6448ce-e519-40ab-8390-9cb3ffec9aba","meta":{"profile":["http://hl7.org/fhir/us/qicore/StructureDefinition/qicore-condition"]},"clinicalStatus":{"coding":[{"system":"http://terminology.hl7.org/CodeSystem/condition-clinical","code":"active"}]},"verificationStatus":{"coding":[{"system":"http://terminology.hl7.org/CodeSystem/condition-ver-status","code":"confirmed"}]},"category":[{"coding":[{"system":"http://terminology.hl7.org/CodeSystem/condition-category","code":"encounter-diagnosis","display":"Encounter Diagnosis"}]}],"code":{"coding":[{"system":"http://snomed.info/sct","version":"2020-09","code":"111297002","display":"Nonparalytic stroke (disorder)","userSelected":true}]},"subject":{"reference":"Patient/67023b3d-31a7-444d-a689-76697cc9dfd5"},"recordedDate":"2026-08-16T08:00:00.000+00:00"},"request":{"method":"PUT","url":"Condition/ef6448ce-e519-40ab-8390-9cb3ffec9aba"}},{"fullUrl":"https://madie.cms.gov/Organization/e8660892-de8b-40cc-8d34-e1b7008f6da8","resource":{"resourceType":"Organization","id":"f7da4368-fb6d-4d73-a75b-f78024cbb18d","meta":{"profile":["http://hl7.org/fhir/us/qicore/StructureDefinition/qicore-organization"]},"identifier":[{"use":"temp","system":"urn:oid:2.16.840.1.113883.4.4","value":"21-3259825"}],"active":true,"type":[{"coding":[{"system":"http://terminology.hl7.org/CodeSystem/organization-type","code":"pay","display":"Payer"}]}],"name":"Blue Cross Blue Shield of Texas","telecom":[{"system":"phone","value":"(+1) 972-766-6900"}],"address":[{"use":"billing","type":"postal","line":["P.O. Box 660044"],"city":"Dallas","state":"TX","postalCode":"75266-0044","country":"USA"}]},"request":{"method":"PUT","url":"Organization/f7da4368-fb6d-4d73-a75b-f78024cbb18d"}},{"fullUrl":"https://madie.cms.gov/Practitioner/fddc8b70-cb56-47e3-baa1-9266546b6ee2","resource":{"resourceType":"Practitioner","id":"fddc8b70-cb56-47e3-baa1-9266546b6ee2","identifier":[{"system":"http://hl7.org/fhir/sid/us-npi","value":"123456"}],"name":[{"family":"Evil","prefix":["Dr"]}]},"request":{"method":"PUT","url":"Practitioner/fddc8b70-cb56-47e3-baa1-9266546b6ee2"}},{"fullUrl":"https://madie.cms.gov/MeasureReport/0eef283f-2092-40c7-9254-8d65fdbf8949","resource":{"resourceType":"MeasureReport","id":"0eef283f-2092-40c7-9254-8d65fdbf8949","meta":{"profile":["http://hl7.org/fhir/us/cqfmeasures/StructureDefinition/test-case-cqfm"]},"contained":[{"resourceType":"Parameters","id":"718a26c5-e8cb-4f2a-a387-3d3b0f850cf6-parameters","parameter":[{"name":"subject","valueString":"67023b3d-31a7-444d-a689-76697cc9dfd5"}]}],"extension":[{"url":"http://hl7.org/fhir/us/cqfmeasures/StructureDefinition/cqfm-inputParameters","valueReference":{"reference":"#718a26c5-e8cb-4f2a-a387-3d3b0f850cf6-parameters"}},{"url":"http://hl7.org/fhir/us/cqfmeasures/StructureDefinition/cqfm-testCaseDescription","valueMarkdown":"Patient is 17    Age<18\n"}],"modifierExtension":[{"url":"http://hl7.org/fhir/us/cqfmeasures/StructureDefinition/cqfm-isTestCase","valueBoolean":true}],"status":"complete","type":"individual","measure":"https://madie.cms.gov/Measure/CMS72FHIRSTKAntithromboticDay2","period":{"start":"2026-01-01","end":"2026-12-31"},"group":[{"population":[{"code":{"coding":[{"system":"http://terminology.hl7.org/CodeSystem/measure-population","code":"initial-population","display":"Initial Population"}]},"count":0},{"code":{"coding":[{"system":"http://terminology.hl7.org/CodeSystem/measure-population","code":"denominator","display":"Denominator"}]},"count":0},{"code":{"coding":[{"system":"http://terminology.hl7.org/CodeSystem/measure-population","code":"denominator-exclusion","display":"Denominator Exclusion"}]},"count":0},{"code":{"coding":[{"system":"http://terminology.hl7.org/CodeSystem/measure-population","code":"numerator","display":"Numerator"}]},"count":0},{"code":{"coding":[{"system":"http://terminology.hl7.org/CodeSystem/measure-population","code":"denominator-exception","display":"Denominator Exception"}]},"count":0}]}]},"request":{"method":"PUT","url":"MeasureReport/0eef283f-2092-40c7-9254-8d65fdbf8949"}}]}