{"resourceType":"Bundle","id":"tests-77bba430-02fc-4ac7-ab49-f57fd73daa9b-bundle","type":"transaction","entry":[{"fullUrl":"https://madie.cms.gov/Patient/77bba430-02fc-4ac7-ab49-f57fd73daa9b","resource":{"resourceType":"Patient","id":"77bba430-02fc-4ac7-ab49-f57fd73daa9b","meta":{"profile":["http://hl7.org/fhir/us/qicore/StructureDefinition/qicore-patient"]},"text":{"status":"generated","div":"<div xmlns=\"http://www.w3.org/1999/xhtml\"><div class=\"hapiHeaderText\">CMP_DayOf_RelvPerStart_1minB4IPEnd_EDEndLT1hrB4Obs_ObsEndLT1hrB4IP <b>DENEXFAIL </b></div><table class=\"hapiPropertyTable\"><tbody><tr><td>Date of birth</td><td><span>01 January 1980</span></td></tr></tbody></table></div>"},"extension":[{"url":"http://hl7.org/fhir/us/core/StructureDefinition/us-core-race","extension":[{"url":"ombCategory","valueCoding":{"system":"urn:oid:2.16.840.1.113883.6.238","code":"2054-5","display":"Black or African American","userSelected":true}},{"url":"text","valueString":"Black or African American"}]},{"url":"http://hl7.org/fhir/us/core/StructureDefinition/us-core-ethnicity","extension":[{"url":"ombCategory","valueCoding":{"system":"urn:oid:2.16.840.1.113883.6.238","code":"2186-5","display":"Not Hispanic or Latino","userSelected":true}},{"url":"text","valueString":"Not Hispanic or Latino"}]}],"identifier":[{"type":{"coding":[{"system":"http://terminology.hl7.org/CodeSystem/v2-0203","code":"MR"}]},"system":"https://bonnie-fhir.healthit.gov/","value":"60f82c3098086b570510e2f1"}],"active":true,"name":[{"use":"usual","family":"DENEXFail","given":["CMP_DayOf_RelvPerStart_1minB4IPEnd_EDEndLT1hrB4Obs_ObsEndLT1hrB4IP"]}],"gender":"female","birthDate":"1981-01-01"},"request":{"method":"PUT","url":"Patient/77bba430-02fc-4ac7-ab49-f57fd73daa9b"}},{"fullUrl":"https://madie.cms.gov/Encounter/150e48e6-1d9e-4be8-be24-b51470d2136b","resource":{"resourceType":"Encounter","id":"150e48e6-1d9e-4be8-be24-b51470d2136b","meta":{"profile":["http://hl7.org/fhir/us/qicore/StructureDefinition/qicore-encounter"]},"status":"finished","class":{"system":"http://terminology.hl7.org/CodeSystem/v3-ActCode","code":"EMER","display":"emergency","userSelected":true},"type":[{"coding":[{"system":"http://snomed.info/sct","code":"4525004"}]}],"subject":{"reference":"Patient/77bba430-02fc-4ac7-ab49-f57fd73daa9b"},"period":{"start":"2026-11-18T07:00:00+00:00","end":"2026-11-18T08:01:00+00:00"},"diagnosis":[{"condition":{"reference":"Condition/f1e20f93-9cc8-4e55-8dca-4e201207f7b0"},"use":{"coding":[{"system":"http://terminology.hl7.org/CodeSystem/diagnosis-role","code":"billing","display":"Billing"}]},"rank":1}]},"request":{"method":"PUT","url":"Encounter/150e48e6-1d9e-4be8-be24-b51470d2136b"}},{"fullUrl":"https://madie.cms.gov/Encounter/58ced0cb-62bb-4cc4-85ae-104558596ac0","resource":{"resourceType":"Encounter","id":"58ced0cb-62bb-4cc4-85ae-104558596ac0","meta":{"profile":["http://hl7.org/fhir/us/qicore/StructureDefinition/qicore-encounter"]},"status":"finished","class":{"system":"http://terminology.hl7.org/CodeSystem/v3-ActCode","code":"OBSENC","display":"observation encounter","userSelected":true},"type":[{"coding":[{"system":"http://snomed.info/sct","code":"448951000124107"}]}],"subject":{"reference":"Patient/77bba430-02fc-4ac7-ab49-f57fd73daa9b"},"period":{"start":"2026-11-18T09:00:00+00:00","end":"2026-11-18T10:01:00+00:00"}},"request":{"method":"PUT","url":"Encounter/58ced0cb-62bb-4cc4-85ae-104558596ac0"}},{"fullUrl":"https://madie.cms.gov/Encounter/2da5c9ad-a678-4c18-8da6-4cbf07d7d554","resource":{"resourceType":"Encounter","id":"2da5c9ad-a678-4c18-8da6-4cbf07d7d554","meta":{"profile":["http://hl7.org/fhir/us/qicore/StructureDefinition/qicore-encounter"]},"status":"finished","class":{"system":"http://terminology.hl7.org/CodeSystem/v3-ActCode","code":"IMP","display":"inpatient encounter","userSelected":true},"type":[{"coding":[{"system":"http://snomed.info/sct","code":"183452005"}]}],"subject":{"reference":"Patient/77bba430-02fc-4ac7-ab49-f57fd73daa9b"},"period":{"start":"2026-11-18T11:00:00+00:00","end":"2026-11-20T08:15:00+00:00"},"diagnosis":[{"condition":{"reference":"Condition/f1e20f93-9cc8-4e55-8dca-4e201207f7b0"},"use":{"coding":[{"system":"http://terminology.hl7.org/CodeSystem/diagnosis-role","code":"billing","display":"Billing"}]},"rank":1}]},"request":{"method":"PUT","url":"Encounter/2da5c9ad-a678-4c18-8da6-4cbf07d7d554"}},{"fullUrl":"https://madie.cms.gov/Procedure/361a42f7-86dd-475a-b8d8-0a4c3766c122","resource":{"resourceType":"Procedure","id":"361a42f7-86dd-475a-b8d8-0a4c3766c122","meta":{"profile":["http://hl7.org/fhir/us/qicore/StructureDefinition/qicore-procedure"]},"extension":[{"url":"http://hl7.org/fhir/us/qicore/StructureDefinition/qicore-recorded","valueDateTime":"2014-04-05T09:35:00-04:00"}],"status":"completed","code":{"coding":[{"system":"http://snomed.info/sct","code":"133918004"}]},"subject":{"reference":"Patient/77bba430-02fc-4ac7-ab49-f57fd73daa9b"},"performedPeriod":{"start":"2026-11-20T08:14:00+00:00","end":"2026-11-20T08:15:00+00:00"}},"request":{"method":"PUT","url":"Procedure/361a42f7-86dd-475a-b8d8-0a4c3766c122"}},{"fullUrl":"https://madie.cms.gov/Condition/f1e20f93-9cc8-4e55-8dca-4e201207f7b0","resource":{"resourceType":"Condition","id":"f1e20f93-9cc8-4e55-8dca-4e201207f7b0","meta":{"profile":["http://hl7.org/fhir/us/qicore/StructureDefinition/qicore-condition"]},"clinicalStatus":{"coding":[{"system":"http://terminology.hl7.org/CodeSystem/condition-clinical","code":"active"}]},"verificationStatus":{"coding":[{"system":"http://terminology.hl7.org/CodeSystem/condition-ver-status","code":"confirmed"}]},"category":[{"coding":[{"system":"http://terminology.hl7.org/CodeSystem/condition-category","code":"encounter-diagnosis","display":"Encounter Diagnosis"}]}],"code":{"coding":[{"system":"http://snomed.info/sct","version":"2020-09","code":"111297002","display":"Nonparalytic stroke (disorder)","userSelected":true}]},"subject":{"reference":"Patient/77bba430-02fc-4ac7-ab49-f57fd73daa9b"},"recordedDate":"2026-08-11T08:00:00.000+00:00"},"request":{"method":"PUT","url":"Condition/f1e20f93-9cc8-4e55-8dca-4e201207f7b0"}},{"fullUrl":"https://madie.cms.gov/Coverage/1a05ae72-055f-4fe8-91b5-525c09049a60","resource":{"resourceType":"Coverage","id":"1a05ae72-055f-4fe8-91b5-525c09049a60","meta":{"profile":["http://hl7.org/fhir/us/qicore/StructureDefinition/qicore-coverage"]},"status":"active","beneficiary":{"reference":"Patient/77bba430-02fc-4ac7-ab49-f57fd73daa9b"},"payor":[{"reference":"Organization/890316dc-a4ad-43b4-ba6f-9fb9e6eca282"}]},"request":{"method":"PUT","url":"Coverage/1a05ae72-055f-4fe8-91b5-525c09049a60"}},{"fullUrl":"https://madie.cms.gov/Organization/014f7fad-1d37-423c-936b-58046d53ad72","resource":{"resourceType":"Organization","id":"890316dc-a4ad-43b4-ba6f-9fb9e6eca282","meta":{"profile":["http://hl7.org/fhir/us/qicore/StructureDefinition/qicore-organization"]},"identifier":[{"use":"temp","system":"urn:oid:2.16.840.1.113883.4.4","value":"21-3259825"}],"active":true,"type":[{"coding":[{"system":"http://terminology.hl7.org/CodeSystem/organization-type","code":"pay","display":"Payer"}]}],"name":"Blue Cross Blue Shield of Texas","telecom":[{"system":"phone","value":"(+1) 972-766-6900"}],"address":[{"use":"billing","type":"postal","line":["P.O. Box 660044"],"city":"Dallas","state":"TX","postalCode":"75266-0044","country":"USA"}]},"request":{"method":"PUT","url":"Organization/890316dc-a4ad-43b4-ba6f-9fb9e6eca282"}},{"fullUrl":"https://madie.cms.gov/MeasureReport/882c65f1-c6a6-4e62-a436-22a81c014451","resource":{"resourceType":"MeasureReport","id":"882c65f1-c6a6-4e62-a436-22a81c014451","meta":{"profile":["http://hl7.org/fhir/us/cqfmeasures/StructureDefinition/test-case-cqfm"]},"contained":[{"resourceType":"Parameters","id":"0580e42b-3830-4529-9208-f4a133e6349a-parameters","parameter":[{"name":"subject","valueString":"77bba430-02fc-4ac7-ab49-f57fd73daa9b"}]}],"extension":[{"url":"http://hl7.org/fhir/us/cqfmeasures/StructureDefinition/cqfm-inputParameters","valueReference":{"reference":"#0580e42b-3830-4529-9208-f4a133e6349a-parameters"}},{"url":"http://hl7.org/fhir/us/cqfmeasures/StructureDefinition/cqfm-testCaseDescription","valueMarkdown":"Patient receives comfort measures performed on the day of hospital arrival,  1 min before IP end. ED ends less than 1 hour before Obs Start, Obs ends less than 1 hour before IP start.\n"}],"modifierExtension":[{"url":"http://hl7.org/fhir/us/cqfmeasures/StructureDefinition/cqfm-isTestCase","valueBoolean":true}],"status":"complete","type":"individual","measure":"https://madie.cms.gov/Measure/CMS72FHIRSTKAntithromboticDay2","period":{"start":"2026-01-01","end":"2026-12-31"},"group":[{"population":[{"code":{"coding":[{"system":"http://terminology.hl7.org/CodeSystem/measure-population","code":"initial-population","display":"Initial Population"}]},"count":1},{"code":{"coding":[{"system":"http://terminology.hl7.org/CodeSystem/measure-population","code":"denominator","display":"Denominator"}]},"count":1},{"code":{"coding":[{"system":"http://terminology.hl7.org/CodeSystem/measure-population","code":"denominator-exclusion","display":"Denominator Exclusion"}]},"count":0},{"code":{"coding":[{"system":"http://terminology.hl7.org/CodeSystem/measure-population","code":"numerator","display":"Numerator"}]},"count":0},{"code":{"coding":[{"system":"http://terminology.hl7.org/CodeSystem/measure-population","code":"denominator-exception","display":"Denominator Exception"}]},"count":0}]}]},"request":{"method":"PUT","url":"MeasureReport/882c65f1-c6a6-4e62-a436-22a81c014451"}}]}