{"resourceType":"Bundle","id":"tests-2f7681fa-66b0-4395-aa35-7622e37709ae-bundle","type":"transaction","entry":[{"fullUrl":"https://madie.cms.gov/Patient/2f7681fa-66b0-4395-aa35-7622e37709ae","resource":{"resourceType":"Patient","id":"2f7681fa-66b0-4395-aa35-7622e37709ae","meta":{"profile":["http://hl7.org/fhir/us/qicore/StructureDefinition/qicore-patient"]},"text":{"status":"generated","div":"<div xmlns=\"http://www.w3.org/1999/xhtml\"><div class=\"hapiHeaderText\">MedOrdPatRefus_eq0dayduringEncIPwEd <b>DENEXCEPPASS </b></div><table class=\"hapiPropertyTable\"><tbody><tr><td>Identifier</td><td>a8f0ca3d384a3a433c9dcace70815483</td></tr><tr><td>Date of birth</td><td><span>26 September 1975</span></td></tr></tbody></table></div>"},"extension":[{"url":"http://hl7.org/fhir/us/core/StructureDefinition/us-core-race","extension":[{"url":"ombCategory","valueCoding":{"system":"urn:oid:2.16.840.1.113883.6.238","code":"1002-5","display":"American Indian or Alaska Native","userSelected":true}},{"url":"text","valueString":"American Indian or Alaska Native"}]},{"url":"http://hl7.org/fhir/us/core/StructureDefinition/us-core-ethnicity","extension":[{"url":"ombCategory","valueCoding":{"system":"urn:oid:2.16.840.1.113883.6.238","code":"2135-2","display":"Hispanic or Latino","userSelected":true}},{"url":"text","valueString":"Hispanic or Latino"}]}],"identifier":[{"type":{"coding":[{"system":"http://terminology.hl7.org/CodeSystem/v2-0203","code":"MR"}]},"system":"https://bonnie-fhir.healthit.gov/","value":"60f82c2e98086b570510e268"}],"active":true,"name":[{"use":"usual","family":"DENEXCEPPass","given":["MedAdmPatRefus_eq0dayduringEncIPwEd"]}],"gender":"female","birthDate":"1976-09-26"},"request":{"method":"PUT","url":"Patient/2f7681fa-66b0-4395-aa35-7622e37709ae"}},{"fullUrl":"https://madie.cms.gov/Encounter/debfb933-89cf-4c8e-b7ca-cef5745aad5a","resource":{"resourceType":"Encounter","id":"debfb933-89cf-4c8e-b7ca-cef5745aad5a","meta":{"profile":["http://hl7.org/fhir/us/qicore/StructureDefinition/qicore-encounter"]},"status":"finished","class":{"system":"http://terminology.hl7.org/CodeSystem/v3-ActCode","code":"EMER","display":"emergency","userSelected":true},"type":[{"coding":[{"system":"http://snomed.info/sct","code":"4525004"}]}],"subject":{"reference":"Patient/2f7681fa-66b0-4395-aa35-7622e37709ae"},"period":{"start":"2026-10-10T08:00:00+00:00","end":"2026-10-10T08:15:00+00:00"},"length":{"value":0,"unit":"days"}},"request":{"method":"PUT","url":"Encounter/debfb933-89cf-4c8e-b7ca-cef5745aad5a"}},{"fullUrl":"https://madie.cms.gov/Encounter/af7fb7a8-c6b6-4613-9b78-07cc36993a86","resource":{"resourceType":"Encounter","id":"af7fb7a8-c6b6-4613-9b78-07cc36993a86","meta":{"profile":["http://hl7.org/fhir/us/qicore/StructureDefinition/qicore-encounter"]},"status":"finished","class":{"system":"http://terminology.hl7.org/CodeSystem/v3-ActCode","code":"IMP","display":"inpatient encounter","userSelected":true},"type":[{"coding":[{"system":"http://snomed.info/sct","code":"32485007"}]}],"subject":{"reference":"Patient/2f7681fa-66b0-4395-aa35-7622e37709ae"},"period":{"start":"2026-10-10T09:00:00+00:00","end":"2026-10-12T11:15:00+00:00"},"length":{"value":2,"unit":"days"},"diagnosis":[{"condition":{"reference":"Condition/4d447012-968e-438c-abf7-5d75350420c2"},"use":{"coding":[{"system":"http://terminology.hl7.org/CodeSystem/diagnosis-role","code":"billing","display":"Billing"}]},"rank":1}]},"request":{"method":"PUT","url":"Encounter/af7fb7a8-c6b6-4613-9b78-07cc36993a86"}},{"fullUrl":"https://madie.cms.gov/MedicationAdministration/9ebe78f7-3cc6-46e6-96ac-3fe2ef4a2f1d","resource":{"resourceType":"MedicationAdministration","id":"9ebe78f7-3cc6-46e6-96ac-3fe2ef4a2f1d","meta":{"profile":["http://hl7.org/fhir/us/qicore/StructureDefinition/qicore-mednotadministered"]},"extension":[{"url":"http://hl7.org/fhir/us/qicore/StructureDefinition/qicore-recorded","valueDateTime":"2026-10-10T09:00:00+00:00"}],"status":"not-done","statusReason":[{"coding":[{"system":"http://snomed.info/sct","code":"443390004","display":"Refused"}]}],"medicationCodeableConcept":{"coding":[{"system":"http://www.nlm.nih.gov/research/umls/rxnorm","code":"1037045"}]},"subject":{"reference":"Patient/2f7681fa-66b0-4395-aa35-7622e37709ae"},"effectivePeriod":{"start":"2026-10-10T09:00:00+00:00"}},"request":{"method":"PUT","url":"MedicationAdministration/9ebe78f7-3cc6-46e6-96ac-3fe2ef4a2f1d"}},{"fullUrl":"https://madie.cms.gov/Coverage/b1f7b519-c076-48c4-b4ea-aee60b9280e7","resource":{"resourceType":"Coverage","id":"b1f7b519-c076-48c4-b4ea-aee60b9280e7","status":"active","beneficiary":{"reference":"Patient/2f7681fa-66b0-4395-aa35-7622e37709ae"},"period":{"start":"1976-09-26T08:00:00+00:00"},"payor":[{"reference":"Organization/f7da4368-fb6d-4d73-a75b-f78024cbb18d"}]},"request":{"method":"PUT","url":"Coverage/b1f7b519-c076-48c4-b4ea-aee60b9280e7"}},{"fullUrl":"https://madie.cms.gov/Condition/4d447012-968e-438c-abf7-5d75350420c2","resource":{"resourceType":"Condition","id":"4d447012-968e-438c-abf7-5d75350420c2","meta":{"profile":["http://hl7.org/fhir/us/qicore/StructureDefinition/qicore-condition"]},"clinicalStatus":{"coding":[{"system":"http://terminology.hl7.org/CodeSystem/condition-clinical","code":"active"}]},"verificationStatus":{"coding":[{"system":"http://terminology.hl7.org/CodeSystem/condition-ver-status","code":"confirmed"}]},"category":[{"coding":[{"system":"http://terminology.hl7.org/CodeSystem/condition-category","code":"encounter-diagnosis","display":"Encounter Diagnosis"}]}],"code":{"coding":[{"system":"http://snomed.info/sct","version":"2020-09","code":"111297002","display":"Nonparalytic stroke (disorder)","userSelected":true}]},"subject":{"reference":"Patient/2f7681fa-66b0-4395-aa35-7622e37709ae"},"recordedDate":"2026-08-06T08:00:00.000+00:00"},"request":{"method":"PUT","url":"Condition/4d447012-968e-438c-abf7-5d75350420c2"}},{"fullUrl":"https://madie.cms.gov/Organization/5754016a-4f6b-4566-b93b-e6a7ad6dde60","resource":{"resourceType":"Organization","id":"f7da4368-fb6d-4d73-a75b-f78024cbb18d","meta":{"profile":["http://hl7.org/fhir/us/qicore/StructureDefinition/qicore-organization"]},"identifier":[{"use":"temp","system":"urn:oid:2.16.840.1.113883.4.4","value":"21-3259825"}],"active":true,"type":[{"coding":[{"system":"http://terminology.hl7.org/CodeSystem/organization-type","code":"pay","display":"Payer"}]}],"name":"Blue Cross Blue Shield of Texas","telecom":[{"system":"phone","value":"(+1) 972-766-6900"}],"address":[{"use":"billing","type":"postal","line":["P.O. Box 660044"],"city":"Dallas","state":"TX","postalCode":"75266-0044","country":"USA"}]},"request":{"method":"PUT","url":"Organization/f7da4368-fb6d-4d73-a75b-f78024cbb18d"}},{"fullUrl":"https://madie.cms.gov/MeasureReport/8ad36c00-3686-41ac-8523-63bcd09910df","resource":{"resourceType":"MeasureReport","id":"8ad36c00-3686-41ac-8523-63bcd09910df","meta":{"profile":["http://hl7.org/fhir/us/cqfmeasures/StructureDefinition/test-case-cqfm"]},"contained":[{"resourceType":"Parameters","id":"89c754ea-19c1-432a-864d-a704efd0afab-parameters","parameter":[{"name":"subject","valueString":"2f7681fa-66b0-4395-aa35-7622e37709ae"}]}],"extension":[{"url":"http://hl7.org/fhir/us/cqfmeasures/StructureDefinition/cqfm-inputParameters","valueReference":{"reference":"#89c754ea-19c1-432a-864d-a704efd0afab-parameters"}},{"url":"http://hl7.org/fhir/us/cqfmeasures/StructureDefinition/cqfm-testCaseDescription","valueMarkdown":"\"ED visit and antithrombotic not administered due to patient refusal\nMedOrdPatRefus_eq 0day during EncIP withEd\"\n"}],"modifierExtension":[{"url":"http://hl7.org/fhir/us/cqfmeasures/StructureDefinition/cqfm-isTestCase","valueBoolean":true}],"status":"complete","type":"individual","measure":"https://madie.cms.gov/Measure/CMS72FHIRSTKAntithromboticDay2","period":{"start":"2026-01-01","end":"2026-12-31"},"group":[{"population":[{"code":{"coding":[{"system":"http://terminology.hl7.org/CodeSystem/measure-population","code":"initial-population","display":"Initial Population"}]},"count":1},{"code":{"coding":[{"system":"http://terminology.hl7.org/CodeSystem/measure-population","code":"denominator","display":"Denominator"}]},"count":1},{"code":{"coding":[{"system":"http://terminology.hl7.org/CodeSystem/measure-population","code":"denominator-exclusion","display":"Denominator Exclusion"}]},"count":0},{"code":{"coding":[{"system":"http://terminology.hl7.org/CodeSystem/measure-population","code":"numerator","display":"Numerator"}]},"count":0},{"code":{"coding":[{"system":"http://terminology.hl7.org/CodeSystem/measure-population","code":"denominator-exception","display":"Denominator Exception"}]},"count":1}]}]},"request":{"method":"PUT","url":"MeasureReport/8ad36c00-3686-41ac-8523-63bcd09910df"}}]}