{"resourceType":"Bundle","id":"tests-8873f644-9b17-4ee1-9152-8c77c7374bd1-bundle","type":"transaction","entry":[{"fullUrl":"https://madie.cms.gov/Patient/8873f644-9b17-4ee1-9152-8c77c7374bd1","resource":{"resourceType":"Patient","id":"8873f644-9b17-4ee1-9152-8c77c7374bd1","meta":{"profile":["http://hl7.org/fhir/us/qicore/StructureDefinition/qicore-patient"]},"text":{"status":"generated","div":"<div xmlns=\"http://www.w3.org/1999/xhtml\"><div class=\"hapiHeaderText\">CMP=1Day_DuringEncIP <b>DENEXPASS </b></div><table class=\"hapiPropertyTable\"><tbody><tr><td>Identifier</td><td>912400d032c570bbcae9bbdbf6e22fb5</td></tr><tr><td>Date of birth</td><td><span>26 September 1975</span></td></tr></tbody></table></div>"},"extension":[{"url":"http://hl7.org/fhir/us/core/StructureDefinition/us-core-race","extension":[{"url":"ombCategory","valueCoding":{"system":"urn:oid:2.16.840.1.113883.6.238","code":"2054-5","display":"Black or African American","userSelected":true}},{"url":"text","valueString":"Black or African American"}]},{"url":"http://hl7.org/fhir/us/core/StructureDefinition/us-core-ethnicity","extension":[{"url":"ombCategory","valueCoding":{"system":"urn:oid:2.16.840.1.113883.6.238","code":"2186-5","display":"Not Hispanic or Latino","userSelected":true}},{"url":"text","valueString":"Not Hispanic or Latino"}]}],"identifier":[{"type":{"coding":[{"system":"http://terminology.hl7.org/CodeSystem/v2-0203","code":"MR"}]},"system":"https://bonnie-fhir.healthit.gov/","value":"60f82c2e98086b570510e266"}],"active":true,"name":[{"use":"usual","family":"DENEXPass","given":["CMP=1Day_DuringEncIP"]}],"gender":"female","birthDate":"1976-09-26"},"request":{"method":"PUT","url":"Patient/8873f644-9b17-4ee1-9152-8c77c7374bd1"}},{"fullUrl":"https://madie.cms.gov/Encounter/d98fa25c-c7a6-4395-847b-062a37b26bba","resource":{"resourceType":"Encounter","id":"d98fa25c-c7a6-4395-847b-062a37b26bba","meta":{"profile":["http://hl7.org/fhir/us/qicore/StructureDefinition/qicore-encounter"]},"status":"finished","class":{"system":"http://terminology.hl7.org/CodeSystem/v3-ActCode","code":"EMER","display":"emergency","userSelected":true},"type":[{"coding":[{"system":"http://snomed.info/sct","code":"4525004"}]}],"subject":{"reference":"Patient/8873f644-9b17-4ee1-9152-8c77c7374bd1"},"period":{"start":"2026-10-10T04:00:00+00:00","end":"2026-10-10T06:15:00+00:00"},"length":{"value":0,"unit":"days"}},"request":{"method":"PUT","url":"Encounter/d98fa25c-c7a6-4395-847b-062a37b26bba"}},{"fullUrl":"https://madie.cms.gov/Encounter/18dcb1d4-f7d8-4d75-8e5c-c50749f0d473","resource":{"resourceType":"Encounter","id":"18dcb1d4-f7d8-4d75-8e5c-c50749f0d473","meta":{"profile":["http://hl7.org/fhir/us/qicore/StructureDefinition/qicore-encounter"]},"status":"finished","class":{"system":"http://terminology.hl7.org/CodeSystem/v3-ActCode","code":"IMP","display":"inpatient encounter","userSelected":true},"type":[{"coding":[{"system":"http://snomed.info/sct","code":"32485007"}]}],"subject":{"reference":"Patient/8873f644-9b17-4ee1-9152-8c77c7374bd1"},"period":{"start":"2026-10-10T06:16:00+00:00","end":"2026-10-12T06:31:00+00:00"},"length":{"value":2,"unit":"days"},"diagnosis":[{"condition":{"reference":"Condition/09505d09-fcde-4efe-b0c1-41cad5985dab"},"use":{"coding":[{"system":"http://terminology.hl7.org/CodeSystem/diagnosis-role","code":"billing","display":"Billing"}]},"rank":1}]},"request":{"method":"PUT","url":"Encounter/18dcb1d4-f7d8-4d75-8e5c-c50749f0d473"}},{"fullUrl":"https://madie.cms.gov/Procedure/e9fbdcdb-0ae4-4f85-8e19-ece80e88d5e4","resource":{"resourceType":"Procedure","id":"e9fbdcdb-0ae4-4f85-8e19-ece80e88d5e4","meta":{"profile":["http://hl7.org/fhir/us/qicore/StructureDefinition/qicore-procedure"]},"extension":[{"url":"http://hl7.org/fhir/us/qicore/StructureDefinition/qicore-recorded","valueDateTime":"2026-11-19T09:35:00-04:00"}],"status":"completed","code":{"coding":[{"system":"http://snomed.info/sct","code":"133918004"}]},"subject":{"reference":"Patient/8873f644-9b17-4ee1-9152-8c77c7374bd1"},"performedPeriod":{"start":"2026-10-11T23:59:00+00:00"}},"request":{"method":"PUT","url":"Procedure/e9fbdcdb-0ae4-4f85-8e19-ece80e88d5e4"}},{"fullUrl":"https://madie.cms.gov/Coverage/c9297fc2-695c-42e4-9a69-25ef454dcae7","resource":{"resourceType":"Coverage","id":"c9297fc2-695c-42e4-9a69-25ef454dcae7","status":"active","beneficiary":{"reference":"Patient/8873f644-9b17-4ee1-9152-8c77c7374bd1"},"period":{"start":"1976-09-26T08:00:00+00:00"},"payor":[{"reference":"Organization/80e3e0d1-b2aa-43a6-b1d2-00bfa3164a0f"}]},"request":{"method":"PUT","url":"Coverage/c9297fc2-695c-42e4-9a69-25ef454dcae7"}},{"fullUrl":"https://madie.cms.gov/Condition/09505d09-fcde-4efe-b0c1-41cad5985dab","resource":{"resourceType":"Condition","id":"09505d09-fcde-4efe-b0c1-41cad5985dab","meta":{"profile":["http://hl7.org/fhir/us/qicore/StructureDefinition/qicore-condition"]},"clinicalStatus":{"coding":[{"system":"http://terminology.hl7.org/CodeSystem/condition-clinical","code":"active"}]},"verificationStatus":{"coding":[{"system":"http://terminology.hl7.org/CodeSystem/condition-ver-status","code":"confirmed"}]},"category":[{"coding":[{"system":"http://terminology.hl7.org/CodeSystem/condition-category","code":"encounter-diagnosis","display":"Encounter Diagnosis"}]}],"code":{"coding":[{"system":"http://snomed.info/sct","version":"2020-09","code":"111297002","display":"Nonparalytic stroke (disorder)","userSelected":true}]},"subject":{"reference":"Patient/8873f644-9b17-4ee1-9152-8c77c7374bd1"},"recordedDate":"2026-08-13T08:00:00.000+00:00"},"request":{"method":"PUT","url":"Condition/09505d09-fcde-4efe-b0c1-41cad5985dab"}},{"fullUrl":"https://madie.cms.gov/Organization/6ba380e5-2a83-4980-94c5-1de71eb1ecdc","resource":{"resourceType":"Organization","id":"80e3e0d1-b2aa-43a6-b1d2-00bfa3164a0f","meta":{"profile":["http://hl7.org/fhir/us/qicore/StructureDefinition/qicore-organization"]},"identifier":[{"use":"temp","system":"urn:oid:2.16.840.1.113883.4.4","value":"21-3259825"}],"active":true,"type":[{"coding":[{"system":"http://terminology.hl7.org/CodeSystem/organization-type","code":"pay","display":"Payer"}]}],"name":"Blue Cross Blue Shield of Texas","telecom":[{"system":"phone","value":"(+1) 972-766-6900"}],"address":[{"use":"billing","type":"postal","line":["P.O. Box 660044"],"city":"Dallas","state":"TX","postalCode":"75266-0044","country":"USA"}]},"request":{"method":"PUT","url":"Organization/80e3e0d1-b2aa-43a6-b1d2-00bfa3164a0f"}},{"fullUrl":"https://madie.cms.gov/MeasureReport/335a8f8a-e4d3-4c82-8c75-24c5881c760f","resource":{"resourceType":"MeasureReport","id":"335a8f8a-e4d3-4c82-8c75-24c5881c760f","meta":{"profile":["http://hl7.org/fhir/us/cqfmeasures/StructureDefinition/test-case-cqfm"]},"contained":[{"resourceType":"Parameters","id":"a7b2258b-308b-4eb3-b0bd-6040bb745718-parameters","parameter":[{"name":"subject","valueString":"8873f644-9b17-4ee1-9152-8c77c7374bd1"}]}],"extension":[{"url":"http://hl7.org/fhir/us/cqfmeasures/StructureDefinition/cqfm-inputParameters","valueReference":{"reference":"#a7b2258b-308b-4eb3-b0bd-6040bb745718-parameters"}},{"url":"http://hl7.org/fhir/us/cqfmeasures/StructureDefinition/cqfm-testCaseDescription","valueMarkdown":"Patient receives comfort measures performed <= 1 (=1 day) day during IP encounter\n"}],"modifierExtension":[{"url":"http://hl7.org/fhir/us/cqfmeasures/StructureDefinition/cqfm-isTestCase","valueBoolean":true}],"status":"complete","type":"individual","measure":"https://madie.cms.gov/Measure/CMS72FHIRSTKAntithromboticDay2","period":{"start":"2026-01-01","end":"2026-12-31"},"group":[{"population":[{"code":{"coding":[{"system":"http://terminology.hl7.org/CodeSystem/measure-population","code":"initial-population","display":"Initial Population"}]},"count":1},{"code":{"coding":[{"system":"http://terminology.hl7.org/CodeSystem/measure-population","code":"denominator","display":"Denominator"}]},"count":1},{"code":{"coding":[{"system":"http://terminology.hl7.org/CodeSystem/measure-population","code":"denominator-exclusion","display":"Denominator Exclusion"}]},"count":1},{"code":{"coding":[{"system":"http://terminology.hl7.org/CodeSystem/measure-population","code":"numerator","display":"Numerator"}]},"count":0},{"code":{"coding":[{"system":"http://terminology.hl7.org/CodeSystem/measure-population","code":"denominator-exception","display":"Denominator Exception"}]},"count":0}]}]},"request":{"method":"PUT","url":"MeasureReport/335a8f8a-e4d3-4c82-8c75-24c5881c760f"}}]}