{"resourceType":"Bundle","id":"tests-9f4bc5cc-b5a4-4d67-a11f-9f171b62fd9f-bundle","type":"transaction","entry":[{"fullUrl":"https://madie.cms.gov/Patient/9f4bc5cc-b5a4-4d67-a11f-9f171b62fd9f","resource":{"resourceType":"Patient","id":"9f4bc5cc-b5a4-4d67-a11f-9f171b62fd9f","meta":{"profile":["http://hl7.org/fhir/us/qicore/StructureDefinition/qicore-patient"]},"text":{"status":"generated","div":"<div xmlns=\"http://www.w3.org/1999/xhtml\"><div class=\"hapiHeaderText\">TPADocumentB4EncStart <b>DENEXFAIL </b></div><table class=\"hapiPropertyTable\"><tbody><tr><td>Identifier</td><td>664428f9fe85f1e578781fb1b380e14d63faa1477ab453cbf0bdc52993a87621</td></tr><tr><td>Date of birth</td><td><span>26 September 1975</span></td></tr></tbody></table></div>"},"extension":[{"url":"http://hl7.org/fhir/us/core/StructureDefinition/us-core-race","extension":[{"url":"ombCategory","valueCoding":{"system":"urn:oid:2.16.840.1.113883.6.238","code":"2054-5","display":"Black or African American","userSelected":true}},{"url":"text","valueString":"Black or African American"}]},{"url":"http://hl7.org/fhir/us/core/StructureDefinition/us-core-ethnicity","extension":[{"url":"ombCategory","valueCoding":{"system":"urn:oid:2.16.840.1.113883.6.238","code":"2186-5","display":"Not Hispanic or Latino","userSelected":true}},{"url":"text","valueString":"Not Hispanic or Latino"}]}],"identifier":[{"type":{"coding":[{"system":"http://terminology.hl7.org/CodeSystem/v2-0203","code":"MR"}]},"system":"https://bonnie-fhir.healthit.gov/","value":"60f82c2f98086b570510e29c"}],"active":true,"name":[{"use":"usual","family":"DENEXFAIL","given":["TPADocumentB4EncStart"]}],"gender":"female","birthDate":"1976-09-26"},"request":{"method":"PUT","url":"Patient/9f4bc5cc-b5a4-4d67-a11f-9f171b62fd9f"}},{"fullUrl":"https://madie.cms.gov/Condition/b725a880-bf9f-45db-af47-067f91f7f062","resource":{"resourceType":"Condition","id":"b725a880-bf9f-45db-af47-067f91f7f062","meta":{"profile":["http://hl7.org/fhir/us/qicore/StructureDefinition/qicore-condition"]},"category":[{"coding":[{"system":"http://terminology.hl7.org/CodeSystem/condition-category","code":"encounter-diagnosis","display":"Encounter Diagnosis"}]}],"code":{"coding":[{"system":"http://hl7.org/fhir/sid/icd-10-cm","code":"Z92.82"}]},"subject":{"reference":"Patient/9f4bc5cc-b5a4-4d67-a11f-9f171b62fd9f"},"onsetDateTime":"2026-10-10T06:14:00+00:00","recordedDate":"2026-10-10T06:14:00+00:00"},"request":{"method":"PUT","url":"Condition/b725a880-bf9f-45db-af47-067f91f7f062"}},{"fullUrl":"https://madie.cms.gov/Encounter/f01a09f4-438d-4c8b-9f81-9af7c8145d67","resource":{"resourceType":"Encounter","id":"f01a09f4-438d-4c8b-9f81-9af7c8145d67","meta":{"profile":["http://hl7.org/fhir/us/qicore/StructureDefinition/qicore-encounter"]},"status":"finished","class":{"system":"http://terminology.hl7.org/CodeSystem/v3-ActCode","code":"IMP","display":"inpatient encounter","userSelected":true},"type":[{"coding":[{"system":"http://snomed.info/sct","code":"32485007"}]}],"subject":{"reference":"Patient/9f4bc5cc-b5a4-4d67-a11f-9f171b62fd9f"},"period":{"start":"2026-10-10T06:15:00+00:00","end":"2026-10-24T11:30:00+00:00"},"length":{"value":14,"unit":"days"},"diagnosis":[{"condition":{"reference":"Condition/99d8a237-8dde-48e0-94a3-f803698452d0"},"use":{"coding":[{"system":"http://terminology.hl7.org/CodeSystem/diagnosis-role","code":"billing","display":"Billing"}]},"rank":1}]},"request":{"method":"PUT","url":"Encounter/f01a09f4-438d-4c8b-9f81-9af7c8145d67"}},{"fullUrl":"https://madie.cms.gov/Coverage/372cfaba-d07d-42bd-b94d-e9d3e19161ce","resource":{"resourceType":"Coverage","id":"372cfaba-d07d-42bd-b94d-e9d3e19161ce","status":"active","beneficiary":{"reference":"Patient/9f4bc5cc-b5a4-4d67-a11f-9f171b62fd9f"},"period":{"start":"1976-09-26T08:00:00+00:00"},"payor":[{"reference":"Organization/f7da4368-fb6d-4d73-a75b-f78024cbb18d"}]},"request":{"method":"PUT","url":"Coverage/372cfaba-d07d-42bd-b94d-e9d3e19161ce"}},{"fullUrl":"https://madie.cms.gov/Condition/99d8a237-8dde-48e0-94a3-f803698452d0","resource":{"resourceType":"Condition","id":"99d8a237-8dde-48e0-94a3-f803698452d0","meta":{"profile":["http://hl7.org/fhir/us/qicore/StructureDefinition/qicore-condition"]},"clinicalStatus":{"coding":[{"system":"http://terminology.hl7.org/CodeSystem/condition-clinical","code":"active"}]},"verificationStatus":{"coding":[{"system":"http://terminology.hl7.org/CodeSystem/condition-ver-status","code":"confirmed"}]},"category":[{"coding":[{"system":"http://terminology.hl7.org/CodeSystem/condition-category","code":"encounter-diagnosis","display":"Encounter Diagnosis"}]}],"code":{"coding":[{"system":"http://snomed.info/sct","version":"2020-09","code":"111297002","display":"Nonparalytic stroke (disorder)","userSelected":true}]},"subject":{"reference":"Patient/9f4bc5cc-b5a4-4d67-a11f-9f171b62fd9f"},"recordedDate":"2026-08-10T08:00:00.000+00:00"},"request":{"method":"PUT","url":"Condition/99d8a237-8dde-48e0-94a3-f803698452d0"}},{"fullUrl":"https://madie.cms.gov/Organization/180d80a5-e677-46a0-8f28-40b06e06f2fc","resource":{"resourceType":"Organization","id":"f7da4368-fb6d-4d73-a75b-f78024cbb18d","meta":{"profile":["http://hl7.org/fhir/us/qicore/StructureDefinition/qicore-organization"]},"identifier":[{"use":"temp","system":"urn:oid:2.16.840.1.113883.4.4","value":"21-3259825"}],"active":true,"type":[{"coding":[{"system":"http://terminology.hl7.org/CodeSystem/organization-type","code":"pay","display":"Payer"}]}],"name":"Blue Cross Blue Shield of Texas","telecom":[{"system":"phone","value":"(+1) 972-766-6900"}],"address":[{"use":"billing","type":"postal","line":["P.O. Box 660044"],"city":"Dallas","state":"TX","postalCode":"75266-0044","country":"USA"}]},"request":{"method":"PUT","url":"Organization/f7da4368-fb6d-4d73-a75b-f78024cbb18d"}},{"fullUrl":"https://madie.cms.gov/MeasureReport/90e28995-7361-42b1-bac6-cc23810c4c86","resource":{"resourceType":"MeasureReport","id":"90e28995-7361-42b1-bac6-cc23810c4c86","meta":{"profile":["http://hl7.org/fhir/us/cqfmeasures/StructureDefinition/test-case-cqfm"]},"contained":[{"resourceType":"Parameters","id":"a56e6740-060f-433c-8b0a-d4709a92e0f6-parameters","parameter":[{"name":"subject","valueString":"9f4bc5cc-b5a4-4d67-a11f-9f171b62fd9f"}]}],"extension":[{"url":"http://hl7.org/fhir/us/cqfmeasures/StructureDefinition/cqfm-inputParameters","valueReference":{"reference":"#a56e6740-060f-433c-8b0a-d4709a92e0f6-parameters"}},{"url":"http://hl7.org/fhir/us/cqfmeasures/StructureDefinition/cqfm-testCaseDescription","valueMarkdown":"Thrombolytic therapy diagnosis documented as given before IP start.\n"}],"modifierExtension":[{"url":"http://hl7.org/fhir/us/cqfmeasures/StructureDefinition/cqfm-isTestCase","valueBoolean":true}],"status":"complete","type":"individual","measure":"https://madie.cms.gov/Measure/CMS72FHIRSTKAntithromboticDay2","period":{"start":"2026-01-01","end":"2026-12-31"},"group":[{"population":[{"code":{"coding":[{"system":"http://terminology.hl7.org/CodeSystem/measure-population","code":"initial-population","display":"Initial Population"}]},"count":1},{"code":{"coding":[{"system":"http://terminology.hl7.org/CodeSystem/measure-population","code":"denominator","display":"Denominator"}]},"count":1},{"code":{"coding":[{"system":"http://terminology.hl7.org/CodeSystem/measure-population","code":"denominator-exclusion","display":"Denominator Exclusion"}]},"count":0},{"code":{"coding":[{"system":"http://terminology.hl7.org/CodeSystem/measure-population","code":"numerator","display":"Numerator"}]},"count":0},{"code":{"coding":[{"system":"http://terminology.hl7.org/CodeSystem/measure-population","code":"denominator-exception","display":"Denominator Exception"}]},"count":0}]}]},"request":{"method":"PUT","url":"MeasureReport/90e28995-7361-42b1-bac6-cc23810c4c86"}}]}