{"resourceType":"Bundle","id":"tests-e0286677-4610-4138-b9fe-3ed648ed45f8-bundle","type":"transaction","entry":[{"fullUrl":"https://madie.cms.gov/Patient/e0286677-4610-4138-b9fe-3ed648ed45f8","resource":{"resourceType":"Patient","id":"e0286677-4610-4138-b9fe-3ed648ed45f8","meta":{"profile":["http://hl7.org/fhir/us/qicore/StructureDefinition/qicore-patient"]},"text":{"status":"generated","div":"<div xmlns=\"http://www.w3.org/1999/xhtml\"><div class=\"hapiHeaderText\">CustomCode <b>NUMERFAIL </b></div><table class=\"hapiPropertyTable\"><tbody><tr><td>Identifier</td><td>b369a681d6ea0d0e36f55c4f2fb13e64</td></tr><tr><td>Date of birth</td><td><span>21 August 1994</span></td></tr></tbody></table></div>"},"extension":[{"url":"http://hl7.org/fhir/us/core/StructureDefinition/us-core-race","extension":[{"url":"ombCategory","valueCoding":{"system":"urn:oid:2.16.840.1.113883.6.238","code":"1002-5","display":"American Indian or Alaska Native","userSelected":true}},{"url":"text","valueString":"American Indian or Alaska Native"}]},{"url":"http://hl7.org/fhir/us/core/StructureDefinition/us-core-ethnicity","extension":[{"url":"ombCategory","valueCoding":{"system":"urn:oid:2.16.840.1.113883.6.238","code":"2186-5","display":"Not Hispanic or Latino","userSelected":true}},{"url":"text","valueString":"Not Hispanic or Latino"}]}],"identifier":[{"type":{"coding":[{"system":"http://terminology.hl7.org/CodeSystem/v2-0203","code":"MR"}]},"system":"https://bonnie-fhir.healthit.gov/","value":"60f82c2e98086b570510e28c"}],"active":true,"name":[{"use":"usual","family":"NUMERFail","given":["CustomCode"]}],"gender":"male","birthDate":"1995-08-21"},"request":{"method":"PUT","url":"Patient/e0286677-4610-4138-b9fe-3ed648ed45f8"}},{"fullUrl":"https://madie.cms.gov/Encounter/ab07a415-69f6-46b0-8995-dc01fe93c4ee","resource":{"resourceType":"Encounter","id":"ab07a415-69f6-46b0-8995-dc01fe93c4ee","meta":{"profile":["http://hl7.org/fhir/us/qicore/StructureDefinition/qicore-encounter"]},"status":"finished","class":{"system":"http://terminology.hl7.org/CodeSystem/v3-ActCode","code":"IMP","display":"inpatient encounter"},"type":[{"coding":[{"system":"http://snomed.info/sct","code":"32485007"}]}],"subject":{"reference":"Patient/e0286677-4610-4138-b9fe-3ed648ed45f8"},"period":{"start":"2026-10-10T09:30:00+00:00","end":"2026-10-12T10:30:00+00:00"},"length":{"value":2,"unit":"days"},"diagnosis":[{"condition":{"reference":"Condition/a51afe23-3c9c-4e14-add8-815ef564d498"},"use":{"coding":[{"system":"http://terminology.hl7.org/CodeSystem/diagnosis-role","code":"billing","display":"Billing"}]},"rank":1}]},"request":{"method":"PUT","url":"Encounter/ab07a415-69f6-46b0-8995-dc01fe93c4ee"}},{"fullUrl":"https://madie.cms.gov/MedicationAdministration/e2a1055c-2895-40a4-b25d-5a8558173ffb","resource":{"resourceType":"MedicationAdministration","id":"e2a1055c-2895-40a4-b25d-5a8558173ffb","meta":{"profile":["http://hl7.org/fhir/us/qicore/StructureDefinition/qicore-medicationadministration"]},"status":"completed","medicationCodeableConcept":{"coding":[{"system":"http://www.nlm.nih.gov/research/umls/rxnorm","code":"1006608"}]},"subject":{"reference":"Patient/e0286677-4610-4138-b9fe-3ed648ed45f8"},"effectivePeriod":{"start":"2026-10-10T10:00:00+00:00","end":"2026-10-10T11:15:00+00:00"}},"request":{"method":"PUT","url":"MedicationAdministration/e2a1055c-2895-40a4-b25d-5a8558173ffb"}},{"fullUrl":"https://madie.cms.gov/Coverage/40b52d74-df7a-4d16-8c09-99617f19ad1e","resource":{"resourceType":"Coverage","id":"40b52d74-df7a-4d16-8c09-99617f19ad1e","status":"active","beneficiary":{"reference":"Patient/e0286677-4610-4138-b9fe-3ed648ed45f8"},"period":{"start":"1995-08-21T08:00:00+00:00"},"payor":[{"reference":"Organization/db141f66-a1cc-407b-9e95-adac27adee14"}]},"request":{"method":"PUT","url":"Coverage/40b52d74-df7a-4d16-8c09-99617f19ad1e"}},{"fullUrl":"https://madie.cms.gov/Condition/a51afe23-3c9c-4e14-add8-815ef564d498","resource":{"resourceType":"Condition","id":"a51afe23-3c9c-4e14-add8-815ef564d498","meta":{"profile":["http://hl7.org/fhir/us/qicore/StructureDefinition/qicore-condition"]},"clinicalStatus":{"coding":[{"system":"http://terminology.hl7.org/CodeSystem/condition-clinical","code":"active"}]},"verificationStatus":{"coding":[{"system":"http://terminology.hl7.org/CodeSystem/condition-ver-status","code":"confirmed"}]},"category":[{"coding":[{"system":"http://terminology.hl7.org/CodeSystem/condition-category","code":"encounter-diagnosis","display":"Encounter Diagnosis"}]}],"code":{"coding":[{"system":"http://snomed.info/sct","version":"2020-09","code":"111297002","display":"Nonparalytic stroke (disorder)","userSelected":true}]},"subject":{"reference":"Patient/e0286677-4610-4138-b9fe-3ed648ed45f8"},"recordedDate":"2026-08-16T08:00:00.000+00:00"},"request":{"method":"PUT","url":"Condition/a51afe23-3c9c-4e14-add8-815ef564d498"}},{"fullUrl":"https://madie.cms.gov/Organization/df0c87a9-b3a3-4abc-b381-2b6852f0402e","resource":{"resourceType":"Organization","id":"db141f66-a1cc-407b-9e95-adac27adee14","meta":{"profile":["http://hl7.org/fhir/us/qicore/StructureDefinition/qicore-organization"]},"identifier":[{"use":"temp","system":"urn:oid:2.16.840.1.113883.4.4","value":"21-3259825"}],"active":true,"type":[{"coding":[{"system":"http://terminology.hl7.org/CodeSystem/organization-type","code":"pay","display":"Payer"}]}],"name":"Blue Cross Blue Shield of Texas","telecom":[{"system":"phone","value":"(+1) 972-766-6900"}],"address":[{"use":"billing","type":"postal","line":["P.O. Box 660044"],"city":"Dallas","state":"TX","postalCode":"75266-0044","country":"USA"}]},"request":{"method":"PUT","url":"Organization/db141f66-a1cc-407b-9e95-adac27adee14"}},{"fullUrl":"https://madie.cms.gov/Practitioner/d09a5c5c-749f-4e7e-ac8a-941b4f84a6aa","resource":{"resourceType":"Practitioner","id":"d09a5c5c-749f-4e7e-ac8a-941b4f84a6aa","identifier":[{"system":"http://hl7.org/fhir/sid/us-npi","value":"123456"}],"name":[{"family":"Evil","prefix":["Dr"]}]},"request":{"method":"PUT","url":"Practitioner/d09a5c5c-749f-4e7e-ac8a-941b4f84a6aa"}},{"fullUrl":"https://madie.cms.gov/MeasureReport/13757219-7298-4153-9c97-a09508de950b","resource":{"resourceType":"MeasureReport","id":"13757219-7298-4153-9c97-a09508de950b","meta":{"profile":["http://hl7.org/fhir/us/cqfmeasures/StructureDefinition/test-case-cqfm"]},"contained":[{"resourceType":"Parameters","id":"3a1cd411-5ffc-42b5-ab3b-58bb8a67b6d7-parameters","parameter":[{"name":"subject","valueString":"e0286677-4610-4138-b9fe-3ed648ed45f8"}]}],"extension":[{"url":"http://hl7.org/fhir/us/cqfmeasures/StructureDefinition/cqfm-inputParameters","valueReference":{"reference":"#3a1cd411-5ffc-42b5-ab3b-58bb8a67b6d7-parameters"}},{"url":"http://hl7.org/fhir/us/cqfmeasures/StructureDefinition/cqfm-testCaseDescription","valueMarkdown":"Patient is 18 with Non-Elective Inpatient Encounter (LOS 120 days) with principal diagnosis of ischemic stroke ends during MP received medication not found in antithrombotic value set during IP encounter\n"}],"modifierExtension":[{"url":"http://hl7.org/fhir/us/cqfmeasures/StructureDefinition/cqfm-isTestCase","valueBoolean":true}],"status":"complete","type":"individual","measure":"https://madie.cms.gov/Measure/CMS72FHIRSTKAntithromboticDay2","period":{"start":"2026-01-01","end":"2026-12-31"},"group":[{"population":[{"code":{"coding":[{"system":"http://terminology.hl7.org/CodeSystem/measure-population","code":"initial-population","display":"Initial Population"}]},"count":1},{"code":{"coding":[{"system":"http://terminology.hl7.org/CodeSystem/measure-population","code":"denominator","display":"Denominator"}]},"count":1},{"code":{"coding":[{"system":"http://terminology.hl7.org/CodeSystem/measure-population","code":"denominator-exclusion","display":"Denominator Exclusion"}]},"count":0},{"code":{"coding":[{"system":"http://terminology.hl7.org/CodeSystem/measure-population","code":"numerator","display":"Numerator"}]},"count":0},{"code":{"coding":[{"system":"http://terminology.hl7.org/CodeSystem/measure-population","code":"denominator-exception","display":"Denominator Exception"}]},"count":0}]}]},"request":{"method":"PUT","url":"MeasureReport/13757219-7298-4153-9c97-a09508de950b"}}]}