{"resourceType":"Bundle","id":"tests-f0289acb-3172-4690-8b6a-dbd4d4913db5-bundle","type":"transaction","entry":[{"fullUrl":"https://madie.cms.gov/Patient/f0289acb-3172-4690-8b6a-dbd4d4913db5","resource":{"resourceType":"Patient","id":"f0289acb-3172-4690-8b6a-dbd4d4913db5","meta":{"profile":["http://hl7.org/fhir/us/qicore/StructureDefinition/qicore-patient"]},"text":{"status":"generated","div":"<div xmlns=\"http://www.w3.org/1999/xhtml\"><div class=\"hapiHeaderText\">LOS&lt;2DaysNoEd <b>DENEXPASS </b></div><table class=\"hapiPropertyTable\"><tbody><tr><td>Identifier</td><td>4fd55685c1a03f29e7785ea7ae3bc81a</td></tr><tr><td>Date of birth</td><td><span>26 September 1975</span></td></tr></tbody></table></div>"},"extension":[{"url":"http://hl7.org/fhir/us/core/StructureDefinition/us-core-race","extension":[{"url":"ombCategory","valueCoding":{"system":"urn:oid:2.16.840.1.113883.6.238","code":"2054-5","display":"Black or African American","userSelected":true}},{"url":"text","valueString":"Black or African American"}]},{"url":"http://hl7.org/fhir/us/core/StructureDefinition/us-core-ethnicity","extension":[{"url":"ombCategory","valueCoding":{"system":"urn:oid:2.16.840.1.113883.6.238","code":"2186-5","display":"Not Hispanic or Latino","userSelected":true}},{"url":"text","valueString":"Not Hispanic or Latino"}]}],"identifier":[{"type":{"coding":[{"system":"http://terminology.hl7.org/CodeSystem/v2-0203","code":"MR"}]},"system":"https://bonnie-fhir.healthit.gov/","value":"60f82c2e98086b570510e27c"}],"active":true,"name":[{"use":"usual","family":"DENEXPass","given":["LOS<2DaysNoEd"]}],"gender":"female","birthDate":"1976-09-26"},"request":{"method":"PUT","url":"Patient/f0289acb-3172-4690-8b6a-dbd4d4913db5"}},{"fullUrl":"https://madie.cms.gov/Encounter/8c1fe479-f965-4f1b-9e87-12a3d9a4638d","resource":{"resourceType":"Encounter","id":"8c1fe479-f965-4f1b-9e87-12a3d9a4638d","meta":{"profile":["http://hl7.org/fhir/us/qicore/StructureDefinition/qicore-encounter"]},"status":"finished","class":{"system":"http://terminology.hl7.org/CodeSystem/v3-ActCode","code":"IMP","display":"inpatient encounter"},"type":[{"coding":[{"system":"http://snomed.info/sct","code":"32485007"}]}],"subject":{"reference":"Patient/f0289acb-3172-4690-8b6a-dbd4d4913db5"},"period":{"start":"2026-10-10T09:00:00+00:00","end":"2026-10-11T00:40:00+00:00"},"length":{"value":1,"unit":"days"},"diagnosis":[{"condition":{"reference":"Condition/735c9294-c976-4837-bea2-03ccd85629c6"},"use":{"coding":[{"system":"http://terminology.hl7.org/CodeSystem/diagnosis-role","code":"billing","display":"Billing"}]},"rank":1}]},"request":{"method":"PUT","url":"Encounter/8c1fe479-f965-4f1b-9e87-12a3d9a4638d"}},{"fullUrl":"https://madie.cms.gov/MedicationAdministration/402c3c1f-b91e-494c-b3fc-d7594b5a4db8","resource":{"resourceType":"MedicationAdministration","id":"402c3c1f-b91e-494c-b3fc-d7594b5a4db8","meta":{"profile":["http://hl7.org/fhir/us/qicore/StructureDefinition/qicore-medicationadministration"]},"status":"completed","medicationCodeableConcept":{"coding":[{"system":"http://www.nlm.nih.gov/research/umls/rxnorm","code":"198466"}]},"subject":{"reference":"Patient/f0289acb-3172-4690-8b6a-dbd4d4913db5"},"effectivePeriod":{"start":"2026-10-11T23:59:00+00:00"}},"request":{"method":"PUT","url":"MedicationAdministration/402c3c1f-b91e-494c-b3fc-d7594b5a4db8"}},{"fullUrl":"https://madie.cms.gov/Coverage/2a255035-5fbe-4857-9a55-facd05fb28d0","resource":{"resourceType":"Coverage","id":"2a255035-5fbe-4857-9a55-facd05fb28d0","status":"active","beneficiary":{"reference":"Patient/f0289acb-3172-4690-8b6a-dbd4d4913db5"},"period":{"start":"1976-09-26T08:00:00+00:00"},"payor":[{"reference":"Organization/a6c3e6fa-301e-4714-9d04-3dde9a7e7c49"}]},"request":{"method":"PUT","url":"Coverage/2a255035-5fbe-4857-9a55-facd05fb28d0"}},{"fullUrl":"https://madie.cms.gov/Condition/735c9294-c976-4837-bea2-03ccd85629c6","resource":{"resourceType":"Condition","id":"735c9294-c976-4837-bea2-03ccd85629c6","meta":{"profile":["http://hl7.org/fhir/us/qicore/StructureDefinition/qicore-condition"]},"clinicalStatus":{"coding":[{"system":"http://terminology.hl7.org/CodeSystem/condition-clinical","code":"active"}]},"verificationStatus":{"coding":[{"system":"http://terminology.hl7.org/CodeSystem/condition-ver-status","code":"confirmed"}]},"category":[{"coding":[{"system":"http://terminology.hl7.org/CodeSystem/condition-category","code":"encounter-diagnosis","display":"Encounter Diagnosis"}]}],"code":{"coding":[{"system":"http://snomed.info/sct","version":"2020-09","code":"111297002","display":"Nonparalytic stroke (disorder)","userSelected":true}]},"subject":{"reference":"Patient/f0289acb-3172-4690-8b6a-dbd4d4913db5"},"recordedDate":"2026-08-13T08:00:00.000+00:00"},"request":{"method":"PUT","url":"Condition/735c9294-c976-4837-bea2-03ccd85629c6"}},{"fullUrl":"https://madie.cms.gov/Organization/2f73f390-cdb5-48e9-b65c-1bdd33096995","resource":{"resourceType":"Organization","id":"a6c3e6fa-301e-4714-9d04-3dde9a7e7c49","meta":{"profile":["http://hl7.org/fhir/us/qicore/StructureDefinition/qicore-organization"]},"identifier":[{"use":"temp","system":"urn:oid:2.16.840.1.113883.4.4","value":"21-3259825"}],"active":true,"type":[{"coding":[{"system":"http://terminology.hl7.org/CodeSystem/organization-type","code":"pay","display":"Payer"}]}],"name":"Blue Cross Blue Shield of Texas","telecom":[{"system":"phone","value":"(+1) 972-766-6900"}],"address":[{"use":"billing","type":"postal","line":["P.O. Box 660044"],"city":"Dallas","state":"TX","postalCode":"75266-0044","country":"USA"}]},"request":{"method":"PUT","url":"Organization/a6c3e6fa-301e-4714-9d04-3dde9a7e7c49"}},{"fullUrl":"https://madie.cms.gov/MeasureReport/51c131d5-721a-4322-a2fe-c9acf3d391cb","resource":{"resourceType":"MeasureReport","id":"51c131d5-721a-4322-a2fe-c9acf3d391cb","meta":{"profile":["http://hl7.org/fhir/us/cqfmeasures/StructureDefinition/test-case-cqfm"]},"contained":[{"resourceType":"Parameters","id":"f703baee-9af9-4f76-bb41-64e2a345e307-parameters","parameter":[{"name":"subject","valueString":"f0289acb-3172-4690-8b6a-dbd4d4913db5"}]}],"extension":[{"url":"http://hl7.org/fhir/us/cqfmeasures/StructureDefinition/cqfm-inputParameters","valueReference":{"reference":"#f703baee-9af9-4f76-bb41-64e2a345e307-parameters"}},{"url":"http://hl7.org/fhir/us/cqfmeasures/StructureDefinition/cqfm-testCaseDescription","valueMarkdown":"LOS <2 days, Patient receives antithrombotic in = 1 day after IP encounter starts. without an Ed visit\n"}],"modifierExtension":[{"url":"http://hl7.org/fhir/us/cqfmeasures/StructureDefinition/cqfm-isTestCase","valueBoolean":true}],"status":"complete","type":"individual","measure":"https://madie.cms.gov/Measure/CMS72FHIRSTKAntithromboticDay2","period":{"start":"2026-01-01","end":"2026-12-31"},"group":[{"population":[{"code":{"coding":[{"system":"http://terminology.hl7.org/CodeSystem/measure-population","code":"initial-population","display":"Initial Population"}]},"count":1},{"code":{"coding":[{"system":"http://terminology.hl7.org/CodeSystem/measure-population","code":"denominator","display":"Denominator"}]},"count":1},{"code":{"coding":[{"system":"http://terminology.hl7.org/CodeSystem/measure-population","code":"denominator-exclusion","display":"Denominator Exclusion"}]},"count":1},{"code":{"coding":[{"system":"http://terminology.hl7.org/CodeSystem/measure-population","code":"numerator","display":"Numerator"}]},"count":0},{"code":{"coding":[{"system":"http://terminology.hl7.org/CodeSystem/measure-population","code":"denominator-exception","display":"Denominator Exception"}]},"count":0}]}]},"request":{"method":"PUT","url":"MeasureReport/51c131d5-721a-4322-a2fe-c9acf3d391cb"}}]}