{"resourceType":"Bundle","id":"tests-e126cdec-dbc8-4ee8-964f-e88e46c04f88-bundle","type":"transaction","entry":[{"fullUrl":"https://madie.cms.gov/Patient/e126cdec-dbc8-4ee8-964f-e88e46c04f88","resource":{"resourceType":"Patient","id":"e126cdec-dbc8-4ee8-964f-e88e46c04f88","meta":{"profile":["http://hl7.org/fhir/us/qicore/StructureDefinition/qicore-patient"]},"text":{"status":"generated","div":"<div xmlns=\"http://www.w3.org/1999/xhtml\"><div class=\"hapiHeaderText\">LOS&lt;2Days_EDgt1hr_starts1Day23HoursB4IPEncEnds <b>DENEXPASS </b></div><table class=\"hapiPropertyTable\"><tbody><tr><td>Identifier</td><td>c2f633dc8e4ab37b1868abea43e7a4e7</td></tr><tr><td>Date of birth</td><td><span>20 August 1994</span></td></tr></tbody></table></div>"},"extension":[{"url":"http://hl7.org/fhir/us/core/StructureDefinition/us-core-race","extension":[{"url":"ombCategory","valueCoding":{"system":"urn:oid:2.16.840.1.113883.6.238","code":"1002-5","display":"American Indian or Alaska Native","userSelected":true}},{"url":"text","valueString":"American Indian or Alaska Native"}]},{"url":"http://hl7.org/fhir/us/core/StructureDefinition/us-core-ethnicity","extension":[{"url":"ombCategory","valueCoding":{"system":"urn:oid:2.16.840.1.113883.6.238","code":"2186-5","display":"Not Hispanic or Latino","userSelected":true}},{"url":"text","valueString":"Not Hispanic or Latino"}]}],"identifier":[{"type":{"coding":[{"system":"http://terminology.hl7.org/CodeSystem/v2-0203","code":"MR"}]},"system":"https://bonnie-fhir.healthit.gov/","value":"60f82c2e98086b570510e27d"}],"active":true,"name":[{"use":"usual","family":"DENEXPass","given":["LOS<2Days_EDgt1hr_starts1Day23HoursB4IPEncEnds "]}],"gender":"male","birthDate":"1995-08-20"},"request":{"method":"PUT","url":"Patient/e126cdec-dbc8-4ee8-964f-e88e46c04f88"}},{"fullUrl":"https://madie.cms.gov/Encounter/02eb139d-24fb-4c37-ae37-bf9e961eac88","resource":{"resourceType":"Encounter","id":"02eb139d-24fb-4c37-ae37-bf9e961eac88","meta":{"profile":["http://hl7.org/fhir/us/qicore/StructureDefinition/qicore-encounter"]},"status":"finished","class":{"system":"http://terminology.hl7.org/CodeSystem/v3-ActCode","code":"EMER","display":"emergency"},"type":[{"coding":[{"system":"http://snomed.info/sct","code":"4525004"}]}],"subject":{"reference":"Patient/e126cdec-dbc8-4ee8-964f-e88e46c04f88"},"period":{"start":"2026-08-19T22:59:00+00:00","end":"2026-08-20T22:00:00+00:00"},"length":{"value":1,"unit":"days"}},"request":{"method":"PUT","url":"Encounter/02eb139d-24fb-4c37-ae37-bf9e961eac88"}},{"fullUrl":"https://madie.cms.gov/Encounter/c0ad33bb-ab68-451c-bf41-8b78f8924bb9","resource":{"resourceType":"Encounter","id":"c0ad33bb-ab68-451c-bf41-8b78f8924bb9","meta":{"profile":["http://hl7.org/fhir/us/qicore/StructureDefinition/qicore-encounter"]},"status":"finished","class":{"system":"http://terminology.hl7.org/CodeSystem/v3-ActCode","code":"IMP","display":"inpatient encounter"},"type":[{"coding":[{"system":"http://snomed.info/sct","code":"32485007"}]}],"subject":{"reference":"Patient/e126cdec-dbc8-4ee8-964f-e88e46c04f88"},"period":{"start":"2026-08-21T00:00:00+00:00","end":"2026-08-21T23:59:00+00:00"},"length":{"value":0,"unit":"days"},"diagnosis":[{"condition":{"reference":"Condition/467d5230-d7c7-494a-acd3-fa3b564ca44b"},"use":{"coding":[{"system":"http://terminology.hl7.org/CodeSystem/diagnosis-role","code":"billing","display":"Billing"}]},"rank":1}]},"request":{"method":"PUT","url":"Encounter/c0ad33bb-ab68-451c-bf41-8b78f8924bb9"}},{"fullUrl":"https://madie.cms.gov/Coverage/7d8a9414-5e3f-4889-abb8-2883e2406fdd","resource":{"resourceType":"Coverage","id":"7d8a9414-5e3f-4889-abb8-2883e2406fdd","status":"active","beneficiary":{"reference":"Patient/e126cdec-dbc8-4ee8-964f-e88e46c04f88"},"period":{"start":"1995-08-20T07:00:00+00:00"},"payor":[{"reference":"Organization/9e9b3f13-a353-4173-b29b-947d6f1f2031"}]},"request":{"method":"PUT","url":"Coverage/7d8a9414-5e3f-4889-abb8-2883e2406fdd"}},{"fullUrl":"https://madie.cms.gov/Condition/467d5230-d7c7-494a-acd3-fa3b564ca44b","resource":{"resourceType":"Condition","id":"467d5230-d7c7-494a-acd3-fa3b564ca44b","meta":{"profile":["http://hl7.org/fhir/us/qicore/StructureDefinition/qicore-condition"]},"clinicalStatus":{"coding":[{"system":"http://terminology.hl7.org/CodeSystem/condition-clinical","code":"active"}]},"verificationStatus":{"coding":[{"system":"http://terminology.hl7.org/CodeSystem/condition-ver-status","code":"confirmed"}]},"category":[{"coding":[{"system":"http://terminology.hl7.org/CodeSystem/condition-category","code":"encounter-diagnosis","display":"Encounter Diagnosis"}]}],"code":{"coding":[{"system":"http://snomed.info/sct","version":"2020-09","code":"111297002","display":"Nonparalytic stroke (disorder)","userSelected":true}]},"subject":{"reference":"Patient/e126cdec-dbc8-4ee8-964f-e88e46c04f88"},"recordedDate":"2026-08-13T08:00:00.000+00:00"},"request":{"method":"PUT","url":"Condition/467d5230-d7c7-494a-acd3-fa3b564ca44b"}},{"fullUrl":"https://madie.cms.gov/Organization/649b5707-20bb-4eef-8468-02ee8a71c396","resource":{"resourceType":"Organization","id":"9e9b3f13-a353-4173-b29b-947d6f1f2031","meta":{"profile":["http://hl7.org/fhir/us/qicore/StructureDefinition/qicore-organization"]},"identifier":[{"use":"temp","system":"urn:oid:2.16.840.1.113883.4.4","value":"21-3259825"}],"active":true,"type":[{"coding":[{"system":"http://terminology.hl7.org/CodeSystem/organization-type","code":"pay","display":"Payer"}]}],"name":"Blue Cross Blue Shield of Texas","telecom":[{"system":"phone","value":"(+1) 972-766-6900"}],"address":[{"use":"billing","type":"postal","line":["P.O. Box 660044"],"city":"Dallas","state":"TX","postalCode":"75266-0044","country":"USA"}]},"request":{"method":"PUT","url":"Organization/9e9b3f13-a353-4173-b29b-947d6f1f2031"}},{"fullUrl":"https://madie.cms.gov/MeasureReport/51fd6946-a1d0-4004-b9d0-79ee400f5913","resource":{"resourceType":"MeasureReport","id":"51fd6946-a1d0-4004-b9d0-79ee400f5913","meta":{"profile":["http://hl7.org/fhir/us/cqfmeasures/StructureDefinition/test-case-cqfm"]},"contained":[{"resourceType":"Parameters","id":"3681df68-4661-4584-bba4-f9868d1be3ec-parameters","parameter":[{"name":"subject","valueString":"e126cdec-dbc8-4ee8-964f-e88e46c04f88"}]}],"extension":[{"url":"http://hl7.org/fhir/us/cqfmeasures/StructureDefinition/cqfm-inputParameters","valueReference":{"reference":"#3681df68-4661-4584-bba4-f9868d1be3ec-parameters"}},{"url":"http://hl7.org/fhir/us/cqfmeasures/StructureDefinition/cqfm-testCaseDescription","valueMarkdown":"LOS<2 (=1 day),   Ed gt 1hr before EncIp,  global.Hospitalization (=Enc IP only), Patient receives antithrombotic in the ED.      \n"}],"modifierExtension":[{"url":"http://hl7.org/fhir/us/cqfmeasures/StructureDefinition/cqfm-isTestCase","valueBoolean":true}],"status":"complete","type":"individual","measure":"https://madie.cms.gov/Measure/CMS72FHIRSTKAntithromboticDay2","period":{"start":"2026-01-01","end":"2026-12-31"},"group":[{"population":[{"code":{"coding":[{"system":"http://terminology.hl7.org/CodeSystem/measure-population","code":"initial-population","display":"Initial Population"}]},"count":1},{"code":{"coding":[{"system":"http://terminology.hl7.org/CodeSystem/measure-population","code":"denominator","display":"Denominator"}]},"count":1},{"code":{"coding":[{"system":"http://terminology.hl7.org/CodeSystem/measure-population","code":"denominator-exclusion","display":"Denominator Exclusion"}]},"count":1},{"code":{"coding":[{"system":"http://terminology.hl7.org/CodeSystem/measure-population","code":"numerator","display":"Numerator"}]},"count":0},{"code":{"coding":[{"system":"http://terminology.hl7.org/CodeSystem/measure-population","code":"denominator-exception","display":"Denominator Exception"}]},"count":0}]}]},"request":{"method":"PUT","url":"MeasureReport/51fd6946-a1d0-4004-b9d0-79ee400f5913"}}]}