{"resourceType":"Bundle","id":"tests-5a329008-fcc1-4168-ab9c-89cb5dd6ff32-bundle","type":"transaction","entry":[{"fullUrl":"https://madie.cms.gov/Patient/5a329008-fcc1-4168-ab9c-89cb5dd6ff32","resource":{"resourceType":"Patient","id":"5a329008-fcc1-4168-ab9c-89cb5dd6ff32","meta":{"profile":["http://hl7.org/fhir/us/qicore/StructureDefinition/qicore-patient"]},"text":{"status":"generated","div":"<div xmlns=\"http://www.w3.org/1999/xhtml\"><div class=\"hapiHeaderText\">LCG2Enc1WithAntithrombic1WithtPA <b>NUMER&amp;DENECEPPASS </b></div><table class=\"hapiPropertyTable\"><tbody><tr><td>Date of birth</td><td><span>06 April 1980</span></td></tr></tbody></table></div>"},"extension":[{"url":"http://hl7.org/fhir/us/core/StructureDefinition/us-core-race","extension":[{"url":"ombCategory","valueCoding":{"system":"urn:oid:2.16.840.1.113883.6.238","code":"2106-3","display":"White","userSelected":true}},{"url":"text","valueString":"White"}]},{"url":"http://hl7.org/fhir/us/core/StructureDefinition/us-core-ethnicity","extension":[{"url":"ombCategory","valueCoding":{"system":"urn:oid:2.16.840.1.113883.6.238","code":"2186-5","display":"Not Hispanic or Latino","userSelected":true}},{"url":"text","valueString":"Not Hispanic or Latino"}]}],"identifier":[{"type":{"coding":[{"system":"http://terminology.hl7.org/CodeSystem/v2-0203","code":"MR"}]},"system":"https://bonnie-fhir.healthit.gov/","value":"60f82c2f98086b570510e2cd"}],"active":true,"name":[{"use":"usual","family":"NUMER&DENECEPPass","given":["LCG2Enc1WithAntithrombic1WithtPA"]}],"gender":"male","birthDate":"1981-04-06"},"request":{"method":"PUT","url":"Patient/5a329008-fcc1-4168-ab9c-89cb5dd6ff32"}},{"fullUrl":"https://madie.cms.gov/Encounter/557bfe3f-670f-453f-8664-c94b40289db7","resource":{"resourceType":"Encounter","id":"557bfe3f-670f-453f-8664-c94b40289db7","meta":{"profile":["http://hl7.org/fhir/us/qicore/StructureDefinition/qicore-encounter"]},"status":"finished","class":{"system":"http://terminology.hl7.org/CodeSystem/v3-ActCode","code":"EMER","display":"emergency"},"type":[{"coding":[{"system":"http://snomed.info/sct","code":"4525004"}]}],"subject":{"reference":"Patient/5a329008-fcc1-4168-ab9c-89cb5dd6ff32"},"period":{"start":"2026-04-02T08:00:00+00:00","end":"2026-04-02T22:15:00+00:00"},"diagnosis":[{"condition":{"reference":"Condition/2507f395-c721-481f-8564-fd24c62ce7a0"},"use":{"coding":[{"system":"http://terminology.hl7.org/CodeSystem/diagnosis-role","code":"billing","display":"Billing"}]},"rank":1}]},"request":{"method":"PUT","url":"Encounter/557bfe3f-670f-453f-8664-c94b40289db7"}},{"fullUrl":"https://madie.cms.gov/Encounter/81adc423-532e-4316-ac22-877c053b5efb","resource":{"resourceType":"Encounter","id":"81adc423-532e-4316-ac22-877c053b5efb","meta":{"profile":["http://hl7.org/fhir/us/qicore/StructureDefinition/qicore-encounter"]},"status":"finished","class":{"system":"http://terminology.hl7.org/CodeSystem/v3-ActCode","code":"IMP","display":"inpatient encounter"},"type":[{"coding":[{"system":"http://snomed.info/sct","code":"183452005"}]}],"subject":{"reference":"Patient/5a329008-fcc1-4168-ab9c-89cb5dd6ff32"},"period":{"start":"2026-04-02T23:00:00+00:00","end":"2026-04-10T10:15:00+00:00"},"diagnosis":[{"condition":{"reference":"Condition/1b12f1b9-b478-4e3c-93b4-968efe563384"},"use":{"coding":[{"system":"http://terminology.hl7.org/CodeSystem/diagnosis-role","code":"billing","display":"Billing"}]},"rank":1}]},"request":{"method":"PUT","url":"Encounter/81adc423-532e-4316-ac22-877c053b5efb"}},{"fullUrl":"https://madie.cms.gov/Encounter/3865bed2-20cb-44af-8e9a-e8c7b3a6d029","resource":{"resourceType":"Encounter","id":"3865bed2-20cb-44af-8e9a-e8c7b3a6d029","meta":{"profile":["http://hl7.org/fhir/us/qicore/StructureDefinition/qicore-encounter"]},"status":"finished","class":{"system":"http://terminology.hl7.org/CodeSystem/v3-ActCode","code":"EMER","display":"emergency"},"type":[{"coding":[{"system":"http://snomed.info/sct","code":"4525004"}]}],"subject":{"reference":"Patient/5a329008-fcc1-4168-ab9c-89cb5dd6ff32"},"period":{"start":"2026-06-01T04:00:00+00:00","end":"2026-06-01T08:15:00+00:00"}},"request":{"method":"PUT","url":"Encounter/3865bed2-20cb-44af-8e9a-e8c7b3a6d029"}},{"fullUrl":"https://madie.cms.gov/Encounter/c5807066-c143-428f-a3a1-d05d8c3c6065","resource":{"resourceType":"Encounter","id":"c5807066-c143-428f-a3a1-d05d8c3c6065","meta":{"profile":["http://hl7.org/fhir/us/qicore/StructureDefinition/qicore-encounter"]},"status":"finished","class":{"system":"http://terminology.hl7.org/CodeSystem/v3-ActCode","code":"OBSENC","display":"observation encounter"},"type":[{"coding":[{"system":"http://snomed.info/sct","code":"448851000124103"}]}],"subject":{"reference":"Patient/5a329008-fcc1-4168-ab9c-89cb5dd6ff32"},"period":{"start":"2026-06-01T09:00:00+00:00","end":"2026-06-01T23:15:00+00:00"}},"request":{"method":"PUT","url":"Encounter/c5807066-c143-428f-a3a1-d05d8c3c6065"}},{"fullUrl":"https://madie.cms.gov/Encounter/8793a79c-e3e3-4e18-9b64-13bab5236a52","resource":{"resourceType":"Encounter","id":"8793a79c-e3e3-4e18-9b64-13bab5236a52","meta":{"profile":["http://hl7.org/fhir/us/qicore/StructureDefinition/qicore-encounter"]},"status":"finished","class":{"system":"http://terminology.hl7.org/CodeSystem/v3-ActCode","code":"IMP","display":"inpatient encounter"},"type":[{"coding":[{"system":"http://snomed.info/sct","code":"183452005"}]}],"subject":{"reference":"Patient/5a329008-fcc1-4168-ab9c-89cb5dd6ff32"},"period":{"start":"2026-06-02T00:00:00+00:00","end":"2026-06-15T11:15:00+00:00"},"diagnosis":[{"condition":{"reference":"Condition/2507f395-c721-481f-8564-fd24c62ce7a0"},"use":{"coding":[{"system":"http://terminology.hl7.org/CodeSystem/diagnosis-role","code":"billing","display":"Billing"}]},"rank":1}]},"request":{"method":"PUT","url":"Encounter/8793a79c-e3e3-4e18-9b64-13bab5236a52"}},{"fullUrl":"https://madie.cms.gov/Observation/8cf7518a-4616-455c-a2fb-0f4d9ddaa0a1","resource":{"resourceType":"Observation","id":"8cf7518a-4616-455c-a2fb-0f4d9ddaa0a1","meta":{"profile":["http://hl7.org/fhir/us/qicore/StructureDefinition/qicore-observation"]},"status":"final","category":[{"coding":[{"system":"http://terminology.hl7.org/CodeSystem/observation-category","code":"laboratory","display":"Laboratory"}]}],"code":{"coding":[{"system":"http://loinc.org","code":"34714-6"}]},"subject":{"reference":"Patient/5a329008-fcc1-4168-ab9c-89cb5dd6ff32"},"effectivePeriod":{"start":"2026-04-02T08:00:00+00:00","end":"2026-04-02T22:15:00+00:00"},"issued":"2026-04-02T08:00:00.000+00:00","valueInteger":2},"request":{"method":"PUT","url":"Observation/8cf7518a-4616-455c-a2fb-0f4d9ddaa0a1"}},{"fullUrl":"https://madie.cms.gov/MedicationAdministration/24b34374-cc29-4b13-924c-993a2ddf9bba","resource":{"resourceType":"MedicationAdministration","id":"24b34374-cc29-4b13-924c-993a2ddf9bba","meta":{"profile":["http://hl7.org/fhir/us/qicore/StructureDefinition/qicore-medicationadministration"]},"extension":[{"url":"http://hl7.org/fhir/us/qicore/StructureDefinition/qicore-recorded","valueDateTime":"2026-04-02T23:00:00+00:00"}],"status":"completed","medicationCodeableConcept":{"coding":[{"system":"http://www.nlm.nih.gov/research/umls/rxnorm","code":"1037045"}]},"subject":{"reference":"Patient/5a329008-fcc1-4168-ab9c-89cb5dd6ff32"},"effectivePeriod":{"start":"2026-04-02T23:00:00+00:00","end":"2026-04-10T10:15:00+00:00"}},"request":{"method":"PUT","url":"MedicationAdministration/24b34374-cc29-4b13-924c-993a2ddf9bba"}},{"fullUrl":"https://madie.cms.gov/MedicationAdministration/192d9a4f-3274-4f87-982e-17b916839e15","resource":{"resourceType":"MedicationAdministration","id":"192d9a4f-3274-4f87-982e-17b916839e15","meta":{"profile":["http://hl7.org/fhir/us/qicore/StructureDefinition/qicore-medicationadministration"]},"extension":[{"url":"http://hl7.org/fhir/us/qicore/StructureDefinition/qicore-recorded","valueDateTime":"2026-06-01T09:00:00+00:00"}],"status":"completed","medicationCodeableConcept":{"coding":[{"system":"http://www.nlm.nih.gov/research/umls/rxnorm","code":"1804799"}]},"subject":{"reference":"Patient/5a329008-fcc1-4168-ab9c-89cb5dd6ff32"},"effectivePeriod":{"start":"2026-06-01T09:00:00+00:00","end":"2026-06-01T23:15:00+00:00"},"reasonCode":[{"coding":[{"system":"http://www.nlm.nih.gov/research/umls/rxnorm","code":"1804799","display":"alteplase 100 MG Injection"}]}]},"request":{"method":"PUT","url":"MedicationAdministration/192d9a4f-3274-4f87-982e-17b916839e15"}},{"fullUrl":"https://madie.cms.gov/MedicationAdministration/b0b59407-cfac-4027-9ae5-3ce101712f44","resource":{"resourceType":"MedicationAdministration","id":"b0b59407-cfac-4027-9ae5-3ce101712f44","meta":{"profile":["http://hl7.org/fhir/us/qicore/StructureDefinition/qicore-medicationadministration"]},"extension":[{"url":"http://hl7.org/fhir/us/qicore/StructureDefinition/qicore-recorded","valueDateTime":"2026-06-02T00:15:00+00:00"}],"status":"completed","medicationCodeableConcept":{"coding":[{"system":"http://www.nlm.nih.gov/research/umls/rxnorm","code":"1037045"}]},"subject":{"reference":"Patient/5a329008-fcc1-4168-ab9c-89cb5dd6ff32"},"effectivePeriod":{"start":"2026-06-02T00:15:00+00:00","end":"2026-06-15T11:15:00+00:00"}},"request":{"method":"PUT","url":"MedicationAdministration/b0b59407-cfac-4027-9ae5-3ce101712f44"}},{"fullUrl":"https://madie.cms.gov/MedicationRequest/8d9291b6-987c-44d8-b276-87c715cb5b29","resource":{"resourceType":"MedicationRequest","id":"8d9291b6-987c-44d8-b276-87c715cb5b29","meta":{"profile":["http://hl7.org/fhir/us/qicore/StructureDefinition/qicore-medicationrequest"]},"status":"completed","intent":"order","medicationCodeableConcept":{"coding":[{"system":"http://www.nlm.nih.gov/research/umls/rxnorm","code":"1037045"}]},"subject":{"reference":"Patient/5a329008-fcc1-4168-ab9c-89cb5dd6ff32"},"authoredOn":"2026-04-02T08:00:00+00:00","requester":{"reference":"Practitioner/example"},"dosageInstruction":[{"timing":{"repeat":{"boundsPeriod":{"start":"2026-04-02T23:00:00+00:00","end":"2026-04-10T10:15:00+00:00"}}}}]},"request":{"method":"PUT","url":"MedicationRequest/8d9291b6-987c-44d8-b276-87c715cb5b29"}},{"fullUrl":"https://madie.cms.gov/MedicationRequest/d0a189ea-b601-4e89-8494-059c7d041c0b","resource":{"resourceType":"MedicationRequest","id":"d0a189ea-b601-4e89-8494-059c7d041c0b","meta":{"profile":["http://hl7.org/fhir/us/qicore/StructureDefinition/qicore-medicationrequest"]},"status":"completed","intent":"order","medicationCodeableConcept":{"coding":[{"system":"http://www.nlm.nih.gov/research/umls/rxnorm","code":"1037045"}]},"subject":{"reference":"Patient/5a329008-fcc1-4168-ab9c-89cb5dd6ff32"},"authoredOn":"2026-06-02T09:00:00+00:00","requester":{"reference":"Practitioner/example"},"dosageInstruction":[{"timing":{"repeat":{"boundsPeriod":{"start":"2026-06-02T00:15:00+00:00","end":"2026-06-15T11:15:00+00:00"}}}}]},"request":{"method":"PUT","url":"MedicationRequest/d0a189ea-b601-4e89-8494-059c7d041c0b"}},{"fullUrl":"https://madie.cms.gov/Condition/1b12f1b9-b478-4e3c-93b4-968efe563384","resource":{"resourceType":"Condition","id":"1b12f1b9-b478-4e3c-93b4-968efe563384","meta":{"profile":["http://hl7.org/fhir/us/qicore/StructureDefinition/qicore-condition"]},"clinicalStatus":{"coding":[{"system":"http://terminology.hl7.org/CodeSystem/condition-clinical","code":"active"}]},"verificationStatus":{"coding":[{"system":"http://terminology.hl7.org/CodeSystem/condition-ver-status","code":"confirmed"}]},"category":[{"coding":[{"system":"http://terminology.hl7.org/CodeSystem/condition-category","code":"encounter-diagnosis","display":"Encounter Diagnosis"}]}],"code":{"coding":[{"system":"http://snomed.info/sct","version":"2020-09","code":"111297002","display":"Nonparalytic stroke (disorder)","userSelected":true}]},"subject":{"reference":"Patient/5a329008-fcc1-4168-ab9c-89cb5dd6ff32"},"recordedDate":"2026-08-16T08:00:00.000+00:00"},"request":{"method":"PUT","url":"Condition/1b12f1b9-b478-4e3c-93b4-968efe563384"}},{"fullUrl":"https://madie.cms.gov/Condition/2507f395-c721-481f-8564-fd24c62ce7a0","resource":{"resourceType":"Condition","id":"2507f395-c721-481f-8564-fd24c62ce7a0","meta":{"profile":["http://hl7.org/fhir/us/qicore/StructureDefinition/qicore-condition"]},"clinicalStatus":{"coding":[{"system":"http://terminology.hl7.org/CodeSystem/condition-clinical","code":"active"}]},"verificationStatus":{"coding":[{"system":"http://terminology.hl7.org/CodeSystem/condition-ver-status","code":"confirmed"}]},"category":[{"coding":[{"system":"http://terminology.hl7.org/CodeSystem/condition-category","code":"encounter-diagnosis","display":"Encounter Diagnosis"}]}],"code":{"coding":[{"system":"http://snomed.info/sct","version":"2020-09","code":"111297002","display":"Nonparalytic stroke (disorder)","userSelected":true}]},"subject":{"reference":"Patient/5a329008-fcc1-4168-ab9c-89cb5dd6ff32"},"recordedDate":"2026-08-16T08:00:00.000+00:00"},"request":{"method":"PUT","url":"Condition/2507f395-c721-481f-8564-fd24c62ce7a0"}},{"fullUrl":"https://madie.cms.gov/Coverage/5e3c0bd2-4dba-416d-819a-f001e1b276b9","resource":{"resourceType":"Coverage","id":"5e3c0bd2-4dba-416d-819a-f001e1b276b9","meta":{"profile":["http://hl7.org/fhir/us/qicore/StructureDefinition/qicore-coverage"]},"status":"active","beneficiary":{"reference":"Patient/5a329008-fcc1-4168-ab9c-89cb5dd6ff32"},"payor":[{"reference":"Organization/80e3e0d1-b2aa-43a6-b1d2-00bfa3164a0f"}]},"request":{"method":"PUT","url":"Coverage/5e3c0bd2-4dba-416d-819a-f001e1b276b9"}},{"fullUrl":"https://madie.cms.gov/Organization/f17e12ed-ee9a-46cd-9e34-8e1edca093db","resource":{"resourceType":"Organization","id":"80e3e0d1-b2aa-43a6-b1d2-00bfa3164a0f","meta":{"profile":["http://hl7.org/fhir/us/qicore/StructureDefinition/qicore-organization"]},"identifier":[{"use":"temp","system":"urn:oid:2.16.840.1.113883.4.4","value":"21-3259825"}],"active":true,"type":[{"coding":[{"system":"http://terminology.hl7.org/CodeSystem/organization-type","code":"pay","display":"Payer"}]}],"name":"Blue Cross Blue Shield of Texas","telecom":[{"system":"phone","value":"(+1) 972-766-6900"}],"address":[{"use":"billing","type":"postal","line":["P.O. Box 660044"],"city":"Dallas","state":"TX","postalCode":"75266-0044","country":"USA"}]},"request":{"method":"PUT","url":"Organization/80e3e0d1-b2aa-43a6-b1d2-00bfa3164a0f"}},{"fullUrl":"https://madie.cms.gov/Practitioner/a76861b4-b383-4a78-ad8b-c77a7379e61b","resource":{"resourceType":"Practitioner","id":"a76861b4-b383-4a78-ad8b-c77a7379e61b","identifier":[{"system":"http://hl7.org/fhir/sid/us-npi","value":"123456"}],"name":[{"family":"Evil","prefix":["Dr"]}]},"request":{"method":"PUT","url":"Practitioner/a76861b4-b383-4a78-ad8b-c77a7379e61b"}},{"fullUrl":"https://madie.cms.gov/MeasureReport/0b2d9aff-e86e-4ea8-bbc7-d0d256d5322c","resource":{"resourceType":"MeasureReport","id":"0b2d9aff-e86e-4ea8-bbc7-d0d256d5322c","meta":{"profile":["http://hl7.org/fhir/us/cqfmeasures/StructureDefinition/test-case-cqfm"]},"contained":[{"resourceType":"Parameters","id":"b785b1bb-405c-4c19-bb6c-e8ad6c8d1988-parameters","parameter":[{"name":"subject","valueString":"5a329008-fcc1-4168-ab9c-89cb5dd6ff32"}]}],"extension":[{"url":"http://hl7.org/fhir/us/cqfmeasures/StructureDefinition/cqfm-inputParameters","valueReference":{"reference":"#b785b1bb-405c-4c19-bb6c-e8ad6c8d1988-parameters"}},{"url":"http://hl7.org/fhir/us/cqfmeasures/StructureDefinition/cqfm-testCaseDescription","valueMarkdown":"Testing multiple encounters, one with ED to Inpatient with antithrombotic, and one with Ed to Obs to Inpatient with tPA. \n"}],"modifierExtension":[{"url":"http://hl7.org/fhir/us/cqfmeasures/StructureDefinition/cqfm-isTestCase","valueBoolean":true}],"status":"complete","type":"individual","measure":"https://madie.cms.gov/Measure/CMS72FHIRSTKAntithromboticDay2","period":{"start":"2026-01-01","end":"2026-12-31"},"group":[{"population":[{"code":{"coding":[{"system":"http://terminology.hl7.org/CodeSystem/measure-population","code":"initial-population","display":"Initial Population"}]},"count":2},{"code":{"coding":[{"system":"http://terminology.hl7.org/CodeSystem/measure-population","code":"denominator","display":"Denominator"}]},"count":2},{"code":{"coding":[{"system":"http://terminology.hl7.org/CodeSystem/measure-population","code":"denominator-exclusion","display":"Denominator Exclusion"}]},"count":1},{"code":{"coding":[{"system":"http://terminology.hl7.org/CodeSystem/measure-population","code":"numerator","display":"Numerator"}]},"count":1},{"code":{"coding":[{"system":"http://terminology.hl7.org/CodeSystem/measure-population","code":"denominator-exception","display":"Denominator Exception"}]},"count":0}]}]},"request":{"method":"PUT","url":"MeasureReport/0b2d9aff-e86e-4ea8-bbc7-d0d256d5322c"}}]}