{"resourceType":"Bundle","id":"tests-3432dedb-7130-4614-9283-6c1569fab90f-bundle","type":"transaction","entry":[{"fullUrl":"https://madie.cms.gov/Patient/3432dedb-7130-4614-9283-6c1569fab90f","resource":{"resourceType":"Patient","id":"3432dedb-7130-4614-9283-6c1569fab90f","meta":{"profile":["http://hl7.org/fhir/us/qicore/StructureDefinition/qicore-patient"]},"text":{"status":"generated","div":"<div xmlns=\"http://www.w3.org/1999/xhtml\"><div class=\"hapiHeaderText\">MedAdmMedReason_eq1dayduringEncIPwEd <b>DENEXCEPPASS </b></div><table class=\"hapiPropertyTable\"><tbody><tr><td>Identifier</td><td>0a4df66fd13e8e1ef13dfb88b6a85738</td></tr><tr><td>Date of birth</td><td><span>26 September 1975</span></td></tr></tbody></table></div>"},"extension":[{"url":"http://hl7.org/fhir/us/core/StructureDefinition/us-core-race","extension":[{"url":"ombCategory","valueCoding":{"system":"urn:oid:2.16.840.1.113883.6.238","code":"2054-5","display":"Black or African American","userSelected":true}},{"url":"text","valueString":"Black or African American"}]},{"url":"http://hl7.org/fhir/us/core/StructureDefinition/us-core-ethnicity","extension":[{"url":"ombCategory","valueCoding":{"system":"urn:oid:2.16.840.1.113883.6.238","code":"2186-5","display":"Not Hispanic or Latino","userSelected":true}},{"url":"text","valueString":"Not Hispanic or Latino"}]}],"identifier":[{"type":{"coding":[{"system":"http://terminology.hl7.org/CodeSystem/v2-0203","code":"MR"}]},"system":"https://bonnie-fhir.healthit.gov/","value":"60f82c2e98086b570510e294"}],"active":true,"name":[{"use":"usual","family":"DENEXCEPPass","given":["MedAdmMedReason_eq1dayduringEncIPwEd"]}],"gender":"female","birthDate":"1976-09-26"},"request":{"method":"PUT","url":"Patient/3432dedb-7130-4614-9283-6c1569fab90f"}},{"fullUrl":"https://madie.cms.gov/Encounter/d447d9d7-0b71-4523-a3c6-1588cbb761a1","resource":{"resourceType":"Encounter","id":"d447d9d7-0b71-4523-a3c6-1588cbb761a1","meta":{"profile":["http://hl7.org/fhir/us/qicore/StructureDefinition/qicore-encounter"]},"status":"finished","class":{"system":"http://terminology.hl7.org/CodeSystem/v3-ActCode","code":"EMER","display":"emergency","userSelected":true},"type":[{"coding":[{"system":"http://snomed.info/sct","code":"4525004"}]}],"subject":{"reference":"Patient/3432dedb-7130-4614-9283-6c1569fab90f"},"period":{"start":"2026-10-10T08:00:00+00:00","end":"2026-10-10T08:15:00+00:00"},"length":{"value":0,"unit":"days"}},"request":{"method":"PUT","url":"Encounter/d447d9d7-0b71-4523-a3c6-1588cbb761a1"}},{"fullUrl":"https://madie.cms.gov/Encounter/0dd31c4c-12f1-4721-ad4c-d7108e893c69","resource":{"resourceType":"Encounter","id":"0dd31c4c-12f1-4721-ad4c-d7108e893c69","meta":{"profile":["http://hl7.org/fhir/us/qicore/StructureDefinition/qicore-encounter"]},"status":"finished","class":{"system":"http://terminology.hl7.org/CodeSystem/v3-ActCode","code":"IMP","display":"inpatient encounter","userSelected":true},"type":[{"coding":[{"system":"http://snomed.info/sct","code":"32485007"}]}],"subject":{"reference":"Patient/3432dedb-7130-4614-9283-6c1569fab90f"},"period":{"start":"2026-10-10T09:00:00+00:00","end":"2026-10-12T11:15:00+00:00"},"length":{"value":2,"unit":"days"},"diagnosis":[{"condition":{"reference":"Condition/744b08d2-8cf5-4a3a-ae83-0bea70774894"},"use":{"coding":[{"system":"http://terminology.hl7.org/CodeSystem/diagnosis-role","code":"billing","display":"Billing"}]},"rank":1}]},"request":{"method":"PUT","url":"Encounter/0dd31c4c-12f1-4721-ad4c-d7108e893c69"}},{"fullUrl":"https://madie.cms.gov/MedicationAdministration/ecd0958d-f532-48c1-bef4-897a0b920735","resource":{"resourceType":"MedicationAdministration","id":"ecd0958d-f532-48c1-bef4-897a0b920735","meta":{"profile":["http://hl7.org/fhir/us/qicore/StructureDefinition/qicore-mednotadministered"]},"extension":[{"url":"http://hl7.org/fhir/us/qicore/StructureDefinition/qicore-recorded","valueDateTime":"2026-10-11T11:00:00+00:00"}],"status":"not-done","statusReason":[{"coding":[{"system":"http://snomed.info/sct","code":"183932001"}]}],"medicationCodeableConcept":{"coding":[{"system":"http://www.nlm.nih.gov/research/umls/rxnorm","code":"1037045"}]},"subject":{"reference":"Patient/3432dedb-7130-4614-9283-6c1569fab90f"},"effectivePeriod":{"start":"2026-10-11T11:00:00+00:00"}},"request":{"method":"PUT","url":"MedicationAdministration/ecd0958d-f532-48c1-bef4-897a0b920735"}},{"fullUrl":"https://madie.cms.gov/Coverage/119dec65-5602-41a8-ab9a-e3f6fd1a8610","resource":{"resourceType":"Coverage","id":"119dec65-5602-41a8-ab9a-e3f6fd1a8610","status":"active","beneficiary":{"reference":"Patient/3432dedb-7130-4614-9283-6c1569fab90f"},"period":{"start":"1976-09-26T08:00:00+00:00"},"payor":[{"reference":"Organization/3778262e-e084-4bb5-9a47-1a144735f786"}]},"request":{"method":"PUT","url":"Coverage/119dec65-5602-41a8-ab9a-e3f6fd1a8610"}},{"fullUrl":"https://madie.cms.gov/Condition/744b08d2-8cf5-4a3a-ae83-0bea70774894","resource":{"resourceType":"Condition","id":"744b08d2-8cf5-4a3a-ae83-0bea70774894","meta":{"profile":["http://hl7.org/fhir/us/qicore/StructureDefinition/qicore-condition"]},"clinicalStatus":{"coding":[{"system":"http://terminology.hl7.org/CodeSystem/condition-clinical","code":"active"}]},"verificationStatus":{"coding":[{"system":"http://terminology.hl7.org/CodeSystem/condition-ver-status","code":"confirmed"}]},"category":[{"coding":[{"system":"http://terminology.hl7.org/CodeSystem/condition-category","code":"encounter-diagnosis","display":"Encounter Diagnosis"}]}],"code":{"coding":[{"system":"http://snomed.info/sct","version":"2020-09","code":"111297002","display":"Nonparalytic stroke (disorder)","userSelected":true}]},"subject":{"reference":"Patient/3432dedb-7130-4614-9283-6c1569fab90f"},"recordedDate":"2026-08-06T08:00:00.000+00:00"},"request":{"method":"PUT","url":"Condition/744b08d2-8cf5-4a3a-ae83-0bea70774894"}},{"fullUrl":"https://madie.cms.gov/Organization/115584bb-9a94-4169-aa79-f74385863d5d","resource":{"resourceType":"Organization","id":"3778262e-e084-4bb5-9a47-1a144735f786","meta":{"profile":["http://hl7.org/fhir/us/qicore/StructureDefinition/qicore-organization"]},"identifier":[{"use":"temp","system":"urn:oid:2.16.840.1.113883.4.4","value":"21-3259825"}],"active":true,"type":[{"coding":[{"system":"http://terminology.hl7.org/CodeSystem/organization-type","code":"pay","display":"Payer"}]}],"name":"Blue Cross Blue Shield of Texas","telecom":[{"system":"phone","value":"(+1) 972-766-6900"}],"address":[{"use":"billing","type":"postal","line":["P.O. Box 660044"],"city":"Dallas","state":"TX","postalCode":"75266-0044","country":"USA"}]},"request":{"method":"PUT","url":"Organization/3778262e-e084-4bb5-9a47-1a144735f786"}},{"fullUrl":"https://madie.cms.gov/MeasureReport/41afc562-7212-4bcc-b342-d503a1366741","resource":{"resourceType":"MeasureReport","id":"41afc562-7212-4bcc-b342-d503a1366741","meta":{"profile":["http://hl7.org/fhir/us/cqfmeasures/StructureDefinition/test-case-cqfm"]},"contained":[{"resourceType":"Parameters","id":"d8aa0aa9-59a0-44e2-8e87-5b4c1ddb4957-parameters","parameter":[{"name":"subject","valueString":"3432dedb-7130-4614-9283-6c1569fab90f"}]}],"extension":[{"url":"http://hl7.org/fhir/us/cqfmeasures/StructureDefinition/cqfm-inputParameters","valueReference":{"reference":"#d8aa0aa9-59a0-44e2-8e87-5b4c1ddb4957-parameters"}},{"url":"http://hl7.org/fhir/us/cqfmeasures/StructureDefinition/cqfm-testCaseDescription","valueMarkdown":"ED visit AND antithrombotic is not adm due to medical reason but = 1 day after start of ED visit,  global.\"Hospitalization\" =(Ed+IP)\n"}],"modifierExtension":[{"url":"http://hl7.org/fhir/us/cqfmeasures/StructureDefinition/cqfm-isTestCase","valueBoolean":true}],"status":"complete","type":"individual","measure":"https://madie.cms.gov/Measure/CMS72FHIRSTKAntithromboticDay2","period":{"start":"2026-01-01","end":"2026-12-31"},"group":[{"population":[{"code":{"coding":[{"system":"http://terminology.hl7.org/CodeSystem/measure-population","code":"initial-population","display":"Initial Population"}]},"count":1},{"code":{"coding":[{"system":"http://terminology.hl7.org/CodeSystem/measure-population","code":"denominator","display":"Denominator"}]},"count":1},{"code":{"coding":[{"system":"http://terminology.hl7.org/CodeSystem/measure-population","code":"denominator-exclusion","display":"Denominator Exclusion"}]},"count":0},{"code":{"coding":[{"system":"http://terminology.hl7.org/CodeSystem/measure-population","code":"numerator","display":"Numerator"}]},"count":0},{"code":{"coding":[{"system":"http://terminology.hl7.org/CodeSystem/measure-population","code":"denominator-exception","display":"Denominator Exception"}]},"count":1}]}]},"request":{"method":"PUT","url":"MeasureReport/41afc562-7212-4bcc-b342-d503a1366741"}}]}