{"resourceType":"Bundle","id":"tests-f5f317c7-69f1-4a89-850a-8a58789c80f2-bundle","type":"transaction","entry":[{"fullUrl":"https://madie.cms.gov/Patient/f5f317c7-69f1-4a89-850a-8a58789c80f2","resource":{"resourceType":"Patient","id":"f5f317c7-69f1-4a89-850a-8a58789c80f2","meta":{"profile":["http://hl7.org/fhir/us/qicore/StructureDefinition/qicore-patient"]},"text":{"status":"generated","div":"<div xmlns=\"http://www.w3.org/1999/xhtml\"><div class=\"hapiHeaderText\">PharmContra2DayAftEncStart_NoEDNoObsBFEnc <b>DENEXCEPFAIL </b></div><table class=\"hapiPropertyTable\"><tbody><tr><td>Identifier</td><td>3d4f026c9d3e0727d23e727b50bbdb562e833b85c97ee50ac776c0341f57a44d</td></tr><tr><td>Date of birth</td><td><span>26 September 1975</span></td></tr></tbody></table></div>"},"extension":[{"url":"http://hl7.org/fhir/us/core/StructureDefinition/us-core-race","extension":[{"url":"ombCategory","valueCoding":{"system":"urn:oid:2.16.840.1.113883.6.238","code":"2054-5","display":"Black or African American","userSelected":true}},{"url":"text","valueString":"Black or African American"}]},{"url":"http://hl7.org/fhir/us/core/StructureDefinition/us-core-ethnicity","extension":[{"url":"ombCategory","valueCoding":{"system":"urn:oid:2.16.840.1.113883.6.238","code":"2186-5","display":"Not Hispanic or Latino","userSelected":true}},{"url":"text","valueString":"Not Hispanic or Latino"}]}],"identifier":[{"type":{"coding":[{"system":"http://terminology.hl7.org/CodeSystem/v2-0203","code":"MR"}]},"system":"https://bonnie-fhir.healthit.gov/","value":"60f82c2f98086b570510e2a1"}],"active":true,"name":[{"use":"usual","family":"DENEXCEPFail","given":["PharmContra2DayAftEncStart_NoEDNoObsBFEnc"]}],"gender":"female","birthDate":"1976-09-26"},"request":{"method":"PUT","url":"Patient/f5f317c7-69f1-4a89-850a-8a58789c80f2"}},{"fullUrl":"https://madie.cms.gov/Encounter/3eaa3075-5f16-4fe7-b85c-49d1ee4d6d1c","resource":{"resourceType":"Encounter","id":"3eaa3075-5f16-4fe7-b85c-49d1ee4d6d1c","meta":{"profile":["http://hl7.org/fhir/us/qicore/StructureDefinition/qicore-encounter"]},"status":"finished","class":{"system":"http://terminology.hl7.org/CodeSystem/v3-ActCode","code":"IMP","display":"inpatient encounter","userSelected":true},"type":[{"coding":[{"system":"http://snomed.info/sct","code":"32485007"}]}],"subject":{"reference":"Patient/f5f317c7-69f1-4a89-850a-8a58789c80f2"},"period":{"start":"2026-10-10T09:00:00.000+00:00","end":"2026-10-12T11:15:00.000+00:00"},"length":{"value":2,"unit":"days"},"diagnosis":[{"condition":{"reference":"Condition/ce45077a-0530-4a25-a2df-2ca100c03179"},"use":{"coding":[{"system":"http://terminology.hl7.org/CodeSystem/diagnosis-role","code":"billing","display":"Billing"}]},"rank":1}]},"request":{"method":"PUT","url":"Encounter/3eaa3075-5f16-4fe7-b85c-49d1ee4d6d1c"}},{"fullUrl":"https://madie.cms.gov/MedicationAdministration/24fbc529-9de9-4a4a-9351-a90d0731c8de","resource":{"resourceType":"MedicationAdministration","id":"24fbc529-9de9-4a4a-9351-a90d0731c8de","meta":{"profile":["http://hl7.org/fhir/us/qicore/StructureDefinition/qicore-medicationadministration"]},"status":"completed","medicationCodeableConcept":{"coding":[{"system":"http://www.nlm.nih.gov/research/umls/rxnorm","code":"1116635"}]},"subject":{"reference":"Patient/f5f317c7-69f1-4a89-850a-8a58789c80f2"},"effectivePeriod":{"start":"2026-10-12T00:00:00+00:00"}},"request":{"method":"PUT","url":"MedicationAdministration/24fbc529-9de9-4a4a-9351-a90d0731c8de"}},{"fullUrl":"https://madie.cms.gov/Coverage/a79a456f-0785-4ea9-9ef5-9ccadc97b1c5","resource":{"resourceType":"Coverage","id":"a79a456f-0785-4ea9-9ef5-9ccadc97b1c5","status":"active","beneficiary":{"reference":"Patient/f5f317c7-69f1-4a89-850a-8a58789c80f2"},"period":{"start":"1976-09-26T08:00:00+00:00"},"payor":[{"reference":"Organization/880a275e-1cf2-4fb9-869b-f1d2173fdc2b"}]},"request":{"method":"PUT","url":"Coverage/a79a456f-0785-4ea9-9ef5-9ccadc97b1c5"}},{"fullUrl":"https://madie.cms.gov/Condition/ce45077a-0530-4a25-a2df-2ca100c03179","resource":{"resourceType":"Condition","id":"ce45077a-0530-4a25-a2df-2ca100c03179","meta":{"profile":["http://hl7.org/fhir/us/qicore/StructureDefinition/qicore-condition"]},"clinicalStatus":{"coding":[{"system":"http://terminology.hl7.org/CodeSystem/condition-clinical","code":"active"}]},"verificationStatus":{"coding":[{"system":"http://terminology.hl7.org/CodeSystem/condition-ver-status","code":"confirmed"}]},"category":[{"coding":[{"system":"http://terminology.hl7.org/CodeSystem/condition-category","code":"encounter-diagnosis","display":"Encounter Diagnosis"}]}],"code":{"coding":[{"system":"http://snomed.info/sct","version":"2020-09","code":"111297002","display":"Nonparalytic stroke (disorder)","userSelected":true}]},"subject":{"reference":"Patient/f5f317c7-69f1-4a89-850a-8a58789c80f2"},"recordedDate":"2026-07-28T08:00:00.000+00:00"},"request":{"method":"PUT","url":"Condition/ce45077a-0530-4a25-a2df-2ca100c03179"}},{"fullUrl":"https://madie.cms.gov/Organization/5e77e1ad-418f-41d5-a543-a544b1e89375","resource":{"resourceType":"Organization","id":"880a275e-1cf2-4fb9-869b-f1d2173fdc2b","meta":{"profile":["http://hl7.org/fhir/us/qicore/StructureDefinition/qicore-organization"]},"identifier":[{"use":"temp","system":"urn:oid:2.16.840.1.113883.4.4","value":"21-3259825"}],"active":true,"type":[{"coding":[{"system":"http://terminology.hl7.org/CodeSystem/organization-type","code":"pay","display":"Payer"}]}],"name":"Blue Cross Blue Shield of Texas","telecom":[{"system":"phone","value":"(+1) 972-766-6900"}],"address":[{"use":"billing","type":"postal","line":["P.O. Box 660044"],"city":"Dallas","state":"TX","postalCode":"75266-0044","country":"USA"}]},"request":{"method":"PUT","url":"Organization/880a275e-1cf2-4fb9-869b-f1d2173fdc2b"}},{"fullUrl":"https://madie.cms.gov/MeasureReport/4e7443b8-e749-47f4-b1bf-6d5a0739a769","resource":{"resourceType":"MeasureReport","id":"4e7443b8-e749-47f4-b1bf-6d5a0739a769","meta":{"profile":["http://hl7.org/fhir/us/cqfmeasures/StructureDefinition/test-case-cqfm"]},"contained":[{"resourceType":"Parameters","id":"fabe73bb-5433-4fb9-9f8e-ef98c53e71f8-parameters","parameter":[{"name":"subject","valueString":"f5f317c7-69f1-4a89-850a-8a58789c80f2"}]}],"extension":[{"url":"http://hl7.org/fhir/us/cqfmeasures/StructureDefinition/cqfm-inputParameters","valueReference":{"reference":"#fabe73bb-5433-4fb9-9f8e-ef98c53e71f8-parameters"}},{"url":"http://hl7.org/fhir/us/cqfmeasures/StructureDefinition/cqfm-testCaseDescription","valueMarkdown":"Patient receives Ticagrelor 2 days after IP start at midnight. No ED. No Obs. Testing Day of operator with HospitalizationWithObservation function.\n"}],"modifierExtension":[{"url":"http://hl7.org/fhir/us/cqfmeasures/StructureDefinition/cqfm-isTestCase","valueBoolean":true}],"status":"complete","type":"individual","measure":"https://madie.cms.gov/Measure/CMS72FHIRSTKAntithromboticDay2","period":{"start":"2026-01-01","end":"2026-12-31"},"group":[{"population":[{"code":{"coding":[{"system":"http://terminology.hl7.org/CodeSystem/measure-population","code":"initial-population","display":"Initial Population"}]},"count":1},{"code":{"coding":[{"system":"http://terminology.hl7.org/CodeSystem/measure-population","code":"denominator","display":"Denominator"}]},"count":1},{"code":{"coding":[{"system":"http://terminology.hl7.org/CodeSystem/measure-population","code":"denominator-exclusion","display":"Denominator Exclusion"}]},"count":0},{"code":{"coding":[{"system":"http://terminology.hl7.org/CodeSystem/measure-population","code":"numerator","display":"Numerator"}]},"count":0},{"code":{"coding":[{"system":"http://terminology.hl7.org/CodeSystem/measure-population","code":"denominator-exception","display":"Denominator Exception"}]},"count":0}]}]},"request":{"method":"PUT","url":"MeasureReport/4e7443b8-e749-47f4-b1bf-6d5a0739a769"}}]}