{"resourceType":"Bundle","id":"tests-2ecbb381-211e-421a-8053-21c820f33043-bundle","type":"transaction","entry":[{"fullUrl":"https://madie.cms.gov/Patient/2ecbb381-211e-421a-8053-21c820f33043","resource":{"resourceType":"Patient","id":"2ecbb381-211e-421a-8053-21c820f33043","meta":{"profile":["http://hl7.org/fhir/us/qicore/StructureDefinition/qicore-patient"]},"text":{"status":"generated","div":"<div xmlns=\"http://www.w3.org/1999/xhtml\"><div class=\"hapiHeaderText\">INRDayOfObs_ED&gt;1hrDayOfObs&gt;1hrDayfAftBFEncDayAft <b>DENEXCEPASS </b></div><table class=\"hapiPropertyTable\"><tbody><tr><td>Identifier</td><td>f7acbb223a58f5593ca2d11d2158eb0a863b91e8c34fd0abd3cb6bbb0837b57c</td></tr><tr><td>Date of birth</td><td><span>26 September 1975</span></td></tr></tbody></table></div>"},"extension":[{"url":"http://hl7.org/fhir/us/core/StructureDefinition/us-core-race","extension":[{"url":"ombCategory","valueCoding":{"system":"urn:oid:2.16.840.1.113883.6.238","code":"2054-5","display":"Black or African American","userSelected":true}},{"url":"text","valueString":"Black or African American"}]},{"url":"http://hl7.org/fhir/us/core/StructureDefinition/us-core-ethnicity","extension":[{"url":"ombCategory","valueCoding":{"system":"urn:oid:2.16.840.1.113883.6.238","code":"2186-5","display":"Not Hispanic or Latino","userSelected":true}},{"url":"text","valueString":"Not Hispanic or Latino"}]}],"identifier":[{"type":{"coding":[{"system":"http://terminology.hl7.org/CodeSystem/v2-0203","code":"MR"}]},"system":"https://bonnie-fhir.healthit.gov/","value":"60f82c2f98086b570510e2ae"}],"active":true,"name":[{"use":"usual","family":"DENEXCEPass","given":["INRDayOfObs_ED>1hrDayOfObs>1hrDayfAftBFEncDayAft"]}],"gender":"female","birthDate":"1976-09-26"},"request":{"method":"PUT","url":"Patient/2ecbb381-211e-421a-8053-21c820f33043"}},{"fullUrl":"https://madie.cms.gov/Encounter/8164c577-05d5-4894-8c37-265dbce78ec9","resource":{"resourceType":"Encounter","id":"8164c577-05d5-4894-8c37-265dbce78ec9","meta":{"profile":["http://hl7.org/fhir/us/qicore/StructureDefinition/qicore-encounter"]},"status":"finished","class":{"system":"http://terminology.hl7.org/CodeSystem/v3-ActCode","code":"EMER","display":"emergency","userSelected":true},"type":[{"coding":[{"system":"http://snomed.info/sct","code":"4525004"}]}],"subject":{"reference":"Patient/2ecbb381-211e-421a-8053-21c820f33043"},"period":{"start":"2026-10-10T06:15:00+00:00","end":"2026-10-10T23:59:00+00:00"},"length":{"value":0,"unit":"days"}},"request":{"method":"PUT","url":"Encounter/8164c577-05d5-4894-8c37-265dbce78ec9"}},{"fullUrl":"https://madie.cms.gov/Encounter/430d5fca-f3b7-470d-9960-be11be78bf5e","resource":{"resourceType":"Encounter","id":"430d5fca-f3b7-470d-9960-be11be78bf5e","meta":{"profile":["http://hl7.org/fhir/us/qicore/StructureDefinition/qicore-encounter"]},"status":"finished","class":{"system":"http://terminology.hl7.org/CodeSystem/v3-ActCode","code":"OBSENC","display":"observation encounter","userSelected":true},"type":[{"coding":[{"system":"http://snomed.info/sct","code":"448851000124103"}]}],"subject":{"reference":"Patient/2ecbb381-211e-421a-8053-21c820f33043"},"period":{"start":"2026-10-11T01:00:00+00:00","end":"2026-10-11T01:59:00+00:00"},"length":{"value":0,"unit":"days"}},"request":{"method":"PUT","url":"Encounter/430d5fca-f3b7-470d-9960-be11be78bf5e"}},{"fullUrl":"https://madie.cms.gov/Encounter/6631fd78-1259-4b54-928c-d97584e2e873","resource":{"resourceType":"Encounter","id":"6631fd78-1259-4b54-928c-d97584e2e873","meta":{"profile":["http://hl7.org/fhir/us/qicore/StructureDefinition/qicore-encounter"]},"status":"finished","class":{"system":"http://terminology.hl7.org/CodeSystem/v3-ActCode","code":"IMP","display":"inpatient encounter","userSelected":true},"type":[{"coding":[{"system":"http://snomed.info/sct","code":"32485007"}]}],"subject":{"reference":"Patient/2ecbb381-211e-421a-8053-21c820f33043"},"period":{"start":"2026-10-11T03:00:00+00:00","end":"2026-10-15T11:30:00+00:00"},"length":{"value":4,"unit":"days"},"diagnosis":[{"condition":{"reference":"Condition/0c7c316b-36fa-4998-bc37-8c67ad46e08f"},"use":{"coding":[{"system":"http://terminology.hl7.org/CodeSystem/diagnosis-role","code":"billing","display":"Billing"}]},"rank":1}]},"request":{"method":"PUT","url":"Encounter/6631fd78-1259-4b54-928c-d97584e2e873"}},{"fullUrl":"https://madie.cms.gov/Observation/cb9ae4ae-b90b-4239-a5d4-964e5df1f7e8","resource":{"resourceType":"Observation","id":"cb9ae4ae-b90b-4239-a5d4-964e5df1f7e8","meta":{"profile":["http://hl7.org/fhir/us/qicore/StructureDefinition/qicore-observation"]},"status":"final","category":[{"coding":[{"system":"http://terminology.hl7.org/CodeSystem/observation-category","code":"laboratory","display":"Laboratory"}]}],"code":{"coding":[{"system":"http://loinc.org","code":"34714-6"}]},"subject":{"reference":"Patient/2ecbb381-211e-421a-8053-21c820f33043"},"effectivePeriod":{"start":"2026-10-11T08:00:00+00:00"},"issued":"2026-10-11T01:00:00.000+00:00","valueQuantity":{"value":3.6}},"request":{"method":"PUT","url":"Observation/cb9ae4ae-b90b-4239-a5d4-964e5df1f7e8"}},{"fullUrl":"https://madie.cms.gov/Coverage/61bbbd88-06bc-4167-88f0-12ff57b57888","resource":{"resourceType":"Coverage","id":"61bbbd88-06bc-4167-88f0-12ff57b57888","status":"active","beneficiary":{"reference":"Patient/2ecbb381-211e-421a-8053-21c820f33043"},"period":{"start":"1976-09-26T08:00:00+00:00"},"payor":[{"reference":"Organization/a6c3e6fa-301e-4714-9d04-3dde9a7e7c49"}]},"request":{"method":"PUT","url":"Coverage/61bbbd88-06bc-4167-88f0-12ff57b57888"}},{"fullUrl":"https://madie.cms.gov/Condition/0c7c316b-36fa-4998-bc37-8c67ad46e08f","resource":{"resourceType":"Condition","id":"0c7c316b-36fa-4998-bc37-8c67ad46e08f","meta":{"profile":["http://hl7.org/fhir/us/qicore/StructureDefinition/qicore-condition"]},"clinicalStatus":{"coding":[{"system":"http://terminology.hl7.org/CodeSystem/condition-clinical","code":"active"}]},"verificationStatus":{"coding":[{"system":"http://terminology.hl7.org/CodeSystem/condition-ver-status","code":"confirmed"}]},"category":[{"coding":[{"system":"http://terminology.hl7.org/CodeSystem/condition-category","code":"encounter-diagnosis","display":"Encounter Diagnosis"}]}],"code":{"coding":[{"system":"http://snomed.info/sct","version":"2020-09","code":"111297002","display":"Nonparalytic stroke (disorder)","userSelected":true}]},"subject":{"reference":"Patient/2ecbb381-211e-421a-8053-21c820f33043"},"recordedDate":"2026-08-06T08:00:00.000+00:00"},"request":{"method":"PUT","url":"Condition/0c7c316b-36fa-4998-bc37-8c67ad46e08f"}},{"fullUrl":"https://madie.cms.gov/Organization/306f52b7-1f40-48db-9aff-18a0ff50ad94","resource":{"resourceType":"Organization","id":"a6c3e6fa-301e-4714-9d04-3dde9a7e7c49","meta":{"profile":["http://hl7.org/fhir/us/qicore/StructureDefinition/qicore-organization"]},"identifier":[{"use":"temp","system":"urn:oid:2.16.840.1.113883.4.4","value":"21-3259825"}],"active":true,"type":[{"coding":[{"system":"http://terminology.hl7.org/CodeSystem/organization-type","code":"pay","display":"Payer"}]}],"name":"Blue Cross Blue Shield of Texas","telecom":[{"system":"phone","value":"(+1) 972-766-6900"}],"address":[{"use":"billing","type":"postal","line":["P.O. Box 660044"],"city":"Dallas","state":"TX","postalCode":"75266-0044","country":"USA"}]},"request":{"method":"PUT","url":"Organization/a6c3e6fa-301e-4714-9d04-3dde9a7e7c49"}},{"fullUrl":"https://madie.cms.gov/MeasureReport/a5c4bbbb-e219-4741-aeee-53bfec3f9e52","resource":{"resourceType":"MeasureReport","id":"a5c4bbbb-e219-4741-aeee-53bfec3f9e52","meta":{"profile":["http://hl7.org/fhir/us/cqfmeasures/StructureDefinition/test-case-cqfm"]},"contained":[{"resourceType":"Parameters","id":"d95328da-28e2-49d1-a8fc-f643e8727e98-parameters","parameter":[{"name":"subject","valueString":"2ecbb381-211e-421a-8053-21c820f33043"}]}],"extension":[{"url":"http://hl7.org/fhir/us/cqfmeasures/StructureDefinition/cqfm-inputParameters","valueReference":{"reference":"#d95328da-28e2-49d1-a8fc-f643e8727e98-parameters"}},{"url":"http://hl7.org/fhir/us/cqfmeasures/StructureDefinition/cqfm-testCaseDescription","valueMarkdown":"Patient receives INR day of Obs, ED ends 61 min before Obs start at midnight, Obs ends 61 min before IP start. Testing Day of operator with HospitalizationWithObservation function.\n"}],"modifierExtension":[{"url":"http://hl7.org/fhir/us/cqfmeasures/StructureDefinition/cqfm-isTestCase","valueBoolean":true}],"status":"complete","type":"individual","measure":"https://madie.cms.gov/Measure/CMS72FHIRSTKAntithromboticDay2","period":{"start":"2026-01-01","end":"2026-12-31"},"group":[{"population":[{"code":{"coding":[{"system":"http://terminology.hl7.org/CodeSystem/measure-population","code":"initial-population","display":"Initial Population"}]},"count":1},{"code":{"coding":[{"system":"http://terminology.hl7.org/CodeSystem/measure-population","code":"denominator","display":"Denominator"}]},"count":1},{"code":{"coding":[{"system":"http://terminology.hl7.org/CodeSystem/measure-population","code":"denominator-exclusion","display":"Denominator Exclusion"}]},"count":0},{"code":{"coding":[{"system":"http://terminology.hl7.org/CodeSystem/measure-population","code":"numerator","display":"Numerator"}]},"count":0},{"code":{"coding":[{"system":"http://terminology.hl7.org/CodeSystem/measure-population","code":"denominator-exception","display":"Denominator Exception"}]},"count":1}]}]},"request":{"method":"PUT","url":"MeasureReport/a5c4bbbb-e219-4741-aeee-53bfec3f9e52"}}]}