{"resourceType":"Bundle","id":"tests-eaed86d3-918d-44e3-adca-fb62c088582a-bundle","type":"transaction","entry":[{"fullUrl":"https://madie.cms.gov/Patient/eaed86d3-918d-44e3-adca-fb62c088582a","resource":{"resourceType":"Patient","id":"eaed86d3-918d-44e3-adca-fb62c088582a","meta":{"profile":["http://hl7.org/fhir/us/qicore/StructureDefinition/qicore-patient"]},"text":{"status":"generated","div":"<div xmlns=\"http://www.w3.org/1999/xhtml\"><div class=\"hapiHeaderText\">NotEncPrinDxIscheStroke <b>DENOMFAIL </b></div><table class=\"hapiPropertyTable\"><tbody><tr><td>Identifier</td><td>d9b38eced0114bfcc490e5b8972269df</td></tr><tr><td>Date of birth</td><td><span>20 August 1994</span></td></tr></tbody></table></div>"},"extension":[{"url":"http://hl7.org/fhir/us/core/StructureDefinition/us-core-race","extension":[{"url":"ombCategory","valueCoding":{"system":"urn:oid:2.16.840.1.113883.6.238","code":"1002-5","display":"American Indian or Alaska Native","userSelected":true}},{"url":"text","valueString":"American Indian or Alaska Native"}]},{"url":"http://hl7.org/fhir/us/core/StructureDefinition/us-core-ethnicity","extension":[{"url":"ombCategory","valueCoding":{"system":"urn:oid:2.16.840.1.113883.6.238","code":"2186-5","display":"Not Hispanic or Latino","userSelected":true}},{"url":"text","valueString":"Not Hispanic or Latino"}]}],"identifier":[{"type":{"coding":[{"system":"http://terminology.hl7.org/CodeSystem/v2-0203","code":"MR"}]},"system":"https://bonnie-fhir.healthit.gov/","value":"60f82c2e98086b570510e277"}],"active":true,"name":[{"use":"usual","family":"DENOMFail","given":["NotEncPrinDxIscheStroke"]}],"gender":"male","birthDate":"1995-08-20"},"request":{"method":"PUT","url":"Patient/eaed86d3-918d-44e3-adca-fb62c088582a"}},{"fullUrl":"https://madie.cms.gov/Encounter/a2a34f38-fc15-44ff-9c8a-a2f542c6af5d","resource":{"resourceType":"Encounter","id":"a2a34f38-fc15-44ff-9c8a-a2f542c6af5d","meta":{"profile":["http://hl7.org/fhir/us/qicore/StructureDefinition/qicore-encounter"]},"status":"finished","class":{"system":"http://terminology.hl7.org/CodeSystem/v3-ActCode","code":"IMP","display":"inpatient encounter"},"type":[{"coding":[{"system":"http://snomed.info/sct","code":"32485007"}]}],"subject":{"reference":"Patient/eaed86d3-918d-44e3-adca-fb62c088582a"},"period":{"start":"2026-08-21T00:00:00+00:00","end":"2026-12-18T23:59:00+00:00"},"length":{"value":119,"unit":"days"},"diagnosis":[{"condition":{"reference":"Condition/e48452dd-a6d8-4d03-a7b3-d17a25e768c3"},"use":{"coding":[{"system":"http://snomed.info/sct","code":"195155004","display":"Hemorrhagic Stroke"}]},"rank":1}]},"request":{"method":"PUT","url":"Encounter/a2a34f38-fc15-44ff-9c8a-a2f542c6af5d"}},{"fullUrl":"https://madie.cms.gov/Coverage/9bfbec54-8e3a-4f84-9654-4f493f3c749b","resource":{"resourceType":"Coverage","id":"9bfbec54-8e3a-4f84-9654-4f493f3c749b","status":"active","beneficiary":{"reference":"Patient/eaed86d3-918d-44e3-adca-fb62c088582a"},"period":{"start":"1995-08-20T07:00:00+00:00"},"payor":[{"reference":"Organization/4da248b0-6e59-49b7-b80e-338aa21d299f"}]},"request":{"method":"PUT","url":"Coverage/9bfbec54-8e3a-4f84-9654-4f493f3c749b"}},{"fullUrl":"https://madie.cms.gov/Condition/751c4fb5-fe59-4dab-9e15-b0caced11507","resource":{"resourceType":"Condition","id":"751c4fb5-fe59-4dab-9e15-b0caced11507","meta":{"profile":["http://hl7.org/fhir/us/qicore/StructureDefinition/qicore-condition"]},"clinicalStatus":{"coding":[{"system":"http://terminology.hl7.org/CodeSystem/condition-clinical","code":"active"}]},"verificationStatus":{"coding":[{"system":"http://terminology.hl7.org/CodeSystem/condition-ver-status","code":"confirmed"}]},"category":[{"coding":[{"system":"http://terminology.hl7.org/CodeSystem/condition-category","code":"encounter-diagnosis","display":"Encounter Diagnosis"}]}],"code":{"coding":[{"system":"http://snomed.info/sct","version":"2020-09","code":"111297002","display":"Nonparalytic stroke (disorder)","userSelected":true}]},"subject":{"reference":"Patient/eaed86d3-918d-44e3-adca-fb62c088582a"},"recordedDate":"2026-08-16T08:00:00.000+00:00"},"request":{"method":"PUT","url":"Condition/751c4fb5-fe59-4dab-9e15-b0caced11507"}},{"fullUrl":"https://madie.cms.gov/Condition/e48452dd-a6d8-4d03-a7b3-d17a25e768c3","resource":{"resourceType":"Condition","id":"e48452dd-a6d8-4d03-a7b3-d17a25e768c3","meta":{"profile":["http://hl7.org/fhir/us/qicore/StructureDefinition/qicore-condition"]},"clinicalStatus":{"coding":[{"system":"http://terminology.hl7.org/CodeSystem/condition-clinical","code":"active"}]},"verificationStatus":{"coding":[{"system":"http://terminology.hl7.org/CodeSystem/condition-ver-status","code":"confirmed"}]},"category":[{"coding":[{"system":"http://terminology.hl7.org/CodeSystem/condition-category","code":"encounter-diagnosis","display":"Encounter Diagnosis"}]}],"code":{"coding":[{"system":"http://snomed.info/sct","version":"2020-09","code":"195155004","display":"Subarachnoid hemorrhage from carotid siphon and bifurcation (disorder)","userSelected":true}]},"subject":{"reference":"Patient/eaed86d3-918d-44e3-adca-fb62c088582a"},"recordedDate":"2026-08-16T08:00:00.000+00:00"},"request":{"method":"PUT","url":"Condition/e48452dd-a6d8-4d03-a7b3-d17a25e768c3"}},{"fullUrl":"https://madie.cms.gov/Organization/f927e9ea-3524-4998-b613-f8fea8e919fd","resource":{"resourceType":"Organization","id":"4da248b0-6e59-49b7-b80e-338aa21d299f","meta":{"profile":["http://hl7.org/fhir/us/qicore/StructureDefinition/qicore-organization"]},"identifier":[{"use":"temp","system":"urn:oid:2.16.840.1.113883.4.4","value":"21-3259825"}],"active":true,"type":[{"coding":[{"system":"http://terminology.hl7.org/CodeSystem/organization-type","code":"pay","display":"Payer"}]}],"name":"Blue Cross Blue Shield of Texas","telecom":[{"system":"phone","value":"(+1) 972-766-6900"}],"address":[{"use":"billing","type":"postal","line":["P.O. Box 660044"],"city":"Dallas","state":"TX","postalCode":"75266-0044","country":"USA"}]},"request":{"method":"PUT","url":"Organization/4da248b0-6e59-49b7-b80e-338aa21d299f"}},{"fullUrl":"https://madie.cms.gov/Practitioner/79f3611e-dc23-453f-beb2-a56ab4c1808b","resource":{"resourceType":"Practitioner","id":"79f3611e-dc23-453f-beb2-a56ab4c1808b","identifier":[{"system":"http://hl7.org/fhir/sid/us-npi","value":"123456"}],"name":[{"family":"Evil","prefix":["Dr"]}]},"request":{"method":"PUT","url":"Practitioner/79f3611e-dc23-453f-beb2-a56ab4c1808b"}},{"fullUrl":"https://madie.cms.gov/MeasureReport/fe6603a5-e607-471d-89f1-c1040612a3f8","resource":{"resourceType":"MeasureReport","id":"fe6603a5-e607-471d-89f1-c1040612a3f8","meta":{"profile":["http://hl7.org/fhir/us/cqfmeasures/StructureDefinition/test-case-cqfm"]},"contained":[{"resourceType":"Parameters","id":"7642150d-0cbc-46aa-815f-7ef508cee4f4-parameters","parameter":[{"name":"subject","valueString":"eaed86d3-918d-44e3-adca-fb62c088582a"}]}],"extension":[{"url":"http://hl7.org/fhir/us/cqfmeasures/StructureDefinition/cqfm-inputParameters","valueReference":{"reference":"#7642150d-0cbc-46aa-815f-7ef508cee4f4-parameters"}},{"url":"http://hl7.org/fhir/us/cqfmeasures/StructureDefinition/cqfm-testCaseDescription","valueMarkdown":"  EncPrinDx not Ische Stroke       EncPrinDx=HemStroke\n"}],"modifierExtension":[{"url":"http://hl7.org/fhir/us/cqfmeasures/StructureDefinition/cqfm-isTestCase","valueBoolean":true}],"status":"complete","type":"individual","measure":"https://madie.cms.gov/Measure/CMS72FHIRSTKAntithromboticDay2","period":{"start":"2026-01-01","end":"2026-12-31"},"group":[{"population":[{"code":{"coding":[{"system":"http://terminology.hl7.org/CodeSystem/measure-population","code":"initial-population","display":"Initial Population"}]},"count":0},{"code":{"coding":[{"system":"http://terminology.hl7.org/CodeSystem/measure-population","code":"denominator","display":"Denominator"}]},"count":0},{"code":{"coding":[{"system":"http://terminology.hl7.org/CodeSystem/measure-population","code":"denominator-exclusion","display":"Denominator Exclusion"}]},"count":0},{"code":{"coding":[{"system":"http://terminology.hl7.org/CodeSystem/measure-population","code":"numerator","display":"Numerator"}]},"count":0},{"code":{"coding":[{"system":"http://terminology.hl7.org/CodeSystem/measure-population","code":"denominator-exception","display":"Denominator Exception"}]},"count":0}]}]},"request":{"method":"PUT","url":"MeasureReport/fe6603a5-e607-471d-89f1-c1040612a3f8"}}]}