{"resourceType":"Bundle","id":"tests-03ab1b9c-4476-4981-bd4c-6e444086f54f-bundle","type":"transaction","entry":[{"fullUrl":"https://madie.cms.gov/Patient/03ab1b9c-4476-4981-bd4c-6e444086f54f","resource":{"resourceType":"Patient","id":"03ab1b9c-4476-4981-bd4c-6e444086f54f","meta":{"profile":["http://hl7.org/fhir/us/qicore/StructureDefinition/qicore-patient"]},"text":{"status":"generated","div":"<div xmlns=\"http://www.w3.org/1999/xhtml\"><div class=\"hapiHeaderText\">XDayOfEnc_ED&lt;1hrObs&lt;1hrDayOfBFEncDayAft <b>DENEXCEPASS </b></div><table class=\"hapiPropertyTable\"><tbody><tr><td>Identifier</td><td>72b9bc20a0b1c4612a32f8ee7007ccbe128f0b6ceb904dbb635194780fcb7cb4</td></tr><tr><td>Date of birth</td><td><span>26 September 1975</span></td></tr></tbody></table></div>"},"extension":[{"url":"http://hl7.org/fhir/us/core/StructureDefinition/us-core-race","extension":[{"url":"ombCategory","valueCoding":{"system":"urn:oid:2.16.840.1.113883.6.238","code":"1002-5","display":"American Indian or Alaska Native","userSelected":true}},{"url":"text","valueString":"American Indian or Alaska Native"}]},{"url":"http://hl7.org/fhir/us/core/StructureDefinition/us-core-ethnicity","extension":[{"url":"ombCategory","valueCoding":{"system":"urn:oid:2.16.840.1.113883.6.238","code":"2135-2","display":"Hispanic or Latino","userSelected":true}},{"url":"text","valueString":"Hispanic or Latino"}]}],"identifier":[{"type":{"coding":[{"system":"http://terminology.hl7.org/CodeSystem/v2-0203","code":"MR"}]},"system":"https://bonnie-fhir.healthit.gov/","value":"60f82c2f98086b570510e2a9"}],"active":true,"name":[{"use":"usual","family":"DENEXCEPass","given":["XDayOfEnc_ED<1hrObs<1hrDayOfBFEncDayAft"]}],"gender":"female","birthDate":"1976-09-26"},"request":{"method":"PUT","url":"Patient/03ab1b9c-4476-4981-bd4c-6e444086f54f"}},{"fullUrl":"https://madie.cms.gov/Encounter/1157d316-7f8a-4ac0-bada-1b48bf075477","resource":{"resourceType":"Encounter","id":"1157d316-7f8a-4ac0-bada-1b48bf075477","meta":{"profile":["http://hl7.org/fhir/us/qicore/StructureDefinition/qicore-encounter"]},"status":"finished","class":{"system":"http://terminology.hl7.org/CodeSystem/v3-ActCode","code":"EMER","display":"emergency","userSelected":true},"type":[{"coding":[{"system":"http://snomed.info/sct","code":"4525004"}]}],"subject":{"reference":"Patient/03ab1b9c-4476-4981-bd4c-6e444086f54f"},"period":{"start":"2026-10-11T06:15:00+00:00","end":"2026-10-11T06:30:00+00:00"},"length":{"value":0,"unit":"days"}},"request":{"method":"PUT","url":"Encounter/1157d316-7f8a-4ac0-bada-1b48bf075477"}},{"fullUrl":"https://madie.cms.gov/Encounter/2356c21f-99f9-4af6-b3f9-ca65405c1589","resource":{"resourceType":"Encounter","id":"2356c21f-99f9-4af6-b3f9-ca65405c1589","meta":{"profile":["http://hl7.org/fhir/us/qicore/StructureDefinition/qicore-encounter"]},"status":"finished","class":{"system":"http://terminology.hl7.org/CodeSystem/v3-ActCode","code":"OBSENC","display":"observation encounter","userSelected":true},"type":[{"coding":[{"system":"http://snomed.info/sct","code":"448851000124103"}]}],"subject":{"reference":"Patient/03ab1b9c-4476-4981-bd4c-6e444086f54f"},"period":{"start":"2026-10-11T06:31:00+00:00","end":"2026-10-11T23:59:00+00:00"},"length":{"value":0,"unit":"days"}},"request":{"method":"PUT","url":"Encounter/2356c21f-99f9-4af6-b3f9-ca65405c1589"}},{"fullUrl":"https://madie.cms.gov/Encounter/62cdc983-f928-480b-badb-99fceab6c7e8","resource":{"resourceType":"Encounter","id":"62cdc983-f928-480b-badb-99fceab6c7e8","meta":{"profile":["http://hl7.org/fhir/us/qicore/StructureDefinition/qicore-encounter"]},"status":"finished","class":{"system":"http://terminology.hl7.org/CodeSystem/v3-ActCode","code":"IMP","display":"inpatient encounter","userSelected":true},"type":[{"coding":[{"system":"http://snomed.info/sct","code":"32485007"}]}],"subject":{"reference":"Patient/03ab1b9c-4476-4981-bd4c-6e444086f54f"},"period":{"start":"2026-10-12T00:00:00+00:00","end":"2026-10-15T11:30:00+00:00"},"length":{"value":3,"unit":"days"},"diagnosis":[{"condition":{"reference":"Condition/2b067f8c-c59d-4193-bd1a-da6425e7ca38"},"use":{"coding":[{"system":"http://terminology.hl7.org/CodeSystem/diagnosis-role","code":"billing","display":"Billing"}]},"rank":1}]},"request":{"method":"PUT","url":"Encounter/62cdc983-f928-480b-badb-99fceab6c7e8"}},{"fullUrl":"https://madie.cms.gov/Observation/1d3bef1b-53bb-4603-b5bd-d1360e9d1ff3","resource":{"resourceType":"Observation","id":"1d3bef1b-53bb-4603-b5bd-d1360e9d1ff3","meta":{"profile":["http://hl7.org/fhir/us/qicore/StructureDefinition/qicore-observation"]},"status":"final","category":[{"coding":[{"system":"http://terminology.hl7.org/CodeSystem/observation-category","code":"laboratory","display":"Laboratory"}]}],"code":{"coding":[{"system":"http://loinc.org","code":"34714-6"}]},"subject":{"reference":"Patient/03ab1b9c-4476-4981-bd4c-6e444086f54f"},"effectivePeriod":{"start":"2026-10-10T06:14:00+00:00"},"issued":"2026-10-12T00:00:00.000+00:00","valueQuantity":{"value":3.6}},"request":{"method":"PUT","url":"Observation/1d3bef1b-53bb-4603-b5bd-d1360e9d1ff3"}},{"fullUrl":"https://madie.cms.gov/Coverage/9a787970-1fe1-4b8a-9214-c075e09b7407","resource":{"resourceType":"Coverage","id":"9a787970-1fe1-4b8a-9214-c075e09b7407","status":"active","beneficiary":{"reference":"Patient/03ab1b9c-4476-4981-bd4c-6e444086f54f"},"period":{"start":"1976-09-26T08:00:00+00:00"},"payor":[{"reference":"Organization/9e9b3f13-a353-4173-b29b-947d6f1f2031"}]},"request":{"method":"PUT","url":"Coverage/9a787970-1fe1-4b8a-9214-c075e09b7407"}},{"fullUrl":"https://madie.cms.gov/Condition/2b067f8c-c59d-4193-bd1a-da6425e7ca38","resource":{"resourceType":"Condition","id":"2b067f8c-c59d-4193-bd1a-da6425e7ca38","meta":{"profile":["http://hl7.org/fhir/us/qicore/StructureDefinition/qicore-condition"]},"clinicalStatus":{"coding":[{"system":"http://terminology.hl7.org/CodeSystem/condition-clinical","code":"active"}]},"verificationStatus":{"coding":[{"system":"http://terminology.hl7.org/CodeSystem/condition-ver-status","code":"confirmed"}]},"category":[{"coding":[{"system":"http://terminology.hl7.org/CodeSystem/condition-category","code":"encounter-diagnosis","display":"Encounter Diagnosis"}]}],"code":{"coding":[{"system":"http://snomed.info/sct","version":"2020-09","code":"111297002","display":"Nonparalytic stroke (disorder)","userSelected":true}]},"subject":{"reference":"Patient/03ab1b9c-4476-4981-bd4c-6e444086f54f"},"recordedDate":"2026-08-06T08:00:00.000+00:00"},"request":{"method":"PUT","url":"Condition/2b067f8c-c59d-4193-bd1a-da6425e7ca38"}},{"fullUrl":"https://madie.cms.gov/Organization/eefc3975-71f6-438f-a8af-16ea2090fbc5","resource":{"resourceType":"Organization","id":"9e9b3f13-a353-4173-b29b-947d6f1f2031","meta":{"profile":["http://hl7.org/fhir/us/qicore/StructureDefinition/qicore-organization"]},"identifier":[{"use":"temp","system":"urn:oid:2.16.840.1.113883.4.4","value":"21-3259825"}],"active":true,"type":[{"coding":[{"system":"http://terminology.hl7.org/CodeSystem/organization-type","code":"pay","display":"Payer"}]}],"name":"Blue Cross Blue Shield of Texas","telecom":[{"system":"phone","value":"(+1) 972-766-6900"}],"address":[{"use":"billing","type":"postal","line":["P.O. Box 660044"],"city":"Dallas","state":"TX","postalCode":"75266-0044","country":"USA"}]},"request":{"method":"PUT","url":"Organization/9e9b3f13-a353-4173-b29b-947d6f1f2031"}},{"fullUrl":"https://madie.cms.gov/MeasureReport/e5593702-caab-4c17-88a4-53c1be6fad2f","resource":{"resourceType":"MeasureReport","id":"e5593702-caab-4c17-88a4-53c1be6fad2f","meta":{"profile":["http://hl7.org/fhir/us/cqfmeasures/StructureDefinition/test-case-cqfm"]},"contained":[{"resourceType":"Parameters","id":"3afb5d22-45cb-4f32-8eb0-2cd730f4a653-parameters","parameter":[{"name":"subject","valueString":"03ab1b9c-4476-4981-bd4c-6e444086f54f"}]}],"extension":[{"url":"http://hl7.org/fhir/us/cqfmeasures/StructureDefinition/cqfm-inputParameters","valueReference":{"reference":"#3afb5d22-45cb-4f32-8eb0-2cd730f4a653-parameters"}},{"url":"http://hl7.org/fhir/us/cqfmeasures/StructureDefinition/cqfm-testCaseDescription","valueMarkdown":"Patient receives INR after midnight, 1 day after IP start. ED ends 1 min before observation, Obs ends 1 min before IP start. IP starts at midnight the next day Testing Day of operator with HospitalizationWithObservation function.\n"}],"modifierExtension":[{"url":"http://hl7.org/fhir/us/cqfmeasures/StructureDefinition/cqfm-isTestCase","valueBoolean":true}],"status":"complete","type":"individual","measure":"https://madie.cms.gov/Measure/CMS72FHIRSTKAntithromboticDay2","period":{"start":"2026-01-01","end":"2026-12-31"},"group":[{"population":[{"code":{"coding":[{"system":"http://terminology.hl7.org/CodeSystem/measure-population","code":"initial-population","display":"Initial Population"}]},"count":1},{"code":{"coding":[{"system":"http://terminology.hl7.org/CodeSystem/measure-population","code":"denominator","display":"Denominator"}]},"count":1},{"code":{"coding":[{"system":"http://terminology.hl7.org/CodeSystem/measure-population","code":"denominator-exclusion","display":"Denominator Exclusion"}]},"count":0},{"code":{"coding":[{"system":"http://terminology.hl7.org/CodeSystem/measure-population","code":"numerator","display":"Numerator"}]},"count":0},{"code":{"coding":[{"system":"http://terminology.hl7.org/CodeSystem/measure-population","code":"denominator-exception","display":"Denominator Exception"}]},"count":1}]}]},"request":{"method":"PUT","url":"MeasureReport/e5593702-caab-4c17-88a4-53c1be6fad2f"}}]}