{"resourceType":"Bundle","id":"tests-a2cb4956-d7e5-45a9-8007-80dcb893203c-bundle","type":"transaction","entry":[{"fullUrl":"https://madie.cms.gov/Patient/a2cb4956-d7e5-45a9-8007-80dcb893203c","resource":{"resourceType":"Patient","id":"a2cb4956-d7e5-45a9-8007-80dcb893203c","meta":{"profile":["http://hl7.org/fhir/us/qicore/StructureDefinition/qicore-patient"]},"text":{"status":"generated","div":"<div xmlns=\"http://www.w3.org/1999/xhtml\"><div class=\"hapiHeaderText\">INRDayAftEnc_ED&lt;1hrObs&lt;1hrBFEncDayOf <b>DENEXCEPASS </b></div><table class=\"hapiPropertyTable\"><tbody><tr><td>Identifier</td><td>eb0390ddf5cccfdde210d05452662b986f9c97b164102446c8fbef7016593c62</td></tr><tr><td>Date of birth</td><td><span>26 September 1975</span></td></tr></tbody></table></div>"},"extension":[{"url":"http://hl7.org/fhir/us/core/StructureDefinition/us-core-race","extension":[{"url":"ombCategory","valueCoding":{"system":"urn:oid:2.16.840.1.113883.6.238","code":"2054-5","display":"Black or African American","userSelected":true}},{"url":"text","valueString":"Black or African American"}]},{"url":"http://hl7.org/fhir/us/core/StructureDefinition/us-core-ethnicity","extension":[{"url":"ombCategory","valueCoding":{"system":"urn:oid:2.16.840.1.113883.6.238","code":"2186-5","display":"Not Hispanic or Latino","userSelected":true}},{"url":"text","valueString":"Not Hispanic or Latino"}]}],"identifier":[{"type":{"coding":[{"system":"http://terminology.hl7.org/CodeSystem/v2-0203","code":"MR"}]},"system":"https://bonnie-fhir.healthit.gov/","value":"60f82c2f98086b570510e2a8"}],"active":true,"name":[{"use":"usual","family":"DENEXCEPass","given":["INRDayAftEnc_ED<1hrObs<1hrBFEncDayOf"]}],"gender":"female","birthDate":"1976-09-26"},"request":{"method":"PUT","url":"Patient/a2cb4956-d7e5-45a9-8007-80dcb893203c"}},{"fullUrl":"https://madie.cms.gov/Encounter/87aabb9c-de47-490c-b810-3dd005d091ae","resource":{"resourceType":"Encounter","id":"87aabb9c-de47-490c-b810-3dd005d091ae","meta":{"profile":["http://hl7.org/fhir/us/qicore/StructureDefinition/qicore-encounter"]},"status":"finished","class":{"system":"http://terminology.hl7.org/CodeSystem/v3-ActCode","code":"EMER","display":"emergency","userSelected":true},"type":[{"coding":[{"system":"http://snomed.info/sct","code":"4525004"}]}],"subject":{"reference":"Patient/a2cb4956-d7e5-45a9-8007-80dcb893203c"},"period":{"start":"2026-10-11T06:15:00+00:00","end":"2026-10-11T06:30:00+00:00"},"length":{"value":0,"unit":"days"}},"request":{"method":"PUT","url":"Encounter/87aabb9c-de47-490c-b810-3dd005d091ae"}},{"fullUrl":"https://madie.cms.gov/Encounter/49f35eef-bd7d-47b4-8166-883390132316","resource":{"resourceType":"Encounter","id":"49f35eef-bd7d-47b4-8166-883390132316","meta":{"profile":["http://hl7.org/fhir/us/qicore/StructureDefinition/qicore-encounter"]},"status":"finished","class":{"system":"http://terminology.hl7.org/CodeSystem/v3-ActCode","code":"OBSENC","display":"observation encounter","userSelected":true},"type":[{"coding":[{"system":"http://snomed.info/sct","code":"448851000124103"}]}],"subject":{"reference":"Patient/a2cb4956-d7e5-45a9-8007-80dcb893203c"},"period":{"start":"2026-10-11T06:31:00+00:00","end":"2026-10-11T07:30:00+00:00"},"length":{"value":0,"unit":"days"}},"request":{"method":"PUT","url":"Encounter/49f35eef-bd7d-47b4-8166-883390132316"}},{"fullUrl":"https://madie.cms.gov/Encounter/1cb0bf2e-59a9-4614-b847-6af2fa6e5544","resource":{"resourceType":"Encounter","id":"1cb0bf2e-59a9-4614-b847-6af2fa6e5544","meta":{"profile":["http://hl7.org/fhir/us/qicore/StructureDefinition/qicore-encounter"]},"status":"finished","class":{"system":"http://terminology.hl7.org/CodeSystem/v3-ActCode","code":"IMP","display":"inpatient encounter","userSelected":true},"type":[{"coding":[{"system":"http://snomed.info/sct","code":"32485007"}]}],"subject":{"reference":"Patient/a2cb4956-d7e5-45a9-8007-80dcb893203c"},"period":{"start":"2026-10-11T07:31:00+00:00","end":"2026-10-15T11:30:00+00:00"},"length":{"value":4,"unit":"days"},"diagnosis":[{"condition":{"reference":"Condition/159a9bbe-2d8d-44f7-910f-25c9f209d4d0"},"use":{"coding":[{"system":"http://terminology.hl7.org/CodeSystem/diagnosis-role","code":"billing","display":"Billing"}]},"rank":1}]},"request":{"method":"PUT","url":"Encounter/1cb0bf2e-59a9-4614-b847-6af2fa6e5544"}},{"fullUrl":"https://madie.cms.gov/Observation/4038ddcb-059f-4ce0-8174-d7a6032ff13d","resource":{"resourceType":"Observation","id":"4038ddcb-059f-4ce0-8174-d7a6032ff13d","meta":{"profile":["http://hl7.org/fhir/us/qicore/StructureDefinition/qicore-observation"]},"status":"final","category":[{"coding":[{"system":"http://terminology.hl7.org/CodeSystem/observation-category","code":"laboratory","display":"Laboratory"}]}],"code":{"coding":[{"system":"http://loinc.org","code":"34714-6"}]},"subject":{"reference":"Patient/a2cb4956-d7e5-45a9-8007-80dcb893203c"},"effectivePeriod":{"start":"2026-10-10T06:14:00+00:00"},"issued":"2026-10-12T00:00:00.000+00:00","valueQuantity":{"value":3.6}},"request":{"method":"PUT","url":"Observation/4038ddcb-059f-4ce0-8174-d7a6032ff13d"}},{"fullUrl":"https://madie.cms.gov/Coverage/411b98ff-548a-447c-860c-1f70e0c5c26b","resource":{"resourceType":"Coverage","id":"411b98ff-548a-447c-860c-1f70e0c5c26b","status":"active","beneficiary":{"reference":"Patient/a2cb4956-d7e5-45a9-8007-80dcb893203c"},"period":{"start":"1976-09-26T08:00:00+00:00"},"payor":[{"reference":"Organization/880a275e-1cf2-4fb9-869b-f1d2173fdc2b"}]},"request":{"method":"PUT","url":"Coverage/411b98ff-548a-447c-860c-1f70e0c5c26b"}},{"fullUrl":"https://madie.cms.gov/Condition/159a9bbe-2d8d-44f7-910f-25c9f209d4d0","resource":{"resourceType":"Condition","id":"159a9bbe-2d8d-44f7-910f-25c9f209d4d0","meta":{"profile":["http://hl7.org/fhir/us/qicore/StructureDefinition/qicore-condition"]},"clinicalStatus":{"coding":[{"system":"http://terminology.hl7.org/CodeSystem/condition-clinical","code":"active"}]},"verificationStatus":{"coding":[{"system":"http://terminology.hl7.org/CodeSystem/condition-ver-status","code":"confirmed"}]},"category":[{"coding":[{"system":"http://terminology.hl7.org/CodeSystem/condition-category","code":"encounter-diagnosis","display":"Encounter Diagnosis"}]}],"code":{"coding":[{"system":"http://snomed.info/sct","version":"2020-09","code":"111297002","display":"Nonparalytic stroke (disorder)","userSelected":true}]},"subject":{"reference":"Patient/a2cb4956-d7e5-45a9-8007-80dcb893203c"},"recordedDate":"2026-08-06T08:00:00.000+00:00"},"request":{"method":"PUT","url":"Condition/159a9bbe-2d8d-44f7-910f-25c9f209d4d0"}},{"fullUrl":"https://madie.cms.gov/Organization/ddf77b03-6905-4de9-bd56-df7db2d8886f","resource":{"resourceType":"Organization","id":"880a275e-1cf2-4fb9-869b-f1d2173fdc2b","meta":{"profile":["http://hl7.org/fhir/us/qicore/StructureDefinition/qicore-organization"]},"identifier":[{"use":"temp","system":"urn:oid:2.16.840.1.113883.4.4","value":"21-3259825"}],"active":true,"type":[{"coding":[{"system":"http://terminology.hl7.org/CodeSystem/organization-type","code":"pay","display":"Payer"}]}],"name":"Blue Cross Blue Shield of Texas","telecom":[{"system":"phone","value":"(+1) 972-766-6900"}],"address":[{"use":"billing","type":"postal","line":["P.O. Box 660044"],"city":"Dallas","state":"TX","postalCode":"75266-0044","country":"USA"}]},"request":{"method":"PUT","url":"Organization/880a275e-1cf2-4fb9-869b-f1d2173fdc2b"}},{"fullUrl":"https://madie.cms.gov/MeasureReport/cbd48be2-ef2f-4dfc-a2d9-e48b97d32191","resource":{"resourceType":"MeasureReport","id":"cbd48be2-ef2f-4dfc-a2d9-e48b97d32191","meta":{"profile":["http://hl7.org/fhir/us/cqfmeasures/StructureDefinition/test-case-cqfm"]},"contained":[{"resourceType":"Parameters","id":"35305230-68d7-4c37-b6f2-545010a1a9ad-parameters","parameter":[{"name":"subject","valueString":"a2cb4956-d7e5-45a9-8007-80dcb893203c"}]}],"extension":[{"url":"http://hl7.org/fhir/us/cqfmeasures/StructureDefinition/cqfm-inputParameters","valueReference":{"reference":"#35305230-68d7-4c37-b6f2-545010a1a9ad-parameters"}},{"url":"http://hl7.org/fhir/us/cqfmeasures/StructureDefinition/cqfm-testCaseDescription","valueMarkdown":"Last ED ends less than 1 hour before OBS start, valid OBS, INR result date time equivalent ED start 2 days after IP start. Testing INR exclusion, valid OBS heading in scenario sheet. Vlaid INR result, outside window of day of or day after. \n"}],"modifierExtension":[{"url":"http://hl7.org/fhir/us/cqfmeasures/StructureDefinition/cqfm-isTestCase","valueBoolean":true}],"status":"complete","type":"individual","measure":"https://madie.cms.gov/Measure/CMS72FHIRSTKAntithromboticDay2","period":{"start":"2026-01-01","end":"2026-12-31"},"group":[{"population":[{"code":{"coding":[{"system":"http://terminology.hl7.org/CodeSystem/measure-population","code":"initial-population","display":"Initial Population"}]},"count":1},{"code":{"coding":[{"system":"http://terminology.hl7.org/CodeSystem/measure-population","code":"denominator","display":"Denominator"}]},"count":1},{"code":{"coding":[{"system":"http://terminology.hl7.org/CodeSystem/measure-population","code":"denominator-exclusion","display":"Denominator Exclusion"}]},"count":0},{"code":{"coding":[{"system":"http://terminology.hl7.org/CodeSystem/measure-population","code":"numerator","display":"Numerator"}]},"count":0},{"code":{"coding":[{"system":"http://terminology.hl7.org/CodeSystem/measure-population","code":"denominator-exception","display":"Denominator Exception"}]},"count":1}]}]},"request":{"method":"PUT","url":"MeasureReport/cbd48be2-ef2f-4dfc-a2d9-e48b97d32191"}}]}