{"resourceType":"Bundle","id":"tests-0c8a299c-b082-4383-b0b4-aebbb0fa9fb4-bundle","type":"transaction","entry":[{"fullUrl":"https://madie.cms.gov/Patient/0c8a299c-b082-4383-b0b4-aebbb0fa9fb4","resource":{"resourceType":"Patient","id":"0c8a299c-b082-4383-b0b4-aebbb0fa9fb4","meta":{"profile":["http://hl7.org/fhir/us/qicore/StructureDefinition/qicore-patient"]},"text":{"status":"generated","div":"<div xmlns=\"http://www.w3.org/1999/xhtml\"><div class=\"hapiHeaderText\">MedAntithromboticStart_gt1dayDuringEncIP <b>NUMERFAIL </b></div><table class=\"hapiPropertyTable\"><tbody><tr><td>Identifier</td><td>17d9cc11aebb5947545ea131f50a8a07</td></tr><tr><td>Date of birth</td><td><span>26 September 1975</span></td></tr></tbody></table></div>"},"extension":[{"url":"http://hl7.org/fhir/us/core/StructureDefinition/us-core-race","extension":[{"url":"ombCategory","valueCoding":{"system":"urn:oid:2.16.840.1.113883.6.238","code":"2054-5","display":"Black or African American","userSelected":true}},{"url":"text","valueString":"Black or African American"}]},{"url":"http://hl7.org/fhir/us/core/StructureDefinition/us-core-ethnicity","extension":[{"url":"ombCategory","valueCoding":{"system":"urn:oid:2.16.840.1.113883.6.238","code":"2186-5","display":"Not Hispanic or Latino","userSelected":true}},{"url":"text","valueString":"Not Hispanic or Latino"}]}],"identifier":[{"type":{"coding":[{"system":"http://terminology.hl7.org/CodeSystem/v2-0203","code":"MR"}]},"system":"https://bonnie-fhir.healthit.gov/","value":"60f82c2d98086b570510e25a"}],"active":true,"name":[{"use":"usual","family":"NUMERFail","given":["MedAntithromboticStart_gt1dayDuringEncIP"]}],"gender":"female","birthDate":"1976-09-26"},"request":{"method":"PUT","url":"Patient/0c8a299c-b082-4383-b0b4-aebbb0fa9fb4"}},{"fullUrl":"https://madie.cms.gov/Encounter/0052bded-2ba8-4dda-9157-156b0ae3a103","resource":{"resourceType":"Encounter","id":"0052bded-2ba8-4dda-9157-156b0ae3a103","meta":{"profile":["http://hl7.org/fhir/us/qicore/StructureDefinition/qicore-encounter"]},"status":"finished","class":{"system":"http://terminology.hl7.org/CodeSystem/v3-ActCode","code":"IMP","display":"inpatient encounter"},"type":[{"coding":[{"system":"http://snomed.info/sct","code":"32485007"}]}],"subject":{"reference":"Patient/0c8a299c-b082-4383-b0b4-aebbb0fa9fb4"},"period":{"start":"2026-10-10T09:00:00+00:00","end":"2026-10-12T11:15:00+00:00"},"length":{"value":2,"unit":"days"},"diagnosis":[{"condition":{"reference":"Condition/982498a5-979c-42e2-bf42-8449c1e2cb4d"},"use":{"coding":[{"system":"http://terminology.hl7.org/CodeSystem/diagnosis-role","code":"billing","display":"Billing"}]},"rank":1}]},"request":{"method":"PUT","url":"Encounter/0052bded-2ba8-4dda-9157-156b0ae3a103"}},{"fullUrl":"https://madie.cms.gov/MedicationAdministration/196fee4c-12dc-4a63-9fdd-e3ec6f3f4866","resource":{"resourceType":"MedicationAdministration","id":"196fee4c-12dc-4a63-9fdd-e3ec6f3f4866","meta":{"profile":["http://hl7.org/fhir/us/qicore/StructureDefinition/qicore-medicationadministration"]},"status":"completed","medicationCodeableConcept":{"coding":[{"system":"http://www.nlm.nih.gov/research/umls/rxnorm","code":"198466"}]},"subject":{"reference":"Patient/0c8a299c-b082-4383-b0b4-aebbb0fa9fb4"},"effectivePeriod":{"start":"2026-10-12T00:00:00+00:00"}},"request":{"method":"PUT","url":"MedicationAdministration/196fee4c-12dc-4a63-9fdd-e3ec6f3f4866"}},{"fullUrl":"https://madie.cms.gov/Coverage/5f9b1528-409c-4448-a54e-a788ce2551a2","resource":{"resourceType":"Coverage","id":"5f9b1528-409c-4448-a54e-a788ce2551a2","status":"active","beneficiary":{"reference":"Patient/0c8a299c-b082-4383-b0b4-aebbb0fa9fb4"},"period":{"start":"1976-09-26T08:00:00+00:00"},"payor":[{"reference":"Organization/9e9b3f13-a353-4173-b29b-947d6f1f2031"}]},"request":{"method":"PUT","url":"Coverage/5f9b1528-409c-4448-a54e-a788ce2551a2"}},{"fullUrl":"https://madie.cms.gov/Condition/982498a5-979c-42e2-bf42-8449c1e2cb4d","resource":{"resourceType":"Condition","id":"982498a5-979c-42e2-bf42-8449c1e2cb4d","meta":{"profile":["http://hl7.org/fhir/us/qicore/StructureDefinition/qicore-condition"]},"clinicalStatus":{"coding":[{"system":"http://terminology.hl7.org/CodeSystem/condition-clinical","code":"active"}]},"verificationStatus":{"coding":[{"system":"http://terminology.hl7.org/CodeSystem/condition-ver-status","code":"confirmed"}]},"category":[{"coding":[{"system":"http://terminology.hl7.org/CodeSystem/condition-category","code":"encounter-diagnosis","display":"Encounter Diagnosis"}]}],"code":{"coding":[{"system":"http://snomed.info/sct","version":"2020-09","code":"111297002","display":"Nonparalytic stroke (disorder)","userSelected":true}]},"subject":{"reference":"Patient/0c8a299c-b082-4383-b0b4-aebbb0fa9fb4"},"recordedDate":"2026-08-16T08:00:00.000+00:00"},"request":{"method":"PUT","url":"Condition/982498a5-979c-42e2-bf42-8449c1e2cb4d"}},{"fullUrl":"https://madie.cms.gov/Organization/b79172cf-34fe-494a-9971-7e6e18764a96","resource":{"resourceType":"Organization","id":"9e9b3f13-a353-4173-b29b-947d6f1f2031","meta":{"profile":["http://hl7.org/fhir/us/qicore/StructureDefinition/qicore-organization"]},"identifier":[{"use":"temp","system":"urn:oid:2.16.840.1.113883.4.4","value":"21-3259825"}],"active":true,"type":[{"coding":[{"system":"http://terminology.hl7.org/CodeSystem/organization-type","code":"pay","display":"Payer"}]}],"name":"Blue Cross Blue Shield of Texas","telecom":[{"system":"phone","value":"(+1) 972-766-6900"}],"address":[{"use":"billing","type":"postal","line":["P.O. Box 660044"],"city":"Dallas","state":"TX","postalCode":"75266-0044","country":"USA"}]},"request":{"method":"PUT","url":"Organization/9e9b3f13-a353-4173-b29b-947d6f1f2031"}},{"fullUrl":"https://madie.cms.gov/Practitioner/b4f9ba7b-81fb-45fb-bfc6-4c77303a3c50","resource":{"resourceType":"Practitioner","id":"b4f9ba7b-81fb-45fb-bfc6-4c77303a3c50","identifier":[{"system":"http://hl7.org/fhir/sid/us-npi","value":"123456"}],"name":[{"family":"Evil","prefix":["Dr"]}]},"request":{"method":"PUT","url":"Practitioner/b4f9ba7b-81fb-45fb-bfc6-4c77303a3c50"}},{"fullUrl":"https://madie.cms.gov/MeasureReport/5081afbd-b0ec-4efa-9232-b41e930df2b2","resource":{"resourceType":"MeasureReport","id":"5081afbd-b0ec-4efa-9232-b41e930df2b2","meta":{"profile":["http://hl7.org/fhir/us/cqfmeasures/StructureDefinition/test-case-cqfm"]},"contained":[{"resourceType":"Parameters","id":"e8405347-59de-48a1-acc9-8b127973400e-parameters","parameter":[{"name":"subject","valueString":"0c8a299c-b082-4383-b0b4-aebbb0fa9fb4"}]}],"extension":[{"url":"http://hl7.org/fhir/us/cqfmeasures/StructureDefinition/cqfm-inputParameters","valueReference":{"reference":"#e8405347-59de-48a1-acc9-8b127973400e-parameters"}},{"url":"http://hl7.org/fhir/us/cqfmeasures/StructureDefinition/cqfm-testCaseDescription","valueMarkdown":"\"Patient receives antithrombotic in the ED. MedAntithromboticStart EQ 1day \nglobal.\"\"Hospitalization\"\" =(Ed+IP)\"\n"}],"modifierExtension":[{"url":"http://hl7.org/fhir/us/cqfmeasures/StructureDefinition/cqfm-isTestCase","valueBoolean":true}],"status":"complete","type":"individual","measure":"https://madie.cms.gov/Measure/CMS72FHIRSTKAntithromboticDay2","period":{"start":"2026-01-01","end":"2026-12-31"},"group":[{"population":[{"code":{"coding":[{"system":"http://terminology.hl7.org/CodeSystem/measure-population","code":"initial-population","display":"Initial Population"}]},"count":1},{"code":{"coding":[{"system":"http://terminology.hl7.org/CodeSystem/measure-population","code":"denominator","display":"Denominator"}]},"count":1},{"code":{"coding":[{"system":"http://terminology.hl7.org/CodeSystem/measure-population","code":"denominator-exclusion","display":"Denominator Exclusion"}]},"count":0},{"code":{"coding":[{"system":"http://terminology.hl7.org/CodeSystem/measure-population","code":"numerator","display":"Numerator"}]},"count":0},{"code":{"coding":[{"system":"http://terminology.hl7.org/CodeSystem/measure-population","code":"denominator-exception","display":"Denominator Exception"}]},"count":0}]}]},"request":{"method":"PUT","url":"MeasureReport/5081afbd-b0ec-4efa-9232-b41e930df2b2"}}]}