{"resourceType":"Bundle","id":"tests-4b6a9c86-3aad-4828-be61-bab6cd0c3140-bundle","type":"transaction","entry":[{"fullUrl":"https://madie.cms.gov/Patient/4b6a9c86-3aad-4828-be61-bab6cd0c3140","resource":{"resourceType":"Patient","id":"4b6a9c86-3aad-4828-be61-bab6cd0c3140","meta":{"profile":["http://hl7.org/fhir/us/qicore/StructureDefinition/qicore-patient"]},"text":{"status":"generated","div":"<div xmlns=\"http://www.w3.org/1999/xhtml\"><div class=\"hapiHeaderText\">MedOrdMedReason_eq0dayduringEncIPwEd <b>DENEXCEPPASS </b></div><table class=\"hapiPropertyTable\"><tbody><tr><td>Identifier</td><td>148bb09e8ba76a518ba8b4ef4326af51</td></tr><tr><td>Date of birth</td><td><span>26 September 1975</span></td></tr></tbody></table></div>"},"extension":[{"url":"http://hl7.org/fhir/us/core/StructureDefinition/us-core-race","extension":[{"url":"ombCategory","valueCoding":{"system":"urn:oid:2.16.840.1.113883.6.238","code":"2054-5","display":"Black or African American","userSelected":true}},{"url":"text","valueString":"Black or African American"}]},{"url":"http://hl7.org/fhir/us/core/StructureDefinition/us-core-ethnicity","extension":[{"url":"ombCategory","valueCoding":{"system":"urn:oid:2.16.840.1.113883.6.238","code":"2186-5","display":"Not Hispanic or Latino","userSelected":true}},{"url":"text","valueString":"Not Hispanic or Latino"}]}],"identifier":[{"type":{"coding":[{"system":"http://terminology.hl7.org/CodeSystem/v2-0203","code":"MR"}]},"system":"https://bonnie-fhir.healthit.gov/","value":"60f82c2d98086b570510e249"}],"active":true,"name":[{"use":"usual","family":"DENEXCEPPass","given":["MedAdmMedReason_eq0dayduringEncIPwEd"]}],"gender":"female","birthDate":"1976-09-26"},"request":{"method":"PUT","url":"Patient/4b6a9c86-3aad-4828-be61-bab6cd0c3140"}},{"fullUrl":"https://madie.cms.gov/Encounter/b8304623-e9f9-4bff-b1f3-9fd36ff5ee78","resource":{"resourceType":"Encounter","id":"b8304623-e9f9-4bff-b1f3-9fd36ff5ee78","meta":{"profile":["http://hl7.org/fhir/us/qicore/StructureDefinition/qicore-encounter"]},"status":"finished","class":{"system":"http://terminology.hl7.org/CodeSystem/v3-ActCode","code":"EMER","display":"emergency","userSelected":true},"type":[{"coding":[{"system":"http://snomed.info/sct","code":"4525004"}]}],"subject":{"reference":"Patient/4b6a9c86-3aad-4828-be61-bab6cd0c3140"},"period":{"start":"2026-10-10T08:00:00+00:00","end":"2026-10-10T08:15:00+00:00"},"length":{"value":0,"unit":"days"}},"request":{"method":"PUT","url":"Encounter/b8304623-e9f9-4bff-b1f3-9fd36ff5ee78"}},{"fullUrl":"https://madie.cms.gov/Encounter/185be6f2-46ab-4020-8348-c147d7ddf734","resource":{"resourceType":"Encounter","id":"185be6f2-46ab-4020-8348-c147d7ddf734","meta":{"profile":["http://hl7.org/fhir/us/qicore/StructureDefinition/qicore-encounter"]},"status":"finished","class":{"system":"http://terminology.hl7.org/CodeSystem/v3-ActCode","code":"IMP","display":"inpatient encounter","userSelected":true},"type":[{"coding":[{"system":"http://snomed.info/sct","code":"32485007"}]}],"subject":{"reference":"Patient/4b6a9c86-3aad-4828-be61-bab6cd0c3140"},"period":{"start":"2026-10-10T09:00:00+00:00","end":"2026-10-12T11:15:00+00:00"},"length":{"value":2,"unit":"days"},"diagnosis":[{"condition":{"reference":"Condition/eacc8b38-a486-48be-ab06-460787534e48"},"use":{"coding":[{"system":"http://terminology.hl7.org/CodeSystem/diagnosis-role","code":"billing","display":"Billing"}]},"rank":1}]},"request":{"method":"PUT","url":"Encounter/185be6f2-46ab-4020-8348-c147d7ddf734"}},{"fullUrl":"https://madie.cms.gov/MedicationAdministration/020c1187-d76a-4c1a-9d60-a1b6f1b0e8db","resource":{"resourceType":"MedicationAdministration","id":"020c1187-d76a-4c1a-9d60-a1b6f1b0e8db","meta":{"profile":["http://hl7.org/fhir/us/qicore/StructureDefinition/qicore-mednotadministered"]},"extension":[{"url":"http://hl7.org/fhir/us/qicore/StructureDefinition/qicore-recorded","valueDateTime":"2026-10-10T09:10:00+00:00"}],"status":"not-done","statusReason":[{"coding":[{"system":"http://snomed.info/sct","code":"183932001","display":"Procedure contraindicated (situation)"}]}],"medicationCodeableConcept":{"coding":[{"system":"http://www.nlm.nih.gov/research/umls/rxnorm","code":"1037045"}]},"subject":{"reference":"Patient/4b6a9c86-3aad-4828-be61-bab6cd0c3140"},"effectivePeriod":{"start":"2026-10-10T09:10:00+00:00"}},"request":{"method":"PUT","url":"MedicationAdministration/020c1187-d76a-4c1a-9d60-a1b6f1b0e8db"}},{"fullUrl":"https://madie.cms.gov/Coverage/ccdd96e0-0016-45f2-af09-1f4ccf7ecf3c","resource":{"resourceType":"Coverage","id":"ccdd96e0-0016-45f2-af09-1f4ccf7ecf3c","status":"active","beneficiary":{"reference":"Patient/4b6a9c86-3aad-4828-be61-bab6cd0c3140"},"period":{"start":"1976-09-26T08:00:00+00:00"},"payor":[{"reference":"Organization/890316dc-a4ad-43b4-ba6f-9fb9e6eca282"}]},"request":{"method":"PUT","url":"Coverage/ccdd96e0-0016-45f2-af09-1f4ccf7ecf3c"}},{"fullUrl":"https://madie.cms.gov/Condition/eacc8b38-a486-48be-ab06-460787534e48","resource":{"resourceType":"Condition","id":"eacc8b38-a486-48be-ab06-460787534e48","meta":{"profile":["http://hl7.org/fhir/us/qicore/StructureDefinition/qicore-condition"]},"clinicalStatus":{"coding":[{"system":"http://terminology.hl7.org/CodeSystem/condition-clinical","code":"active"}]},"verificationStatus":{"coding":[{"system":"http://terminology.hl7.org/CodeSystem/condition-ver-status","code":"confirmed"}]},"category":[{"coding":[{"system":"http://terminology.hl7.org/CodeSystem/condition-category","code":"encounter-diagnosis","display":"Encounter Diagnosis"}]}],"code":{"coding":[{"system":"http://snomed.info/sct","version":"2020-09","code":"111297002","display":"Nonparalytic stroke (disorder)","userSelected":true}]},"subject":{"reference":"Patient/4b6a9c86-3aad-4828-be61-bab6cd0c3140"},"recordedDate":"2026-08-06T08:00:00.000+00:00"},"request":{"method":"PUT","url":"Condition/eacc8b38-a486-48be-ab06-460787534e48"}},{"fullUrl":"https://madie.cms.gov/Organization/13624c91-d3cc-464f-a4f3-a5bd336ea026","resource":{"resourceType":"Organization","id":"890316dc-a4ad-43b4-ba6f-9fb9e6eca282","meta":{"profile":["http://hl7.org/fhir/us/qicore/StructureDefinition/qicore-organization"]},"identifier":[{"use":"temp","system":"urn:oid:2.16.840.1.113883.4.4","value":"21-3259825"}],"active":true,"type":[{"coding":[{"system":"http://terminology.hl7.org/CodeSystem/organization-type","code":"pay","display":"Payer"}]}],"name":"Blue Cross Blue Shield of Texas","telecom":[{"system":"phone","value":"(+1) 972-766-6900"}],"address":[{"use":"billing","type":"postal","line":["P.O. Box 660044"],"city":"Dallas","state":"TX","postalCode":"75266-0044","country":"USA"}]},"request":{"method":"PUT","url":"Organization/890316dc-a4ad-43b4-ba6f-9fb9e6eca282"}},{"fullUrl":"https://madie.cms.gov/MeasureReport/2e4445ff-7fa7-4536-8df8-4fbdc7089589","resource":{"resourceType":"MeasureReport","id":"2e4445ff-7fa7-4536-8df8-4fbdc7089589","meta":{"profile":["http://hl7.org/fhir/us/cqfmeasures/StructureDefinition/test-case-cqfm"]},"contained":[{"resourceType":"Parameters","id":"8a2bd8e2-f05a-4833-9bab-2c7b8f1660dc-parameters","parameter":[{"name":"subject","valueString":"4b6a9c86-3aad-4828-be61-bab6cd0c3140"}]}],"extension":[{"url":"http://hl7.org/fhir/us/cqfmeasures/StructureDefinition/cqfm-inputParameters","valueReference":{"reference":"#8a2bd8e2-f05a-4833-9bab-2c7b8f1660dc-parameters"}},{"url":"http://hl7.org/fhir/us/cqfmeasures/StructureDefinition/cqfm-testCaseDescription","valueMarkdown":"antithrombotic not administered due to medical reason concurrent with IP admission, global.\"Hospitalization\" =(Ed+IP)\n"}],"modifierExtension":[{"url":"http://hl7.org/fhir/us/cqfmeasures/StructureDefinition/cqfm-isTestCase","valueBoolean":true}],"status":"complete","type":"individual","measure":"https://madie.cms.gov/Measure/CMS72FHIRSTKAntithromboticDay2","period":{"start":"2026-01-01","end":"2026-12-31"},"group":[{"population":[{"code":{"coding":[{"system":"http://terminology.hl7.org/CodeSystem/measure-population","code":"initial-population","display":"Initial Population"}]},"count":1},{"code":{"coding":[{"system":"http://terminology.hl7.org/CodeSystem/measure-population","code":"denominator","display":"Denominator"}]},"count":1},{"code":{"coding":[{"system":"http://terminology.hl7.org/CodeSystem/measure-population","code":"denominator-exclusion","display":"Denominator Exclusion"}]},"count":0},{"code":{"coding":[{"system":"http://terminology.hl7.org/CodeSystem/measure-population","code":"numerator","display":"Numerator"}]},"count":0},{"code":{"coding":[{"system":"http://terminology.hl7.org/CodeSystem/measure-population","code":"denominator-exception","display":"Denominator Exception"}]},"count":1}]}]},"request":{"method":"PUT","url":"MeasureReport/2e4445ff-7fa7-4536-8df8-4fbdc7089589"}}]}