{"resourceType":"Bundle","id":"tests-7ce35cc8-ed8f-46f0-9ba1-8421a760bdc8-bundle","type":"transaction","entry":[{"fullUrl":"https://madie.cms.gov/Patient/7ce35cc8-ed8f-46f0-9ba1-8421a760bdc8","resource":{"resourceType":"Patient","id":"7ce35cc8-ed8f-46f0-9ba1-8421a760bdc8","meta":{"profile":["http://hl7.org/fhir/us/qicore/StructureDefinition/qicore-patient"]},"text":{"status":"generated","div":"<div xmlns=\"http://www.w3.org/1999/xhtml\"><div class=\"hapiHeaderText\">INRLT 3.5 <b>DENEXCEPFAIL </b></div><table class=\"hapiPropertyTable\"><tbody><tr><td>Identifier</td><td>36da7e23752b0599c01f365f64faeac2d8a3ce23e2fa8806ca95b596be410b21</td></tr><tr><td>Date of birth</td><td><span>26 September 1975</span></td></tr></tbody></table></div>"},"extension":[{"url":"http://hl7.org/fhir/us/core/StructureDefinition/us-core-race","extension":[{"url":"ombCategory","valueCoding":{"system":"urn:oid:2.16.840.1.113883.6.238","code":"2054-5","display":"Black or African American","userSelected":true}},{"url":"text","valueString":"Black or African American"}]},{"url":"http://hl7.org/fhir/us/core/StructureDefinition/us-core-ethnicity","extension":[{"url":"ombCategory","valueCoding":{"system":"urn:oid:2.16.840.1.113883.6.238","code":"2186-5","display":"Not Hispanic or Latino","userSelected":true}},{"url":"text","valueString":"Not Hispanic or Latino"}]}],"identifier":[{"type":{"coding":[{"system":"http://terminology.hl7.org/CodeSystem/v2-0203","code":"MR"}]},"system":"https://bonnie-fhir.healthit.gov/","value":"60f82c2f98086b570510e2c1"}],"active":true,"name":[{"use":"usual","family":"DENEXCEPFail","given":["INRLT 3.5"]}],"gender":"female","birthDate":"1976-09-26"},"request":{"method":"PUT","url":"Patient/7ce35cc8-ed8f-46f0-9ba1-8421a760bdc8"}},{"fullUrl":"https://madie.cms.gov/Encounter/e411a64e-2475-4299-8381-599dbfe0afc6","resource":{"resourceType":"Encounter","id":"e411a64e-2475-4299-8381-599dbfe0afc6","meta":{"profile":["http://hl7.org/fhir/us/qicore/StructureDefinition/qicore-encounter"]},"status":"finished","class":{"system":"http://terminology.hl7.org/CodeSystem/v3-ActCode","code":"IMP","display":"inpatient encounter","userSelected":true},"type":[{"coding":[{"system":"http://snomed.info/sct","code":"32485007"}]}],"subject":{"reference":"Patient/7ce35cc8-ed8f-46f0-9ba1-8421a760bdc8"},"period":{"start":"2026-10-10T06:15:00.000+00:00","end":"2026-10-15T11:30:00.000+00:00"},"length":{"value":5,"unit":"days"},"diagnosis":[{"condition":{"reference":"Condition/dff11e15-cc39-4ba1-8f2e-61b803abaaa5"},"use":{"coding":[{"system":"http://terminology.hl7.org/CodeSystem/diagnosis-role","code":"billing","display":"Billing"}]},"rank":1}]},"request":{"method":"PUT","url":"Encounter/e411a64e-2475-4299-8381-599dbfe0afc6"}},{"fullUrl":"https://madie.cms.gov/Observation/1d8354e3-e137-4546-93a4-077884e45601","resource":{"resourceType":"Observation","id":"1d8354e3-e137-4546-93a4-077884e45601","meta":{"profile":["http://hl7.org/fhir/us/qicore/StructureDefinition/qicore-observation"]},"status":"final","category":[{"coding":[{"system":"http://terminology.hl7.org/CodeSystem/observation-category","code":"laboratory","display":"Laboratory"}]}],"code":{"coding":[{"system":"http://loinc.org","code":"34714-6"}]},"subject":{"reference":"Patient/7ce35cc8-ed8f-46f0-9ba1-8421a760bdc8"},"effectiveDateTime":"2026-10-10T06:15:00.000+00:00","issued":"2026-10-10T06:30:00.000+00:00","valueQuantity":{"value":3.4}},"request":{"method":"PUT","url":"Observation/1d8354e3-e137-4546-93a4-077884e45601"}},{"fullUrl":"https://madie.cms.gov/Coverage/7ea69112-f744-44ea-9d97-ea3123975a61","resource":{"resourceType":"Coverage","id":"7ea69112-f744-44ea-9d97-ea3123975a61","status":"active","beneficiary":{"reference":"Patient/7ce35cc8-ed8f-46f0-9ba1-8421a760bdc8"},"period":{"start":"1976-09-26T08:00:00+00:00"},"payor":[{"reference":"Organization/f7da4368-fb6d-4d73-a75b-f78024cbb18d"}]},"request":{"method":"PUT","url":"Coverage/7ea69112-f744-44ea-9d97-ea3123975a61"}},{"fullUrl":"https://madie.cms.gov/Condition/dff11e15-cc39-4ba1-8f2e-61b803abaaa5","resource":{"resourceType":"Condition","id":"dff11e15-cc39-4ba1-8f2e-61b803abaaa5","meta":{"profile":["http://hl7.org/fhir/us/qicore/StructureDefinition/qicore-condition"]},"clinicalStatus":{"coding":[{"system":"http://terminology.hl7.org/CodeSystem/condition-clinical","code":"active"}]},"verificationStatus":{"coding":[{"system":"http://terminology.hl7.org/CodeSystem/condition-ver-status","code":"confirmed"}]},"category":[{"coding":[{"system":"http://terminology.hl7.org/CodeSystem/condition-category","code":"encounter-diagnosis","display":"Encounter Diagnosis"}]}],"code":{"coding":[{"system":"http://snomed.info/sct","version":"2020-09","code":"111297002","display":"Nonparalytic stroke (disorder)","userSelected":true}]},"subject":{"reference":"Patient/7ce35cc8-ed8f-46f0-9ba1-8421a760bdc8"},"recordedDate":"2026-07-28T08:00:00.000+00:00"},"request":{"method":"PUT","url":"Condition/dff11e15-cc39-4ba1-8f2e-61b803abaaa5"}},{"fullUrl":"https://madie.cms.gov/Organization/dafe9941-aa16-42ff-8292-f60a634dcb61","resource":{"resourceType":"Organization","id":"f7da4368-fb6d-4d73-a75b-f78024cbb18d","meta":{"profile":["http://hl7.org/fhir/us/qicore/StructureDefinition/qicore-organization"]},"identifier":[{"use":"temp","system":"urn:oid:2.16.840.1.113883.4.4","value":"21-3259825"}],"active":true,"type":[{"coding":[{"system":"http://terminology.hl7.org/CodeSystem/organization-type","code":"pay","display":"Payer"}]}],"name":"Blue Cross Blue Shield of Texas","telecom":[{"system":"phone","value":"(+1) 972-766-6900"}],"address":[{"use":"billing","type":"postal","line":["P.O. Box 660044"],"city":"Dallas","state":"TX","postalCode":"75266-0044","country":"USA"}]},"request":{"method":"PUT","url":"Organization/f7da4368-fb6d-4d73-a75b-f78024cbb18d"}},{"fullUrl":"https://madie.cms.gov/MeasureReport/dee34e12-dd4a-4a15-a9c7-857d89005663","resource":{"resourceType":"MeasureReport","id":"dee34e12-dd4a-4a15-a9c7-857d89005663","meta":{"profile":["http://hl7.org/fhir/us/cqfmeasures/StructureDefinition/test-case-cqfm"]},"contained":[{"resourceType":"Parameters","id":"7ddab880-e2af-47c6-bead-6048a740fa28-parameters","parameter":[{"name":"subject","valueString":"7ce35cc8-ed8f-46f0-9ba1-8421a760bdc8"}]}],"extension":[{"url":"http://hl7.org/fhir/us/cqfmeasures/StructureDefinition/cqfm-inputParameters","valueReference":{"reference":"#7ddab880-e2af-47c6-bead-6048a740fa28-parameters"}},{"url":"http://hl7.org/fhir/us/cqfmeasures/StructureDefinition/cqfm-testCaseDescription","valueMarkdown":"Patient receives INR of less than 3.5 the day of IP start. No ED. No Obs. negative test for lab value.\n"}],"modifierExtension":[{"url":"http://hl7.org/fhir/us/cqfmeasures/StructureDefinition/cqfm-isTestCase","valueBoolean":true}],"status":"complete","type":"individual","measure":"https://madie.cms.gov/Measure/CMS72FHIRSTKAntithromboticDay2","period":{"start":"2026-01-01","end":"2026-12-31"},"group":[{"population":[{"code":{"coding":[{"system":"http://terminology.hl7.org/CodeSystem/measure-population","code":"initial-population","display":"Initial Population"}]},"count":1},{"code":{"coding":[{"system":"http://terminology.hl7.org/CodeSystem/measure-population","code":"denominator","display":"Denominator"}]},"count":1},{"code":{"coding":[{"system":"http://terminology.hl7.org/CodeSystem/measure-population","code":"denominator-exclusion","display":"Denominator Exclusion"}]},"count":0},{"code":{"coding":[{"system":"http://terminology.hl7.org/CodeSystem/measure-population","code":"numerator","display":"Numerator"}]},"count":0},{"code":{"coding":[{"system":"http://terminology.hl7.org/CodeSystem/measure-population","code":"denominator-exception","display":"Denominator Exception"}]},"count":0}]}]},"request":{"method":"PUT","url":"MeasureReport/dee34e12-dd4a-4a15-a9c7-857d89005663"}}]}