{"resourceType":"Bundle","id":"tests-ff9ea2c7-7a68-486d-809e-f0e2cd94d6eb-bundle","type":"transaction","entry":[{"fullUrl":"https://madie.cms.gov/Patient/ff9ea2c7-7a68-486d-809e-f0e2cd94d6eb","resource":{"resourceType":"Patient","id":"ff9ea2c7-7a68-486d-809e-f0e2cd94d6eb","meta":{"profile":["http://hl7.org/fhir/us/qicore/StructureDefinition/qicore-patient"]},"text":{"status":"generated","div":"<div xmlns=\"http://www.w3.org/1999/xhtml\"><div class=\"hapiHeaderText\">LOS=2Days_EDstarts1Day23HoursB4IPEncEnds <b>DENEXFAIL </b></div><table class=\"hapiPropertyTable\"><tbody><tr><td>Identifier</td><td>bf1322b8dda82ca552d7dd81fbfd64f6</td></tr><tr><td>Date of birth</td><td><span>20 August 1994</span></td></tr></tbody></table></div>"},"extension":[{"url":"http://hl7.org/fhir/us/core/StructureDefinition/us-core-race","extension":[{"url":"ombCategory","valueCoding":{"system":"urn:oid:2.16.840.1.113883.6.238","code":"1002-5","display":"American Indian or Alaska Native","userSelected":true}},{"url":"text","valueString":"American Indian or Alaska Native"}]},{"url":"http://hl7.org/fhir/us/core/StructureDefinition/us-core-ethnicity","extension":[{"url":"ombCategory","valueCoding":{"system":"urn:oid:2.16.840.1.113883.6.238","code":"2135-2","display":"Hispanic or Latino","userSelected":true}},{"url":"text","valueString":"Hispanic or Latino"}]}],"identifier":[{"type":{"coding":[{"system":"http://terminology.hl7.org/CodeSystem/v2-0203","code":"MR"}]},"system":"https://bonnie-fhir.healthit.gov/","value":"60f82c2e98086b570510e26c"}],"active":true,"name":[{"use":"usual","family":"DENEXFail","given":["LOS=2Days_EDstarts1Day23HoursB4IPEncEnds"]}],"gender":"male","birthDate":"1995-08-20"},"request":{"method":"PUT","url":"Patient/ff9ea2c7-7a68-486d-809e-f0e2cd94d6eb"}},{"fullUrl":"https://madie.cms.gov/Encounter/76540ff7-384e-4da2-8793-afb658029093","resource":{"resourceType":"Encounter","id":"76540ff7-384e-4da2-8793-afb658029093","meta":{"profile":["http://hl7.org/fhir/us/qicore/StructureDefinition/qicore-encounter"]},"status":"finished","class":{"system":"http://terminology.hl7.org/CodeSystem/v3-ActCode","code":"EMER","display":"emergency","userSelected":true},"type":[{"coding":[{"system":"http://snomed.info/sct","code":"4525004"}]}],"subject":{"reference":"Patient/ff9ea2c7-7a68-486d-809e-f0e2cd94d6eb"},"period":{"start":"2026-08-19T22:59:00+00:00","end":"2026-08-20T23:59:00+00:00"},"length":{"value":1,"unit":"days"}},"request":{"method":"PUT","url":"Encounter/76540ff7-384e-4da2-8793-afb658029093"}},{"fullUrl":"https://madie.cms.gov/Encounter/d4af3464-04a1-47e5-8ec1-c6dd00c1acd8","resource":{"resourceType":"Encounter","id":"d4af3464-04a1-47e5-8ec1-c6dd00c1acd8","meta":{"profile":["http://hl7.org/fhir/us/qicore/StructureDefinition/qicore-encounter"]},"status":"finished","class":{"system":"http://terminology.hl7.org/CodeSystem/v3-ActCode","code":"IMP","display":"inpatient encounter","userSelected":true},"type":[{"coding":[{"system":"http://snomed.info/sct","code":"32485007"}]}],"subject":{"reference":"Patient/ff9ea2c7-7a68-486d-809e-f0e2cd94d6eb"},"period":{"start":"2026-08-21T00:00:00+00:00","end":"2026-08-21T23:59:00+00:00"},"length":{"value":0,"unit":"days"},"diagnosis":[{"condition":{"reference":"Condition/764d1849-12de-4cd2-9fa0-54f73107fac2"},"use":{"coding":[{"system":"http://terminology.hl7.org/CodeSystem/diagnosis-role","code":"billing","display":"Billing"}]},"rank":1}]},"request":{"method":"PUT","url":"Encounter/d4af3464-04a1-47e5-8ec1-c6dd00c1acd8"}},{"fullUrl":"https://madie.cms.gov/Coverage/d4f3f413-a424-4fed-99bd-9e7dc276e63a","resource":{"resourceType":"Coverage","id":"d4f3f413-a424-4fed-99bd-9e7dc276e63a","status":"active","beneficiary":{"reference":"Patient/ff9ea2c7-7a68-486d-809e-f0e2cd94d6eb"},"period":{"start":"1995-08-20T07:00:00+00:00"},"payor":[{"reference":"Organization/4da248b0-6e59-49b7-b80e-338aa21d299f"}]},"request":{"method":"PUT","url":"Coverage/d4f3f413-a424-4fed-99bd-9e7dc276e63a"}},{"fullUrl":"https://madie.cms.gov/Condition/5da0890b-94a0-42e7-b9bd-bcd1254dce81","resource":{"resourceType":"Condition","id":"5da0890b-94a0-42e7-b9bd-bcd1254dce81","meta":{"profile":["http://hl7.org/fhir/us/qicore/StructureDefinition/qicore-condition"]},"clinicalStatus":{"coding":[{"system":"http://terminology.hl7.org/CodeSystem/condition-clinical","code":"active"}]},"verificationStatus":{"coding":[{"system":"http://terminology.hl7.org/CodeSystem/condition-ver-status","code":"confirmed"}]},"category":[{"coding":[{"system":"http://terminology.hl7.org/CodeSystem/condition-category","code":"encounter-diagnosis","display":"Encounter Diagnosis"}]}],"code":{"coding":[{"system":"http://snomed.info/sct","version":"2020-09","code":"111297002","display":"Nonparalytic stroke (disorder)","userSelected":true}]},"subject":{"reference":"Patient/ff9ea2c7-7a68-486d-809e-f0e2cd94d6eb"},"recordedDate":"2026-08-12T08:00:00.000+00:00"},"request":{"method":"PUT","url":"Condition/5da0890b-94a0-42e7-b9bd-bcd1254dce81"}},{"fullUrl":"https://madie.cms.gov/Condition/764d1849-12de-4cd2-9fa0-54f73107fac2","resource":{"resourceType":"Condition","id":"764d1849-12de-4cd2-9fa0-54f73107fac2","meta":{"profile":["http://hl7.org/fhir/us/qicore/StructureDefinition/qicore-condition"]},"clinicalStatus":{"coding":[{"system":"http://terminology.hl7.org/CodeSystem/condition-clinical","code":"active"}]},"verificationStatus":{"coding":[{"system":"http://terminology.hl7.org/CodeSystem/condition-ver-status","code":"confirmed"}]},"category":[{"coding":[{"system":"http://terminology.hl7.org/CodeSystem/condition-category","code":"encounter-diagnosis","display":"Encounter Diagnosis"}]}],"code":{"coding":[{"system":"http://snomed.info/sct","version":"2020-09","code":"111297002","display":"Nonparalytic stroke (disorder)","userSelected":true}]},"subject":{"reference":"Patient/ff9ea2c7-7a68-486d-809e-f0e2cd94d6eb"},"recordedDate":"2026-08-12T08:00:00.000+00:00"},"request":{"method":"PUT","url":"Condition/764d1849-12de-4cd2-9fa0-54f73107fac2"}},{"fullUrl":"https://madie.cms.gov/Organization/be2333a2-d168-4ced-bd5b-93bf2f6f2ba1","resource":{"resourceType":"Organization","id":"4da248b0-6e59-49b7-b80e-338aa21d299f","meta":{"profile":["http://hl7.org/fhir/us/qicore/StructureDefinition/qicore-organization"]},"identifier":[{"use":"temp","system":"urn:oid:2.16.840.1.113883.4.4","value":"21-3259825"}],"active":true,"type":[{"coding":[{"system":"http://terminology.hl7.org/CodeSystem/organization-type","code":"pay","display":"Payer"}]}],"name":"Blue Cross Blue Shield of Texas","telecom":[{"system":"phone","value":"(+1) 972-766-6900"}],"address":[{"use":"billing","type":"postal","line":["P.O. Box 660044"],"city":"Dallas","state":"TX","postalCode":"75266-0044","country":"USA"}]},"request":{"method":"PUT","url":"Organization/4da248b0-6e59-49b7-b80e-338aa21d299f"}},{"fullUrl":"https://madie.cms.gov/MeasureReport/0c12dc45-cb87-41e3-bb35-6ae78b8da096","resource":{"resourceType":"MeasureReport","id":"0c12dc45-cb87-41e3-bb35-6ae78b8da096","meta":{"profile":["http://hl7.org/fhir/us/cqfmeasures/StructureDefinition/test-case-cqfm"]},"contained":[{"resourceType":"Parameters","id":"ab018e2f-92a1-4190-baac-54506ce93723-parameters","parameter":[{"name":"subject","valueString":"ff9ea2c7-7a68-486d-809e-f0e2cd94d6eb"}]}],"extension":[{"url":"http://hl7.org/fhir/us/cqfmeasures/StructureDefinition/cqfm-inputParameters","valueReference":{"reference":"#ab018e2f-92a1-4190-baac-54506ce93723-parameters"}},{"url":"http://hl7.org/fhir/us/cqfmeasures/StructureDefinition/cqfm-testCaseDescription","valueMarkdown":"LOS=2 days, Patient has ED visit that starts 1 day and 23 hours before end of IP encounter, global.Hospitalization ( =Ed +IP)\n"}],"modifierExtension":[{"url":"http://hl7.org/fhir/us/cqfmeasures/StructureDefinition/cqfm-isTestCase","valueBoolean":true}],"status":"complete","type":"individual","measure":"https://madie.cms.gov/Measure/CMS72FHIRSTKAntithromboticDay2","period":{"start":"2026-01-01","end":"2026-12-31"},"group":[{"population":[{"code":{"coding":[{"system":"http://terminology.hl7.org/CodeSystem/measure-population","code":"initial-population","display":"Initial Population"}]},"count":1},{"code":{"coding":[{"system":"http://terminology.hl7.org/CodeSystem/measure-population","code":"denominator","display":"Denominator"}]},"count":1},{"code":{"coding":[{"system":"http://terminology.hl7.org/CodeSystem/measure-population","code":"denominator-exclusion","display":"Denominator Exclusion"}]},"count":0},{"code":{"coding":[{"system":"http://terminology.hl7.org/CodeSystem/measure-population","code":"numerator","display":"Numerator"}]},"count":0},{"code":{"coding":[{"system":"http://terminology.hl7.org/CodeSystem/measure-population","code":"denominator-exception","display":"Denominator Exception"}]},"count":0}]}]},"request":{"method":"PUT","url":"MeasureReport/0c12dc45-cb87-41e3-bb35-6ae78b8da096"}}]}