{"resourceType":"Bundle","id":"tests-79f6bb60-1bdb-4dff-857d-65311e9ccea5-bundle","type":"transaction","entry":[{"fullUrl":"https://madie.cms.gov/Patient/79f6bb60-1bdb-4dff-857d-65311e9ccea5","resource":{"resourceType":"Patient","id":"79f6bb60-1bdb-4dff-857d-65311e9ccea5","meta":{"profile":["http://hl7.org/fhir/us/qicore/StructureDefinition/qicore-patient"]},"text":{"status":"generated","div":"<div xmlns=\"http://www.w3.org/1999/xhtml\"><div class=\"hapiHeaderText\">INRdurED_ED&gt;1hrObs&gt;1hrBFEncDayAft <b>DENEXCEPFAIL </b></div><table class=\"hapiPropertyTable\"><tbody><tr><td>Identifier</td><td>ee218e0e9411a5f7a5d75c61e9a9adf65ce589e903bb5b3c4ec017e4cb221859</td></tr><tr><td>Date of birth</td><td><span>26 September 1975</span></td></tr></tbody></table></div>"},"extension":[{"url":"http://hl7.org/fhir/us/core/StructureDefinition/us-core-race","extension":[{"url":"ombCategory","valueCoding":{"system":"urn:oid:2.16.840.1.113883.6.238","code":"2054-5","display":"Black or African American","userSelected":true}},{"url":"text","valueString":"Black or African American"}]},{"url":"http://hl7.org/fhir/us/core/StructureDefinition/us-core-ethnicity","extension":[{"url":"ombCategory","valueCoding":{"system":"urn:oid:2.16.840.1.113883.6.238","code":"2186-5","display":"Not Hispanic or Latino","userSelected":true}},{"url":"text","valueString":"Not Hispanic or Latino"}]}],"identifier":[{"type":{"coding":[{"system":"http://terminology.hl7.org/CodeSystem/v2-0203","code":"MR"}]},"system":"https://bonnie-fhir.healthit.gov/","value":"60f82c2f98086b570510e2b4"}],"active":true,"name":[{"use":"usual","family":"DENEXCEPFail","given":["INRdurED_ED>1hrObs>1hrBFEncDayAft"]}],"gender":"female","birthDate":"1976-09-26"},"request":{"method":"PUT","url":"Patient/79f6bb60-1bdb-4dff-857d-65311e9ccea5"}},{"fullUrl":"https://madie.cms.gov/Encounter/1b6ed439-7453-4ff9-b807-9ee0c90398d2","resource":{"resourceType":"Encounter","id":"1b6ed439-7453-4ff9-b807-9ee0c90398d2","meta":{"profile":["http://hl7.org/fhir/us/qicore/StructureDefinition/qicore-encounter"]},"status":"finished","class":{"system":"http://terminology.hl7.org/CodeSystem/v3-ActCode","code":"EMER","display":"emergency","userSelected":true},"type":[{"coding":[{"system":"http://snomed.info/sct","code":"4525004"}]}],"subject":{"reference":"Patient/79f6bb60-1bdb-4dff-857d-65311e9ccea5"},"period":{"start":"2026-10-10T06:15:00.000+00:00","end":"2026-10-10T06:30:00.000+00:00"},"length":{"value":0,"unit":"days"}},"request":{"method":"PUT","url":"Encounter/1b6ed439-7453-4ff9-b807-9ee0c90398d2"}},{"fullUrl":"https://madie.cms.gov/Encounter/4d94ef5b-0c3a-4b1f-8316-7c7d64bfcff1","resource":{"resourceType":"Encounter","id":"4d94ef5b-0c3a-4b1f-8316-7c7d64bfcff1","meta":{"profile":["http://hl7.org/fhir/us/qicore/StructureDefinition/qicore-encounter"]},"status":"finished","class":{"system":"http://terminology.hl7.org/CodeSystem/v3-ActCode","code":"OBSENC","display":"observation encounter","userSelected":true},"type":[{"coding":[{"system":"http://snomed.info/sct","code":"448851000124103"}]}],"subject":{"reference":"Patient/79f6bb60-1bdb-4dff-857d-65311e9ccea5"},"period":{"start":"2026-10-10T07:31:00.000+00:00","end":"2026-10-10T22:59:00.000+00:00"},"length":{"value":0,"unit":"days"}},"request":{"method":"PUT","url":"Encounter/4d94ef5b-0c3a-4b1f-8316-7c7d64bfcff1"}},{"fullUrl":"https://madie.cms.gov/Encounter/41fab192-160d-4fec-b1c5-e0de5ce7d5b3","resource":{"resourceType":"Encounter","id":"41fab192-160d-4fec-b1c5-e0de5ce7d5b3","meta":{"profile":["http://hl7.org/fhir/us/qicore/StructureDefinition/qicore-encounter"]},"status":"finished","class":{"system":"http://terminology.hl7.org/CodeSystem/v3-ActCode","code":"IMP","display":"inpatient encounter","userSelected":true},"type":[{"coding":[{"system":"http://snomed.info/sct","code":"32485007"}]}],"subject":{"reference":"Patient/79f6bb60-1bdb-4dff-857d-65311e9ccea5"},"period":{"start":"2026-10-11T00:00:00.000+00:00","end":"2026-10-15T11:30:00.000+00:00"},"length":{"value":4,"unit":"days"},"diagnosis":[{"condition":{"reference":"Condition/eb07f962-9fe8-4973-a3d8-d48c6f7458d5"},"use":{"coding":[{"system":"http://terminology.hl7.org/CodeSystem/diagnosis-role","code":"billing","display":"Billing"}]},"rank":1}]},"request":{"method":"PUT","url":"Encounter/41fab192-160d-4fec-b1c5-e0de5ce7d5b3"}},{"fullUrl":"https://madie.cms.gov/Observation/7f9f8dcc-7614-4571-a253-51f5af595631","resource":{"resourceType":"Observation","id":"7f9f8dcc-7614-4571-a253-51f5af595631","meta":{"profile":["http://hl7.org/fhir/us/qicore/StructureDefinition/qicore-observation"]},"status":"final","category":[{"coding":[{"system":"http://terminology.hl7.org/CodeSystem/observation-category","code":"laboratory","display":"Laboratory"}]}],"code":{"coding":[{"system":"http://loinc.org","code":"34714-6"}]},"subject":{"reference":"Patient/79f6bb60-1bdb-4dff-857d-65311e9ccea5"},"effectivePeriod":{"start":"2026-10-10T06:15:00+00:00"},"issued":"2026-10-10T06:30:00.000+00:00","valueQuantity":{"value":3.6}},"request":{"method":"PUT","url":"Observation/7f9f8dcc-7614-4571-a253-51f5af595631"}},{"fullUrl":"https://madie.cms.gov/Coverage/51b00571-3976-4192-84dc-d7950993f68a","resource":{"resourceType":"Coverage","id":"51b00571-3976-4192-84dc-d7950993f68a","status":"active","beneficiary":{"reference":"Patient/79f6bb60-1bdb-4dff-857d-65311e9ccea5"},"period":{"start":"1976-09-26T08:00:00+00:00"},"payor":[{"reference":"Organization/880a275e-1cf2-4fb9-869b-f1d2173fdc2b"}]},"request":{"method":"PUT","url":"Coverage/51b00571-3976-4192-84dc-d7950993f68a"}},{"fullUrl":"https://madie.cms.gov/Condition/eb07f962-9fe8-4973-a3d8-d48c6f7458d5","resource":{"resourceType":"Condition","id":"eb07f962-9fe8-4973-a3d8-d48c6f7458d5","meta":{"profile":["http://hl7.org/fhir/us/qicore/StructureDefinition/qicore-condition"]},"clinicalStatus":{"coding":[{"system":"http://terminology.hl7.org/CodeSystem/condition-clinical","code":"active"}]},"verificationStatus":{"coding":[{"system":"http://terminology.hl7.org/CodeSystem/condition-ver-status","code":"confirmed"}]},"category":[{"coding":[{"system":"http://terminology.hl7.org/CodeSystem/condition-category","code":"encounter-diagnosis","display":"Encounter Diagnosis"}]}],"code":{"coding":[{"system":"http://snomed.info/sct","version":"2020-09","code":"111297002","display":"Nonparalytic stroke (disorder)","userSelected":true}]},"subject":{"reference":"Patient/79f6bb60-1bdb-4dff-857d-65311e9ccea5"},"recordedDate":"2026-07-28T08:00:00.000+00:00"},"request":{"method":"PUT","url":"Condition/eb07f962-9fe8-4973-a3d8-d48c6f7458d5"}},{"fullUrl":"https://madie.cms.gov/Organization/5bbd2434-981e-4633-b117-07c468cd4434","resource":{"resourceType":"Organization","id":"880a275e-1cf2-4fb9-869b-f1d2173fdc2b","meta":{"profile":["http://hl7.org/fhir/us/qicore/StructureDefinition/qicore-organization"]},"identifier":[{"use":"temp","system":"urn:oid:2.16.840.1.113883.4.4","value":"21-3259825"}],"active":true,"type":[{"coding":[{"system":"http://terminology.hl7.org/CodeSystem/organization-type","code":"pay","display":"Payer"}]}],"name":"Blue Cross Blue Shield of Texas","telecom":[{"system":"phone","value":"(+1) 972-766-6900"}],"address":[{"use":"billing","type":"postal","line":["P.O. Box 660044"],"city":"Dallas","state":"TX","postalCode":"75266-0044","country":"USA"}]},"request":{"method":"PUT","url":"Organization/880a275e-1cf2-4fb9-869b-f1d2173fdc2b"}},{"fullUrl":"https://madie.cms.gov/MeasureReport/8e47631f-df36-4481-ad4e-ecc095083954","resource":{"resourceType":"MeasureReport","id":"8e47631f-df36-4481-ad4e-ecc095083954","meta":{"profile":["http://hl7.org/fhir/us/cqfmeasures/StructureDefinition/test-case-cqfm"]},"contained":[{"resourceType":"Parameters","id":"5b1170ab-3e90-4cbc-ba4b-d5f0df0fda4e-parameters","parameter":[{"name":"subject","valueString":"79f6bb60-1bdb-4dff-857d-65311e9ccea5"}]}],"extension":[{"url":"http://hl7.org/fhir/us/cqfmeasures/StructureDefinition/cqfm-inputParameters","valueReference":{"reference":"#5b1170ab-3e90-4cbc-ba4b-d5f0df0fda4e-parameters"}},{"url":"http://hl7.org/fhir/us/cqfmeasures/StructureDefinition/cqfm-testCaseDescription","valueMarkdown":"Patient receives INR of 3.6 the day of ED. ED ends 61 minute before Obs, Obs ends 61 min before IP the next day at midnight. Testing Day of operator with HospitalizationWithObservation function.\n"}],"modifierExtension":[{"url":"http://hl7.org/fhir/us/cqfmeasures/StructureDefinition/cqfm-isTestCase","valueBoolean":true}],"status":"complete","type":"individual","measure":"https://madie.cms.gov/Measure/CMS72FHIRSTKAntithromboticDay2","period":{"start":"2026-01-01","end":"2026-12-31"},"group":[{"population":[{"code":{"coding":[{"system":"http://terminology.hl7.org/CodeSystem/measure-population","code":"initial-population","display":"Initial Population"}]},"count":1},{"code":{"coding":[{"system":"http://terminology.hl7.org/CodeSystem/measure-population","code":"denominator","display":"Denominator"}]},"count":1},{"code":{"coding":[{"system":"http://terminology.hl7.org/CodeSystem/measure-population","code":"denominator-exclusion","display":"Denominator Exclusion"}]},"count":0},{"code":{"coding":[{"system":"http://terminology.hl7.org/CodeSystem/measure-population","code":"numerator","display":"Numerator"}]},"count":0},{"code":{"coding":[{"system":"http://terminology.hl7.org/CodeSystem/measure-population","code":"denominator-exception","display":"Denominator Exception"}]},"count":0}]}]},"request":{"method":"PUT","url":"MeasureReport/8e47631f-df36-4481-ad4e-ecc095083954"}}]}