{"resourceType":"Bundle","id":"tests-2bdb83c0-fcd9-4f06-b908-e373a7dcf91e-bundle","type":"transaction","entry":[{"fullUrl":"https://madie.cms.gov/Patient/2bdb83c0-fcd9-4f06-b908-e373a7dcf91e","resource":{"resourceType":"Patient","id":"2bdb83c0-fcd9-4f06-b908-e373a7dcf91e","meta":{"profile":["http://hl7.org/fhir/us/qicore/StructureDefinition/qicore-patient"]},"text":{"status":"generated","div":"<div xmlns=\"http://www.w3.org/1999/xhtml\"><div class=\"hapiHeaderText\">CMP_DayOf_RelvDat_1minAftEDStart_EDEndLT1hrB4Obs_ObsEndLT1hrB4IP <b>DENEXPASS </b></div><table class=\"hapiPropertyTable\"><tbody><tr><td>Identifier</td><td>a4b5ca450b4d11ad50aba1ee99a95908</td></tr><tr><td>Date of birth</td><td><span>26 September 1975</span></td></tr></tbody></table></div>"},"extension":[{"url":"http://hl7.org/fhir/us/core/StructureDefinition/us-core-race","extension":[{"url":"ombCategory","valueCoding":{"system":"urn:oid:2.16.840.1.113883.6.238","code":"2054-5","display":"Black or African American","userSelected":true}},{"url":"text","valueString":"Black or African American"}]},{"url":"http://hl7.org/fhir/us/core/StructureDefinition/us-core-ethnicity","extension":[{"url":"ombCategory","valueCoding":{"system":"urn:oid:2.16.840.1.113883.6.238","code":"2186-5","display":"Not Hispanic or Latino","userSelected":true}},{"url":"text","valueString":"Not Hispanic or Latino"}]}],"identifier":[{"type":{"coding":[{"system":"http://terminology.hl7.org/CodeSystem/v2-0203","code":"MR"}]},"system":"https://bonnie-fhir.healthit.gov/","value":"60f82c2e98086b570510e264"}],"active":true,"name":[{"use":"usual","family":"DENEXPass","given":["CMP_DayOf_RelvDat_1minAftEDStart_EDEndLT1hrB4Obs_ObsEndLT1hrB4IP"]}],"gender":"female","birthDate":"1976-09-26"},"request":{"method":"PUT","url":"Patient/2bdb83c0-fcd9-4f06-b908-e373a7dcf91e"}},{"fullUrl":"https://madie.cms.gov/Encounter/b238df08-3245-479d-a7e4-300a01aa89c7","resource":{"resourceType":"Encounter","id":"b238df08-3245-479d-a7e4-300a01aa89c7","meta":{"profile":["http://hl7.org/fhir/us/qicore/StructureDefinition/qicore-encounter"]},"status":"finished","class":{"system":"http://terminology.hl7.org/CodeSystem/v3-ActCode","code":"EMER","display":"emergency","userSelected":true},"type":[{"coding":[{"system":"http://snomed.info/sct","code":"4525004"}]}],"subject":{"reference":"Patient/2bdb83c0-fcd9-4f06-b908-e373a7dcf91e"},"period":{"start":"2026-10-10T04:00:00+00:00","end":"2026-10-10T06:00:00+00:00"},"length":{"value":0,"unit":"days"}},"request":{"method":"PUT","url":"Encounter/b238df08-3245-479d-a7e4-300a01aa89c7"}},{"fullUrl":"https://madie.cms.gov/Encounter/cf03d960-cb00-4b1f-8abf-532dfb9c3309","resource":{"resourceType":"Encounter","id":"cf03d960-cb00-4b1f-8abf-532dfb9c3309","meta":{"profile":["http://hl7.org/fhir/us/qicore/StructureDefinition/qicore-encounter"]},"status":"finished","class":{"system":"http://terminology.hl7.org/CodeSystem/v3-ActCode","code":"IMP","display":"inpatient encounter","userSelected":true},"type":[{"coding":[{"system":"http://snomed.info/sct","code":"32485007"}]}],"subject":{"reference":"Patient/2bdb83c0-fcd9-4f06-b908-e373a7dcf91e"},"period":{"start":"2026-10-10T08:59:00+00:00","end":"2026-10-11T11:15:00+00:00"},"length":{"value":1,"unit":"days"},"diagnosis":[{"condition":{"reference":"Condition/4058bb97-40e3-4926-903b-89b8c171e124"},"use":{"coding":[{"system":"http://terminology.hl7.org/CodeSystem/diagnosis-role","code":"billing","display":"Billing"}]},"rank":1}]},"request":{"method":"PUT","url":"Encounter/cf03d960-cb00-4b1f-8abf-532dfb9c3309"}},{"fullUrl":"https://madie.cms.gov/Encounter/f7540045-da4a-4b39-b055-b574a7f9bfd0","resource":{"resourceType":"Encounter","id":"f7540045-da4a-4b39-b055-b574a7f9bfd0","meta":{"profile":["http://hl7.org/fhir/us/qicore/StructureDefinition/qicore-encounter"]},"status":"finished","class":{"system":"http://terminology.hl7.org/CodeSystem/v3-ActCode","code":"OBSENC","display":"observation encounter","userSelected":true},"type":[{"coding":[{"system":"http://snomed.info/sct","code":"448951000124107"}]}],"subject":{"reference":"Patient/2bdb83c0-fcd9-4f06-b908-e373a7dcf91e"},"period":{"start":"2026-10-10T06:59:00+00:00","end":"2026-10-10T08:00:00+00:00"}},"request":{"method":"PUT","url":"Encounter/f7540045-da4a-4b39-b055-b574a7f9bfd0"}},{"fullUrl":"https://madie.cms.gov/Procedure/151a21c6-d330-44e2-9ef9-694b3718c15a","resource":{"resourceType":"Procedure","id":"151a21c6-d330-44e2-9ef9-694b3718c15a","meta":{"profile":["http://hl7.org/fhir/us/qicore/StructureDefinition/qicore-procedure"]},"extension":[{"url":"http://hl7.org/fhir/us/qicore/StructureDefinition/qicore-recorded","valueDateTime":"2026-10-10T09:35:00-04:00"}],"status":"completed","code":{"coding":[{"system":"http://snomed.info/sct","code":"133918004"}]},"subject":{"reference":"Patient/2bdb83c0-fcd9-4f06-b908-e373a7dcf91e"},"performedPeriod":{"start":"2026-10-10T04:01:00+00:00","end":"2026-10-10T06:00:00+00:00"}},"request":{"method":"PUT","url":"Procedure/151a21c6-d330-44e2-9ef9-694b3718c15a"}},{"fullUrl":"https://madie.cms.gov/Coverage/d8daad57-3752-4f9d-bae4-6d10f6fcd4d8","resource":{"resourceType":"Coverage","id":"d8daad57-3752-4f9d-bae4-6d10f6fcd4d8","status":"active","beneficiary":{"reference":"Patient/2bdb83c0-fcd9-4f06-b908-e373a7dcf91e"},"period":{"start":"1976-09-26T08:00:00+00:00"},"payor":[{"reference":"Organization/880a275e-1cf2-4fb9-869b-f1d2173fdc2b"}]},"request":{"method":"PUT","url":"Coverage/d8daad57-3752-4f9d-bae4-6d10f6fcd4d8"}},{"fullUrl":"https://madie.cms.gov/Condition/4058bb97-40e3-4926-903b-89b8c171e124","resource":{"resourceType":"Condition","id":"4058bb97-40e3-4926-903b-89b8c171e124","meta":{"profile":["http://hl7.org/fhir/us/qicore/StructureDefinition/qicore-condition"]},"clinicalStatus":{"coding":[{"system":"http://terminology.hl7.org/CodeSystem/condition-clinical","code":"active"}]},"verificationStatus":{"coding":[{"system":"http://terminology.hl7.org/CodeSystem/condition-ver-status","code":"confirmed"}]},"category":[{"coding":[{"system":"http://terminology.hl7.org/CodeSystem/condition-category","code":"encounter-diagnosis","display":"Encounter Diagnosis"}]}],"code":{"coding":[{"system":"http://snomed.info/sct","version":"2020-09","code":"111297002","display":"Nonparalytic stroke (disorder)","userSelected":true}]},"subject":{"reference":"Patient/2bdb83c0-fcd9-4f06-b908-e373a7dcf91e"},"recordedDate":"2026-08-13T08:00:00.000+00:00"},"request":{"method":"PUT","url":"Condition/4058bb97-40e3-4926-903b-89b8c171e124"}},{"fullUrl":"https://madie.cms.gov/Organization/b1a5ee79-2fe5-42c5-92a6-52b42a2e2500","resource":{"resourceType":"Organization","id":"880a275e-1cf2-4fb9-869b-f1d2173fdc2b","meta":{"profile":["http://hl7.org/fhir/us/qicore/StructureDefinition/qicore-organization"]},"identifier":[{"use":"temp","system":"urn:oid:2.16.840.1.113883.4.4","value":"21-3259825"}],"active":true,"type":[{"coding":[{"system":"http://terminology.hl7.org/CodeSystem/organization-type","code":"pay","display":"Payer"}]}],"name":"Blue Cross Blue Shield of Texas","telecom":[{"system":"phone","value":"(+1) 972-766-6900"}],"address":[{"use":"billing","type":"postal","line":["P.O. Box 660044"],"city":"Dallas","state":"TX","postalCode":"75266-0044","country":"USA"}]},"request":{"method":"PUT","url":"Organization/880a275e-1cf2-4fb9-869b-f1d2173fdc2b"}},{"fullUrl":"https://madie.cms.gov/MeasureReport/0f83dd58-7e99-4297-b33d-700db14db1e1","resource":{"resourceType":"MeasureReport","id":"0f83dd58-7e99-4297-b33d-700db14db1e1","meta":{"profile":["http://hl7.org/fhir/us/cqfmeasures/StructureDefinition/test-case-cqfm"]},"contained":[{"resourceType":"Parameters","id":"309ecff9-2b97-4182-b016-723b2a14fb26-parameters","parameter":[{"name":"subject","valueString":"2bdb83c0-fcd9-4f06-b908-e373a7dcf91e"}]}],"extension":[{"url":"http://hl7.org/fhir/us/cqfmeasures/StructureDefinition/cqfm-inputParameters","valueReference":{"reference":"#309ecff9-2b97-4182-b016-723b2a14fb26-parameters"}},{"url":"http://hl7.org/fhir/us/cqfmeasures/StructureDefinition/cqfm-testCaseDescription","valueMarkdown":"Comfort measures performed on the first day of hospitalization using relevant dateTime, 1 minute after ED start, ED ends less than one hour before Obs start, Obs ends less than one hour before IP start.\n"}],"modifierExtension":[{"url":"http://hl7.org/fhir/us/cqfmeasures/StructureDefinition/cqfm-isTestCase","valueBoolean":true}],"status":"complete","type":"individual","measure":"https://madie.cms.gov/Measure/CMS72FHIRSTKAntithromboticDay2","period":{"start":"2026-01-01","end":"2026-12-31"},"group":[{"population":[{"code":{"coding":[{"system":"http://terminology.hl7.org/CodeSystem/measure-population","code":"initial-population","display":"Initial Population"}]},"count":1},{"code":{"coding":[{"system":"http://terminology.hl7.org/CodeSystem/measure-population","code":"denominator","display":"Denominator"}]},"count":1},{"code":{"coding":[{"system":"http://terminology.hl7.org/CodeSystem/measure-population","code":"denominator-exclusion","display":"Denominator Exclusion"}]},"count":1},{"code":{"coding":[{"system":"http://terminology.hl7.org/CodeSystem/measure-population","code":"numerator","display":"Numerator"}]},"count":0},{"code":{"coding":[{"system":"http://terminology.hl7.org/CodeSystem/measure-population","code":"denominator-exception","display":"Denominator Exception"}]},"count":0}]}]},"request":{"method":"PUT","url":"MeasureReport/0f83dd58-7e99-4297-b33d-700db14db1e1"}}]}