{"resourceType":"Bundle","id":"tests-09a4fe70-dc7a-48ed-9b97-47f0a119eabd-bundle","type":"transaction","entry":[{"fullUrl":"https://madie.cms.gov/Patient/09a4fe70-dc7a-48ed-9b97-47f0a119eabd","resource":{"resourceType":"Patient","id":"09a4fe70-dc7a-48ed-9b97-47f0a119eabd","meta":{"profile":["http://hl7.org/fhir/us/qicore/StructureDefinition/qicore-patient"]},"text":{"status":"generated","div":"<div xmlns=\"http://www.w3.org/1999/xhtml\"><div class=\"hapiHeaderText\">MedTPA&gt;24HrsB4ED <b>DENEXFAIL </b></div><table class=\"hapiPropertyTable\"><tbody><tr><td>Identifier</td><td>ae71bb61c4c014e82b6b6691136902f4</td></tr><tr><td>Date of birth</td><td><span>26 September 1975</span></td></tr></tbody></table></div>"},"extension":[{"url":"http://hl7.org/fhir/us/core/StructureDefinition/us-core-race","extension":[{"url":"ombCategory","valueCoding":{"system":"urn:oid:2.16.840.1.113883.6.238","code":"2054-5","display":"Black or African American","userSelected":true}},{"url":"text","valueString":"Black or African American"}]},{"url":"http://hl7.org/fhir/us/core/StructureDefinition/us-core-ethnicity","extension":[{"url":"ombCategory","valueCoding":{"system":"urn:oid:2.16.840.1.113883.6.238","code":"2186-5","display":"Not Hispanic or Latino","userSelected":true}},{"url":"text","valueString":"Not Hispanic or Latino"}]}],"identifier":[{"type":{"coding":[{"system":"http://terminology.hl7.org/CodeSystem/v2-0203","code":"MR"}]},"system":"https://bonnie-fhir.healthit.gov/","value":"60f82c2e98086b570510e25c"}],"active":true,"name":[{"use":"usual","family":"DENEXFail","given":["MedTPA>24HrsB4ED"]}],"gender":"female","birthDate":"1976-09-26"},"request":{"method":"PUT","url":"Patient/09a4fe70-dc7a-48ed-9b97-47f0a119eabd"}},{"fullUrl":"https://madie.cms.gov/Encounter/9fe2a4c5-491a-471a-9a77-79600d93b228","resource":{"resourceType":"Encounter","id":"9fe2a4c5-491a-471a-9a77-79600d93b228","meta":{"profile":["http://hl7.org/fhir/us/qicore/StructureDefinition/qicore-encounter"]},"status":"finished","class":{"system":"http://terminology.hl7.org/CodeSystem/v3-ActCode","code":"EMER","display":"emergency","userSelected":true},"type":[{"coding":[{"system":"http://snomed.info/sct","code":"4525004"}]}],"subject":{"reference":"Patient/09a4fe70-dc7a-48ed-9b97-47f0a119eabd"},"period":{"start":"2026-10-10T06:00:00+00:00","end":"2026-10-10T07:01:00+00:00"},"length":{"value":0,"unit":"days"}},"request":{"method":"PUT","url":"Encounter/9fe2a4c5-491a-471a-9a77-79600d93b228"}},{"fullUrl":"https://madie.cms.gov/Encounter/c59ce951-5304-4f35-896b-e11344500ee0","resource":{"resourceType":"Encounter","id":"c59ce951-5304-4f35-896b-e11344500ee0","meta":{"profile":["http://hl7.org/fhir/us/qicore/StructureDefinition/qicore-encounter"]},"status":"finished","class":{"system":"http://terminology.hl7.org/CodeSystem/v3-ActCode","code":"IMP","display":"inpatient encounter","userSelected":true},"type":[{"coding":[{"system":"http://snomed.info/sct","code":"32485007"}]}],"subject":{"reference":"Patient/09a4fe70-dc7a-48ed-9b97-47f0a119eabd"},"period":{"start":"2026-10-10T09:00:00+00:00","end":"2026-10-12T11:15:00+00:00"},"length":{"value":2,"unit":"days"},"diagnosis":[{"condition":{"reference":"Condition/568d35cc-9b87-4674-aeef-69409554481f"},"use":{"coding":[{"system":"http://terminology.hl7.org/CodeSystem/diagnosis-role","code":"billing","display":"Billing"}]},"rank":1}]},"request":{"method":"PUT","url":"Encounter/c59ce951-5304-4f35-896b-e11344500ee0"}},{"fullUrl":"https://madie.cms.gov/MedicationAdministration/c9916091-3c17-4d78-a884-602d758641e9","resource":{"resourceType":"MedicationAdministration","id":"c9916091-3c17-4d78-a884-602d758641e9","meta":{"profile":["http://hl7.org/fhir/us/qicore/StructureDefinition/qicore-medicationadministration"]},"status":"completed","medicationCodeableConcept":{"coding":[{"system":"http://www.nlm.nih.gov/research/umls/rxnorm","code":"1804799"}]},"subject":{"reference":"Patient/09a4fe70-dc7a-48ed-9b97-47f0a119eabd"},"effectivePeriod":{"start":"2026-10-09T05:00:00+00:00"}},"request":{"method":"PUT","url":"MedicationAdministration/c9916091-3c17-4d78-a884-602d758641e9"}},{"fullUrl":"https://madie.cms.gov/Coverage/9ee3531a-a0af-4f04-86ee-3baac98eace5","resource":{"resourceType":"Coverage","id":"9ee3531a-a0af-4f04-86ee-3baac98eace5","status":"active","beneficiary":{"reference":"Patient/09a4fe70-dc7a-48ed-9b97-47f0a119eabd"},"period":{"start":"1976-09-26T08:00:00+00:00"},"payor":[{"reference":"Organization/880a275e-1cf2-4fb9-869b-f1d2173fdc2b"}]},"request":{"method":"PUT","url":"Coverage/9ee3531a-a0af-4f04-86ee-3baac98eace5"}},{"fullUrl":"https://madie.cms.gov/Condition/568d35cc-9b87-4674-aeef-69409554481f","resource":{"resourceType":"Condition","id":"568d35cc-9b87-4674-aeef-69409554481f","meta":{"profile":["http://hl7.org/fhir/us/qicore/StructureDefinition/qicore-condition"]},"clinicalStatus":{"coding":[{"system":"http://terminology.hl7.org/CodeSystem/condition-clinical","code":"active"}]},"verificationStatus":{"coding":[{"system":"http://terminology.hl7.org/CodeSystem/condition-ver-status","code":"confirmed"}]},"category":[{"coding":[{"system":"http://terminology.hl7.org/CodeSystem/condition-category","code":"encounter-diagnosis","display":"Encounter Diagnosis"}]}],"code":{"coding":[{"system":"http://snomed.info/sct","version":"2020-09","code":"111297002","display":"Nonparalytic stroke (disorder)","userSelected":true}]},"subject":{"reference":"Patient/09a4fe70-dc7a-48ed-9b97-47f0a119eabd"},"recordedDate":"2026-08-12T08:00:00.000+00:00"},"request":{"method":"PUT","url":"Condition/568d35cc-9b87-4674-aeef-69409554481f"}},{"fullUrl":"https://madie.cms.gov/Organization/239974a9-d99f-4bf1-878a-3b285e228552","resource":{"resourceType":"Organization","id":"880a275e-1cf2-4fb9-869b-f1d2173fdc2b","meta":{"profile":["http://hl7.org/fhir/us/qicore/StructureDefinition/qicore-organization"]},"identifier":[{"use":"temp","system":"urn:oid:2.16.840.1.113883.4.4","value":"21-3259825"}],"active":true,"type":[{"coding":[{"system":"http://terminology.hl7.org/CodeSystem/organization-type","code":"pay","display":"Payer"}]}],"name":"Blue Cross Blue Shield of Texas","telecom":[{"system":"phone","value":"(+1) 972-766-6900"}],"address":[{"use":"billing","type":"postal","line":["P.O. Box 660044"],"city":"Dallas","state":"TX","postalCode":"75266-0044","country":"USA"}]},"request":{"method":"PUT","url":"Organization/880a275e-1cf2-4fb9-869b-f1d2173fdc2b"}},{"fullUrl":"https://madie.cms.gov/MeasureReport/2cf4d03c-b786-4598-b8d7-c6480a838c8e","resource":{"resourceType":"MeasureReport","id":"2cf4d03c-b786-4598-b8d7-c6480a838c8e","meta":{"profile":["http://hl7.org/fhir/us/cqfmeasures/StructureDefinition/test-case-cqfm"]},"contained":[{"resourceType":"Parameters","id":"bf0d051c-f58d-433e-9729-120a07f0b085-parameters","parameter":[{"name":"subject","valueString":"09a4fe70-dc7a-48ed-9b97-47f0a119eabd"}]}],"extension":[{"url":"http://hl7.org/fhir/us/cqfmeasures/StructureDefinition/cqfm-inputParameters","valueReference":{"reference":"#bf0d051c-f58d-433e-9729-120a07f0b085-parameters"}},{"url":"http://hl7.org/fhir/us/cqfmeasures/StructureDefinition/cqfm-testCaseDescription","valueMarkdown":"Patient has ED visit <=1hour before IP encounter AND receives TPA >24 hours before ED visit, global.\"Hospitalization\" =(Ed+IP)\n"}],"modifierExtension":[{"url":"http://hl7.org/fhir/us/cqfmeasures/StructureDefinition/cqfm-isTestCase","valueBoolean":true}],"status":"complete","type":"individual","measure":"https://madie.cms.gov/Measure/CMS72FHIRSTKAntithromboticDay2","period":{"start":"2026-01-01","end":"2026-12-31"},"group":[{"population":[{"code":{"coding":[{"system":"http://terminology.hl7.org/CodeSystem/measure-population","code":"initial-population","display":"Initial Population"}]},"count":1},{"code":{"coding":[{"system":"http://terminology.hl7.org/CodeSystem/measure-population","code":"denominator","display":"Denominator"}]},"count":1},{"code":{"coding":[{"system":"http://terminology.hl7.org/CodeSystem/measure-population","code":"denominator-exclusion","display":"Denominator Exclusion"}]},"count":0},{"code":{"coding":[{"system":"http://terminology.hl7.org/CodeSystem/measure-population","code":"numerator","display":"Numerator"}]},"count":0},{"code":{"coding":[{"system":"http://terminology.hl7.org/CodeSystem/measure-population","code":"denominator-exception","display":"Denominator Exception"}]},"count":0}]}]},"request":{"method":"PUT","url":"MeasureReport/2cf4d03c-b786-4598-b8d7-c6480a838c8e"}}]}