{"resourceType":"Bundle","id":"tests-bda91aac-a815-4a22-b505-36cef1080d49-bundle","type":"transaction","entry":[{"fullUrl":"https://madie.cms.gov/Patient/bda91aac-a815-4a22-b505-36cef1080d49","resource":{"resourceType":"Patient","id":"bda91aac-a815-4a22-b505-36cef1080d49","meta":{"profile":["http://hl7.org/fhir/us/qicore/StructureDefinition/qicore-patient"]},"text":{"status":"generated","div":"<div xmlns=\"http://www.w3.org/1999/xhtml\"><div class=\"hapiHeaderText\">PharmContraDayOfObs_ED&lt;1hrObs&lt;1hrBFEncDayOf <b>DENEXCEPPASS </b></div><table class=\"hapiPropertyTable\"><tbody><tr><td>Identifier</td><td>2c6dd5ae78f426626c36b78148e65373b7eecba1d92ef9ebe9a978724f32bc83</td></tr><tr><td>Date of birth</td><td><span>26 September 1975</span></td></tr></tbody></table></div>"},"extension":[{"url":"http://hl7.org/fhir/us/core/StructureDefinition/us-core-race","extension":[{"url":"ombCategory","valueCoding":{"system":"urn:oid:2.16.840.1.113883.6.238","code":"2054-5","display":"Black or African American","userSelected":true}},{"url":"text","valueString":"Black or African American"}]},{"url":"http://hl7.org/fhir/us/core/StructureDefinition/us-core-ethnicity","extension":[{"url":"ombCategory","valueCoding":{"system":"urn:oid:2.16.840.1.113883.6.238","code":"2186-5","display":"Not Hispanic or Latino","userSelected":true}},{"url":"text","valueString":"Not Hispanic or Latino"}]}],"identifier":[{"type":{"coding":[{"system":"http://terminology.hl7.org/CodeSystem/v2-0203","code":"MR"}]},"system":"https://bonnie-fhir.healthit.gov/","value":"60f82c2f98086b570510e2a2"}],"active":true,"name":[{"use":"usual","family":"DENEXCEPPass","given":["PharmContraDayOfObs_ED<1hrObs<1hrBFEncDayOf"]}],"gender":"female","birthDate":"1976-09-26"},"request":{"method":"PUT","url":"Patient/bda91aac-a815-4a22-b505-36cef1080d49"}},{"fullUrl":"https://madie.cms.gov/Encounter/552997d8-83f2-4b2e-a6ce-d2f8501f3b1f","resource":{"resourceType":"Encounter","id":"552997d8-83f2-4b2e-a6ce-d2f8501f3b1f","meta":{"profile":["http://hl7.org/fhir/us/qicore/StructureDefinition/qicore-encounter"]},"status":"finished","class":{"system":"http://terminology.hl7.org/CodeSystem/v3-ActCode","code":"EMER","display":"emergency","userSelected":true},"type":[{"coding":[{"system":"http://snomed.info/sct","code":"4525004"}]}],"subject":{"reference":"Patient/bda91aac-a815-4a22-b505-36cef1080d49"},"period":{"start":"2026-10-10T09:00:00+00:00","end":"2026-10-10T09:15:00+00:00"},"length":{"value":0,"unit":"days"}},"request":{"method":"PUT","url":"Encounter/552997d8-83f2-4b2e-a6ce-d2f8501f3b1f"}},{"fullUrl":"https://madie.cms.gov/Encounter/da3aa607-ceda-44ce-8118-15c30e00a918","resource":{"resourceType":"Encounter","id":"da3aa607-ceda-44ce-8118-15c30e00a918","meta":{"profile":["http://hl7.org/fhir/us/qicore/StructureDefinition/qicore-encounter"]},"status":"finished","class":{"system":"http://terminology.hl7.org/CodeSystem/v3-ActCode","code":"OBSENC","display":"observation encounter","userSelected":true},"type":[{"coding":[{"system":"http://snomed.info/sct","code":"448851000124103"}]}],"subject":{"reference":"Patient/bda91aac-a815-4a22-b505-36cef1080d49"},"period":{"start":"2026-10-10T09:16:00+00:00","end":"2026-10-10T10:15:00+00:00"},"length":{"value":0,"unit":"days"}},"request":{"method":"PUT","url":"Encounter/da3aa607-ceda-44ce-8118-15c30e00a918"}},{"fullUrl":"https://madie.cms.gov/Encounter/09bc3de7-a45b-429f-9a77-b1f0d7ea7062","resource":{"resourceType":"Encounter","id":"09bc3de7-a45b-429f-9a77-b1f0d7ea7062","meta":{"profile":["http://hl7.org/fhir/us/qicore/StructureDefinition/qicore-encounter"]},"status":"finished","class":{"system":"http://terminology.hl7.org/CodeSystem/v3-ActCode","code":"IMP","display":"inpatient encounter","userSelected":true},"type":[{"coding":[{"system":"http://snomed.info/sct","code":"32485007"}]}],"subject":{"reference":"Patient/bda91aac-a815-4a22-b505-36cef1080d49"},"period":{"start":"2026-10-10T11:16:00+00:00","end":"2026-10-12T11:15:00+00:00"},"length":{"value":2,"unit":"days"},"diagnosis":[{"condition":{"reference":"Condition/9cefc931-1e11-4734-96f8-382439178ce1"},"use":{"coding":[{"system":"http://terminology.hl7.org/CodeSystem/diagnosis-role","code":"billing","display":"Billing"}]},"rank":1}]},"request":{"method":"PUT","url":"Encounter/09bc3de7-a45b-429f-9a77-b1f0d7ea7062"}},{"fullUrl":"https://madie.cms.gov/MedicationAdministration/1564d037-e4c4-4ce7-80a6-ede70546af2b","resource":{"resourceType":"MedicationAdministration","id":"1564d037-e4c4-4ce7-80a6-ede70546af2b","meta":{"profile":["http://hl7.org/fhir/us/qicore/StructureDefinition/qicore-medicationadministration"]},"status":"completed","medicationCodeableConcept":{"coding":[{"system":"http://www.nlm.nih.gov/research/umls/rxnorm","code":"855812","display":"prasugrel 10 MG Oral Tablet","userSelected":true}]},"subject":{"reference":"Patient/bda91aac-a815-4a22-b505-36cef1080d49"},"effectivePeriod":{"start":"2026-10-10T09:16:00+00:00"}},"request":{"method":"PUT","url":"MedicationAdministration/1564d037-e4c4-4ce7-80a6-ede70546af2b"}},{"fullUrl":"https://madie.cms.gov/Coverage/966df586-58d1-40ee-aa28-bf03e5a0e776","resource":{"resourceType":"Coverage","id":"966df586-58d1-40ee-aa28-bf03e5a0e776","status":"active","beneficiary":{"reference":"Patient/bda91aac-a815-4a22-b505-36cef1080d49"},"period":{"start":"1976-09-26T08:00:00+00:00"},"payor":[{"reference":"Organization/f4907415-83c5-4eae-ab0b-cb63a840880d"}]},"request":{"method":"PUT","url":"Coverage/966df586-58d1-40ee-aa28-bf03e5a0e776"}},{"fullUrl":"https://madie.cms.gov/Condition/9cefc931-1e11-4734-96f8-382439178ce1","resource":{"resourceType":"Condition","id":"9cefc931-1e11-4734-96f8-382439178ce1","meta":{"profile":["http://hl7.org/fhir/us/qicore/StructureDefinition/qicore-condition"]},"clinicalStatus":{"coding":[{"system":"http://terminology.hl7.org/CodeSystem/condition-clinical","code":"active"}]},"verificationStatus":{"coding":[{"system":"http://terminology.hl7.org/CodeSystem/condition-ver-status","code":"confirmed"}]},"category":[{"coding":[{"system":"http://terminology.hl7.org/CodeSystem/condition-category","code":"encounter-diagnosis","display":"Encounter Diagnosis"}]}],"code":{"coding":[{"system":"http://snomed.info/sct","version":"2020-09","code":"111297002","display":"Nonparalytic stroke (disorder)","userSelected":true}]},"subject":{"reference":"Patient/bda91aac-a815-4a22-b505-36cef1080d49"},"recordedDate":"2026-08-06T08:00:00.000+00:00"},"request":{"method":"PUT","url":"Condition/9cefc931-1e11-4734-96f8-382439178ce1"}},{"fullUrl":"https://madie.cms.gov/Organization/84a48505-cb78-4e35-9fcb-b68312906506","resource":{"resourceType":"Organization","id":"f4907415-83c5-4eae-ab0b-cb63a840880d","meta":{"profile":["http://hl7.org/fhir/us/qicore/StructureDefinition/qicore-organization"]},"identifier":[{"use":"temp","system":"urn:oid:2.16.840.1.113883.4.4","value":"21-3259825"}],"active":true,"type":[{"coding":[{"system":"http://terminology.hl7.org/CodeSystem/organization-type","code":"pay","display":"Payer"}]}],"name":"Blue Cross Blue Shield of Texas","telecom":[{"system":"phone","value":"(+1) 972-766-6900"}],"address":[{"use":"billing","type":"postal","line":["P.O. Box 660044"],"city":"Dallas","state":"TX","postalCode":"75266-0044","country":"USA"}]},"request":{"method":"PUT","url":"Organization/f4907415-83c5-4eae-ab0b-cb63a840880d"}},{"fullUrl":"https://madie.cms.gov/MeasureReport/671e590a-b738-4290-a7bc-0e2c8fa64c13","resource":{"resourceType":"MeasureReport","id":"671e590a-b738-4290-a7bc-0e2c8fa64c13","meta":{"profile":["http://hl7.org/fhir/us/cqfmeasures/StructureDefinition/test-case-cqfm"]},"contained":[{"resourceType":"Parameters","id":"f9127f19-2f0d-4c40-b89f-f599cf8d928d-parameters","parameter":[{"name":"subject","valueString":"bda91aac-a815-4a22-b505-36cef1080d49"}]}],"extension":[{"url":"http://hl7.org/fhir/us/cqfmeasures/StructureDefinition/cqfm-inputParameters","valueReference":{"reference":"#f9127f19-2f0d-4c40-b89f-f599cf8d928d-parameters"}},{"url":"http://hl7.org/fhir/us/cqfmeasures/StructureDefinition/cqfm-testCaseDescription","valueMarkdown":"Patient receives Ticagrelor during Obs. ED ends 1 min before Obs.Obs ends 1 min before IP all on the same day. Testing Day of operator with HospitalizationWithObservation function.\n"}],"modifierExtension":[{"url":"http://hl7.org/fhir/us/cqfmeasures/StructureDefinition/cqfm-isTestCase","valueBoolean":true}],"status":"complete","type":"individual","measure":"https://madie.cms.gov/Measure/CMS72FHIRSTKAntithromboticDay2","period":{"start":"2026-01-01","end":"2026-12-31"},"group":[{"population":[{"code":{"coding":[{"system":"http://terminology.hl7.org/CodeSystem/measure-population","code":"initial-population","display":"Initial Population"}]},"count":1},{"code":{"coding":[{"system":"http://terminology.hl7.org/CodeSystem/measure-population","code":"denominator","display":"Denominator"}]},"count":1},{"code":{"coding":[{"system":"http://terminology.hl7.org/CodeSystem/measure-population","code":"denominator-exclusion","display":"Denominator Exclusion"}]},"count":0},{"code":{"coding":[{"system":"http://terminology.hl7.org/CodeSystem/measure-population","code":"numerator","display":"Numerator"}]},"count":0},{"code":{"coding":[{"system":"http://terminology.hl7.org/CodeSystem/measure-population","code":"denominator-exception","display":"Denominator Exception"}]},"count":1}]}]},"request":{"method":"PUT","url":"MeasureReport/671e590a-b738-4290-a7bc-0e2c8fa64c13"}}]}