{
  "resourceType": "Bundle",
  "id": "6356dca654e383debade75aa",
  "type": "transaction",
  "entry": [ {
    "fullUrl": "https://madie.cms.gov/Patient/4911c0c6-22e1-45ad-b39d-7e4d88c200d8",
    "resource": {
      "resourceType": "Patient",
      "id": "4911c0c6-22e1-45ad-b39d-7e4d88c200d8",
      "meta": {
        "profile": [ "http://hl7.org/fhir/us/qicore/StructureDefinition/qicore-patient" ]
      },
      "text": {
        "status": "generated",
        "div": "<div xmlns=\"http://www.w3.org/1999/xhtml\"><div class=\"hapiHeaderText\">DischDisp=Expired <b>NUMPASS </b></div><table class=\"hapiPropertyTable\"><tbody><tr><td>Date of birth</td><td><span>01 February 2004</span></td></tr></tbody></table></div>"
      },
      "extension": [ {
        "url": "http://hl7.org/fhir/us/core/StructureDefinition/us-core-race",
        "extension": [ {
          "url": "ombCategory",
          "valueCoding": {
            "system": "urn:oid:2.16.840.1.113883.6.238",
            "code": "1002-5",
            "display": "American Indian or Alaska Native",
            "userSelected": true
          }
        }, {
          "url": "text",
          "valueString": "American Indian or Alaska Native"
        } ]
      }, {
        "url": "http://hl7.org/fhir/us/core/StructureDefinition/us-core-ethnicity",
        "extension": [ {
          "url": "ombCategory",
          "valueCoding": {
            "system": "urn:oid:2.16.840.1.113883.6.238",
            "code": "2135-2",
            "display": "Hispanic or Latino",
            "userSelected": true
          }
        }, {
          "url": "text",
          "valueString": "Hispanic or Latino"
        } ]
      } ],
      "identifier": [ {
        "type": {
          "coding": [ {
            "system": "http://terminology.hl7.org/CodeSystem/v2-0203",
            "code": "MR"
          } ]
        },
        "system": "https://bonnie-fhir.healthit.gov/",
        "value": "6356dca654e383debade75aa"
      } ],
      "active": true,
      "name": [ {
        "use": "usual",
        "family": "NUMPass",
        "given": [ "DxIsSepsisPOAisNo" ]
      } ],
      "gender": "female",
      "birthDate": "2004-02-01"
    },
    "request": {
      "method": "PUT",
      "url": "Patient/4911c0c6-22e1-45ad-b39d-7e4d88c200d8"
    }
  }, {
    "fullUrl": "https://madie.cms.gov/Observation/f92a80ab-002e-46f8-86a0-babe7dd7aed5",
    "resource": {
      "resourceType": "Observation",
      "id": "f92a80ab-002e-46f8-86a0-babe7dd7aed5",
      "meta": {
        "profile": [ "http://hl7.org/fhir/us/qicore/StructureDefinition/qicore-observation" ]
      },
      "status": "final",
      "category": [ {
        "coding": [ {
          "system": "http://terminology.hl7.org/CodeSystem/observation-category",
          "code": "exam",
          "display": "exam",
          "userSelected": true
        } ]
      } ],
      "code": {
        "coding": [ {
          "system": "http://loinc.org",
          "code": "93857-1"
        } ]
      },
      "subject": {
        "reference": "Patient/4911c0c6-22e1-45ad-b39d-7e4d88c200d8"
      },
      "effectiveDateTime": "2025-02-01T08:00:00.000+00:00",
      "valueDateTime": "2025-02-01T08:00:00+00:00"
    },
    "request": {
      "method": "PUT",
      "url": "Observation/f92a80ab-002e-46f8-86a0-babe7dd7aed5"
    }
  }, {
    "fullUrl": "https://madie.cms.gov/Observation/7817b873-64dc-4c3f-bac6-85d26b91ee4e",
    "resource": {
      "resourceType": "Observation",
      "id": "7817b873-64dc-4c3f-bac6-85d26b91ee4e",
      "meta": {
        "profile": [ "http://hl7.org/fhir/us/qicore/StructureDefinition/qicore-observation" ]
      },
      "status": "final",
      "category": [ {
        "coding": [ {
          "system": "http://terminology.hl7.org/CodeSystem/observation-category",
          "code": "exam",
          "display": "exam",
          "userSelected": true
        } ]
      } ],
      "code": {
        "coding": [ {
          "system": "http://loinc.org",
          "code": "11884-4"
        } ]
      },
      "subject": {
        "reference": "Patient/4911c0c6-22e1-45ad-b39d-7e4d88c200d8"
      },
      "effectiveDateTime": "2025-02-01T08:00:00.000+00:00",
      "valueQuantity": {
        "value": 21,
        "system": "http://unitsofmeasure.org",
        "code": "wk"
      }
    },
    "request": {
      "method": "PUT",
      "url": "Observation/7817b873-64dc-4c3f-bac6-85d26b91ee4e"
    }
  }, {
    "fullUrl": "https://madie.cms.gov/Encounter/7a6c21b3-c0de-4978-bf67-d7e8f3543733",
    "resource": {
      "resourceType": "Encounter",
      "id": "7a6c21b3-c0de-4978-bf67-d7e8f3543733",
      "meta": {
        "profile": [ "http://hl7.org/fhir/us/qicore/StructureDefinition/qicore-encounter" ]
      },
      "status": "finished",
      "class": {
        "system": "http://terminology.hl7.org/CodeSystem/v3-ActCode",
        "code": "IMP",
        "display": "inpatient encounter"
      },
      "type": [ {
        "coding": [ {
          "system": "http://snomed.info/sct",
          "code": "183452005"
        } ]
      } ],
      "subject": {
        "reference": "Patient/4911c0c6-22e1-45ad-b39d-7e4d88c200d8"
      },
      "period": {
        "start": "2025-02-01T08:00:00.000Z",
        "end": "2025-02-05T08:15:00.000Z"
      },
      "diagnosis": [ {
        "extension": [ {
          "url": "http://hl7.org/fhir/us/qicore/StructureDefinition/qicore-encounter-diagnosisPresentOnAdmission",
          "valueCodeableConcept": {
            "coding": [ {
              "system": "https://www.cms.gov/Medicare/Medicare-Fee-for-Service-Payment/HospitalAcqCond/Coding",
              "code": "N"
            } ]
          }
        } ],
        "condition": {
          "reference": "Condition/8b400756-4ca8-4bd9-b71c-ba3a8594c341"
        }
      } ]
    },
    "request": {
      "method": "PUT",
      "url": "Encounter/7a6c21b3-c0de-4978-bf67-d7e8f3543733"
    }
  }, {
    "fullUrl": "https://madie.cms.gov/Procedure/2dca0e49-c9c6-427c-956d-d706eaec8f62",
    "resource": {
      "resourceType": "Procedure",
      "id": "2dca0e49-c9c6-427c-956d-d706eaec8f62",
      "meta": {
        "profile": [ "http://hl7.org/fhir/us/qicore/StructureDefinition/qicore-procedure" ]
      },
      "extension": [ {
        "url": "http://hl7.org/fhir/us/qicore/StructureDefinition/qicore-recorded",
        "valueDateTime": "2013-04-05T09:35:00-04:00"
      } ],
      "status": "completed",
      "code": {
        "coding": [ {
          "system": "http://snomed.info/sct",
          "code": "10745001"
        } ]
      },
      "subject": {
        "reference": "Patient/4911c0c6-22e1-45ad-b39d-7e4d88c200d8"
      },
      "performedPeriod": {
        "start": "2025-02-01T08:00:00.000Z",
        "end": "2025-02-05T08:15:00.000Z"
      }
    },
    "request": {
      "method": "PUT",
      "url": "Procedure/2dca0e49-c9c6-427c-956d-d706eaec8f62"
    }
  }, {
    "fullUrl": "https://madie.cms.gov/Condition/8b400756-4ca8-4bd9-b71c-ba3a8594c341",
    "resource": {
      "resourceType": "Condition",
      "id": "8b400756-4ca8-4bd9-b71c-ba3a8594c341",
      "meta": {
        "profile": [ "http://hl7.org/fhir/us/qicore/StructureDefinition/qicore-condition" ]
      },
      "category": [ {
        "coding": [ {
          "system": "http://terminology.hl7.org/CodeSystem/condition-category",
          "code": "encounter-diagnosis",
          "display": "Encounter Diagnosis"
        } ]
      } ],
      "code": {
        "coding": [ {
          "system": "http://hl7.org/fhir/sid/icd-10-cm",
          "version": "2023",
          "code": "A32.7",
          "display": "Listerial sepsis",
          "userSelected": true
        } ]
      },
      "subject": {
        "reference": "Patient/4911c0c6-22e1-45ad-b39d-7e4d88c200d8"
      },
      "recordedDate": "2025-10-26T08:00:00.000+00:00"
    },
    "request": {
      "method": "PUT",
      "url": "Condition/8b400756-4ca8-4bd9-b71c-ba3a8594c341"
    }
  }, {
    "fullUrl": "https://madie.cms.gov/Coverage/cdf3aaea-2bd5-496b-ac2b-1b7f9e21f8c1",
    "resource": {
      "resourceType": "Coverage",
      "id": "cdf3aaea-2bd5-496b-ac2b-1b7f9e21f8c1",
      "meta": {
        "profile": [ "http://hl7.org/fhir/us/qicore/StructureDefinition/qicore-coverage" ]
      },
      "status": "active",
      "beneficiary": {
        "reference": "Patient/4911c0c6-22e1-45ad-b39d-7e4d88c200d8"
      },
      "payor": [ {
        "reference": "Organization/2e288567-0281-4749-ae7a-00d78cc05a8f"
      } ]
    },
    "request": {
      "method": "PUT",
      "url": "Coverage/cdf3aaea-2bd5-496b-ac2b-1b7f9e21f8c1"
    }
  }, {
    "fullUrl": "https://madie.cms.gov/Organization/2e288567-0281-4749-ae7a-00d78cc05a8f",
    "resource": {
      "resourceType": "Organization",
      "id": "2e288567-0281-4749-ae7a-00d78cc05a8f",
      "meta": {
        "profile": [ "http://hl7.org/fhir/us/qicore/StructureDefinition/qicore-organization" ]
      },
      "identifier": [ {
        "use": "temp",
        "system": "urn:oid:2.16.840.1.113883.4.4",
        "value": "21-3259825"
      } ],
      "active": true,
      "type": [ {
        "coding": [ {
          "system": "http://terminology.hl7.org/CodeSystem/organization-type",
          "code": "pay",
          "display": "Payer"
        } ]
      } ],
      "name": "Blue Cross Blue Shield of Texas",
      "telecom": [ {
        "system": "phone",
        "value": "(+1) 972-766-6900"
      } ],
      "address": [ {
        "use": "billing",
        "type": "postal",
        "line": [ "P.O. Box 660044" ],
        "city": "Dallas",
        "state": "TX",
        "postalCode": "75266-0044",
        "country": "USA"
      } ]
    },
    "request": {
      "method": "PUT",
      "url": "Organization/2e288567-0281-4749-ae7a-00d78cc05a8f"
    }
  }, {
    "fullUrl": "https://madie.cms.gov/Practitioner/fbbab4b3-7e1e-484a-bc4c-967a7bf68069",
    "resource": {
      "resourceType": "Practitioner",
      "id": "fbbab4b3-7e1e-484a-bc4c-967a7bf68069",
      "identifier": [ {
        "system": "http://hl7.org/fhir/sid/us-npi",
        "value": "123456"
      } ],
      "name": [ {
        "family": "Evil",
        "prefix": [ "Dr" ]
      } ]
    },
    "request": {
      "method": "PUT",
      "url": "Practitioner/fbbab4b3-7e1e-484a-bc4c-967a7bf68069"
    }
  }, {
    "fullUrl": "https://madie.cms.gov/MeasureReport/7fba43b7-5e36-4388-adc5-b2e559f97ce0",
    "resource": {
      "resourceType": "MeasureReport",
      "id": "7fba43b7-5e36-4388-adc5-b2e559f97ce0",
      "meta": {
        "profile": [ "http://hl7.org/fhir/us/cqfmeasures/StructureDefinition/test-case-cqfm" ]
      },
      "contained": [ {
        "resourceType": "Parameters",
        "id": "cfb0982c-1d90-4963-930e-acb4dbac5262-parameters",
        "parameter": [ {
          "name": "subject",
          "valueString": "4911c0c6-22e1-45ad-b39d-7e4d88c200d8"
        } ]
      } ],
      "extension": [ {
        "url": "http://hl7.org/fhir/us/cqfmeasures/StructureDefinition/cqfm-inputParameters",
        "valueReference": {
          "reference": "#cfb0982c-1d90-4963-930e-acb4dbac5262-parameters"
        }
      }, {
        "url": "http://hl7.org/fhir/us/cqfmeasures/StructureDefinition/cqfm-testCaseDescription",
        "valueMarkdown": "EncDx= sepsis (ICD10 coded). \n"
      } ],
      "modifierExtension": [ {
        "url": "http://hl7.org/fhir/us/cqfmeasures/StructureDefinition/cqfm-isTestCase",
        "valueBoolean": true
      } ],
      "status": "complete",
      "type": "individual",
      "measure": "https://madie.cms.gov/Measure/CMS1028FHIRPCSevereOBComps",
      "period": {
        "start": "2025-01-01",
        "end": "2025-12-31"
      },
      "group": [ {
        "population": [ {
          "code": {
            "coding": [ {
              "system": "http://terminology.hl7.org/CodeSystem/measure-population",
              "code": "initial-population",
              "display": "Initial Population"
            } ]
          },
          "count": 1
        }, {
          "code": {
            "coding": [ {
              "system": "http://terminology.hl7.org/CodeSystem/measure-population",
              "code": "denominator",
              "display": "Denominator"
            } ]
          },
          "count": 1
        }, {
          "code": {
            "coding": [ {
              "system": "http://terminology.hl7.org/CodeSystem/measure-population",
              "code": "numerator",
              "display": "Numerator"
            } ]
          },
          "count": 1
        }, {
          "code": {
            "coding": [ {
              "system": "http://terminology.hl7.org/CodeSystem/measure-population",
              "code": "numerator-exclusion",
              "display": "Numerator Exclusion"
            } ]
          },
          "count": 0
        } ]
      }, {
        "population": [ {
          "code": {
            "coding": [ {
              "system": "http://terminology.hl7.org/CodeSystem/measure-population",
              "code": "initial-population",
              "display": "Initial Population"
            } ]
          },
          "count": 1
        }, {
          "code": {
            "coding": [ {
              "system": "http://terminology.hl7.org/CodeSystem/measure-population",
              "code": "denominator",
              "display": "Denominator"
            } ]
          },
          "count": 1
        }, {
          "code": {
            "coding": [ {
              "system": "http://terminology.hl7.org/CodeSystem/measure-population",
              "code": "numerator",
              "display": "Numerator"
            } ]
          },
          "count": 1
        }, {
          "code": {
            "coding": [ {
              "system": "http://terminology.hl7.org/CodeSystem/measure-population",
              "code": "numerator-exclusion",
              "display": "Numerator Exclusion"
            } ]
          },
          "count": 0
        } ]
      } ],
      "evaluatedResource": [ {
        "reference": "Patient/4911c0c6-22e1-45ad-b39d-7e4d88c200d8"
      }, {
        "reference": "Observation/f92a80ab-002e-46f8-86a0-babe7dd7aed5"
      }, {
        "reference": "Observation/7817b873-64dc-4c3f-bac6-85d26b91ee4e"
      }, {
        "reference": "Encounter/7a6c21b3-c0de-4978-bf67-d7e8f3543733"
      }, {
        "reference": "Procedure/2dca0e49-c9c6-427c-956d-d706eaec8f62"
      }, {
        "reference": "Condition/8b400756-4ca8-4bd9-b71c-ba3a8594c341"
      }, {
        "reference": "Coverage/cdf3aaea-2bd5-496b-ac2b-1b7f9e21f8c1"
      }, {
        "reference": "Organization/2e288567-0281-4749-ae7a-00d78cc05a8f"
      }, {
        "reference": "Practitioner/fbbab4b3-7e1e-484a-bc4c-967a7bf68069"
      } ]
    },
    "request": {
      "method": "PUT",
      "url": "MeasureReport/7fba43b7-5e36-4388-adc5-b2e559f97ce0"
    }
  } ]
}