{"resourceType":"Bundle","id":"tests-02cdc116-49ce-4277-ad9e-de6bc2a3274d-bundle","type":"transaction","entry":[{"fullUrl":"https://madie.cms.gov/Patient/02cdc116-49ce-4277-ad9e-de6bc2a3274d","resource":{"resourceType":"Patient","id":"02cdc116-49ce-4277-ad9e-de6bc2a3274d","meta":{"profile":["http://hl7.org/fhir/us/qicore/StructureDefinition/qicore-patient"]},"text":{"status":"generated","div":"<div xmlns=\"http://www.w3.org/1999/xhtml\"><div class=\"hapiHeaderText\">DELEncCalEGAEQ20Wks1Day <b>DENOMPASS </b></div><table class=\"hapiPropertyTable\"><tbody><tr><td>Date of birth</td><td><span>01 February 1958</span></td></tr></tbody></table></div>"},"extension":[{"url":"http://hl7.org/fhir/us/core/StructureDefinition/us-core-race","extension":[{"url":"ombCategory","valueCoding":{"system":"urn:oid:2.16.840.1.113883.6.238","code":"1002-5","display":"American Indian or Alaska Native","userSelected":true}},{"url":"text","valueString":"American Indian or Alaska Native"}]},{"url":"http://hl7.org/fhir/us/core/StructureDefinition/us-core-ethnicity","extension":[{"url":"ombCategory","valueCoding":{"system":"urn:oid:2.16.840.1.113883.6.238","code":"2135-2","display":"Hispanic or Latino","userSelected":true}},{"url":"text","valueString":"Hispanic or Latino"}]}],"identifier":[{"type":{"coding":[{"system":"http://terminology.hl7.org/CodeSystem/v2-0203","code":"MR"}]},"system":"https://bonnie-fhir.healthit.gov/","value":"633b3f9f0968f80122503cda"}],"active":true,"name":[{"use":"usual","family":"DENOMPass","given":["DELEncCalEGAEQ20Wks1Day"]}],"gender":"female","birthDate":"1970-02-01"},"request":{"method":"PUT","url":"Patient/02cdc116-49ce-4277-ad9e-de6bc2a3274d"}},{"fullUrl":"https://madie.cms.gov/Observation/ce41cdd2-88a2-45c4-a8af-a041436dedea","resource":{"resourceType":"Observation","id":"ce41cdd2-88a2-45c4-a8af-a041436dedea","meta":{"profile":["http://hl7.org/fhir/us/qicore/StructureDefinition/qicore-observation"]},"status":"final","category":[{"coding":[{"system":"http://terminology.hl7.org/CodeSystem/observation-category","code":"exam","display":"exam","userSelected":true}]}],"code":{"coding":[{"system":"http://loinc.org","code":"93857-1"}]},"subject":{"reference":"Patient/02cdc116-49ce-4277-ad9e-de6bc2a3274d"},"effectiveDateTime":"2025-01-15T08:00:00.000+00:00","valueDateTime":"2025-01-15T08:00:00+00:00"},"request":{"method":"PUT","url":"Observation/ce41cdd2-88a2-45c4-a8af-a041436dedea"}},{"fullUrl":"https://madie.cms.gov/Observation/a356bd18-3e19-4e0b-a221-1b17c3415f25","resource":{"resourceType":"Observation","id":"a356bd18-3e19-4e0b-a221-1b17c3415f25","meta":{"profile":["http://hl7.org/fhir/us/qicore/StructureDefinition/qicore-observation"]},"status":"final","category":[{"coding":[{"system":"http://terminology.hl7.org/CodeSystem/observation-category","code":"exam","display":"exam","userSelected":true}]}],"code":{"coding":[{"system":"http://loinc.org","code":"11778-8"}]},"subject":{"reference":"Patient/02cdc116-49ce-4277-ad9e-de6bc2a3274d"},"effectiveDateTime":"2025-01-15T08:00:00.000+00:00","valueDateTime":"2025-06-02T08:00:00.000+00:00"},"request":{"method":"PUT","url":"Observation/a356bd18-3e19-4e0b-a221-1b17c3415f25"}},{"fullUrl":"https://madie.cms.gov/Encounter/4bdd19a6-59fd-48b2-b0d2-442390128dd0","resource":{"resourceType":"Encounter","id":"4bdd19a6-59fd-48b2-b0d2-442390128dd0","meta":{"profile":["http://hl7.org/fhir/us/qicore/StructureDefinition/qicore-encounter"]},"status":"finished","class":{"system":"http://terminology.hl7.org/CodeSystem/v3-ActCode","code":"IMP","display":"inpatient encounter"},"type":[{"coding":[{"system":"http://snomed.info/sct","code":"183452005"}]}],"subject":{"reference":"Patient/02cdc116-49ce-4277-ad9e-de6bc2a3274d"},"period":{"start":"2025-01-01T08:00:00.000Z","end":"2025-02-05T08:15:00.000Z"}},"request":{"method":"PUT","url":"Encounter/4bdd19a6-59fd-48b2-b0d2-442390128dd0"}},{"fullUrl":"https://madie.cms.gov/Procedure/deb60a46-17b0-4493-98fa-064a02b30183","resource":{"resourceType":"Procedure","id":"deb60a46-17b0-4493-98fa-064a02b30183","meta":{"profile":["http://hl7.org/fhir/us/qicore/StructureDefinition/qicore-procedure"]},"extension":[{"url":"http://hl7.org/fhir/us/qicore/StructureDefinition/qicore-recorded","valueDateTime":"2013-04-05T09:35:00-04:00"}],"status":"completed","code":{"coding":[{"system":"http://snomed.info/sct","code":"10745001"}]},"subject":{"reference":"Patient/02cdc116-49ce-4277-ad9e-de6bc2a3274d"},"performedPeriod":{"start":"2025-01-01T08:00:00.000Z"}},"request":{"method":"PUT","url":"Procedure/deb60a46-17b0-4493-98fa-064a02b30183"}},{"fullUrl":"https://madie.cms.gov/Coverage/df32236c-21a0-4f33-88aa-52f2eef9e5a9","resource":{"resourceType":"Coverage","id":"df32236c-21a0-4f33-88aa-52f2eef9e5a9","meta":{"profile":["http://hl7.org/fhir/us/qicore/StructureDefinition/qicore-coverage"]},"status":"active","beneficiary":{"reference":"Patient/02cdc116-49ce-4277-ad9e-de6bc2a3274d"},"payor":[{"reference":"Organization/5ad6ea38-07e9-4482-9e1b-c09eee595be9"}]},"request":{"method":"PUT","url":"Coverage/df32236c-21a0-4f33-88aa-52f2eef9e5a9"}},{"fullUrl":"https://madie.cms.gov/Organization/575a99b8-9f37-4339-87e0-a9b39ef3dab8","resource":{"resourceType":"Organization","id":"5ad6ea38-07e9-4482-9e1b-c09eee595be9","meta":{"profile":["http://hl7.org/fhir/us/qicore/StructureDefinition/qicore-organization"]},"identifier":[{"use":"temp","system":"urn:oid:2.16.840.1.113883.4.4","value":"21-3259825"}],"active":true,"type":[{"coding":[{"system":"http://terminology.hl7.org/CodeSystem/organization-type","code":"pay","display":"Payer"}]}],"name":"Blue Cross Blue Shield of Texas","telecom":[{"system":"phone","value":"(+1) 972-766-6900"}],"address":[{"use":"billing","type":"postal","line":["P.O. Box 660044"],"city":"Dallas","state":"TX","postalCode":"75266-0044","country":"USA"}]},"request":{"method":"PUT","url":"Organization/5ad6ea38-07e9-4482-9e1b-c09eee595be9"}},{"fullUrl":"https://madie.cms.gov/Practitioner/cd4cacd9-0c12-4f38-92aa-e034d99f924a","resource":{"resourceType":"Practitioner","id":"cd4cacd9-0c12-4f38-92aa-e034d99f924a","identifier":[{"system":"http://hl7.org/fhir/sid/us-npi","value":"123456"}],"name":[{"family":"Evil","prefix":["Dr"]}]},"request":{"method":"PUT","url":"Practitioner/cd4cacd9-0c12-4f38-92aa-e034d99f924a"}},{"fullUrl":"https://madie.cms.gov/MeasureReport/4ef60517-ff2d-47b7-85ed-addc5a860ced","resource":{"resourceType":"MeasureReport","id":"4ef60517-ff2d-47b7-85ed-addc5a860ced","meta":{"profile":["http://hl7.org/fhir/us/cqfmeasures/StructureDefinition/test-case-cqfm"]},"contained":[{"resourceType":"Parameters","id":"b4a8cd22-4f85-473c-a383-e7457b1f75c7-parameters","parameter":[{"name":"subject","valueString":"02cdc116-49ce-4277-ad9e-de6bc2a3274d"}]}],"extension":[{"url":"http://hl7.org/fhir/us/cqfmeasures/StructureDefinition/cqfm-inputParameters","valueReference":{"reference":"#b4a8cd22-4f85-473c-a383-e7457b1f75c7-parameters"}},{"url":"http://hl7.org/fhir/us/cqfmeasures/StructureDefinition/cqfm-testCaseDescription","valueMarkdown":"Calculated EGA = 20 weeks and 1 day\n"}],"modifierExtension":[{"url":"http://hl7.org/fhir/us/cqfmeasures/StructureDefinition/cqfm-isTestCase","valueBoolean":true}],"status":"complete","type":"individual","measure":"https://madie.cms.gov/Measure/CMS1028FHIRPCSevereOBComps","period":{"start":"2025-01-01","end":"2025-12-31"},"group":[{"population":[{"code":{"coding":[{"system":"http://terminology.hl7.org/CodeSystem/measure-population","code":"initial-population","display":"Initial Population"}]},"count":1},{"code":{"coding":[{"system":"http://terminology.hl7.org/CodeSystem/measure-population","code":"denominator","display":"Denominator"}]},"count":1},{"code":{"coding":[{"system":"http://terminology.hl7.org/CodeSystem/measure-population","code":"numerator","display":"Numerator"}]},"count":0},{"code":{"coding":[{"system":"http://terminology.hl7.org/CodeSystem/measure-population","code":"numerator-exclusion","display":"Numerator Exclusion"}]},"count":0}]},{"population":[{"code":{"coding":[{"system":"http://terminology.hl7.org/CodeSystem/measure-population","code":"initial-population","display":"Initial Population"}]},"count":1},{"code":{"coding":[{"system":"http://terminology.hl7.org/CodeSystem/measure-population","code":"denominator","display":"Denominator"}]},"count":1},{"code":{"coding":[{"system":"http://terminology.hl7.org/CodeSystem/measure-population","code":"numerator","display":"Numerator"}]},"count":0},{"code":{"coding":[{"system":"http://terminology.hl7.org/CodeSystem/measure-population","code":"numerator-exclusion","display":"Numerator Exclusion"}]},"count":0}]}]},"request":{"method":"PUT","url":"MeasureReport/4ef60517-ff2d-47b7-85ed-addc5a860ced"}}]}