{"resourceType":"Bundle","id":"tests-17479eda-9d6a-47c4-95d3-55e3b1bacb68-bundle","type":"transaction","entry":[{"fullUrl":"https://madie.cms.gov/Patient/17479eda-9d6a-47c4-95d3-55e3b1bacb68","resource":{"resourceType":"Patient","id":"17479eda-9d6a-47c4-95d3-55e3b1bacb68","meta":{"profile":["http://hl7.org/fhir/us/qicore/StructureDefinition/qicore-patient"]},"text":{"status":"generated","div":"<div xmlns=\"http://www.w3.org/1999/xhtml\"><div class=\"hapiHeaderText\">RISKWBCRsltDtTimeEQDelStart <b>RISKFail </b></div><table class=\"hapiPropertyTable\"><tbody><tr><td>Date of birth</td><td><span>01 February 2004</span></td></tr></tbody></table></div>"},"extension":[{"url":"http://hl7.org/fhir/us/core/StructureDefinition/us-core-race","extension":[{"url":"ombCategory","valueCoding":{"system":"urn:oid:2.16.840.1.113883.6.238","code":"1002-5","display":"American Indian or Alaska Native","userSelected":true}},{"url":"text","valueString":"American Indian or Alaska Native"}]},{"url":"http://hl7.org/fhir/us/core/StructureDefinition/us-core-ethnicity","extension":[{"url":"ombCategory","valueCoding":{"system":"urn:oid:2.16.840.1.113883.6.238","code":"2135-2","display":"Hispanic or Latino","userSelected":true}},{"url":"text","valueString":"Hispanic or Latino"}]}],"identifier":[{"type":{"coding":[{"system":"http://terminology.hl7.org/CodeSystem/v2-0203","code":"MR"}]},"system":"https://bonnie-fhir.healthit.gov/","value":"6359776b6aee9629c8298235"}],"active":true,"name":[{"use":"usual","family":"RiskFail","given":["RISKWBCRsltDtTimeEQDelStart"]}],"gender":"female","birthDate":"2004-02-01"},"request":{"method":"PUT","url":"Patient/17479eda-9d6a-47c4-95d3-55e3b1bacb68"}},{"fullUrl":"https://madie.cms.gov/Observation/e2933d05-a949-40c8-b890-618e3f84eb75","resource":{"resourceType":"Observation","id":"e2933d05-a949-40c8-b890-618e3f84eb75","meta":{"profile":["http://hl7.org/fhir/us/qicore/StructureDefinition/qicore-observation"]},"status":"final","category":[{"coding":[{"system":"http://terminology.hl7.org/CodeSystem/observation-category","code":"exam","display":"exam","userSelected":true}]}],"code":{"coding":[{"system":"http://loinc.org","code":"93857-1"}]},"subject":{"reference":"Patient/17479eda-9d6a-47c4-95d3-55e3b1bacb68"},"effectiveDateTime":"2025-02-01T08:15:00.000+00:00","valueDateTime":"2025-02-01T08:15:00+00:00"},"request":{"method":"PUT","url":"Observation/e2933d05-a949-40c8-b890-618e3f84eb75"}},{"fullUrl":"https://madie.cms.gov/Observation/cd366050-3f71-4407-bd3e-6f3f8c62f8c7","resource":{"resourceType":"Observation","id":"cd366050-3f71-4407-bd3e-6f3f8c62f8c7","meta":{"profile":["http://hl7.org/fhir/us/qicore/StructureDefinition/qicore-observation"]},"status":"final","category":[{"coding":[{"system":"http://terminology.hl7.org/CodeSystem/observation-category","code":"exam","display":"exam","userSelected":true}]}],"code":{"coding":[{"system":"http://loinc.org","code":"11884-4"}]},"subject":{"reference":"Patient/17479eda-9d6a-47c4-95d3-55e3b1bacb68"},"effectiveDateTime":"2025-02-01T08:00:00.000+00:00","valueQuantity":{"value":21,"system":"http://unitsofmeasure.org","code":"wk"}},"request":{"method":"PUT","url":"Observation/cd366050-3f71-4407-bd3e-6f3f8c62f8c7"}},{"fullUrl":"https://madie.cms.gov/Encounter/dbd000cb-e043-48a4-acff-5efc3d34fb94","resource":{"resourceType":"Encounter","id":"dbd000cb-e043-48a4-acff-5efc3d34fb94","meta":{"profile":["http://hl7.org/fhir/us/qicore/StructureDefinition/qicore-encounter"]},"status":"finished","class":{"system":"http://terminology.hl7.org/CodeSystem/v3-ActCode","code":"IMP","display":"inpatient encounter"},"type":[{"coding":[{"system":"http://snomed.info/sct","code":"183452005"}]}],"subject":{"reference":"Patient/17479eda-9d6a-47c4-95d3-55e3b1bacb68"},"period":{"start":"2025-02-01T08:00:00.000Z","end":"2025-02-05T08:15:00.000Z"}},"request":{"method":"PUT","url":"Encounter/dbd000cb-e043-48a4-acff-5efc3d34fb94"}},{"fullUrl":"https://madie.cms.gov/Encounter/b1f868a0-8a18-4e4f-8fc6-356ed1184196","resource":{"resourceType":"Encounter","id":"b1f868a0-8a18-4e4f-8fc6-356ed1184196","meta":{"profile":["http://hl7.org/fhir/us/qicore/StructureDefinition/qicore-encounter"]},"status":"finished","class":{"system":"http://terminology.hl7.org/CodeSystem/v3-ActCode","code":"EMER","display":"emergency"},"type":[{"coding":[{"system":"http://snomed.info/sct","code":"4525004"}]}],"subject":{"reference":"Patient/17479eda-9d6a-47c4-95d3-55e3b1bacb68"},"period":{"start":"2025-02-01T07:00:00.000Z","end":"2025-02-01T07:59:00.000Z"}},"request":{"method":"PUT","url":"Encounter/b1f868a0-8a18-4e4f-8fc6-356ed1184196"}},{"fullUrl":"https://madie.cms.gov/Procedure/7e57cd6c-d8f0-43a3-9f4b-4099051c427d","resource":{"resourceType":"Procedure","id":"7e57cd6c-d8f0-43a3-9f4b-4099051c427d","meta":{"profile":["http://hl7.org/fhir/us/qicore/StructureDefinition/qicore-procedure"]},"extension":[{"url":"http://hl7.org/fhir/us/qicore/StructureDefinition/qicore-recorded","valueDateTime":"2025-02-04T09:35:00-04:00"}],"status":"completed","code":{"coding":[{"system":"http://snomed.info/sct","code":"10745001"}]},"subject":{"reference":"Patient/17479eda-9d6a-47c4-95d3-55e3b1bacb68"},"performedPeriod":{"start":"2025-02-01T08:00:00.000Z","end":"2025-02-05T08:15:00.000Z"}},"request":{"method":"PUT","url":"Procedure/7e57cd6c-d8f0-43a3-9f4b-4099051c427d"}},{"fullUrl":"https://madie.cms.gov/Observation/7db91424-6f02-460f-b92f-b57317401289","resource":{"resourceType":"Observation","id":"7db91424-6f02-460f-b92f-b57317401289","meta":{"profile":["http://hl7.org/fhir/us/core/StructureDefinition/us-core-observation-lab"]},"status":"final","category":[{"coding":[{"system":"http://terminology.hl7.org/CodeSystem/observation-category","code":"laboratory","display":"laboratory","userSelected":true}]}],"code":{"coding":[{"system":"http://loinc.org","version":"2.73","code":"26464-8","display":"Leukocytes [#/volume] in Blood","userSelected":true}]},"subject":{"reference":"Patient/17479eda-9d6a-47c4-95d3-55e3b1bacb68"},"effectiveDateTime":"2025-02-01T08:00:00.000+00:00","issued":"2025-02-01T08:00:00.000+00:00","valueQuantity":{"unit":"10*3/u"}},"request":{"method":"PUT","url":"Observation/7db91424-6f02-460f-b92f-b57317401289"}},{"fullUrl":"https://madie.cms.gov/MeasureReport/61b60e4d-c0aa-4f48-9ce1-8074a23c006d","resource":{"resourceType":"MeasureReport","id":"61b60e4d-c0aa-4f48-9ce1-8074a23c006d","meta":{"profile":["http://hl7.org/fhir/us/cqfmeasures/StructureDefinition/test-case-cqfm"]},"contained":[{"resourceType":"Parameters","id":"24ead7b5-36cb-433a-8c84-a54e253ee770-parameters","parameter":[{"name":"subject","valueString":"17479eda-9d6a-47c4-95d3-55e3b1bacb68"}]}],"extension":[{"url":"http://hl7.org/fhir/us/cqfmeasures/StructureDefinition/cqfm-inputParameters","valueReference":{"reference":"#24ead7b5-36cb-433a-8c84-a54e253ee770-parameters"}},{"url":"http://hl7.org/fhir/us/cqfmeasures/StructureDefinition/cqfm-testCaseDescription","valueMarkdown":"WBC value is null."}],"modifierExtension":[{"url":"http://hl7.org/fhir/us/cqfmeasures/StructureDefinition/cqfm-isTestCase","valueBoolean":true}],"status":"complete","type":"individual","measure":"https://madie.cms.gov/Measure/CMS1028FHIRPCSevereOBComps","period":{"start":"2025-01-01","end":"2025-12-31"},"group":[{"population":[{"code":{"coding":[{"system":"http://terminology.hl7.org/CodeSystem/measure-population","code":"initial-population","display":"Initial Population"}]},"count":1},{"code":{"coding":[{"system":"http://terminology.hl7.org/CodeSystem/measure-population","code":"denominator","display":"Denominator"}]},"count":1},{"code":{"coding":[{"system":"http://terminology.hl7.org/CodeSystem/measure-population","code":"numerator","display":"Numerator"}]},"count":0},{"code":{"coding":[{"system":"http://terminology.hl7.org/CodeSystem/measure-population","code":"numerator-exclusion","display":"Numerator Exclusion"}]},"count":0}]},{"population":[{"code":{"coding":[{"system":"http://terminology.hl7.org/CodeSystem/measure-population","code":"initial-population","display":"Initial Population"}]},"count":1},{"code":{"coding":[{"system":"http://terminology.hl7.org/CodeSystem/measure-population","code":"denominator","display":"Denominator"}]},"count":1},{"code":{"coding":[{"system":"http://terminology.hl7.org/CodeSystem/measure-population","code":"numerator","display":"Numerator"}]},"count":0},{"code":{"coding":[{"system":"http://terminology.hl7.org/CodeSystem/measure-population","code":"numerator-exclusion","display":"Numerator Exclusion"}]},"count":0}]}]},"request":{"method":"PUT","url":"MeasureReport/61b60e4d-c0aa-4f48-9ce1-8074a23c006d"}}]}