{"resourceType":"Bundle","id":"tests-9bd6f62a-8e96-441f-b3a4-d189a58589ae-bundle","type":"transaction","entry":[{"fullUrl":"https://madie.cms.gov/Patient/9bd6f62a-8e96-441f-b3a4-d189a58589ae","resource":{"resourceType":"Patient","id":"9bd6f62a-8e96-441f-b3a4-d189a58589ae","meta":{"profile":["http://hl7.org/fhir/us/qicore/StructureDefinition/qicore-patient"]},"text":{"status":"generated","div":"<div xmlns=\"http://www.w3.org/1999/xhtml\"><div class=\"hapiHeaderText\">LastAssPrfEstDELRelvTm_24Hr01Min00Sec_B4DELRsltDtTime <b>DENOMPASS </b></div><table class=\"hapiPropertyTable\"><tbody><tr><td>Date of birth</td><td><span>01 February 2004</span></td></tr></tbody></table></div>"},"extension":[{"url":"http://hl7.org/fhir/us/core/StructureDefinition/us-core-race","extension":[{"url":"ombCategory","valueCoding":{"system":"urn:oid:2.16.840.1.113883.6.238","code":"1002-5","display":"American Indian or Alaska Native","userSelected":true}},{"url":"text","valueString":"American Indian or Alaska Native"}]},{"url":"http://hl7.org/fhir/us/core/StructureDefinition/us-core-ethnicity","extension":[{"url":"ombCategory","valueCoding":{"system":"urn:oid:2.16.840.1.113883.6.238","code":"2135-2","display":"Hispanic or Latino","userSelected":true}},{"url":"text","valueString":"Hispanic or Latino"}]}],"identifier":[{"type":{"coding":[{"system":"http://terminology.hl7.org/CodeSystem/v2-0203","code":"MR"}]},"system":"https://bonnie-fhir.healthit.gov/","value":"633b3f9e0968f80122503cd6"}],"active":true,"name":[{"use":"usual","family":"DENOMPass","given":["LastAssPrfEstDELRelvTm_24Hr01Min00Sec_B4DELRsltDtTime"]}],"gender":"female","birthDate":"2004-02-01"},"request":{"method":"PUT","url":"Patient/9bd6f62a-8e96-441f-b3a4-d189a58589ae"}},{"fullUrl":"https://madie.cms.gov/Observation/aee2bb8f-5725-4790-9215-75110ba41bf3","resource":{"resourceType":"Observation","id":"aee2bb8f-5725-4790-9215-75110ba41bf3","meta":{"profile":["http://hl7.org/fhir/us/qicore/StructureDefinition/qicore-observation"]},"status":"final","category":[{"coding":[{"system":"http://terminology.hl7.org/CodeSystem/observation-category","code":"exam","display":"exam","userSelected":true}]}],"code":{"coding":[{"system":"http://loinc.org","code":"93857-1"}]},"subject":{"reference":"Patient/9bd6f62a-8e96-441f-b3a4-d189a58589ae"},"effectiveDateTime":"2025-02-01T08:00:00.000+00:00","valueDateTime":"2025-02-01T08:00:00+00:00"},"request":{"method":"PUT","url":"Observation/aee2bb8f-5725-4790-9215-75110ba41bf3"}},{"fullUrl":"https://madie.cms.gov/Observation/84f603c7-0ea3-4126-97f5-d79de5315def","resource":{"resourceType":"Observation","id":"84f603c7-0ea3-4126-97f5-d79de5315def","meta":{"profile":["http://hl7.org/fhir/us/qicore/StructureDefinition/qicore-observation"]},"status":"final","category":[{"coding":[{"system":"http://terminology.hl7.org/CodeSystem/observation-category","code":"exam","display":"exam","userSelected":true}]}],"code":{"coding":[{"system":"http://loinc.org","code":"11778-8"}]},"subject":{"reference":"Patient/9bd6f62a-8e96-441f-b3a4-d189a58589ae"},"effectiveDateTime":"2025-01-31T07:59:00.000+00:00","valueDateTime":"2025-02-01T08:00:00.000+00:00"},"request":{"method":"PUT","url":"Observation/84f603c7-0ea3-4126-97f5-d79de5315def"}},{"fullUrl":"https://madie.cms.gov/Encounter/9c33e8dc-2692-4220-9514-d162abefd25e","resource":{"resourceType":"Encounter","id":"9c33e8dc-2692-4220-9514-d162abefd25e","meta":{"profile":["http://hl7.org/fhir/us/qicore/StructureDefinition/qicore-encounter"]},"status":"finished","class":{"system":"http://terminology.hl7.org/CodeSystem/v3-ActCode","code":"IMP","display":"inpatient encounter"},"type":[{"coding":[{"system":"http://snomed.info/sct","code":"183452005"}]}],"subject":{"reference":"Patient/9bd6f62a-8e96-441f-b3a4-d189a58589ae"},"period":{"start":"2025-02-01T08:00:00.000Z","end":"2025-02-05T08:15:00.000Z"}},"request":{"method":"PUT","url":"Encounter/9c33e8dc-2692-4220-9514-d162abefd25e"}},{"fullUrl":"https://madie.cms.gov/Procedure/5c2702ee-4bac-4735-960d-11862d5b44d2","resource":{"resourceType":"Procedure","id":"5c2702ee-4bac-4735-960d-11862d5b44d2","meta":{"profile":["http://hl7.org/fhir/us/qicore/StructureDefinition/qicore-procedure"]},"extension":[{"url":"http://hl7.org/fhir/us/qicore/StructureDefinition/qicore-recorded","valueDateTime":"2013-04-05T09:35:00-04:00"}],"status":"completed","code":{"coding":[{"system":"http://snomed.info/sct","code":"10745001"}]},"subject":{"reference":"Patient/9bd6f62a-8e96-441f-b3a4-d189a58589ae"},"performedPeriod":{"start":"2025-02-01T08:00:00.000Z","end":"2025-02-05T08:15:00.000Z"}},"request":{"method":"PUT","url":"Procedure/5c2702ee-4bac-4735-960d-11862d5b44d2"}},{"fullUrl":"https://madie.cms.gov/Coverage/5272af09-3255-4b2a-9c25-728d2177bf6c","resource":{"resourceType":"Coverage","id":"5272af09-3255-4b2a-9c25-728d2177bf6c","meta":{"profile":["http://hl7.org/fhir/us/qicore/StructureDefinition/qicore-coverage"]},"status":"active","beneficiary":{"reference":"Patient/9bd6f62a-8e96-441f-b3a4-d189a58589ae"},"payor":[{"reference":"Organization/5ad6ea38-07e9-4482-9e1b-c09eee595be9"}]},"request":{"method":"PUT","url":"Coverage/5272af09-3255-4b2a-9c25-728d2177bf6c"}},{"fullUrl":"https://madie.cms.gov/Organization/2023f802-f4dd-4a7b-bcf1-e8e0d0d3546b","resource":{"resourceType":"Organization","id":"5ad6ea38-07e9-4482-9e1b-c09eee595be9","meta":{"profile":["http://hl7.org/fhir/us/qicore/StructureDefinition/qicore-organization"]},"identifier":[{"use":"temp","system":"urn:oid:2.16.840.1.113883.4.4","value":"21-3259825"}],"active":true,"type":[{"coding":[{"system":"http://terminology.hl7.org/CodeSystem/organization-type","code":"pay","display":"Payer"}]}],"name":"Blue Cross Blue Shield of Texas","telecom":[{"system":"phone","value":"(+1) 972-766-6900"}],"address":[{"use":"billing","type":"postal","line":["P.O. Box 660044"],"city":"Dallas","state":"TX","postalCode":"75266-0044","country":"USA"}]},"request":{"method":"PUT","url":"Organization/5ad6ea38-07e9-4482-9e1b-c09eee595be9"}},{"fullUrl":"https://madie.cms.gov/Practitioner/2df84bc5-bf07-4b19-8426-7bde35dea295","resource":{"resourceType":"Practitioner","id":"2df84bc5-bf07-4b19-8426-7bde35dea295","identifier":[{"system":"http://hl7.org/fhir/sid/us-npi","value":"123456"}],"name":[{"family":"Evil","prefix":["Dr"]}]},"request":{"method":"PUT","url":"Practitioner/2df84bc5-bf07-4b19-8426-7bde35dea295"}},{"fullUrl":"https://madie.cms.gov/MeasureReport/5e3d223f-dc31-4488-803b-dd10d96c07f3","resource":{"resourceType":"MeasureReport","id":"5e3d223f-dc31-4488-803b-dd10d96c07f3","meta":{"profile":["http://hl7.org/fhir/us/cqfmeasures/StructureDefinition/test-case-cqfm"]},"contained":[{"resourceType":"Parameters","id":"609bbc98-d5fe-4f62-a8d1-1fd32272fa0d-parameters","parameter":[{"name":"subject","valueString":"9bd6f62a-8e96-441f-b3a4-d189a58589ae"}]}],"extension":[{"url":"http://hl7.org/fhir/us/cqfmeasures/StructureDefinition/cqfm-inputParameters","valueReference":{"reference":"#609bbc98-d5fe-4f62-a8d1-1fd32272fa0d-parameters"}},{"url":"http://hl7.org/fhir/us/cqfmeasures/StructureDefinition/cqfm-testCaseDescription","valueMarkdown":"Last assessment Performed, Estimated Delivery Date, Relevant time, 24 hours 1 min before Delivery Result Date/Time.  \n"}],"modifierExtension":[{"url":"http://hl7.org/fhir/us/cqfmeasures/StructureDefinition/cqfm-isTestCase","valueBoolean":true}],"status":"complete","type":"individual","measure":"https://madie.cms.gov/Measure/CMS1028FHIRPCSevereOBComps","period":{"start":"2025-01-01","end":"2025-12-31"},"group":[{"population":[{"code":{"coding":[{"system":"http://terminology.hl7.org/CodeSystem/measure-population","code":"initial-population","display":"Initial Population"}]},"count":1},{"code":{"coding":[{"system":"http://terminology.hl7.org/CodeSystem/measure-population","code":"denominator","display":"Denominator"}]},"count":1},{"code":{"coding":[{"system":"http://terminology.hl7.org/CodeSystem/measure-population","code":"numerator","display":"Numerator"}]},"count":0},{"code":{"coding":[{"system":"http://terminology.hl7.org/CodeSystem/measure-population","code":"numerator-exclusion","display":"Numerator Exclusion"}]},"count":0}]},{"population":[{"code":{"coding":[{"system":"http://terminology.hl7.org/CodeSystem/measure-population","code":"initial-population","display":"Initial Population"}]},"count":1},{"code":{"coding":[{"system":"http://terminology.hl7.org/CodeSystem/measure-population","code":"denominator","display":"Denominator"}]},"count":1},{"code":{"coding":[{"system":"http://terminology.hl7.org/CodeSystem/measure-population","code":"numerator","display":"Numerator"}]},"count":0},{"code":{"coding":[{"system":"http://terminology.hl7.org/CodeSystem/measure-population","code":"numerator-exclusion","display":"Numerator Exclusion"}]},"count":0}]}]},"request":{"method":"PUT","url":"MeasureReport/5e3d223f-dc31-4488-803b-dd10d96c07f3"}}]}