{"resourceType":"Bundle","id":"tests-43398d56-7916-4e9d-8953-bd0dd8a28800-bundle","type":"transaction","entry":[{"fullUrl":"https://madie.cms.gov/Patient/43398d56-7916-4e9d-8953-bd0dd8a28800","resource":{"resourceType":"Patient","id":"43398d56-7916-4e9d-8953-bd0dd8a28800","meta":{"profile":["http://hl7.org/fhir/us/qicore/StructureDefinition/qicore-patient"]},"text":{"status":"generated","div":"<div xmlns=\"http://www.w3.org/1999/xhtml\"><div class=\"hapiHeaderText\">Risk_EconomicHousingInstability<b>RISKPass </b></div><table class=\"hapiPropertyTable\"><tbody><tr><td>Date of birth</td><td><span>01 February 2004</span></td></tr></tbody></table></div>"},"extension":[{"url":"http://hl7.org/fhir/us/core/StructureDefinition/us-core-race","extension":[{"url":"ombCategory","valueCoding":{"system":"urn:oid:2.16.840.1.113883.6.238","code":"1002-5","display":"American Indian or Alaska Native","userSelected":true}},{"url":"text","valueString":"American Indian or Alaska Native"}]},{"url":"http://hl7.org/fhir/us/core/StructureDefinition/us-core-ethnicity","extension":[{"url":"ombCategory","valueCoding":{"system":"urn:oid:2.16.840.1.113883.6.238","code":"2135-2","display":"Hispanic or Latino","userSelected":true}},{"url":"text","valueString":"Hispanic or Latino"}]}],"identifier":[{"type":{"coding":[{"system":"http://terminology.hl7.org/CodeSystem/v2-0203","code":"MR"}]},"system":"https://bonnie-fhir.healthit.gov/","value":"63594c7a6aee9629c82981df"}],"active":true,"name":[{"use":"usual","family":"RiskPass","given":["Risk_EconomicHousingInstability"]}],"gender":"female","birthDate":"2004-02-01"},"request":{"method":"PUT","url":"Patient/43398d56-7916-4e9d-8953-bd0dd8a28800"}},{"fullUrl":"https://madie.cms.gov/Observation/acb9b2f5-5cbc-4fa2-b897-a237f986c941","resource":{"resourceType":"Observation","id":"acb9b2f5-5cbc-4fa2-b897-a237f986c941","meta":{"profile":["http://hl7.org/fhir/us/qicore/StructureDefinition/qicore-observation"]},"status":"final","category":[{"coding":[{"system":"http://terminology.hl7.org/CodeSystem/observation-category","code":"exam","display":"exam","userSelected":true}]}],"code":{"coding":[{"system":"http://loinc.org","code":"93857-1"}]},"subject":{"reference":"Patient/43398d56-7916-4e9d-8953-bd0dd8a28800"},"effectiveDateTime":"2025-02-01T08:00:00.000+00:00","valueDateTime":"2025-02-01T08:00:00+00:00"},"request":{"method":"PUT","url":"Observation/acb9b2f5-5cbc-4fa2-b897-a237f986c941"}},{"fullUrl":"https://madie.cms.gov/Observation/b96c8ac4-ad03-4e14-b1dd-db7c4e294504","resource":{"resourceType":"Observation","id":"b96c8ac4-ad03-4e14-b1dd-db7c4e294504","meta":{"profile":["http://hl7.org/fhir/us/qicore/StructureDefinition/qicore-observation"]},"status":"final","category":[{"coding":[{"system":"http://terminology.hl7.org/CodeSystem/observation-category","code":"exam","display":"exam","userSelected":true}]}],"code":{"coding":[{"system":"http://loinc.org","code":"11778-8"}]},"subject":{"reference":"Patient/43398d56-7916-4e9d-8953-bd0dd8a28800"},"effectiveDateTime":"2025-02-01T08:00:00.000+00:00","valueDateTime":"2025-02-01T00:00:00.000+00:00"},"request":{"method":"PUT","url":"Observation/b96c8ac4-ad03-4e14-b1dd-db7c4e294504"}},{"fullUrl":"https://madie.cms.gov/Encounter/0491e281-4c53-4376-8a1d-737fabab66e6","resource":{"resourceType":"Encounter","id":"0491e281-4c53-4376-8a1d-737fabab66e6","meta":{"profile":["http://hl7.org/fhir/us/qicore/StructureDefinition/qicore-encounter"]},"status":"finished","class":{"system":"http://terminology.hl7.org/CodeSystem/v3-ActCode","code":"IMP","display":"inpatient encounter"},"type":[{"coding":[{"system":"http://snomed.info/sct","code":"183452005"}]}],"subject":{"reference":"Patient/43398d56-7916-4e9d-8953-bd0dd8a28800"},"period":{"start":"2025-02-01T08:00:00.000Z","end":"2025-02-05T08:15:00.000Z"},"diagnosis":[{"extension":[{"url":"http://hl7.org/fhir/us/qicore/StructureDefinition/qicore-encounter-diagnosisPresentOnAdmission","valueCodeableConcept":{"coding":[{"system":"https://www.cms.gov/Medicare/Medicare-Fee-for-Service-Payment/HospitalAcqCond/Coding","code":"Y"}]}}],"condition":{"reference":"Condition/7613d32b-b3de-4e35-ac3a-9bfc665ee4f6"}},{"extension":[{"url":"http://hl7.org/fhir/us/qicore/StructureDefinition/qicore-encounter-diagnosisPresentOnAdmission","valueCodeableConcept":{"coding":[{"system":"https://www.cms.gov/Medicare/Medicare-Fee-for-Service-Payment/HospitalAcqCond/Coding","code":"N"}]}}],"condition":{"reference":"Condition/70b934c5-0d3e-4f93-ba73-053a5392e06b"}}]},"request":{"method":"PUT","url":"Encounter/0491e281-4c53-4376-8a1d-737fabab66e6"}},{"fullUrl":"https://madie.cms.gov/Procedure/cfd44948-5d83-4d01-a562-b46d484e4675","resource":{"resourceType":"Procedure","id":"cfd44948-5d83-4d01-a562-b46d484e4675","meta":{"profile":["http://hl7.org/fhir/us/qicore/StructureDefinition/qicore-procedure"]},"extension":[{"url":"http://hl7.org/fhir/us/qicore/StructureDefinition/qicore-recorded","valueDateTime":"2013-04-05T09:35:00-04:00"}],"status":"completed","code":{"coding":[{"system":"http://snomed.info/sct","code":"10745001"}]},"subject":{"reference":"Patient/43398d56-7916-4e9d-8953-bd0dd8a28800"},"performedDateTime":"2025-02-01T08:00:00.000+00:00"},"request":{"method":"PUT","url":"Procedure/cfd44948-5d83-4d01-a562-b46d484e4675"}},{"fullUrl":"https://madie.cms.gov/Condition/70b934c5-0d3e-4f93-ba73-053a5392e06b","resource":{"resourceType":"Condition","id":"70b934c5-0d3e-4f93-ba73-053a5392e06b","meta":{"profile":["http://hl7.org/fhir/us/qicore/StructureDefinition/qicore-condition"]},"category":[{"coding":[{"system":"http://terminology.hl7.org/CodeSystem/condition-category","code":"encounter-diagnosis","display":"Encounter Diagnosis"}]}],"code":{"coding":[{"system":"http://hl7.org/fhir/sid/icd-10-cm","version":"2023","code":"A32.7","display":"Listerial sepsis","userSelected":true}]},"subject":{"reference":"Patient/43398d56-7916-4e9d-8953-bd0dd8a28800"},"recordedDate":"2025-10-26T08:00:00.000+00:00"},"request":{"method":"PUT","url":"Condition/70b934c5-0d3e-4f93-ba73-053a5392e06b"}},{"fullUrl":"https://madie.cms.gov/Condition/7613d32b-b3de-4e35-ac3a-9bfc665ee4f6","resource":{"resourceType":"Condition","id":"7613d32b-b3de-4e35-ac3a-9bfc665ee4f6","meta":{"profile":["http://hl7.org/fhir/us/qicore/StructureDefinition/qicore-condition"]},"category":[{"coding":[{"system":"http://terminology.hl7.org/CodeSystem/condition-category","code":"encounter-diagnosis","display":"Encounter Diagnosis"}]}],"code":{"coding":[{"system":"http://hl7.org/fhir/sid/icd-10-cm","version":"2023","code":"Z59.00","display":"Economic Housing Instability","userSelected":true}]},"subject":{"reference":"Patient/43398d56-7916-4e9d-8953-bd0dd8a28800"},"recordedDate":"2025-10-26T08:00:00.000+00:00"},"request":{"method":"PUT","url":"Condition/7613d32b-b3de-4e35-ac3a-9bfc665ee4f6"}},{"fullUrl":"https://madie.cms.gov/MeasureReport/42463620-26ab-466d-b21b-cf4c91f64179","resource":{"resourceType":"MeasureReport","id":"42463620-26ab-466d-b21b-cf4c91f64179","meta":{"profile":["http://hl7.org/fhir/us/cqfmeasures/StructureDefinition/test-case-cqfm"]},"contained":[{"resourceType":"Parameters","id":"bc6c23bc-fc2e-45e8-ad2f-dfa782cc135a-parameters","parameter":[{"name":"subject","valueString":"43398d56-7916-4e9d-8953-bd0dd8a28800"}]}],"extension":[{"url":"http://hl7.org/fhir/us/cqfmeasures/StructureDefinition/cqfm-inputParameters","valueReference":{"reference":"#bc6c23bc-fc2e-45e8-ad2f-dfa782cc135a-parameters"}},{"url":"http://hl7.org/fhir/us/cqfmeasures/StructureDefinition/cqfm-testCaseDescription","valueMarkdown":"Risk variable of economic housing instability.\n\n"}],"modifierExtension":[{"url":"http://hl7.org/fhir/us/cqfmeasures/StructureDefinition/cqfm-isTestCase","valueBoolean":true}],"status":"complete","type":"individual","measure":"https://madie.cms.gov/Measure/CMS1028FHIRPCSevereOBComps","period":{"start":"2025-01-01","end":"2025-12-31"},"group":[{"population":[{"code":{"coding":[{"system":"http://terminology.hl7.org/CodeSystem/measure-population","code":"initial-population","display":"Initial Population"}]},"count":1},{"code":{"coding":[{"system":"http://terminology.hl7.org/CodeSystem/measure-population","code":"denominator","display":"Denominator"}]},"count":1},{"code":{"coding":[{"system":"http://terminology.hl7.org/CodeSystem/measure-population","code":"numerator","display":"Numerator"}]},"count":1},{"code":{"coding":[{"system":"http://terminology.hl7.org/CodeSystem/measure-population","code":"numerator-exclusion","display":"Numerator Exclusion"}]},"count":0}]},{"population":[{"code":{"coding":[{"system":"http://terminology.hl7.org/CodeSystem/measure-population","code":"initial-population","display":"Initial Population"}]},"count":1},{"code":{"coding":[{"system":"http://terminology.hl7.org/CodeSystem/measure-population","code":"denominator","display":"Denominator"}]},"count":1},{"code":{"coding":[{"system":"http://terminology.hl7.org/CodeSystem/measure-population","code":"numerator","display":"Numerator"}]},"count":1},{"code":{"coding":[{"system":"http://terminology.hl7.org/CodeSystem/measure-population","code":"numerator-exclusion","display":"Numerator Exclusion"}]},"count":0}]}]},"request":{"method":"PUT","url":"MeasureReport/42463620-26ab-466d-b21b-cf4c91f64179"}}]}