{"resourceType":"Bundle","id":"tests-83c5c2f7-f11f-4067-a11d-1fda623242a3-bundle","type":"transaction","entry":[{"fullUrl":"https://madie.cms.gov/Patient/83c5c2f7-f11f-4067-a11d-1fda623242a3","resource":{"resourceType":"Patient","id":"83c5c2f7-f11f-4067-a11d-1fda623242a3","meta":{"profile":["http://hl7.org/fhir/us/qicore/StructureDefinition/qicore-patient"]},"text":{"status":"generated","div":"<div xmlns=\"http://www.w3.org/1999/xhtml\"><div class=\"hapiHeaderText\">RISKHRRelDtTimeEQDelStart   <b>RISKFail </b></div><table class=\"hapiPropertyTable\"><tbody><tr><td>Date of birth</td><td><span>01 February 2004</span></td></tr></tbody></table></div>"},"extension":[{"url":"http://hl7.org/fhir/us/core/StructureDefinition/us-core-race","extension":[{"url":"ombCategory","valueCoding":{"system":"urn:oid:2.16.840.1.113883.6.238","code":"1002-5","display":"American Indian or Alaska Native","userSelected":true}},{"url":"text","valueString":"American Indian or Alaska Native"}]},{"url":"http://hl7.org/fhir/us/core/StructureDefinition/us-core-ethnicity","extension":[{"url":"ombCategory","valueCoding":{"system":"urn:oid:2.16.840.1.113883.6.238","code":"2135-2","display":"Hispanic or Latino","userSelected":true}},{"url":"text","valueString":"Hispanic or Latino"}]}],"identifier":[{"type":{"coding":[{"system":"http://terminology.hl7.org/CodeSystem/v2-0203","code":"MR"}]},"system":"https://bonnie-fhir.healthit.gov/","value":"63598dd9c35f1c19df09adbd"}],"active":true,"name":[{"use":"usual","family":"RiskFail","given":["RISKHRRelDtTimeEQDelStart "]}],"gender":"female","birthDate":"2004-02-01"},"request":{"method":"PUT","url":"Patient/83c5c2f7-f11f-4067-a11d-1fda623242a3"}},{"fullUrl":"https://madie.cms.gov/Observation/7c550126-c8ad-4d27-9bf2-9472cb4b9ee8","resource":{"resourceType":"Observation","id":"7c550126-c8ad-4d27-9bf2-9472cb4b9ee8","meta":{"profile":["http://hl7.org/fhir/us/qicore/StructureDefinition/qicore-observation"]},"status":"final","category":[{"coding":[{"system":"http://terminology.hl7.org/CodeSystem/observation-category","code":"exam","display":"exam","userSelected":true}]}],"code":{"coding":[{"system":"http://loinc.org","code":"93857-1"}]},"subject":{"reference":"Patient/83c5c2f7-f11f-4067-a11d-1fda623242a3"},"effectiveDateTime":"2025-02-01T08:00:00.000+00:00","valueDateTime":"2025-02-01T08:00:00+00:00"},"request":{"method":"PUT","url":"Observation/7c550126-c8ad-4d27-9bf2-9472cb4b9ee8"}},{"fullUrl":"https://madie.cms.gov/Observation/31f6cf8f-1b01-4541-8e16-8b514040769d","resource":{"resourceType":"Observation","id":"31f6cf8f-1b01-4541-8e16-8b514040769d","meta":{"profile":["http://hl7.org/fhir/us/qicore/StructureDefinition/qicore-observation"]},"status":"final","category":[{"coding":[{"system":"http://terminology.hl7.org/CodeSystem/observation-category","code":"exam","display":"exam","userSelected":true}]}],"code":{"coding":[{"system":"http://loinc.org","code":"11884-4"}]},"subject":{"reference":"Patient/83c5c2f7-f11f-4067-a11d-1fda623242a3"},"effectiveDateTime":"2025-02-01T08:00:00.000+00:00","valueQuantity":{"value":21,"system":"http://unitsofmeasure.org","code":"wk"}},"request":{"method":"PUT","url":"Observation/31f6cf8f-1b01-4541-8e16-8b514040769d"}},{"fullUrl":"https://madie.cms.gov/Encounter/ca71c7f5-9f7e-4dca-9216-44998360033e","resource":{"resourceType":"Encounter","id":"ca71c7f5-9f7e-4dca-9216-44998360033e","meta":{"profile":["http://hl7.org/fhir/us/qicore/StructureDefinition/qicore-encounter"]},"status":"finished","class":{"system":"http://terminology.hl7.org/CodeSystem/v3-ActCode","code":"IMP","display":"inpatient encounter"},"type":[{"coding":[{"system":"http://snomed.info/sct","code":"183452005"}]}],"subject":{"reference":"Patient/83c5c2f7-f11f-4067-a11d-1fda623242a3"},"period":{"start":"2025-02-01T08:00:00.000+00:00","end":"2025-02-05T08:15:00.000+00:00"}},"request":{"method":"PUT","url":"Encounter/ca71c7f5-9f7e-4dca-9216-44998360033e"}},{"fullUrl":"https://madie.cms.gov/Encounter/c0ebeabb-304a-4cee-a21b-44460156ae54","resource":{"resourceType":"Encounter","id":"c0ebeabb-304a-4cee-a21b-44460156ae54","meta":{"profile":["http://hl7.org/fhir/us/qicore/StructureDefinition/qicore-encounter"]},"status":"finished","class":{"system":"http://terminology.hl7.org/CodeSystem/v3-ActCode","code":"EMER","display":"emergency"},"type":[{"coding":[{"system":"http://snomed.info/sct","code":"4525004"}]}],"subject":{"reference":"Patient/83c5c2f7-f11f-4067-a11d-1fda623242a3"},"period":{"start":"2025-02-01T07:00:00.000+00:00","end":"2025-02-01T07:59:00.000+00:00"}},"request":{"method":"PUT","url":"Encounter/c0ebeabb-304a-4cee-a21b-44460156ae54"}},{"fullUrl":"https://madie.cms.gov/Procedure/1f559677-8b52-4f4a-83f0-c61efa6e09f4","resource":{"resourceType":"Procedure","id":"1f559677-8b52-4f4a-83f0-c61efa6e09f4","meta":{"profile":["http://hl7.org/fhir/us/qicore/StructureDefinition/qicore-procedure"]},"extension":[{"url":"http://hl7.org/fhir/us/qicore/StructureDefinition/qicore-recorded","valueDateTime":"2025-02-04T09:35:00-04:00"}],"status":"completed","code":{"coding":[{"system":"http://snomed.info/sct","code":"10745001"}]},"subject":{"reference":"Patient/83c5c2f7-f11f-4067-a11d-1fda623242a3"},"performedPeriod":{"start":"2025-02-01T08:00:00.000+00:00","end":"2025-02-05T08:15:00.000+00:00"}},"request":{"method":"PUT","url":"Procedure/1f559677-8b52-4f4a-83f0-c61efa6e09f4"}},{"fullUrl":"https://madie.cms.gov/Observation/c0385877-b420-43c5-9ab7-9d5e32ce3c72","resource":{"resourceType":"Observation","id":"c0385877-b420-43c5-9ab7-9d5e32ce3c72","meta":{"profile":["http://hl7.org/fhir/StructureDefinition/heartrate"]},"status":"final","category":[{"coding":[{"system":"http://terminology.hl7.org/CodeSystem/observation-category","code":"vital-signs","display":"vital-signs","userSelected":true}]}],"code":{"coding":[{"system":"http://loinc.org","version":"2.73","code":"8867-4","display":"Heart Rate"}]},"subject":{"reference":"Patient/83c5c2f7-f11f-4067-a11d-1fda623242a3"},"effectiveDateTime":"2025-02-01T08:00:00.000+00:00","valueQuantity":{"value":85,"unit":"/min","system":"http://unitsofmeasure.org","code":"/min"}},"request":{"method":"PUT","url":"Observation/c0385877-b420-43c5-9ab7-9d5e32ce3c72"}},{"fullUrl":"https://madie.cms.gov/MeasureReport/89a0575a-e27c-4dd1-86ca-71ede9f76fcb","resource":{"resourceType":"MeasureReport","id":"89a0575a-e27c-4dd1-86ca-71ede9f76fcb","meta":{"profile":["http://hl7.org/fhir/us/cqfmeasures/StructureDefinition/test-case-cqfm"]},"contained":[{"resourceType":"Parameters","id":"29e054d8-bee2-4a69-967c-5cd65395e785-parameters","parameter":[{"name":"subject","valueString":"83c5c2f7-f11f-4067-a11d-1fda623242a3"}]}],"extension":[{"url":"http://hl7.org/fhir/us/cqfmeasures/StructureDefinition/cqfm-inputParameters","valueReference":{"reference":"#29e054d8-bee2-4a69-967c-5cd65395e785-parameters"}},{"url":"http://hl7.org/fhir/us/cqfmeasures/StructureDefinition/cqfm-testCaseDescription","valueMarkdown":"Patient with heart rate relevant date/time = delivery date/time \n"}],"modifierExtension":[{"url":"http://hl7.org/fhir/us/cqfmeasures/StructureDefinition/cqfm-isTestCase","valueBoolean":true}],"status":"complete","type":"individual","measure":"https://madie.cms.gov/Measure/CMS1028FHIRPCSevereOBComps","period":{"start":"2025-01-01","end":"2025-12-31"},"group":[{"population":[{"code":{"coding":[{"system":"http://terminology.hl7.org/CodeSystem/measure-population","code":"initial-population","display":"Initial Population"}]},"count":1},{"code":{"coding":[{"system":"http://terminology.hl7.org/CodeSystem/measure-population","code":"denominator","display":"Denominator"}]},"count":1},{"code":{"coding":[{"system":"http://terminology.hl7.org/CodeSystem/measure-population","code":"numerator","display":"Numerator"}]},"count":0},{"code":{"coding":[{"system":"http://terminology.hl7.org/CodeSystem/measure-population","code":"numerator-exclusion","display":"Numerator Exclusion"}]},"count":0}]},{"population":[{"code":{"coding":[{"system":"http://terminology.hl7.org/CodeSystem/measure-population","code":"initial-population","display":"Initial Population"}]},"count":1},{"code":{"coding":[{"system":"http://terminology.hl7.org/CodeSystem/measure-population","code":"denominator","display":"Denominator"}]},"count":1},{"code":{"coding":[{"system":"http://terminology.hl7.org/CodeSystem/measure-population","code":"numerator","display":"Numerator"}]},"count":0},{"code":{"coding":[{"system":"http://terminology.hl7.org/CodeSystem/measure-population","code":"numerator-exclusion","display":"Numerator Exclusion"}]},"count":0}]}]},"request":{"method":"PUT","url":"MeasureReport/89a0575a-e27c-4dd1-86ca-71ede9f76fcb"}}]}