{"resourceType":"Bundle","id":"tests-7d4e3d3e-645c-4383-a757-27e033089633-bundle","type":"transaction","entry":[{"fullUrl":"https://madie.cms.gov/Patient/7d4e3d3e-645c-4383-a757-27e033089633","resource":{"resourceType":"Patient","id":"7d4e3d3e-645c-4383-a757-27e033089633","meta":{"profile":["http://hl7.org/fhir/us/qicore/StructureDefinition/qicore-patient"]},"text":{"status":"generated","div":"<div xmlns=\"http://www.w3.org/1999/xhtml\"><div class=\"hapiHeaderText\">EncProcEQSevereMatMorbidity <b>NUMPass </b></div><table class=\"hapiPropertyTable\"><tbody><tr><td>Date of birth</td><td><span>01 February 2004</span></td></tr></tbody></table></div>"},"extension":[{"url":"http://hl7.org/fhir/us/core/StructureDefinition/us-core-race","extension":[{"url":"ombCategory","valueCoding":{"system":"urn:oid:2.16.840.1.113883.6.238","code":"1002-5","display":"American Indian or Alaska Native","userSelected":true}},{"url":"text","valueString":"American Indian or Alaska Native"}]},{"url":"http://hl7.org/fhir/us/core/StructureDefinition/us-core-ethnicity","extension":[{"url":"ombCategory","valueCoding":{"system":"urn:oid:2.16.840.1.113883.6.238","code":"2135-2","display":"Hispanic or Latino","userSelected":true}},{"url":"text","valueString":"Hispanic or Latino"}]}],"identifier":[{"type":{"coding":[{"system":"http://terminology.hl7.org/CodeSystem/v2-0203","code":"MR"}]},"system":"https://bonnie-fhir.healthit.gov/","value":"633b3f9f0968f80122503cdb"}],"active":true,"name":[{"use":"usual","family":"NUMPass","given":["EncProcEQSevereMatMorbidity"]}],"gender":"female","birthDate":"2004-02-01"},"request":{"method":"PUT","url":"Patient/7d4e3d3e-645c-4383-a757-27e033089633"}},{"fullUrl":"https://madie.cms.gov/Observation/90d99a15-d377-415f-9477-e21d977f2aac","resource":{"resourceType":"Observation","id":"90d99a15-d377-415f-9477-e21d977f2aac","meta":{"profile":["http://hl7.org/fhir/us/qicore/StructureDefinition/qicore-observation"]},"status":"final","category":[{"coding":[{"system":"http://terminology.hl7.org/CodeSystem/observation-category","code":"exam","display":"exam","userSelected":true}]}],"code":{"coding":[{"system":"http://loinc.org","code":"93857-1"}]},"subject":{"reference":"Patient/7d4e3d3e-645c-4383-a757-27e033089633"},"effectiveDateTime":"2025-02-01T08:00:00.000+00:00","valueDateTime":"2025-02-01T08:00:00+00:00"},"request":{"method":"PUT","url":"Observation/90d99a15-d377-415f-9477-e21d977f2aac"}},{"fullUrl":"https://madie.cms.gov/Observation/a7010864-a4d5-4244-9fa2-f21bf0f7a5c1","resource":{"resourceType":"Observation","id":"a7010864-a4d5-4244-9fa2-f21bf0f7a5c1","meta":{"profile":["http://hl7.org/fhir/us/qicore/StructureDefinition/qicore-observation"]},"status":"final","category":[{"coding":[{"system":"http://terminology.hl7.org/CodeSystem/observation-category","code":"exam","display":"exam","userSelected":true}]}],"code":{"coding":[{"system":"http://loinc.org","code":"11884-4"}]},"subject":{"reference":"Patient/7d4e3d3e-645c-4383-a757-27e033089633"},"effectiveDateTime":"2025-02-01T08:00:00.000+00:00","valueQuantity":{"value":20,"system":"http://unitsofmeasure.org","code":"wk"}},"request":{"method":"PUT","url":"Observation/a7010864-a4d5-4244-9fa2-f21bf0f7a5c1"}},{"fullUrl":"https://madie.cms.gov/Encounter/49d63e0e-5701-43ff-b2c6-f2e6790e09f1","resource":{"resourceType":"Encounter","id":"49d63e0e-5701-43ff-b2c6-f2e6790e09f1","meta":{"profile":["http://hl7.org/fhir/us/qicore/StructureDefinition/qicore-encounter"]},"status":"finished","class":{"system":"http://terminology.hl7.org/CodeSystem/v3-ActCode","code":"IMP","display":"inpatient encounter"},"type":[{"coding":[{"system":"http://snomed.info/sct","code":"183452005"}]}],"subject":{"reference":"Patient/7d4e3d3e-645c-4383-a757-27e033089633"},"period":{"start":"2025-02-01T08:00:00.000Z","end":"2025-02-05T08:15:00.000Z"},"diagnosis":[{"extension":[{"url":"http://hl7.org/fhir/us/qicore/StructureDefinition/qicore-encounter-diagnosisPresentOnAdmission","valueCodeableConcept":{"coding":[{"system":"https://www.cms.gov/Medicare/Medicare-Fee-for-Service-Payment/HospitalAcqCond/Coding","code":"N"}]}}],"condition":{"reference":"Condition/f161514a-f9bd-49ae-bdaa-284b85192335"}}]},"request":{"method":"PUT","url":"Encounter/49d63e0e-5701-43ff-b2c6-f2e6790e09f1"}},{"fullUrl":"https://madie.cms.gov/Condition/f161514a-f9bd-49ae-bdaa-284b85192335","resource":{"resourceType":"Condition","id":"f161514a-f9bd-49ae-bdaa-284b85192335","meta":{"profile":["http://hl7.org/fhir/us/qicore/StructureDefinition/qicore-condition"]},"category":[{"coding":[{"system":"http://terminology.hl7.org/CodeSystem/condition-category","code":"encounter-diagnosis","display":"Encounter Diagnosis"}]}],"code":{"coding":[{"system":"http://hl7.org/fhir/sid/icd-10-cm","version":"2023","code":"O43.229","display":"Placenta increta, unspecified trimester","userSelected":true}]},"subject":{"reference":"Patient/7d4e3d3e-645c-4383-a757-27e033089633"},"recordedDate":"2025-02-01T08:00:00.000+00:00"},"request":{"method":"PUT","url":"Condition/f161514a-f9bd-49ae-bdaa-284b85192335"}},{"fullUrl":"https://madie.cms.gov/Coverage/66360680-0fdd-4fa8-8c1c-fb373b1c30fc","resource":{"resourceType":"Coverage","id":"66360680-0fdd-4fa8-8c1c-fb373b1c30fc","status":"active","beneficiary":{"reference":"Patient/7d4e3d3e-645c-4383-a757-27e033089633"},"period":{"start":"2004-02-01T08:00:00.000Z"},"payor":[{"reference":"Organization/e75793c9-fdf6-463a-8c1d-4ee44320dc25"}]},"request":{"method":"PUT","url":"Coverage/66360680-0fdd-4fa8-8c1c-fb373b1c30fc"}},{"fullUrl":"https://madie.cms.gov/Procedure/2b5023b5-3280-4056-83ee-d90f789ee83c","resource":{"resourceType":"Procedure","id":"2b5023b5-3280-4056-83ee-d90f789ee83c","meta":{"profile":["http://hl7.org/fhir/us/qicore/StructureDefinition/qicore-procedure"]},"extension":[{"url":"http://hl7.org/fhir/us/qicore/StructureDefinition/qicore-recorded","valueDateTime":"2013-04-05T09:35:00-04:00"}],"status":"completed","code":{"coding":[{"system":"http://snomed.info/sct","code":"10745001"}]},"subject":{"reference":"Patient/7d4e3d3e-645c-4383-a757-27e033089633"},"performedPeriod":{"start":"2025-02-01T08:00:00.000Z","end":"2025-02-05T08:15:00.000Z"}},"request":{"method":"PUT","url":"Procedure/2b5023b5-3280-4056-83ee-d90f789ee83c"}},{"fullUrl":"https://madie.cms.gov/Procedure/6dc212c8-8c03-46a3-942b-8ae55204949e","resource":{"resourceType":"Procedure","id":"6dc212c8-8c03-46a3-942b-8ae55204949e","meta":{"profile":["http://hl7.org/fhir/us/qicore/StructureDefinition/qicore-procedure"]},"extension":[{"url":"http://hl7.org/fhir/us/qicore/StructureDefinition/qicore-recorded","valueDateTime":"2025-02-01T00:01:00-04:00"}],"status":"completed","code":{"coding":[{"system":"http://snomed.info/sct","code":"11050006"}]},"subject":{"reference":"Patient/7d4e3d3e-645c-4383-a757-27e033089633"},"performedPeriod":{"start":"2025-02-04T00:00:00.000Z","end":"2025-02-04T11:59:00.000Z"}},"request":{"method":"PUT","url":"Procedure/6dc212c8-8c03-46a3-942b-8ae55204949e"}},{"fullUrl":"https://madie.cms.gov/Organization/ade4be61-c5ce-40cd-a542-2ce7d1d96ad9","resource":{"resourceType":"Organization","id":"e75793c9-fdf6-463a-8c1d-4ee44320dc25","meta":{"profile":["http://hl7.org/fhir/us/qicore/StructureDefinition/qicore-organization"]},"identifier":[{"use":"temp","system":"urn:oid:2.16.840.1.113883.4.4","value":"21-3259825"}],"active":true,"type":[{"coding":[{"system":"http://terminology.hl7.org/CodeSystem/organization-type","code":"pay","display":"Payer"}]}],"name":"Blue Cross Blue Shield of Texas","telecom":[{"system":"phone","value":"(+1) 972-766-6900"}],"address":[{"use":"billing","type":"postal","line":["P.O. Box 660044"],"city":"Dallas","state":"TX","postalCode":"75266-0044","country":"USA"}]},"request":{"method":"PUT","url":"Organization/e75793c9-fdf6-463a-8c1d-4ee44320dc25"}},{"fullUrl":"https://madie.cms.gov/Practitioner/2f9a8a32-71cd-457d-b413-bd7e9a93f568","resource":{"resourceType":"Practitioner","id":"2f9a8a32-71cd-457d-b413-bd7e9a93f568","identifier":[{"system":"http://hl7.org/fhir/sid/us-npi","value":"123456"}],"name":[{"family":"Evil","prefix":["Dr"]}]},"request":{"method":"PUT","url":"Practitioner/2f9a8a32-71cd-457d-b413-bd7e9a93f568"}},{"fullUrl":"https://madie.cms.gov/MeasureReport/2fa49a8b-5099-46c3-adef-d2d3cfddb7c8","resource":{"resourceType":"MeasureReport","id":"2fa49a8b-5099-46c3-adef-d2d3cfddb7c8","meta":{"profile":["http://hl7.org/fhir/us/cqfmeasures/StructureDefinition/test-case-cqfm"]},"contained":[{"resourceType":"Parameters","id":"16760d28-02d1-439f-9e50-09f37925aa8f-parameters","parameter":[{"name":"subject","valueString":"7d4e3d3e-645c-4383-a757-27e033089633"}]}],"extension":[{"url":"http://hl7.org/fhir/us/cqfmeasures/StructureDefinition/cqfm-inputParameters","valueReference":{"reference":"#16760d28-02d1-439f-9e50-09f37925aa8f-parameters"}},{"url":"http://hl7.org/fhir/us/cqfmeasures/StructureDefinition/cqfm-testCaseDescription","valueMarkdown":"Hysterectomy with Placenta Increta and no other SOC."}],"modifierExtension":[{"url":"http://hl7.org/fhir/us/cqfmeasures/StructureDefinition/cqfm-isTestCase","valueBoolean":true}],"status":"complete","type":"individual","measure":"https://madie.cms.gov/Measure/CMS1028FHIRPCSevereOBComps","period":{"start":"2025-01-01","end":"2025-12-31"},"group":[{"population":[{"code":{"coding":[{"system":"http://terminology.hl7.org/CodeSystem/measure-population","code":"initial-population","display":"Initial Population"}]},"count":1},{"code":{"coding":[{"system":"http://terminology.hl7.org/CodeSystem/measure-population","code":"denominator","display":"Denominator"}]},"count":1},{"code":{"coding":[{"system":"http://terminology.hl7.org/CodeSystem/measure-population","code":"numerator","display":"Numerator"}]},"count":1},{"code":{"coding":[{"system":"http://terminology.hl7.org/CodeSystem/measure-population","code":"numerator-exclusion","display":"Numerator Exclusion"}]},"count":1}]},{"population":[{"code":{"coding":[{"system":"http://terminology.hl7.org/CodeSystem/measure-population","code":"initial-population","display":"Initial Population"}]},"count":1},{"code":{"coding":[{"system":"http://terminology.hl7.org/CodeSystem/measure-population","code":"denominator","display":"Denominator"}]},"count":1},{"code":{"coding":[{"system":"http://terminology.hl7.org/CodeSystem/measure-population","code":"numerator","display":"Numerator"}]},"count":1},{"code":{"coding":[{"system":"http://terminology.hl7.org/CodeSystem/measure-population","code":"numerator-exclusion","display":"Numerator Exclusion"}]},"count":1}]}]},"request":{"method":"PUT","url":"MeasureReport/2fa49a8b-5099-46c3-adef-d2d3cfddb7c8"}}]}