{"resourceType":"Bundle","id":"tests-668b4278-224f-43df-a04e-b7579872d57c-bundle","type":"transaction","entry":[{"fullUrl":"https://madie.cms.gov/Patient/668b4278-224f-43df-a04e-b7579872d57c","resource":{"resourceType":"Patient","id":"668b4278-224f-43df-a04e-b7579872d57c","meta":{"profile":["http://hl7.org/fhir/us/qicore/StructureDefinition/qicore-patient"]},"text":{"status":"generated","div":"<div xmlns=\"http://www.w3.org/1999/xhtml\"><div class=\"hapiHeaderText\">DelProcRelDtTimeUsedInsteadOfPeriod <b>IPPASS </b></div><table class=\"hapiPropertyTable\"><tbody><tr><td>Date of birth</td><td><span>02 February 1947</span></td></tr></tbody></table></div>"},"extension":[{"url":"http://hl7.org/fhir/us/core/StructureDefinition/us-core-race","extension":[{"url":"ombCategory","valueCoding":{"system":"urn:oid:2.16.840.1.113883.6.238","code":"1002-5","display":"American Indian or Alaska Native","userSelected":true}},{"url":"text","valueString":"American Indian or Alaska Native"}]},{"url":"http://hl7.org/fhir/us/core/StructureDefinition/us-core-ethnicity","extension":[{"url":"ombCategory","valueCoding":{"system":"urn:oid:2.16.840.1.113883.6.238","code":"2135-2","display":"Hispanic or Latino","userSelected":true}},{"url":"text","valueString":"Hispanic or Latino"}]}],"identifier":[{"type":{"coding":[{"system":"http://terminology.hl7.org/CodeSystem/v2-0203","code":"MR"}]},"system":"https://bonnie-fhir.healthit.gov/","value":"633b3fa00968f80122503d10"}],"active":true,"name":[{"use":"usual","family":"IPPass","given":["DelProcRelDtTimeUsedInsteadOfPeriod"]}],"gender":"female","birthDate":"1960-02-02"},"request":{"method":"PUT","url":"Patient/668b4278-224f-43df-a04e-b7579872d57c"}},{"fullUrl":"https://madie.cms.gov/Encounter/308668c3-f8cc-4c4b-85e2-820915628d26","resource":{"resourceType":"Encounter","id":"308668c3-f8cc-4c4b-85e2-820915628d26","meta":{"profile":["http://hl7.org/fhir/us/qicore/StructureDefinition/qicore-encounter"]},"status":"finished","class":{"system":"http://terminology.hl7.org/CodeSystem/v3-ActCode","code":"IMP","display":"inpatient encounter"},"type":[{"coding":[{"system":"http://snomed.info/sct","code":"183452005"}]}],"subject":{"reference":"Patient/668b4278-224f-43df-a04e-b7579872d57c"},"period":{"start":"2025-02-01T08:00:00.000Z","end":"2025-02-05T08:15:00.000Z"}},"request":{"method":"PUT","url":"Encounter/308668c3-f8cc-4c4b-85e2-820915628d26"}},{"fullUrl":"https://madie.cms.gov/Procedure/5e31fef6-a572-4ab6-86dc-b775d555cde5","resource":{"resourceType":"Procedure","id":"5e31fef6-a572-4ab6-86dc-b775d555cde5","meta":{"profile":["http://hl7.org/fhir/us/qicore/StructureDefinition/qicore-procedure"]},"extension":[{"url":"http://hl7.org/fhir/us/qicore/StructureDefinition/qicore-recorded","valueDateTime":"2013-04-05T09:35:00-04:00"}],"status":"completed","code":{"coding":[{"system":"http://snomed.info/sct","code":"10745001"}]},"subject":{"reference":"Patient/668b4278-224f-43df-a04e-b7579872d57c"},"performedDateTime":"2025-02-01T08:00:00.000+00:00"},"request":{"method":"PUT","url":"Procedure/5e31fef6-a572-4ab6-86dc-b775d555cde5"}},{"fullUrl":"https://madie.cms.gov/Coverage/2ce7ae16-d650-4d37-b70e-be1604387eb9","resource":{"resourceType":"Coverage","id":"2ce7ae16-d650-4d37-b70e-be1604387eb9","meta":{"profile":["http://hl7.org/fhir/us/qicore/StructureDefinition/qicore-coverage"]},"status":"active","beneficiary":{"reference":"Patient/668b4278-224f-43df-a04e-b7579872d57c"},"payor":[{"reference":"Organization/db141f66-a1cc-407b-9e95-adac27adee14"}]},"request":{"method":"PUT","url":"Coverage/2ce7ae16-d650-4d37-b70e-be1604387eb9"}},{"fullUrl":"https://madie.cms.gov/Organization/4541fd82-e7c9-49dd-b36b-6f1863ca0e6b","resource":{"resourceType":"Organization","id":"db141f66-a1cc-407b-9e95-adac27adee14","meta":{"profile":["http://hl7.org/fhir/us/qicore/StructureDefinition/qicore-organization"]},"identifier":[{"use":"temp","system":"urn:oid:2.16.840.1.113883.4.4","value":"21-3259825"}],"active":true,"type":[{"coding":[{"system":"http://terminology.hl7.org/CodeSystem/organization-type","code":"pay","display":"Payer"}]}],"name":"Blue Cross Blue Shield of Texas","telecom":[{"system":"phone","value":"(+1) 972-766-6900"}],"address":[{"use":"billing","type":"postal","line":["P.O. Box 660044"],"city":"Dallas","state":"TX","postalCode":"75266-0044","country":"USA"}]},"request":{"method":"PUT","url":"Organization/db141f66-a1cc-407b-9e95-adac27adee14"}},{"fullUrl":"https://madie.cms.gov/Practitioner/655c4111-d0de-4671-9a17-c9aa35a89cdb","resource":{"resourceType":"Practitioner","id":"655c4111-d0de-4671-9a17-c9aa35a89cdb","identifier":[{"system":"http://hl7.org/fhir/sid/us-npi","value":"123456"}],"name":[{"family":"Evil","prefix":["Dr"]}]},"request":{"method":"PUT","url":"Practitioner/655c4111-d0de-4671-9a17-c9aa35a89cdb"}},{"fullUrl":"https://madie.cms.gov/MeasureReport/dea42d33-81fd-497c-acfb-68787fc838ee","resource":{"resourceType":"MeasureReport","id":"dea42d33-81fd-497c-acfb-68787fc838ee","meta":{"profile":["http://hl7.org/fhir/us/cqfmeasures/StructureDefinition/test-case-cqfm"]},"contained":[{"resourceType":"Parameters","id":"d0a2522f-64b6-4ee9-a1fb-9200b0f42deb-parameters","parameter":[{"name":"subject","valueString":"668b4278-224f-43df-a04e-b7579872d57c"}]}],"extension":[{"url":"http://hl7.org/fhir/us/cqfmeasures/StructureDefinition/cqfm-inputParameters","valueReference":{"reference":"#d0a2522f-64b6-4ee9-a1fb-9200b0f42deb-parameters"}},{"url":"http://hl7.org/fhir/us/cqfmeasures/StructureDefinition/cqfm-testCaseDescription","valueMarkdown":"Patient is 64 years and 364 days of age on day encounter starts.  Relevant Date/Time used instead of Relevant Period.\n"}],"modifierExtension":[{"url":"http://hl7.org/fhir/us/cqfmeasures/StructureDefinition/cqfm-isTestCase","valueBoolean":true}],"status":"complete","type":"individual","measure":"https://madie.cms.gov/Measure/CMS1028FHIRPCSevereOBComps","period":{"start":"2025-01-01","end":"2025-12-31"},"group":[{"population":[{"code":{"coding":[{"system":"http://terminology.hl7.org/CodeSystem/measure-population","code":"initial-population","display":"Initial Population"}]},"count":1},{"code":{"coding":[{"system":"http://terminology.hl7.org/CodeSystem/measure-population","code":"denominator","display":"Denominator"}]},"count":0},{"code":{"coding":[{"system":"http://terminology.hl7.org/CodeSystem/measure-population","code":"numerator","display":"Numerator"}]},"count":0},{"code":{"coding":[{"system":"http://terminology.hl7.org/CodeSystem/measure-population","code":"numerator-exclusion","display":"Numerator Exclusion"}]},"count":0}]},{"population":[{"code":{"coding":[{"system":"http://terminology.hl7.org/CodeSystem/measure-population","code":"initial-population","display":"Initial Population"}]},"count":1},{"code":{"coding":[{"system":"http://terminology.hl7.org/CodeSystem/measure-population","code":"denominator","display":"Denominator"}]},"count":0},{"code":{"coding":[{"system":"http://terminology.hl7.org/CodeSystem/measure-population","code":"numerator","display":"Numerator"}]},"count":0},{"code":{"coding":[{"system":"http://terminology.hl7.org/CodeSystem/measure-population","code":"numerator-exclusion","display":"Numerator Exclusion"}]},"count":0}]}]},"request":{"method":"PUT","url":"MeasureReport/dea42d33-81fd-497c-acfb-68787fc838ee"}}]}