{"resourceType":"Bundle","id":"tests-8abe1112-e249-430d-b1a8-a230f2c2262c-bundle","type":"transaction","entry":[{"fullUrl":"https://madie.cms.gov/Patient/8abe1112-e249-430d-b1a8-a230f2c2262c","resource":{"resourceType":"Patient","id":"8abe1112-e249-430d-b1a8-a230f2c2262c","meta":{"profile":["http://hl7.org/fhir/us/qicore/StructureDefinition/qicore-patient"]},"text":{"status":"generated","div":"<div xmlns=\"http://www.w3.org/1999/xhtml\"><div class=\"hapiHeaderText\">LastAssPrfEGARelvTm_24Hr01Min00Sec_B4LastTmDELRsltDtTime <b>DENOMFAIL </b></div><table class=\"hapiPropertyTable\"><tbody><tr><td>Date of birth</td><td><span>01 February 2004</span></td></tr></tbody></table></div>"},"extension":[{"url":"http://hl7.org/fhir/us/core/StructureDefinition/us-core-race","extension":[{"url":"ombCategory","valueCoding":{"system":"urn:oid:2.16.840.1.113883.6.238","code":"1002-5","display":"American Indian or Alaska Native","userSelected":true}},{"url":"text","valueString":"American Indian or Alaska Native"}]},{"url":"http://hl7.org/fhir/us/core/StructureDefinition/us-core-ethnicity","extension":[{"url":"ombCategory","valueCoding":{"system":"urn:oid:2.16.840.1.113883.6.238","code":"2135-2","display":"Hispanic or Latino","userSelected":true}},{"url":"text","valueString":"Hispanic or Latino"}]}],"identifier":[{"type":{"coding":[{"system":"http://terminology.hl7.org/CodeSystem/v2-0203","code":"MR"}]},"system":"https://bonnie-fhir.healthit.gov/","value":"633b3f9f0968f80122503cdc"}],"active":true,"name":[{"use":"usual","family":"DENOMFail","given":["LastAssPrfEGARelvTm_24Hr01Min00Sec_B4LastTmDELRsltDtTime"]}],"gender":"female","birthDate":"2004-02-01"},"request":{"method":"PUT","url":"Patient/8abe1112-e249-430d-b1a8-a230f2c2262c"}},{"fullUrl":"https://madie.cms.gov/Observation/26008525-af31-43dc-b103-e1ae22ac0f0a","resource":{"resourceType":"Observation","id":"26008525-af31-43dc-b103-e1ae22ac0f0a","meta":{"profile":["http://hl7.org/fhir/us/qicore/StructureDefinition/qicore-observation"]},"status":"final","category":[{"coding":[{"system":"http://terminology.hl7.org/CodeSystem/observation-category","code":"exam","display":"exam","userSelected":true}]}],"code":{"coding":[{"system":"http://loinc.org","code":"93857-1"}]},"subject":{"reference":"Patient/8abe1112-e249-430d-b1a8-a230f2c2262c"},"effectiveDateTime":"2025-02-01T08:00:00.000+00:00","valueDateTime":"2025-02-01T08:00:00+00:00"},"request":{"method":"PUT","url":"Observation/26008525-af31-43dc-b103-e1ae22ac0f0a"}},{"fullUrl":"https://madie.cms.gov/Observation/e5baf0a9-aaa9-4d9a-84f7-394b833bb955","resource":{"resourceType":"Observation","id":"e5baf0a9-aaa9-4d9a-84f7-394b833bb955","meta":{"profile":["http://hl7.org/fhir/us/qicore/StructureDefinition/qicore-observation"]},"status":"final","category":[{"coding":[{"system":"http://terminology.hl7.org/CodeSystem/observation-category","code":"exam","display":"exam","userSelected":true}]}],"code":{"coding":[{"system":"http://loinc.org","code":"11884-4"}]},"subject":{"reference":"Patient/8abe1112-e249-430d-b1a8-a230f2c2262c"},"effectiveDateTime":"2025-01-31T07:59:00.000+00:00","valueQuantity":{"value":20,"unit":"wk"}},"request":{"method":"PUT","url":"Observation/e5baf0a9-aaa9-4d9a-84f7-394b833bb955"}},{"fullUrl":"https://madie.cms.gov/Encounter/46d780a5-296d-4943-8c43-80c46f77c7a6","resource":{"resourceType":"Encounter","id":"46d780a5-296d-4943-8c43-80c46f77c7a6","meta":{"profile":["http://hl7.org/fhir/us/qicore/StructureDefinition/qicore-encounter"]},"status":"finished","class":{"system":"http://terminology.hl7.org/CodeSystem/v3-ActCode","code":"IMP","display":"inpatient encounter"},"type":[{"coding":[{"system":"http://snomed.info/sct","code":"183452005"}]}],"subject":{"reference":"Patient/8abe1112-e249-430d-b1a8-a230f2c2262c"},"period":{"start":"2025-02-01T08:00:00.000Z","end":"2025-02-05T08:15:00.000Z"}},"request":{"method":"PUT","url":"Encounter/46d780a5-296d-4943-8c43-80c46f77c7a6"}},{"fullUrl":"https://madie.cms.gov/Coverage/172fcf86-6aa8-45b2-81ee-f6d2979bd87f","resource":{"resourceType":"Coverage","id":"172fcf86-6aa8-45b2-81ee-f6d2979bd87f","status":"active","beneficiary":{"reference":"Patient/8abe1112-e249-430d-b1a8-a230f2c2262c"},"period":{"start":"2004-02-01T08:00:00.000Z"},"payor":[{"reference":"Organization/e75793c9-fdf6-463a-8c1d-4ee44320dc25"}]},"request":{"method":"PUT","url":"Coverage/172fcf86-6aa8-45b2-81ee-f6d2979bd87f"}},{"fullUrl":"https://madie.cms.gov/Procedure/4c0b15a5-9c55-4cc3-a2cb-18ae0f1033ec","resource":{"resourceType":"Procedure","id":"4c0b15a5-9c55-4cc3-a2cb-18ae0f1033ec","meta":{"profile":["http://hl7.org/fhir/us/qicore/StructureDefinition/qicore-procedure"]},"extension":[{"url":"http://hl7.org/fhir/us/qicore/StructureDefinition/qicore-recorded","valueDateTime":"2013-04-05T09:35:00-04:00"}],"status":"completed","code":{"coding":[{"system":"http://snomed.info/sct","code":"10745001"}]},"subject":{"reference":"Patient/8abe1112-e249-430d-b1a8-a230f2c2262c"},"performedPeriod":{"start":"2025-02-01T08:00:00.000Z","end":"2025-02-05T08:15:00.000Z"}},"request":{"method":"PUT","url":"Procedure/4c0b15a5-9c55-4cc3-a2cb-18ae0f1033ec"}},{"fullUrl":"https://madie.cms.gov/Organization/0da8466f-9673-401e-9ac6-e181dbdfb9a6","resource":{"resourceType":"Organization","id":"e75793c9-fdf6-463a-8c1d-4ee44320dc25","meta":{"profile":["http://hl7.org/fhir/us/qicore/StructureDefinition/qicore-organization"]},"identifier":[{"use":"temp","system":"urn:oid:2.16.840.1.113883.4.4","value":"21-3259825"}],"active":true,"type":[{"coding":[{"system":"http://terminology.hl7.org/CodeSystem/organization-type","code":"pay","display":"Payer"}]}],"name":"Blue Cross Blue Shield of Texas","telecom":[{"system":"phone","value":"(+1) 972-766-6900"}],"address":[{"use":"billing","type":"postal","line":["P.O. Box 660044"],"city":"Dallas","state":"TX","postalCode":"75266-0044","country":"USA"}]},"request":{"method":"PUT","url":"Organization/e75793c9-fdf6-463a-8c1d-4ee44320dc25"}},{"fullUrl":"https://madie.cms.gov/Practitioner/b5963d64-8e90-4b8b-b452-28d47ef886fe","resource":{"resourceType":"Practitioner","id":"b5963d64-8e90-4b8b-b452-28d47ef886fe","identifier":[{"system":"http://hl7.org/fhir/sid/us-npi","value":"123456"}],"name":[{"family":"Evil","prefix":["Dr"]}]},"request":{"method":"PUT","url":"Practitioner/b5963d64-8e90-4b8b-b452-28d47ef886fe"}},{"fullUrl":"https://madie.cms.gov/MeasureReport/682ac95a-bcdb-4a32-a196-b93afcb62a73","resource":{"resourceType":"MeasureReport","id":"682ac95a-bcdb-4a32-a196-b93afcb62a73","meta":{"profile":["http://hl7.org/fhir/us/cqfmeasures/StructureDefinition/test-case-cqfm"]},"contained":[{"resourceType":"Parameters","id":"42bce563-6dce-421c-a167-fa3852855f01-parameters","parameter":[{"name":"subject","valueString":"8abe1112-e249-430d-b1a8-a230f2c2262c"}]}],"extension":[{"url":"http://hl7.org/fhir/us/cqfmeasures/StructureDefinition/cqfm-inputParameters","valueReference":{"reference":"#42bce563-6dce-421c-a167-fa3852855f01-parameters"}},{"url":"http://hl7.org/fhir/us/cqfmeasures/StructureDefinition/cqfm-testCaseDescription","valueMarkdown":"Estimated Gestational Age Relevant Date Time is 24 hours 1 minute before Time of Delivery (result)\n"}],"modifierExtension":[{"url":"http://hl7.org/fhir/us/cqfmeasures/StructureDefinition/cqfm-isTestCase","valueBoolean":true}],"status":"complete","type":"individual","measure":"https://madie.cms.gov/Measure/CMS1028FHIRPCSevereOBComps","period":{"start":"2025-01-01","end":"2025-12-31"},"group":[{"population":[{"code":{"coding":[{"system":"http://terminology.hl7.org/CodeSystem/measure-population","code":"initial-population","display":"Initial Population"}]},"count":1},{"code":{"coding":[{"system":"http://terminology.hl7.org/CodeSystem/measure-population","code":"denominator","display":"Denominator"}]},"count":0},{"code":{"coding":[{"system":"http://terminology.hl7.org/CodeSystem/measure-population","code":"numerator","display":"Numerator"}]},"count":0},{"code":{"coding":[{"system":"http://terminology.hl7.org/CodeSystem/measure-population","code":"numerator-exclusion","display":"Numerator Exclusion"}]},"count":0}]},{"population":[{"code":{"coding":[{"system":"http://terminology.hl7.org/CodeSystem/measure-population","code":"initial-population","display":"Initial Population"}]},"count":1},{"code":{"coding":[{"system":"http://terminology.hl7.org/CodeSystem/measure-population","code":"denominator","display":"Denominator"}]},"count":0},{"code":{"coding":[{"system":"http://terminology.hl7.org/CodeSystem/measure-population","code":"numerator","display":"Numerator"}]},"count":0},{"code":{"coding":[{"system":"http://terminology.hl7.org/CodeSystem/measure-population","code":"numerator-exclusion","display":"Numerator Exclusion"}]},"count":0}]}]},"request":{"method":"PUT","url":"MeasureReport/682ac95a-bcdb-4a32-a196-b93afcb62a73"}}]}