{"resourceType":"Bundle","id":"tests-251abdd8-fbd3-47ab-a7f8-35180c67491d-bundle","type":"transaction","entry":[{"fullUrl":"https://madie.cms.gov/Patient/251abdd8-fbd3-47ab-a7f8-35180c67491d","resource":{"resourceType":"Patient","id":"251abdd8-fbd3-47ab-a7f8-35180c67491d","meta":{"profile":["http://hl7.org/fhir/us/qicore/StructureDefinition/qicore-patient"]},"text":{"status":"generated","div":"<div xmlns=\"http://www.w3.org/1999/xhtml\"><div class=\"hapiHeaderText\">LastAssPrfEstDELRelvTm_00Hr01Min00Sec <b>DENOMFAIL </b></div><table class=\"hapiPropertyTable\"><tbody><tr><td>Date of birth</td><td><span>01 February 2004</span></td></tr></tbody></table></div>"},"extension":[{"url":"http://hl7.org/fhir/us/core/StructureDefinition/us-core-race","extension":[{"url":"ombCategory","valueCoding":{"system":"urn:oid:2.16.840.1.113883.6.238","code":"1002-5","display":"American Indian or Alaska Native","userSelected":true}},{"url":"text","valueString":"American Indian or Alaska Native"}]},{"url":"http://hl7.org/fhir/us/core/StructureDefinition/us-core-ethnicity","extension":[{"url":"ombCategory","valueCoding":{"system":"urn:oid:2.16.840.1.113883.6.238","code":"2135-2","display":"Hispanic or Latino","userSelected":true}},{"url":"text","valueString":"Hispanic or Latino"}]}],"identifier":[{"type":{"coding":[{"system":"http://terminology.hl7.org/CodeSystem/v2-0203","code":"MR"}]},"system":"https://bonnie-fhir.healthit.gov/","value":"633b3f9e0968f80122503cd5"}],"active":true,"name":[{"use":"usual","family":"DENOMFail","given":["LastAssPrfEstDELRelvTm_00Hr01Min00Sec"]}],"gender":"female","birthDate":"2004-02-01"},"request":{"method":"PUT","url":"Patient/251abdd8-fbd3-47ab-a7f8-35180c67491d"}},{"fullUrl":"https://madie.cms.gov/Observation/1ea905ec-0e3e-4517-8104-7b8c53694e96","resource":{"resourceType":"Observation","id":"1ea905ec-0e3e-4517-8104-7b8c53694e96","meta":{"profile":["http://hl7.org/fhir/us/qicore/StructureDefinition/qicore-observation"]},"status":"final","category":[{"coding":[{"system":"http://terminology.hl7.org/CodeSystem/observation-category","code":"exam","display":"exam","userSelected":true}]}],"code":{"coding":[{"system":"http://loinc.org","code":"93857-1"}]},"subject":{"reference":"Patient/251abdd8-fbd3-47ab-a7f8-35180c67491d"},"effectiveDateTime":"2025-02-01T08:00:00.000+00:00","valueDateTime":"2025-02-01T08:00:00+00:00"},"request":{"method":"PUT","url":"Observation/1ea905ec-0e3e-4517-8104-7b8c53694e96"}},{"fullUrl":"https://madie.cms.gov/Observation/f4326347-b232-46f7-93ac-49107a32d2dd","resource":{"resourceType":"Observation","id":"f4326347-b232-46f7-93ac-49107a32d2dd","meta":{"profile":["http://hl7.org/fhir/us/qicore/StructureDefinition/qicore-observation"]},"status":"final","category":[{"coding":[{"system":"http://terminology.hl7.org/CodeSystem/observation-category","code":"exam","display":"exam","userSelected":true}]}],"code":{"coding":[{"system":"http://loinc.org","code":"11778-8"}]},"subject":{"reference":"Patient/251abdd8-fbd3-47ab-a7f8-35180c67491d"},"effectiveDateTime":"2025-02-01T08:01:00.000+00:00","valueDateTime":"2025-02-01T08:00:00.000+00:00"},"request":{"method":"PUT","url":"Observation/f4326347-b232-46f7-93ac-49107a32d2dd"}},{"fullUrl":"https://madie.cms.gov/Encounter/15c3d99c-a302-40f4-93ec-ce215b754fe3","resource":{"resourceType":"Encounter","id":"15c3d99c-a302-40f4-93ec-ce215b754fe3","meta":{"profile":["http://hl7.org/fhir/us/qicore/StructureDefinition/qicore-encounter"]},"status":"finished","class":{"system":"http://terminology.hl7.org/CodeSystem/v3-ActCode","code":"IMP","display":"inpatient encounter"},"type":[{"coding":[{"system":"http://snomed.info/sct","code":"183452005"}]}],"subject":{"reference":"Patient/251abdd8-fbd3-47ab-a7f8-35180c67491d"},"period":{"start":"2025-02-01T08:00:00.000Z","end":"2025-02-05T08:15:00.000Z"}},"request":{"method":"PUT","url":"Encounter/15c3d99c-a302-40f4-93ec-ce215b754fe3"}},{"fullUrl":"https://madie.cms.gov/Coverage/32e145d8-79aa-4541-9ad6-6f9bc2fffee2","resource":{"resourceType":"Coverage","id":"32e145d8-79aa-4541-9ad6-6f9bc2fffee2","status":"active","beneficiary":{"reference":"Patient/251abdd8-fbd3-47ab-a7f8-35180c67491d"},"period":{"start":"2004-02-01T08:00:00.000Z"},"payor":[{"reference":"Organization/5ad6ea38-07e9-4482-9e1b-c09eee595be9"}]},"request":{"method":"PUT","url":"Coverage/32e145d8-79aa-4541-9ad6-6f9bc2fffee2"}},{"fullUrl":"https://madie.cms.gov/Procedure/58749885-5f60-4a5a-aca6-f8fb0a4c5b5b","resource":{"resourceType":"Procedure","id":"58749885-5f60-4a5a-aca6-f8fb0a4c5b5b","meta":{"profile":["http://hl7.org/fhir/us/qicore/StructureDefinition/qicore-procedure"]},"extension":[{"url":"http://hl7.org/fhir/us/qicore/StructureDefinition/qicore-recorded","valueDateTime":"2013-04-05T09:35:00-04:00"}],"status":"completed","code":{"coding":[{"system":"http://snomed.info/sct","code":"10745001"}]},"subject":{"reference":"Patient/251abdd8-fbd3-47ab-a7f8-35180c67491d"},"performedPeriod":{"start":"2025-02-01T08:00:00.000Z","end":"2025-02-05T08:15:00.000Z"}},"request":{"method":"PUT","url":"Procedure/58749885-5f60-4a5a-aca6-f8fb0a4c5b5b"}},{"fullUrl":"https://madie.cms.gov/Organization/7f6d825e-8ffb-4b4d-9391-e58ca42c28b3","resource":{"resourceType":"Organization","id":"5ad6ea38-07e9-4482-9e1b-c09eee595be9","meta":{"profile":["http://hl7.org/fhir/us/qicore/StructureDefinition/qicore-organization"]},"identifier":[{"use":"temp","system":"urn:oid:2.16.840.1.113883.4.4","value":"21-3259825"}],"active":true,"type":[{"coding":[{"system":"http://terminology.hl7.org/CodeSystem/organization-type","code":"pay","display":"Payer"}]}],"name":"Blue Cross Blue Shield of Texas","telecom":[{"system":"phone","value":"(+1) 972-766-6900"}],"address":[{"use":"billing","type":"postal","line":["P.O. Box 660044"],"city":"Dallas","state":"TX","postalCode":"75266-0044","country":"USA"}]},"request":{"method":"PUT","url":"Organization/5ad6ea38-07e9-4482-9e1b-c09eee595be9"}},{"fullUrl":"https://madie.cms.gov/Practitioner/34da4bac-0567-47ca-8579-44994cf3708e","resource":{"resourceType":"Practitioner","id":"34da4bac-0567-47ca-8579-44994cf3708e","identifier":[{"system":"http://hl7.org/fhir/sid/us-npi","value":"123456"}],"name":[{"family":"Evil","prefix":["Dr"]}]},"request":{"method":"PUT","url":"Practitioner/34da4bac-0567-47ca-8579-44994cf3708e"}},{"fullUrl":"https://madie.cms.gov/MeasureReport/156bc978-2a0d-4f9d-afa4-ed5a9d3942b7","resource":{"resourceType":"MeasureReport","id":"156bc978-2a0d-4f9d-afa4-ed5a9d3942b7","meta":{"profile":["http://hl7.org/fhir/us/cqfmeasures/StructureDefinition/test-case-cqfm"]},"contained":[{"resourceType":"Parameters","id":"7f16b879-4e7c-446d-b869-e48f165aedf2-parameters","parameter":[{"name":"subject","valueString":"251abdd8-fbd3-47ab-a7f8-35180c67491d"}]}],"extension":[{"url":"http://hl7.org/fhir/us/cqfmeasures/StructureDefinition/cqfm-inputParameters","valueReference":{"reference":"#7f16b879-4e7c-446d-b869-e48f165aedf2-parameters"}},{"url":"http://hl7.org/fhir/us/cqfmeasures/StructureDefinition/cqfm-testCaseDescription","valueMarkdown":"Last assessment Performed, Estimated Delivery Date, Relevant time, 1 min after Delivery Result Date/Time\n"}],"modifierExtension":[{"url":"http://hl7.org/fhir/us/cqfmeasures/StructureDefinition/cqfm-isTestCase","valueBoolean":true}],"status":"complete","type":"individual","measure":"https://madie.cms.gov/Measure/CMS1028FHIRPCSevereOBComps","period":{"start":"2025-01-01","end":"2025-12-31"},"group":[{"population":[{"code":{"coding":[{"system":"http://terminology.hl7.org/CodeSystem/measure-population","code":"initial-population","display":"Initial Population"}]},"count":1},{"code":{"coding":[{"system":"http://terminology.hl7.org/CodeSystem/measure-population","code":"denominator","display":"Denominator"}]},"count":0},{"code":{"coding":[{"system":"http://terminology.hl7.org/CodeSystem/measure-population","code":"numerator","display":"Numerator"}]},"count":0},{"code":{"coding":[{"system":"http://terminology.hl7.org/CodeSystem/measure-population","code":"numerator-exclusion","display":"Numerator Exclusion"}]},"count":0}]},{"population":[{"code":{"coding":[{"system":"http://terminology.hl7.org/CodeSystem/measure-population","code":"initial-population","display":"Initial Population"}]},"count":1},{"code":{"coding":[{"system":"http://terminology.hl7.org/CodeSystem/measure-population","code":"denominator","display":"Denominator"}]},"count":0},{"code":{"coding":[{"system":"http://terminology.hl7.org/CodeSystem/measure-population","code":"numerator","display":"Numerator"}]},"count":0},{"code":{"coding":[{"system":"http://terminology.hl7.org/CodeSystem/measure-population","code":"numerator-exclusion","display":"Numerator Exclusion"}]},"count":0}]}]},"request":{"method":"PUT","url":"MeasureReport/156bc978-2a0d-4f9d-afa4-ed5a9d3942b7"}}]}