{"resourceType":"Bundle","id":"tests-6229b11c-5ac9-42e6-bc11-627b401aef28-bundle","type":"transaction","entry":[{"fullUrl":"https://madie.cms.gov/Patient/6229b11c-5ac9-42e6-bc11-627b401aef28","resource":{"resourceType":"Patient","id":"6229b11c-5ac9-42e6-bc11-627b401aef28","meta":{"profile":["http://hl7.org/fhir/us/qicore/StructureDefinition/qicore-patient"]},"text":{"status":"generated","div":"<div xmlns=\"http://www.w3.org/1999/xhtml\"><div class=\"hapiHeaderText\">LastAssPrfEstDELRelvTm2DaysB4DELRsltDtTime <b>DENOMPASS </b></div><table class=\"hapiPropertyTable\"><tbody><tr><td>Date of birth</td><td><span>01 February 1958</span></td></tr></tbody></table></div>"},"extension":[{"url":"http://hl7.org/fhir/us/core/StructureDefinition/us-core-race","extension":[{"url":"ombCategory","valueCoding":{"system":"urn:oid:2.16.840.1.113883.6.238","code":"1002-5","display":"American Indian or Alaska Native","userSelected":true}},{"url":"text","valueString":"American Indian or Alaska Native"}]},{"url":"http://hl7.org/fhir/us/core/StructureDefinition/us-core-ethnicity","extension":[{"url":"ombCategory","valueCoding":{"system":"urn:oid:2.16.840.1.113883.6.238","code":"2135-2","display":"Hispanic or Latino","userSelected":true}},{"url":"text","valueString":"Hispanic or Latino"}]}],"identifier":[{"type":{"coding":[{"system":"http://terminology.hl7.org/CodeSystem/v2-0203","code":"MR"}]},"system":"https://bonnie-fhir.healthit.gov/","value":"633b3fa00968f80122503d21"}],"active":true,"name":[{"use":"usual","family":"DENOMPass","given":["LastAssPrfEstDELRelvTm2DaysB4DELRsltDtTime "]}],"gender":"female","birthDate":"1970-02-01"},"request":{"method":"PUT","url":"Patient/6229b11c-5ac9-42e6-bc11-627b401aef28"}},{"fullUrl":"https://madie.cms.gov/Observation/b4dc87ab-a798-4c86-a2b7-499b5718f743","resource":{"resourceType":"Observation","id":"b4dc87ab-a798-4c86-a2b7-499b5718f743","meta":{"profile":["http://hl7.org/fhir/us/qicore/StructureDefinition/qicore-observation"]},"status":"final","category":[{"coding":[{"system":"http://terminology.hl7.org/CodeSystem/observation-category","code":"exam","display":"exam","userSelected":true}]}],"code":{"coding":[{"system":"http://loinc.org","code":"93857-1"}]},"subject":{"reference":"Patient/6229b11c-5ac9-42e6-bc11-627b401aef28"},"effectiveDateTime":"2025-02-01T08:00:00.000+00:00","valueDateTime":"2025-02-01T08:00:00+00:00"},"request":{"method":"PUT","url":"Observation/b4dc87ab-a798-4c86-a2b7-499b5718f743"}},{"fullUrl":"https://madie.cms.gov/Observation/4ac6ceeb-bc2f-4044-96b8-3d6997612b9f","resource":{"resourceType":"Observation","id":"4ac6ceeb-bc2f-4044-96b8-3d6997612b9f","meta":{"profile":["http://hl7.org/fhir/us/qicore/StructureDefinition/qicore-observation"]},"status":"final","category":[{"coding":[{"system":"http://terminology.hl7.org/CodeSystem/observation-category","code":"exam","display":"exam","userSelected":true}]}],"code":{"coding":[{"system":"http://loinc.org","code":"11778-8"}]},"subject":{"reference":"Patient/6229b11c-5ac9-42e6-bc11-627b401aef28"},"effectiveDateTime":"2025-01-30T08:00:00.000+00:00","valueDateTime":"2025-02-01T08:00:00.000+00:00"},"request":{"method":"PUT","url":"Observation/4ac6ceeb-bc2f-4044-96b8-3d6997612b9f"}},{"fullUrl":"https://madie.cms.gov/Encounter/013beae5-56ed-459d-86e0-48842ea9b4a8","resource":{"resourceType":"Encounter","id":"013beae5-56ed-459d-86e0-48842ea9b4a8","meta":{"profile":["http://hl7.org/fhir/us/qicore/StructureDefinition/qicore-encounter"]},"status":"finished","class":{"system":"http://terminology.hl7.org/CodeSystem/v3-ActCode","code":"IMP","display":"inpatient encounter"},"type":[{"coding":[{"system":"http://snomed.info/sct","code":"183452005"}]}],"subject":{"reference":"Patient/6229b11c-5ac9-42e6-bc11-627b401aef28"},"period":{"start":"2025-01-30T08:00:00.000Z","end":"2025-02-05T08:15:00.000Z"}},"request":{"method":"PUT","url":"Encounter/013beae5-56ed-459d-86e0-48842ea9b4a8"}},{"fullUrl":"https://madie.cms.gov/Procedure/c12000c1-9042-4022-8bcf-7a2027598238","resource":{"resourceType":"Procedure","id":"c12000c1-9042-4022-8bcf-7a2027598238","meta":{"profile":["http://hl7.org/fhir/us/qicore/StructureDefinition/qicore-procedure"]},"extension":[{"url":"http://hl7.org/fhir/us/qicore/StructureDefinition/qicore-recorded","valueDateTime":"2013-04-05T09:35:00-04:00"}],"status":"completed","code":{"coding":[{"system":"http://snomed.info/sct","code":"10745001"}]},"subject":{"reference":"Patient/6229b11c-5ac9-42e6-bc11-627b401aef28"},"performedPeriod":{"start":"2025-02-01T08:00:00.000Z","end":"2025-02-05T08:15:00.000Z"}},"request":{"method":"PUT","url":"Procedure/c12000c1-9042-4022-8bcf-7a2027598238"}},{"fullUrl":"https://madie.cms.gov/Coverage/418569c6-2f61-4cc3-ba1d-b46ff63f60d1","resource":{"resourceType":"Coverage","id":"418569c6-2f61-4cc3-ba1d-b46ff63f60d1","meta":{"profile":["http://hl7.org/fhir/us/qicore/StructureDefinition/qicore-coverage"]},"status":"active","beneficiary":{"reference":"Patient/6229b11c-5ac9-42e6-bc11-627b401aef28"},"payor":[{"reference":"Organization/e75793c9-fdf6-463a-8c1d-4ee44320dc25"}]},"request":{"method":"PUT","url":"Coverage/418569c6-2f61-4cc3-ba1d-b46ff63f60d1"}},{"fullUrl":"https://madie.cms.gov/Organization/0a667bc9-0e7c-4c4f-9dbd-e5ccfafbec18","resource":{"resourceType":"Organization","id":"e75793c9-fdf6-463a-8c1d-4ee44320dc25","meta":{"profile":["http://hl7.org/fhir/us/qicore/StructureDefinition/qicore-organization"]},"identifier":[{"use":"temp","system":"urn:oid:2.16.840.1.113883.4.4","value":"21-3259825"}],"active":true,"type":[{"coding":[{"system":"http://terminology.hl7.org/CodeSystem/organization-type","code":"pay","display":"Payer"}]}],"name":"Blue Cross Blue Shield of Texas","telecom":[{"system":"phone","value":"(+1) 972-766-6900"}],"address":[{"use":"billing","type":"postal","line":["P.O. Box 660044"],"city":"Dallas","state":"TX","postalCode":"75266-0044","country":"USA"}]},"request":{"method":"PUT","url":"Organization/e75793c9-fdf6-463a-8c1d-4ee44320dc25"}},{"fullUrl":"https://madie.cms.gov/Practitioner/ff1ea00a-1710-4896-8490-aafac7697b04","resource":{"resourceType":"Practitioner","id":"ff1ea00a-1710-4896-8490-aafac7697b04","identifier":[{"system":"http://hl7.org/fhir/sid/us-npi","value":"123456"}],"name":[{"family":"Evil","prefix":["Dr"]}]},"request":{"method":"PUT","url":"Practitioner/ff1ea00a-1710-4896-8490-aafac7697b04"}},{"fullUrl":"https://madie.cms.gov/MeasureReport/ffd41fc5-8163-474b-b0ac-f44c64007855","resource":{"resourceType":"MeasureReport","id":"ffd41fc5-8163-474b-b0ac-f44c64007855","meta":{"profile":["http://hl7.org/fhir/us/cqfmeasures/StructureDefinition/test-case-cqfm"]},"contained":[{"resourceType":"Parameters","id":"62ce61bb-ae89-4a28-87f8-fa336f0ec112-parameters","parameter":[{"name":"subject","valueString":"6229b11c-5ac9-42e6-bc11-627b401aef28"}]}],"extension":[{"url":"http://hl7.org/fhir/us/cqfmeasures/StructureDefinition/cqfm-inputParameters","valueReference":{"reference":"#62ce61bb-ae89-4a28-87f8-fa336f0ec112-parameters"}},{"url":"http://hl7.org/fhir/us/cqfmeasures/StructureDefinition/cqfm-testCaseDescription","valueMarkdown":"Last assessment Performed, Estimated Delivery Date, Relevant time, 2 days before Delivery Result Date/Time\n"}],"modifierExtension":[{"url":"http://hl7.org/fhir/us/cqfmeasures/StructureDefinition/cqfm-isTestCase","valueBoolean":true}],"status":"complete","type":"individual","measure":"https://madie.cms.gov/Measure/CMS1028FHIRPCSevereOBComps","period":{"start":"2025-01-01","end":"2025-12-31"},"group":[{"population":[{"code":{"coding":[{"system":"http://terminology.hl7.org/CodeSystem/measure-population","code":"initial-population","display":"Initial Population"}]},"count":1},{"code":{"coding":[{"system":"http://terminology.hl7.org/CodeSystem/measure-population","code":"denominator","display":"Denominator"}]},"count":1},{"code":{"coding":[{"system":"http://terminology.hl7.org/CodeSystem/measure-population","code":"numerator","display":"Numerator"}]},"count":0},{"code":{"coding":[{"system":"http://terminology.hl7.org/CodeSystem/measure-population","code":"numerator-exclusion","display":"Numerator Exclusion"}]},"count":0}]},{"population":[{"code":{"coding":[{"system":"http://terminology.hl7.org/CodeSystem/measure-population","code":"initial-population","display":"Initial Population"}]},"count":1},{"code":{"coding":[{"system":"http://terminology.hl7.org/CodeSystem/measure-population","code":"denominator","display":"Denominator"}]},"count":1},{"code":{"coding":[{"system":"http://terminology.hl7.org/CodeSystem/measure-population","code":"numerator","display":"Numerator"}]},"count":0},{"code":{"coding":[{"system":"http://terminology.hl7.org/CodeSystem/measure-population","code":"numerator-exclusion","display":"Numerator Exclusion"}]},"count":0}]}]},"request":{"method":"PUT","url":"MeasureReport/ffd41fc5-8163-474b-b0ac-f44c64007855"}}]}