{"resourceType":"Bundle","id":"tests-311993a9-f56b-4f3b-8588-0a0e50e18cbb-bundle","type":"transaction","entry":[{"fullUrl":"https://madie.cms.gov/Patient/311993a9-f56b-4f3b-8588-0a0e50e18cbb","resource":{"resourceType":"Patient","id":"311993a9-f56b-4f3b-8588-0a0e50e18cbb","meta":{"profile":["http://hl7.org/fhir/us/qicore/StructureDefinition/qicore-patient"]},"text":{"status":"generated","div":"<div xmlns=\"http://www.w3.org/1999/xhtml\"><div class=\"hapiHeaderText\">LastAssPrfEstDELRelvTm2DaysB4DELRsltDtTime <b>DENOMPASS </b></div><table class=\"hapiPropertyTable\"><tbody><tr><td>Date of birth</td><td><span>01 February 1958</span></td></tr></tbody></table></div>"},"extension":[{"url":"http://hl7.org/fhir/us/core/StructureDefinition/us-core-race","extension":[{"url":"ombCategory","valueCoding":{"system":"urn:oid:2.16.840.1.113883.6.238","code":"1002-5","display":"American Indian or Alaska Native","userSelected":true}},{"url":"text","valueString":"American Indian or Alaska Native"}]},{"url":"http://hl7.org/fhir/us/core/StructureDefinition/us-core-ethnicity","extension":[{"url":"ombCategory","valueCoding":{"system":"urn:oid:2.16.840.1.113883.6.238","code":"2135-2","display":"Hispanic or Latino","userSelected":true}},{"url":"text","valueString":"Hispanic or Latino"}]}],"identifier":[{"type":{"coding":[{"system":"http://terminology.hl7.org/CodeSystem/v2-0203","code":"MR"}]},"system":"https://bonnie-fhir.healthit.gov/","value":"6356cb3054e383debade759c"}],"active":true,"name":[{"use":"usual","family":"DENOMFail","given":["LastAssPrfEDDRelvTm1MinOver42WksB4DELRsltDtTime  "]}],"gender":"female","birthDate":"1970-02-01"},"request":{"method":"PUT","url":"Patient/311993a9-f56b-4f3b-8588-0a0e50e18cbb"}},{"fullUrl":"https://madie.cms.gov/Observation/7ebbc3fb-11cc-49c6-bdc6-bb3dd907f84d","resource":{"resourceType":"Observation","id":"7ebbc3fb-11cc-49c6-bdc6-bb3dd907f84d","meta":{"profile":["http://hl7.org/fhir/us/qicore/StructureDefinition/qicore-observation"]},"status":"final","category":[{"coding":[{"system":"http://terminology.hl7.org/CodeSystem/observation-category","code":"exam","display":"exam","userSelected":true}]}],"code":{"coding":[{"system":"http://loinc.org","code":"93857-1"}]},"subject":{"reference":"Patient/311993a9-f56b-4f3b-8588-0a0e50e18cbb"},"effectiveDateTime":"2025-02-01T08:00:00.000+00:00","valueDateTime":"2025-02-01T08:00:00+00:00"},"request":{"method":"PUT","url":"Observation/7ebbc3fb-11cc-49c6-bdc6-bb3dd907f84d"}},{"fullUrl":"https://madie.cms.gov/Observation/c06535bd-1120-443e-81f5-ee9da5df7545","resource":{"resourceType":"Observation","id":"c06535bd-1120-443e-81f5-ee9da5df7545","meta":{"profile":["http://hl7.org/fhir/us/qicore/StructureDefinition/qicore-observation"]},"status":"final","category":[{"coding":[{"system":"http://terminology.hl7.org/CodeSystem/observation-category","code":"exam","display":"exam","userSelected":true}]}],"code":{"coding":[{"system":"http://loinc.org","code":"11778-8"}]},"subject":{"reference":"Patient/311993a9-f56b-4f3b-8588-0a0e50e18cbb"},"effectiveDateTime":"2024-04-13T07:59:00.000+00:00","valueDateTime":"2025-02-01T08:00:00.000+00:00"},"request":{"method":"PUT","url":"Observation/c06535bd-1120-443e-81f5-ee9da5df7545"}},{"fullUrl":"https://madie.cms.gov/Encounter/cb7605ce-dcf9-4155-ad98-ac0f0709366e","resource":{"resourceType":"Encounter","id":"cb7605ce-dcf9-4155-ad98-ac0f0709366e","meta":{"profile":["http://hl7.org/fhir/us/qicore/StructureDefinition/qicore-encounter"]},"status":"finished","class":{"system":"http://terminology.hl7.org/CodeSystem/v3-ActCode","code":"IMP","display":"inpatient encounter"},"type":[{"coding":[{"system":"http://snomed.info/sct","code":"183452005"}]}],"subject":{"reference":"Patient/311993a9-f56b-4f3b-8588-0a0e50e18cbb"},"period":{"start":"2025-01-30T08:00:00.000Z","end":"2025-02-05T08:15:00.000Z"}},"request":{"method":"PUT","url":"Encounter/cb7605ce-dcf9-4155-ad98-ac0f0709366e"}},{"fullUrl":"https://madie.cms.gov/Procedure/c91e96e1-5a48-4934-a065-ead8e6e60763","resource":{"resourceType":"Procedure","id":"c91e96e1-5a48-4934-a065-ead8e6e60763","meta":{"profile":["http://hl7.org/fhir/us/qicore/StructureDefinition/qicore-procedure"]},"extension":[{"url":"http://hl7.org/fhir/us/qicore/StructureDefinition/qicore-recorded","valueDateTime":"2013-04-05T09:35:00-04:00"}],"status":"completed","code":{"coding":[{"system":"http://snomed.info/sct","code":"10745001"}]},"subject":{"reference":"Patient/311993a9-f56b-4f3b-8588-0a0e50e18cbb"},"performedPeriod":{"start":"2025-02-01T08:00:00.000Z","end":"2025-02-05T08:15:00.000Z"}},"request":{"method":"PUT","url":"Procedure/c91e96e1-5a48-4934-a065-ead8e6e60763"}},{"fullUrl":"https://madie.cms.gov/Coverage/f8931e3f-8dd2-4905-b679-5aaee5e65dc8","resource":{"resourceType":"Coverage","id":"f8931e3f-8dd2-4905-b679-5aaee5e65dc8","meta":{"profile":["http://hl7.org/fhir/us/qicore/StructureDefinition/qicore-coverage"]},"status":"active","beneficiary":{"reference":"Patient/311993a9-f56b-4f3b-8588-0a0e50e18cbb"},"payor":[{"reference":"Organization/5ad6ea38-07e9-4482-9e1b-c09eee595be9"}]},"request":{"method":"PUT","url":"Coverage/f8931e3f-8dd2-4905-b679-5aaee5e65dc8"}},{"fullUrl":"https://madie.cms.gov/Organization/783c0c9d-83ed-404c-95d6-64f40bd194a4","resource":{"resourceType":"Organization","id":"5ad6ea38-07e9-4482-9e1b-c09eee595be9","meta":{"profile":["http://hl7.org/fhir/us/qicore/StructureDefinition/qicore-organization"]},"identifier":[{"use":"temp","system":"urn:oid:2.16.840.1.113883.4.4","value":"21-3259825"}],"active":true,"type":[{"coding":[{"system":"http://terminology.hl7.org/CodeSystem/organization-type","code":"pay","display":"Payer"}]}],"name":"Blue Cross Blue Shield of Texas","telecom":[{"system":"phone","value":"(+1) 972-766-6900"}],"address":[{"use":"billing","type":"postal","line":["P.O. Box 660044"],"city":"Dallas","state":"TX","postalCode":"75266-0044","country":"USA"}]},"request":{"method":"PUT","url":"Organization/5ad6ea38-07e9-4482-9e1b-c09eee595be9"}},{"fullUrl":"https://madie.cms.gov/Practitioner/ff4f1f89-9efc-43c9-a3c4-b8a1b88b39f2","resource":{"resourceType":"Practitioner","id":"ff4f1f89-9efc-43c9-a3c4-b8a1b88b39f2","identifier":[{"system":"http://hl7.org/fhir/sid/us-npi","value":"123456"}],"name":[{"family":"Evil","prefix":["Dr"]}]},"request":{"method":"PUT","url":"Practitioner/ff4f1f89-9efc-43c9-a3c4-b8a1b88b39f2"}},{"fullUrl":"https://madie.cms.gov/MeasureReport/742bbef2-4159-4310-91e2-cf61aeb59886","resource":{"resourceType":"MeasureReport","id":"742bbef2-4159-4310-91e2-cf61aeb59886","meta":{"profile":["http://hl7.org/fhir/us/cqfmeasures/StructureDefinition/test-case-cqfm"]},"contained":[{"resourceType":"Parameters","id":"dce4335e-2026-4c73-96f0-82c4b8d8564b-parameters","parameter":[{"name":"subject","valueString":"311993a9-f56b-4f3b-8588-0a0e50e18cbb"}]}],"extension":[{"url":"http://hl7.org/fhir/us/cqfmeasures/StructureDefinition/cqfm-inputParameters","valueReference":{"reference":"#dce4335e-2026-4c73-96f0-82c4b8d8564b-parameters"}},{"url":"http://hl7.org/fhir/us/cqfmeasures/StructureDefinition/cqfm-testCaseDescription","valueMarkdown":"Last assessment Performed, Estimated Delivery Date, Relevant time, 1 minute over 42 weeks before Delivery Result Date/Time\n"}],"modifierExtension":[{"url":"http://hl7.org/fhir/us/cqfmeasures/StructureDefinition/cqfm-isTestCase","valueBoolean":true}],"status":"complete","type":"individual","measure":"https://madie.cms.gov/Measure/CMS1028FHIRPCSevereOBComps","period":{"start":"2025-01-01","end":"2025-12-31"},"group":[{"population":[{"code":{"coding":[{"system":"http://terminology.hl7.org/CodeSystem/measure-population","code":"initial-population","display":"Initial Population"}]},"count":1},{"code":{"coding":[{"system":"http://terminology.hl7.org/CodeSystem/measure-population","code":"denominator","display":"Denominator"}]},"count":0},{"code":{"coding":[{"system":"http://terminology.hl7.org/CodeSystem/measure-population","code":"numerator","display":"Numerator"}]},"count":0},{"code":{"coding":[{"system":"http://terminology.hl7.org/CodeSystem/measure-population","code":"numerator-exclusion","display":"Numerator Exclusion"}]},"count":0}]},{"population":[{"code":{"coding":[{"system":"http://terminology.hl7.org/CodeSystem/measure-population","code":"initial-population","display":"Initial Population"}]},"count":1},{"code":{"coding":[{"system":"http://terminology.hl7.org/CodeSystem/measure-population","code":"denominator","display":"Denominator"}]},"count":0},{"code":{"coding":[{"system":"http://terminology.hl7.org/CodeSystem/measure-population","code":"numerator","display":"Numerator"}]},"count":0},{"code":{"coding":[{"system":"http://terminology.hl7.org/CodeSystem/measure-population","code":"numerator-exclusion","display":"Numerator Exclusion"}]},"count":0}]}]},"request":{"method":"PUT","url":"MeasureReport/742bbef2-4159-4310-91e2-cf61aeb59886"}}]}