{"resourceType":"Bundle","id":"tests-5a0bfd0b-983c-4dd4-bc07-d2512d722987-bundle","type":"transaction","entry":[{"fullUrl":"https://madie.cms.gov/Patient/5a0bfd0b-983c-4dd4-bc07-d2512d722987","resource":{"resourceType":"Patient","id":"5a0bfd0b-983c-4dd4-bc07-d2512d722987","meta":{"profile":["http://hl7.org/fhir/us/qicore/StructureDefinition/qicore-patient"]},"text":{"status":"generated","div":"<div xmlns=\"http://www.w3.org/1999/xhtml\"><div class=\"hapiHeaderText\">Risk_LongTermAnticoagulantUse<b>RISKPass </b></div><table class=\"hapiPropertyTable\"><tbody><tr><td>Date of birth</td><td><span>01 February 2004</span></td></tr></tbody></table></div>"},"extension":[{"url":"http://hl7.org/fhir/us/core/StructureDefinition/us-core-race","extension":[{"url":"ombCategory","valueCoding":{"system":"urn:oid:2.16.840.1.113883.6.238","code":"1002-5","display":"American Indian or Alaska Native","userSelected":true}},{"url":"text","valueString":"American Indian or Alaska Native"}]},{"url":"http://hl7.org/fhir/us/core/StructureDefinition/us-core-ethnicity","extension":[{"url":"ombCategory","valueCoding":{"system":"urn:oid:2.16.840.1.113883.6.238","code":"2135-2","display":"Hispanic or Latino","userSelected":true}},{"url":"text","valueString":"Hispanic or Latino"}]}],"identifier":[{"type":{"coding":[{"system":"http://terminology.hl7.org/CodeSystem/v2-0203","code":"MR"}]},"system":"https://bonnie-fhir.healthit.gov/","value":"63594c7a6aee9629c82981df"}],"active":true,"name":[{"use":"usual","family":"RiskPass","given":["Risk_LongTermAnticoagulantUse"]}],"gender":"female","birthDate":"2004-02-01"},"request":{"method":"PUT","url":"Patient/5a0bfd0b-983c-4dd4-bc07-d2512d722987"}},{"fullUrl":"https://madie.cms.gov/Observation/4a258785-765e-4dae-a76a-db44ab7a769a","resource":{"resourceType":"Observation","id":"4a258785-765e-4dae-a76a-db44ab7a769a","meta":{"profile":["http://hl7.org/fhir/us/qicore/StructureDefinition/qicore-observation"]},"status":"final","category":[{"coding":[{"system":"http://terminology.hl7.org/CodeSystem/observation-category","code":"exam","display":"exam","userSelected":true}]}],"code":{"coding":[{"system":"http://loinc.org","code":"93857-1"}]},"subject":{"reference":"Patient/5a0bfd0b-983c-4dd4-bc07-d2512d722987"},"effectiveDateTime":"2025-02-01T08:00:00.000+00:00","valueDateTime":"2025-02-01T08:00:00+00:00"},"request":{"method":"PUT","url":"Observation/4a258785-765e-4dae-a76a-db44ab7a769a"}},{"fullUrl":"https://madie.cms.gov/Observation/2e361134-39f7-413d-b0f2-d7552d586ab2","resource":{"resourceType":"Observation","id":"2e361134-39f7-413d-b0f2-d7552d586ab2","meta":{"profile":["http://hl7.org/fhir/us/qicore/StructureDefinition/qicore-observation"]},"status":"final","category":[{"coding":[{"system":"http://terminology.hl7.org/CodeSystem/observation-category","code":"exam","display":"exam","userSelected":true}]}],"code":{"coding":[{"system":"http://loinc.org","code":"11778-8"}]},"subject":{"reference":"Patient/5a0bfd0b-983c-4dd4-bc07-d2512d722987"},"effectiveDateTime":"2025-02-01T08:00:00.000+00:00","valueDateTime":"2025-02-01T00:00:00.000+00:00"},"request":{"method":"PUT","url":"Observation/2e361134-39f7-413d-b0f2-d7552d586ab2"}},{"fullUrl":"https://madie.cms.gov/Encounter/438958da-610c-455e-8b0c-9beb89122040","resource":{"resourceType":"Encounter","id":"438958da-610c-455e-8b0c-9beb89122040","meta":{"profile":["http://hl7.org/fhir/us/qicore/StructureDefinition/qicore-encounter"]},"status":"finished","class":{"system":"http://terminology.hl7.org/CodeSystem/v3-ActCode","code":"IMP","display":"inpatient encounter"},"type":[{"coding":[{"system":"http://snomed.info/sct","code":"183452005"}]}],"subject":{"reference":"Patient/5a0bfd0b-983c-4dd4-bc07-d2512d722987"},"period":{"start":"2025-02-01T08:00:00.000Z","end":"2025-02-05T08:15:00.000Z"},"diagnosis":[{"extension":[{"url":"http://hl7.org/fhir/us/qicore/StructureDefinition/qicore-encounter-diagnosisPresentOnAdmission","valueCodeableConcept":{"coding":[{"system":"https://www.cms.gov/Medicare/Medicare-Fee-for-Service-Payment/HospitalAcqCond/Coding","code":"Y"}]}}],"condition":{"reference":"Condition/e19c1f8d-561e-44f5-8662-6734a6b78c9c"}},{"extension":[{"url":"http://hl7.org/fhir/us/qicore/StructureDefinition/qicore-encounter-diagnosisPresentOnAdmission","valueCodeableConcept":{"coding":[{"system":"https://www.cms.gov/Medicare/Medicare-Fee-for-Service-Payment/HospitalAcqCond/Coding","code":"N"}]}}],"condition":{"reference":"Condition/0148fc9f-14ff-459e-b782-49a8dd104cf2"}}]},"request":{"method":"PUT","url":"Encounter/438958da-610c-455e-8b0c-9beb89122040"}},{"fullUrl":"https://madie.cms.gov/Procedure/6e685607-f404-4080-8afd-abaa2be5f441","resource":{"resourceType":"Procedure","id":"6e685607-f404-4080-8afd-abaa2be5f441","meta":{"profile":["http://hl7.org/fhir/us/qicore/StructureDefinition/qicore-procedure"]},"extension":[{"url":"http://hl7.org/fhir/us/qicore/StructureDefinition/qicore-recorded","valueDateTime":"2013-04-05T09:35:00-04:00"}],"status":"completed","code":{"coding":[{"system":"http://snomed.info/sct","code":"10745001"}]},"subject":{"reference":"Patient/5a0bfd0b-983c-4dd4-bc07-d2512d722987"},"performedDateTime":"2025-02-01T08:00:00.000+00:00"},"request":{"method":"PUT","url":"Procedure/6e685607-f404-4080-8afd-abaa2be5f441"}},{"fullUrl":"https://madie.cms.gov/Condition/0148fc9f-14ff-459e-b782-49a8dd104cf2","resource":{"resourceType":"Condition","id":"0148fc9f-14ff-459e-b782-49a8dd104cf2","meta":{"profile":["http://hl7.org/fhir/us/qicore/StructureDefinition/qicore-condition"]},"category":[{"coding":[{"system":"http://terminology.hl7.org/CodeSystem/condition-category","code":"encounter-diagnosis","display":"Encounter Diagnosis"}]}],"code":{"coding":[{"system":"http://hl7.org/fhir/sid/icd-10-cm","version":"2023","code":"A32.7","display":"Listerial sepsis","userSelected":true}]},"subject":{"reference":"Patient/5a0bfd0b-983c-4dd4-bc07-d2512d722987"},"recordedDate":"2025-10-26T08:00:00.000+00:00"},"request":{"method":"PUT","url":"Condition/0148fc9f-14ff-459e-b782-49a8dd104cf2"}},{"fullUrl":"https://madie.cms.gov/Condition/e19c1f8d-561e-44f5-8662-6734a6b78c9c","resource":{"resourceType":"Condition","id":"e19c1f8d-561e-44f5-8662-6734a6b78c9c","meta":{"profile":["http://hl7.org/fhir/us/qicore/StructureDefinition/qicore-condition"]},"category":[{"coding":[{"system":"http://terminology.hl7.org/CodeSystem/condition-category","code":"encounter-diagnosis","display":"Encounter Diagnosis"}]}],"code":{"coding":[{"system":"http://hl7.org/fhir/sid/icd-10-cm","version":"2023","code":"Z79.01","display":"Long Term Anticoagulant Use","userSelected":true}]},"subject":{"reference":"Patient/5a0bfd0b-983c-4dd4-bc07-d2512d722987"},"recordedDate":"2025-10-26T08:00:00.000+00:00"},"request":{"method":"PUT","url":"Condition/e19c1f8d-561e-44f5-8662-6734a6b78c9c"}},{"fullUrl":"https://madie.cms.gov/MeasureReport/1657d970-1057-40b6-b468-bdd6556787d6","resource":{"resourceType":"MeasureReport","id":"1657d970-1057-40b6-b468-bdd6556787d6","meta":{"profile":["http://hl7.org/fhir/us/cqfmeasures/StructureDefinition/test-case-cqfm"]},"contained":[{"resourceType":"Parameters","id":"b62b8df5-64ce-475c-ac17-831ed3507176-parameters","parameter":[{"name":"subject","valueString":"5a0bfd0b-983c-4dd4-bc07-d2512d722987"}]}],"extension":[{"url":"http://hl7.org/fhir/us/cqfmeasures/StructureDefinition/cqfm-inputParameters","valueReference":{"reference":"#b62b8df5-64ce-475c-ac17-831ed3507176-parameters"}},{"url":"http://hl7.org/fhir/us/cqfmeasures/StructureDefinition/cqfm-testCaseDescription","valueMarkdown":"Risk variable of long term anticoagulant use"}],"modifierExtension":[{"url":"http://hl7.org/fhir/us/cqfmeasures/StructureDefinition/cqfm-isTestCase","valueBoolean":true}],"status":"complete","type":"individual","measure":"https://madie.cms.gov/Measure/CMS1028FHIRPCSevereOBComps","period":{"start":"2025-01-01","end":"2025-12-31"},"group":[{"population":[{"code":{"coding":[{"system":"http://terminology.hl7.org/CodeSystem/measure-population","code":"initial-population","display":"Initial Population"}]},"count":1},{"code":{"coding":[{"system":"http://terminology.hl7.org/CodeSystem/measure-population","code":"denominator","display":"Denominator"}]},"count":1},{"code":{"coding":[{"system":"http://terminology.hl7.org/CodeSystem/measure-population","code":"numerator","display":"Numerator"}]},"count":1},{"code":{"coding":[{"system":"http://terminology.hl7.org/CodeSystem/measure-population","code":"numerator-exclusion","display":"Numerator Exclusion"}]},"count":0}]},{"population":[{"code":{"coding":[{"system":"http://terminology.hl7.org/CodeSystem/measure-population","code":"initial-population","display":"Initial Population"}]},"count":1},{"code":{"coding":[{"system":"http://terminology.hl7.org/CodeSystem/measure-population","code":"denominator","display":"Denominator"}]},"count":1},{"code":{"coding":[{"system":"http://terminology.hl7.org/CodeSystem/measure-population","code":"numerator","display":"Numerator"}]},"count":1},{"code":{"coding":[{"system":"http://terminology.hl7.org/CodeSystem/measure-population","code":"numerator-exclusion","display":"Numerator Exclusion"}]},"count":0}]}]},"request":{"method":"PUT","url":"MeasureReport/1657d970-1057-40b6-b468-bdd6556787d6"}}]}