{"resourceType":"Bundle","id":"tests-f3551c07-89fe-4e7a-90fe-03788ace10f8-bundle","type":"transaction","entry":[{"fullUrl":"https://madie.cms.gov/Patient/f3551c07-89fe-4e7a-90fe-03788ace10f8","resource":{"resourceType":"Patient","id":"f3551c07-89fe-4e7a-90fe-03788ace10f8","meta":{"profile":["http://hl7.org/fhir/us/qicore/StructureDefinition/qicore-patient"]},"text":{"status":"generated","div":"<div xmlns=\"http://www.w3.org/1999/xhtml\"><div class=\"hapiHeaderText\">PretermBirthCodeCGAEGABothNull <b>RISKPass </b></div><table class=\"hapiPropertyTable\"><tbody><tr><td>Date of birth</td><td><span>01 February 2004</span></td></tr></tbody></table></div>"},"extension":[{"url":"http://hl7.org/fhir/us/core/StructureDefinition/us-core-race","extension":[{"url":"ombCategory","valueCoding":{"system":"urn:oid:2.16.840.1.113883.6.238","code":"1002-5","display":"American Indian or Alaska Native","userSelected":true}},{"url":"text","valueString":"American Indian or Alaska Native"}]},{"url":"http://hl7.org/fhir/us/core/StructureDefinition/us-core-ethnicity","extension":[{"url":"ombCategory","valueCoding":{"system":"urn:oid:2.16.840.1.113883.6.238","code":"2135-2","display":"Hispanic or Latino","userSelected":true}},{"url":"text","valueString":"Hispanic or Latino"}]}],"identifier":[{"type":{"coding":[{"system":"http://terminology.hl7.org/CodeSystem/v2-0203","code":"MR"}]},"system":"https://bonnie-fhir.healthit.gov/","value":"6356dca654e383debade75aa"}],"active":true,"name":[{"use":"usual","family":"RISKPass","given":["PretermBirthCodeCGAEGABothNull"]}],"gender":"female","birthDate":"2004-02-01"},"request":{"method":"PUT","url":"Patient/f3551c07-89fe-4e7a-90fe-03788ace10f8"}},{"fullUrl":"https://madie.cms.gov/Observation/013d04a6-b0bb-4ea5-ab41-19d9c77566f6","resource":{"resourceType":"Observation","id":"013d04a6-b0bb-4ea5-ab41-19d9c77566f6","meta":{"profile":["http://hl7.org/fhir/us/qicore/StructureDefinition/qicore-observation"]},"status":"final","category":[{"coding":[{"system":"http://terminology.hl7.org/CodeSystem/observation-category","code":"exam","display":"exam","userSelected":true}]}],"code":{"coding":[{"system":"http://loinc.org","code":"93857-1"}]},"subject":{"reference":"Patient/f3551c07-89fe-4e7a-90fe-03788ace10f8"},"effectiveDateTime":"2025-02-01T08:00:00.000+00:00","valueDateTime":"2025-02-01T08:00:00+00:00"},"request":{"method":"PUT","url":"Observation/013d04a6-b0bb-4ea5-ab41-19d9c77566f6"}},{"fullUrl":"https://madie.cms.gov/Encounter/903f54ee-ef4a-435d-a5ce-9963777ff6d9","resource":{"resourceType":"Encounter","id":"903f54ee-ef4a-435d-a5ce-9963777ff6d9","meta":{"profile":["http://hl7.org/fhir/us/qicore/StructureDefinition/qicore-encounter"]},"status":"finished","class":{"system":"http://terminology.hl7.org/CodeSystem/v3-ActCode","code":"IMP","display":"inpatient encounter"},"type":[{"coding":[{"system":"http://snomed.info/sct","code":"183452005"}]}],"subject":{"reference":"Patient/f3551c07-89fe-4e7a-90fe-03788ace10f8"},"period":{"start":"2025-02-01T08:00:00.000Z","end":"2025-02-05T08:15:00.000Z"},"diagnosis":[{"extension":[{"url":"http://hl7.org/fhir/us/qicore/StructureDefinition/qicore-encounter-diagnosisPresentOnAdmission","valueCodeableConcept":{"coding":[{"system":"https://www.cms.gov/Medicare/Medicare-Fee-for-Service-Payment/HospitalAcqCond/Coding","code":"Y"}]}}],"condition":{"reference":"Condition/af056199-a7b3-43b1-8567-9546d799140a"}}]},"request":{"method":"PUT","url":"Encounter/903f54ee-ef4a-435d-a5ce-9963777ff6d9"}},{"fullUrl":"https://madie.cms.gov/Procedure/21101d6a-0362-40d7-bd3f-fd370e72f230","resource":{"resourceType":"Procedure","id":"21101d6a-0362-40d7-bd3f-fd370e72f230","meta":{"profile":["http://hl7.org/fhir/us/qicore/StructureDefinition/qicore-procedure"]},"extension":[{"url":"http://hl7.org/fhir/us/qicore/StructureDefinition/qicore-recorded","valueDateTime":"2013-04-05T09:35:00-04:00"}],"status":"completed","code":{"coding":[{"system":"http://snomed.info/sct","code":"10745001"}]},"subject":{"reference":"Patient/f3551c07-89fe-4e7a-90fe-03788ace10f8"},"performedPeriod":{"start":"2025-02-01T08:00:00.000Z","end":"2025-02-05T08:15:00.000Z"}},"request":{"method":"PUT","url":"Procedure/21101d6a-0362-40d7-bd3f-fd370e72f230"}},{"fullUrl":"https://madie.cms.gov/Condition/af056199-a7b3-43b1-8567-9546d799140a","resource":{"resourceType":"Condition","id":"af056199-a7b3-43b1-8567-9546d799140a","meta":{"profile":["http://hl7.org/fhir/us/qicore/StructureDefinition/qicore-condition"]},"category":[{"coding":[{"system":"http://terminology.hl7.org/CodeSystem/condition-category","code":"encounter-diagnosis","display":"Encounter Diagnosis"}]}],"code":{"coding":[{"system":"http://hl7.org/fhir/sid/icd-10-cm","version":"2023","code":"Z3A.20","display":"20 weeks gestation","userSelected":true}]},"subject":{"reference":"Patient/f3551c07-89fe-4e7a-90fe-03788ace10f8"},"recordedDate":"2025-10-26T08:00:00.000+00:00"},"request":{"method":"PUT","url":"Condition/af056199-a7b3-43b1-8567-9546d799140a"}},{"fullUrl":"https://madie.cms.gov/Coverage/4256888a-38d6-4b1d-9f3e-38371eac3789","resource":{"resourceType":"Coverage","id":"4256888a-38d6-4b1d-9f3e-38371eac3789","meta":{"profile":["http://hl7.org/fhir/us/qicore/StructureDefinition/qicore-coverage"]},"status":"active","beneficiary":{"reference":"Patient/f3551c07-89fe-4e7a-90fe-03788ace10f8"},"payor":[{"reference":"Organization/e75793c9-fdf6-463a-8c1d-4ee44320dc25"}]},"request":{"method":"PUT","url":"Coverage/4256888a-38d6-4b1d-9f3e-38371eac3789"}},{"fullUrl":"https://madie.cms.gov/Organization/7a020ad8-cf10-4f51-8b96-0eca392877e9","resource":{"resourceType":"Organization","id":"e75793c9-fdf6-463a-8c1d-4ee44320dc25","meta":{"profile":["http://hl7.org/fhir/us/qicore/StructureDefinition/qicore-organization"]},"identifier":[{"use":"temp","system":"urn:oid:2.16.840.1.113883.4.4","value":"21-3259825"}],"active":true,"type":[{"coding":[{"system":"http://terminology.hl7.org/CodeSystem/organization-type","code":"pay","display":"Payer"}]}],"name":"Blue Cross Blue Shield of Texas","telecom":[{"system":"phone","value":"(+1) 972-766-6900"}],"address":[{"use":"billing","type":"postal","line":["P.O. Box 660044"],"city":"Dallas","state":"TX","postalCode":"75266-0044","country":"USA"}]},"request":{"method":"PUT","url":"Organization/e75793c9-fdf6-463a-8c1d-4ee44320dc25"}},{"fullUrl":"https://madie.cms.gov/Practitioner/e92a6a02-ad64-4e16-ae23-84a5eccec2ee","resource":{"resourceType":"Practitioner","id":"e92a6a02-ad64-4e16-ae23-84a5eccec2ee","identifier":[{"system":"http://hl7.org/fhir/sid/us-npi","value":"123456"}],"name":[{"family":"Evil","prefix":["Dr"]}]},"request":{"method":"PUT","url":"Practitioner/e92a6a02-ad64-4e16-ae23-84a5eccec2ee"}},{"fullUrl":"https://madie.cms.gov/MeasureReport/248088b2-2758-4e9e-9cb9-75869fc79e1f","resource":{"resourceType":"MeasureReport","id":"248088b2-2758-4e9e-9cb9-75869fc79e1f","meta":{"profile":["http://hl7.org/fhir/us/cqfmeasures/StructureDefinition/test-case-cqfm"]},"contained":[{"resourceType":"Parameters","id":"47a0a214-bae6-4d8b-aac4-0fbc63bd58a1-parameters","parameter":[{"name":"subject","valueString":"f3551c07-89fe-4e7a-90fe-03788ace10f8"}]}],"extension":[{"url":"http://hl7.org/fhir/us/cqfmeasures/StructureDefinition/cqfm-inputParameters","valueReference":{"reference":"#47a0a214-bae6-4d8b-aac4-0fbc63bd58a1-parameters"}},{"url":"http://hl7.org/fhir/us/cqfmeasures/StructureDefinition/cqfm-testCaseDescription","valueMarkdown":"CGA and EGA are both null.  Dx code indicative of preterm birth.  So Risk Variable PreTermBirth will pass based on coding."}],"modifierExtension":[{"url":"http://hl7.org/fhir/us/cqfmeasures/StructureDefinition/cqfm-isTestCase","valueBoolean":true}],"status":"complete","type":"individual","measure":"https://madie.cms.gov/Measure/CMS1028FHIRPCSevereOBComps","period":{"start":"2025-01-01","end":"2025-12-31"},"group":[{"population":[{"code":{"coding":[{"system":"http://terminology.hl7.org/CodeSystem/measure-population","code":"initial-population","display":"Initial Population"}]},"count":1},{"code":{"coding":[{"system":"http://terminology.hl7.org/CodeSystem/measure-population","code":"denominator","display":"Denominator"}]},"count":1},{"code":{"coding":[{"system":"http://terminology.hl7.org/CodeSystem/measure-population","code":"numerator","display":"Numerator"}]},"count":0},{"code":{"coding":[{"system":"http://terminology.hl7.org/CodeSystem/measure-population","code":"numerator-exclusion","display":"Numerator Exclusion"}]},"count":0}]},{"population":[{"code":{"coding":[{"system":"http://terminology.hl7.org/CodeSystem/measure-population","code":"initial-population","display":"Initial Population"}]},"count":1},{"code":{"coding":[{"system":"http://terminology.hl7.org/CodeSystem/measure-population","code":"denominator","display":"Denominator"}]},"count":1},{"code":{"coding":[{"system":"http://terminology.hl7.org/CodeSystem/measure-population","code":"numerator","display":"Numerator"}]},"count":0},{"code":{"coding":[{"system":"http://terminology.hl7.org/CodeSystem/measure-population","code":"numerator-exclusion","display":"Numerator Exclusion"}]},"count":0}]}]},"request":{"method":"PUT","url":"MeasureReport/248088b2-2758-4e9e-9cb9-75869fc79e1f"}}]}