{"resourceType":"Bundle","id":"tests-f248e9f7-4ad9-4237-9280-44e3a97d8a3d-bundle","type":"transaction","entry":[{"fullUrl":"https://madie.cms.gov/Patient/f248e9f7-4ad9-4237-9280-44e3a97d8a3d","resource":{"resourceType":"Patient","id":"f248e9f7-4ad9-4237-9280-44e3a97d8a3d","meta":{"profile":["http://hl7.org/fhir/us/qicore/StructureDefinition/qicore-patient"]},"text":{"status":"generated","div":"<div xmlns=\"http://www.w3.org/1999/xhtml\"><div class=\"hapiHeaderText\">Risk_MorbidObesity<b>RISKPass </b></div><table class=\"hapiPropertyTable\"><tbody><tr><td>Date of birth</td><td><span>01 February 2004</span></td></tr></tbody></table></div>"},"extension":[{"url":"http://hl7.org/fhir/us/core/StructureDefinition/us-core-race","extension":[{"url":"ombCategory","valueCoding":{"system":"urn:oid:2.16.840.1.113883.6.238","code":"1002-5","display":"American Indian or Alaska Native","userSelected":true}},{"url":"text","valueString":"American Indian or Alaska Native"}]},{"url":"http://hl7.org/fhir/us/core/StructureDefinition/us-core-ethnicity","extension":[{"url":"ombCategory","valueCoding":{"system":"urn:oid:2.16.840.1.113883.6.238","code":"2135-2","display":"Hispanic or Latino","userSelected":true}},{"url":"text","valueString":"Hispanic or Latino"}]}],"identifier":[{"type":{"coding":[{"system":"http://terminology.hl7.org/CodeSystem/v2-0203","code":"MR"}]},"system":"https://bonnie-fhir.healthit.gov/","value":"63594c7a6aee9629c82981df"}],"active":true,"name":[{"use":"usual","family":"RiskPass","given":["Risk_MorbidObesity"]}],"gender":"female","birthDate":"2004-02-01"},"request":{"method":"PUT","url":"Patient/f248e9f7-4ad9-4237-9280-44e3a97d8a3d"}},{"fullUrl":"https://madie.cms.gov/Observation/e6ef7e36-bb1e-4472-9068-2551d4c507a5","resource":{"resourceType":"Observation","id":"e6ef7e36-bb1e-4472-9068-2551d4c507a5","meta":{"profile":["http://hl7.org/fhir/us/qicore/StructureDefinition/qicore-observation"]},"status":"final","category":[{"coding":[{"system":"http://terminology.hl7.org/CodeSystem/observation-category","code":"exam","display":"exam","userSelected":true}]}],"code":{"coding":[{"system":"http://loinc.org","code":"93857-1"}]},"subject":{"reference":"Patient/f248e9f7-4ad9-4237-9280-44e3a97d8a3d"},"effectiveDateTime":"2025-02-01T08:00:00.000+00:00","valueDateTime":"2025-02-01T08:00:00+00:00"},"request":{"method":"PUT","url":"Observation/e6ef7e36-bb1e-4472-9068-2551d4c507a5"}},{"fullUrl":"https://madie.cms.gov/Observation/ffe2bc2d-339f-4a68-a2c0-799db6fe52ea","resource":{"resourceType":"Observation","id":"ffe2bc2d-339f-4a68-a2c0-799db6fe52ea","meta":{"profile":["http://hl7.org/fhir/us/qicore/StructureDefinition/qicore-observation"]},"status":"final","category":[{"coding":[{"system":"http://terminology.hl7.org/CodeSystem/observation-category","code":"exam","display":"exam","userSelected":true}]}],"code":{"coding":[{"system":"http://loinc.org","code":"11778-8"}]},"subject":{"reference":"Patient/f248e9f7-4ad9-4237-9280-44e3a97d8a3d"},"effectiveDateTime":"2025-02-01T08:00:00.000+00:00","valueDateTime":"2025-02-01T00:00:00.000+00:00"},"request":{"method":"PUT","url":"Observation/ffe2bc2d-339f-4a68-a2c0-799db6fe52ea"}},{"fullUrl":"https://madie.cms.gov/Encounter/50358bf6-0491-4d49-94bb-83b76001c135","resource":{"resourceType":"Encounter","id":"50358bf6-0491-4d49-94bb-83b76001c135","meta":{"profile":["http://hl7.org/fhir/us/qicore/StructureDefinition/qicore-encounter"]},"status":"finished","class":{"system":"http://terminology.hl7.org/CodeSystem/v3-ActCode","code":"IMP","display":"inpatient encounter"},"type":[{"coding":[{"system":"http://snomed.info/sct","code":"183452005"}]}],"subject":{"reference":"Patient/f248e9f7-4ad9-4237-9280-44e3a97d8a3d"},"period":{"start":"2025-02-01T08:00:00.000Z","end":"2025-02-05T08:15:00.000Z"},"diagnosis":[{"extension":[{"url":"http://hl7.org/fhir/us/qicore/StructureDefinition/qicore-encounter-diagnosisPresentOnAdmission","valueCodeableConcept":{"coding":[{"system":"https://www.cms.gov/Medicare/Medicare-Fee-for-Service-Payment/HospitalAcqCond/Coding","code":"Y"}]}}],"condition":{"reference":"Condition/5cfa8a52-146b-4d26-8ca0-903e8b081d93"}},{"extension":[{"url":"http://hl7.org/fhir/us/qicore/StructureDefinition/qicore-encounter-diagnosisPresentOnAdmission","valueCodeableConcept":{"coding":[{"system":"https://www.cms.gov/Medicare/Medicare-Fee-for-Service-Payment/HospitalAcqCond/Coding","code":"N"}]}}],"condition":{"reference":"Condition/36b835e4-17a7-4674-8f6b-5b34f4a6fad5"}}]},"request":{"method":"PUT","url":"Encounter/50358bf6-0491-4d49-94bb-83b76001c135"}},{"fullUrl":"https://madie.cms.gov/Procedure/5e37b7ca-ece5-4a40-9136-28a755f69f09","resource":{"resourceType":"Procedure","id":"5e37b7ca-ece5-4a40-9136-28a755f69f09","meta":{"profile":["http://hl7.org/fhir/us/qicore/StructureDefinition/qicore-procedure"]},"extension":[{"url":"http://hl7.org/fhir/us/qicore/StructureDefinition/qicore-recorded","valueDateTime":"2013-04-05T09:35:00-04:00"}],"status":"completed","code":{"coding":[{"system":"http://snomed.info/sct","code":"10745001"}]},"subject":{"reference":"Patient/f248e9f7-4ad9-4237-9280-44e3a97d8a3d"},"performedDateTime":"2025-02-01T08:00:00.000+00:00"},"request":{"method":"PUT","url":"Procedure/5e37b7ca-ece5-4a40-9136-28a755f69f09"}},{"fullUrl":"https://madie.cms.gov/Condition/36b835e4-17a7-4674-8f6b-5b34f4a6fad5","resource":{"resourceType":"Condition","id":"36b835e4-17a7-4674-8f6b-5b34f4a6fad5","meta":{"profile":["http://hl7.org/fhir/us/qicore/StructureDefinition/qicore-condition"]},"category":[{"coding":[{"system":"http://terminology.hl7.org/CodeSystem/condition-category","code":"encounter-diagnosis","display":"Encounter Diagnosis"}]}],"code":{"coding":[{"system":"http://hl7.org/fhir/sid/icd-10-cm","version":"2023","code":"A32.7","display":"Listerial sepsis","userSelected":true}]},"subject":{"reference":"Patient/f248e9f7-4ad9-4237-9280-44e3a97d8a3d"},"recordedDate":"2025-10-26T08:00:00.000+00:00"},"request":{"method":"PUT","url":"Condition/36b835e4-17a7-4674-8f6b-5b34f4a6fad5"}},{"fullUrl":"https://madie.cms.gov/Condition/5cfa8a52-146b-4d26-8ca0-903e8b081d93","resource":{"resourceType":"Condition","id":"5cfa8a52-146b-4d26-8ca0-903e8b081d93","meta":{"profile":["http://hl7.org/fhir/us/qicore/StructureDefinition/qicore-condition"]},"category":[{"coding":[{"system":"http://terminology.hl7.org/CodeSystem/condition-category","code":"encounter-diagnosis","display":"Encounter Diagnosis"}]}],"code":{"coding":[{"system":"http://hl7.org/fhir/sid/icd-10-cm","version":"2023","code":"E66.01","display":"Morbid Obesity","userSelected":true}]},"subject":{"reference":"Patient/f248e9f7-4ad9-4237-9280-44e3a97d8a3d"},"recordedDate":"2025-10-26T08:00:00.000+00:00"},"request":{"method":"PUT","url":"Condition/5cfa8a52-146b-4d26-8ca0-903e8b081d93"}},{"fullUrl":"https://madie.cms.gov/MeasureReport/24db4ed5-ba55-4cc7-a1b2-013cc217894e","resource":{"resourceType":"MeasureReport","id":"24db4ed5-ba55-4cc7-a1b2-013cc217894e","meta":{"profile":["http://hl7.org/fhir/us/cqfmeasures/StructureDefinition/test-case-cqfm"]},"contained":[{"resourceType":"Parameters","id":"629f1cf8-7db8-48fb-b394-1f6c53257509-parameters","parameter":[{"name":"subject","valueString":"f248e9f7-4ad9-4237-9280-44e3a97d8a3d"}]}],"extension":[{"url":"http://hl7.org/fhir/us/cqfmeasures/StructureDefinition/cqfm-inputParameters","valueReference":{"reference":"#629f1cf8-7db8-48fb-b394-1f6c53257509-parameters"}},{"url":"http://hl7.org/fhir/us/cqfmeasures/StructureDefinition/cqfm-testCaseDescription","valueMarkdown":"Risk variable of BMI\n\n"}],"modifierExtension":[{"url":"http://hl7.org/fhir/us/cqfmeasures/StructureDefinition/cqfm-isTestCase","valueBoolean":true}],"status":"complete","type":"individual","measure":"https://madie.cms.gov/Measure/CMS1028FHIRPCSevereOBComps","period":{"start":"2025-01-01","end":"2025-12-31"},"group":[{"population":[{"code":{"coding":[{"system":"http://terminology.hl7.org/CodeSystem/measure-population","code":"initial-population","display":"Initial Population"}]},"count":1},{"code":{"coding":[{"system":"http://terminology.hl7.org/CodeSystem/measure-population","code":"denominator","display":"Denominator"}]},"count":1},{"code":{"coding":[{"system":"http://terminology.hl7.org/CodeSystem/measure-population","code":"numerator","display":"Numerator"}]},"count":1},{"code":{"coding":[{"system":"http://terminology.hl7.org/CodeSystem/measure-population","code":"numerator-exclusion","display":"Numerator Exclusion"}]},"count":0}]},{"population":[{"code":{"coding":[{"system":"http://terminology.hl7.org/CodeSystem/measure-population","code":"initial-population","display":"Initial Population"}]},"count":1},{"code":{"coding":[{"system":"http://terminology.hl7.org/CodeSystem/measure-population","code":"denominator","display":"Denominator"}]},"count":1},{"code":{"coding":[{"system":"http://terminology.hl7.org/CodeSystem/measure-population","code":"numerator","display":"Numerator"}]},"count":1},{"code":{"coding":[{"system":"http://terminology.hl7.org/CodeSystem/measure-population","code":"numerator-exclusion","display":"Numerator Exclusion"}]},"count":0}]}]},"request":{"method":"PUT","url":"MeasureReport/24db4ed5-ba55-4cc7-a1b2-013cc217894e"}}]}