{"resourceType":"Bundle","id":"tests-a3a2f4a5-849f-4ecb-9e20-2b6c65eb1fab-bundle","type":"transaction","entry":[{"fullUrl":"https://madie.cms.gov/Patient/a3a2f4a5-849f-4ecb-9e20-2b6c65eb1fab","resource":{"resourceType":"Patient","id":"a3a2f4a5-849f-4ecb-9e20-2b6c65eb1fab","meta":{"profile":["http://hl7.org/fhir/us/qicore/StructureDefinition/qicore-patient"]},"text":{"status":"generated","div":"<div xmlns=\"http://www.w3.org/1999/xhtml\"><div class=\"hapiHeaderText\">DelProcMissing <b>IPFAIL </b></div><table class=\"hapiPropertyTable\"><tbody><tr><td>Date of birth</td><td><span>31 January 2004</span></td></tr></tbody></table></div>"},"extension":[{"url":"http://hl7.org/fhir/us/core/StructureDefinition/us-core-race","extension":[{"url":"ombCategory","valueCoding":{"system":"urn:oid:2.16.840.1.113883.6.238","code":"1002-5","display":"American Indian or Alaska Native","userSelected":true}},{"url":"text","valueString":"American Indian or Alaska Native"}]},{"url":"http://hl7.org/fhir/us/core/StructureDefinition/us-core-ethnicity","extension":[{"url":"ombCategory","valueCoding":{"system":"urn:oid:2.16.840.1.113883.6.238","code":"2135-2","display":"Hispanic or Latino","userSelected":true}},{"url":"text","valueString":"Hispanic or Latino"}]}],"identifier":[{"type":{"coding":[{"system":"http://terminology.hl7.org/CodeSystem/v2-0203","code":"MR"}]},"system":"https://bonnie-fhir.healthit.gov/","value":"633b3f9f0968f80122503ce7"}],"active":true,"name":[{"use":"usual","family":"IPFail","given":["DelProcMissing"]}],"gender":"female","birthDate":"2004-01-31"},"request":{"method":"PUT","url":"Patient/a3a2f4a5-849f-4ecb-9e20-2b6c65eb1fab"}},{"fullUrl":"https://madie.cms.gov/Encounter/2a15883c-9bac-457d-aa8e-c8d87f377d86","resource":{"resourceType":"Encounter","id":"2a15883c-9bac-457d-aa8e-c8d87f377d86","meta":{"profile":["http://hl7.org/fhir/us/qicore/StructureDefinition/qicore-encounter"]},"status":"finished","class":{"system":"http://terminology.hl7.org/CodeSystem/v3-ActCode","code":"IMP","display":"inpatient encounter"},"type":[{"coding":[{"system":"http://snomed.info/sct","code":"183452005"}]}],"subject":{"reference":"Patient/a3a2f4a5-849f-4ecb-9e20-2b6c65eb1fab"},"period":{"start":"2025-02-01T08:00:00.000Z","end":"2025-02-05T08:15:00.000Z"}},"request":{"method":"PUT","url":"Encounter/2a15883c-9bac-457d-aa8e-c8d87f377d86"}},{"fullUrl":"https://madie.cms.gov/Coverage/cad75b92-ac87-4521-9739-bb32a93d67ff","resource":{"resourceType":"Coverage","id":"cad75b92-ac87-4521-9739-bb32a93d67ff","meta":{"profile":["http://hl7.org/fhir/us/qicore/StructureDefinition/qicore-coverage"]},"status":"active","beneficiary":{"reference":"Patient/a3a2f4a5-849f-4ecb-9e20-2b6c65eb1fab"},"payor":[{"reference":"Organization/e75793c9-fdf6-463a-8c1d-4ee44320dc25"}]},"request":{"method":"PUT","url":"Coverage/cad75b92-ac87-4521-9739-bb32a93d67ff"}},{"fullUrl":"https://madie.cms.gov/Organization/1da55c72-6895-4844-836a-10a7b39b1d25","resource":{"resourceType":"Organization","id":"e75793c9-fdf6-463a-8c1d-4ee44320dc25","meta":{"profile":["http://hl7.org/fhir/us/qicore/StructureDefinition/qicore-organization"]},"identifier":[{"use":"temp","system":"urn:oid:2.16.840.1.113883.4.4","value":"21-3259825"}],"active":true,"type":[{"coding":[{"system":"http://terminology.hl7.org/CodeSystem/organization-type","code":"pay","display":"Payer"}]}],"name":"Blue Cross Blue Shield of Texas","telecom":[{"system":"phone","value":"(+1) 972-766-6900"}],"address":[{"use":"billing","type":"postal","line":["P.O. Box 660044"],"city":"Dallas","state":"TX","postalCode":"75266-0044","country":"USA"}]},"request":{"method":"PUT","url":"Organization/e75793c9-fdf6-463a-8c1d-4ee44320dc25"}},{"fullUrl":"https://madie.cms.gov/Practitioner/98d882a2-6cc3-4997-a64e-17506d3f162c","resource":{"resourceType":"Practitioner","id":"98d882a2-6cc3-4997-a64e-17506d3f162c","identifier":[{"system":"http://hl7.org/fhir/sid/us-npi","value":"123456"}],"name":[{"family":"Evil","prefix":["Dr"]}]},"request":{"method":"PUT","url":"Practitioner/98d882a2-6cc3-4997-a64e-17506d3f162c"}},{"fullUrl":"https://madie.cms.gov/MeasureReport/48fd579b-45e7-4f11-8ca2-003955292882","resource":{"resourceType":"MeasureReport","id":"48fd579b-45e7-4f11-8ca2-003955292882","meta":{"profile":["http://hl7.org/fhir/us/cqfmeasures/StructureDefinition/test-case-cqfm"]},"contained":[{"resourceType":"Parameters","id":"17eccd6b-34dd-4295-9bc1-d71fa1a551fa-parameters","parameter":[{"name":"subject","valueString":"a3a2f4a5-849f-4ecb-9e20-2b6c65eb1fab"}]}],"extension":[{"url":"http://hl7.org/fhir/us/cqfmeasures/StructureDefinition/cqfm-inputParameters","valueReference":{"reference":"#17eccd6b-34dd-4295-9bc1-d71fa1a551fa-parameters"}},{"url":"http://hl7.org/fhir/us/cqfmeasures/StructureDefinition/cqfm-testCaseDescription","valueMarkdown":"Patient is 8 years of age on day before encounter starts.  No delivery procedure\n"}],"modifierExtension":[{"url":"http://hl7.org/fhir/us/cqfmeasures/StructureDefinition/cqfm-isTestCase","valueBoolean":true}],"status":"complete","type":"individual","measure":"https://madie.cms.gov/Measure/CMS1028FHIRPCSevereOBComps","period":{"start":"2025-01-01","end":"2025-12-31"},"group":[{"population":[{"code":{"coding":[{"system":"http://terminology.hl7.org/CodeSystem/measure-population","code":"initial-population","display":"Initial Population"}]},"count":0},{"code":{"coding":[{"system":"http://terminology.hl7.org/CodeSystem/measure-population","code":"denominator","display":"Denominator"}]},"count":0},{"code":{"coding":[{"system":"http://terminology.hl7.org/CodeSystem/measure-population","code":"numerator","display":"Numerator"}]},"count":0},{"code":{"coding":[{"system":"http://terminology.hl7.org/CodeSystem/measure-population","code":"numerator-exclusion","display":"Numerator Exclusion"}]},"count":0}]}]},"request":{"method":"PUT","url":"MeasureReport/48fd579b-45e7-4f11-8ca2-003955292882"}}]}