{"resourceType":"Bundle","id":"tests-973b0d7a-ac92-4882-9b38-0bfca797269f-bundle","type":"transaction","entry":[{"fullUrl":"https://madie.cms.gov/Patient/973b0d7a-ac92-4882-9b38-0bfca797269f","resource":{"resourceType":"Patient","id":"973b0d7a-ac92-4882-9b38-0bfca797269f","meta":{"profile":["http://hl7.org/fhir/us/qicore/StructureDefinition/qicore-patient"]},"text":{"status":"generated","div":"<div xmlns=\"http://www.w3.org/1999/xhtml\"><div class=\"hapiHeaderText\">Risk_PlacentalAccretaSpectrumACCRETA <b>RISKPass </b></div><table class=\"hapiPropertyTable\"><tbody><tr><td>Date of birth</td><td><span>01 February 2004</span></td></tr></tbody></table></div>"},"extension":[{"url":"http://hl7.org/fhir/us/core/StructureDefinition/us-core-race","extension":[{"url":"ombCategory","valueCoding":{"system":"urn:oid:2.16.840.1.113883.6.238","code":"1002-5","display":"American Indian or Alaska Native","userSelected":true}},{"url":"text","valueString":"American Indian or Alaska Native"}]},{"url":"http://hl7.org/fhir/us/core/StructureDefinition/us-core-ethnicity","extension":[{"url":"ombCategory","valueCoding":{"system":"urn:oid:2.16.840.1.113883.6.238","code":"2135-2","display":"Hispanic or Latino","userSelected":true}},{"url":"text","valueString":"Hispanic or Latino"}]}],"identifier":[{"type":{"coding":[{"system":"http://terminology.hl7.org/CodeSystem/v2-0203","code":"MR"}]},"system":"https://bonnie-fhir.healthit.gov/","value":"63594c7a6aee9629c82981df"}],"active":true,"name":[{"use":"usual","family":"RiskPass","given":["Risk_PlacentalAccretaSpectruACCRETA"]}],"gender":"female","birthDate":"2004-02-01"},"request":{"method":"PUT","url":"Patient/973b0d7a-ac92-4882-9b38-0bfca797269f"}},{"fullUrl":"https://madie.cms.gov/Observation/0501aa0b-8347-4950-9d27-78e7f9c099e5","resource":{"resourceType":"Observation","id":"0501aa0b-8347-4950-9d27-78e7f9c099e5","meta":{"profile":["http://hl7.org/fhir/us/qicore/StructureDefinition/qicore-observation"]},"status":"final","category":[{"coding":[{"system":"http://terminology.hl7.org/CodeSystem/observation-category","code":"exam","display":"exam","userSelected":true}]}],"code":{"coding":[{"system":"http://loinc.org","code":"93857-1"}]},"subject":{"reference":"Patient/973b0d7a-ac92-4882-9b38-0bfca797269f"},"effectiveDateTime":"2025-02-01T08:00:00.000+00:00","valueDateTime":"2025-02-01T08:00:00+00:00"},"request":{"method":"PUT","url":"Observation/0501aa0b-8347-4950-9d27-78e7f9c099e5"}},{"fullUrl":"https://madie.cms.gov/Observation/423bcaff-73cc-4e6c-996a-2a6d4bc03100","resource":{"resourceType":"Observation","id":"423bcaff-73cc-4e6c-996a-2a6d4bc03100","meta":{"profile":["http://hl7.org/fhir/us/qicore/StructureDefinition/qicore-observation"]},"status":"final","category":[{"coding":[{"system":"http://terminology.hl7.org/CodeSystem/observation-category","code":"exam","display":"exam","userSelected":true}]}],"code":{"coding":[{"system":"http://loinc.org","code":"11778-8"}]},"subject":{"reference":"Patient/973b0d7a-ac92-4882-9b38-0bfca797269f"},"effectiveDateTime":"2025-02-01T08:00:00.000+00:00","valueDateTime":"2025-02-01T00:00:00.000+00:00"},"request":{"method":"PUT","url":"Observation/423bcaff-73cc-4e6c-996a-2a6d4bc03100"}},{"fullUrl":"https://madie.cms.gov/Encounter/1cc581f8-ca0a-4a3e-9479-3d0a0d8a4884","resource":{"resourceType":"Encounter","id":"1cc581f8-ca0a-4a3e-9479-3d0a0d8a4884","meta":{"profile":["http://hl7.org/fhir/us/qicore/StructureDefinition/qicore-encounter"]},"status":"finished","class":{"system":"http://terminology.hl7.org/CodeSystem/v3-ActCode","code":"IMP","display":"inpatient encounter"},"type":[{"coding":[{"system":"http://snomed.info/sct","code":"183452005"}]}],"subject":{"reference":"Patient/973b0d7a-ac92-4882-9b38-0bfca797269f"},"period":{"start":"2025-02-01T08:00:00.000Z","end":"2025-02-05T08:15:00.000Z"},"diagnosis":[{"extension":[{"url":"http://hl7.org/fhir/us/qicore/StructureDefinition/qicore-encounter-diagnosisPresentOnAdmission","valueCodeableConcept":{"coding":[{"system":"https://www.cms.gov/Medicare/Medicare-Fee-for-Service-Payment/HospitalAcqCond/Coding","code":"Y"}]}}],"condition":{"reference":"Condition/3f9f7120-d52e-4253-ba28-5f0b569039b6"}},{"extension":[{"url":"http://hl7.org/fhir/us/qicore/StructureDefinition/qicore-encounter-diagnosisPresentOnAdmission","valueCodeableConcept":{"coding":[{"system":"https://www.cms.gov/Medicare/Medicare-Fee-for-Service-Payment/HospitalAcqCond/Coding","code":"N"}]}}],"condition":{"reference":"Condition/62606783-5b6a-4259-a44e-eba4ecfad75f"}}]},"request":{"method":"PUT","url":"Encounter/1cc581f8-ca0a-4a3e-9479-3d0a0d8a4884"}},{"fullUrl":"https://madie.cms.gov/Procedure/728dcc5f-3c3d-4558-83a6-46e1d2c53897","resource":{"resourceType":"Procedure","id":"728dcc5f-3c3d-4558-83a6-46e1d2c53897","meta":{"profile":["http://hl7.org/fhir/us/qicore/StructureDefinition/qicore-procedure"]},"extension":[{"url":"http://hl7.org/fhir/us/qicore/StructureDefinition/qicore-recorded","valueDateTime":"2013-04-05T09:35:00-04:00"}],"status":"completed","code":{"coding":[{"system":"http://snomed.info/sct","code":"10745001"}]},"subject":{"reference":"Patient/973b0d7a-ac92-4882-9b38-0bfca797269f"},"performedDateTime":"2025-02-01T08:00:00.000+00:00"},"request":{"method":"PUT","url":"Procedure/728dcc5f-3c3d-4558-83a6-46e1d2c53897"}},{"fullUrl":"https://madie.cms.gov/Condition/62606783-5b6a-4259-a44e-eba4ecfad75f","resource":{"resourceType":"Condition","id":"62606783-5b6a-4259-a44e-eba4ecfad75f","meta":{"profile":["http://hl7.org/fhir/us/qicore/StructureDefinition/qicore-condition"]},"category":[{"coding":[{"system":"http://terminology.hl7.org/CodeSystem/condition-category","code":"encounter-diagnosis","display":"Encounter Diagnosis"}]}],"code":{"coding":[{"system":"http://hl7.org/fhir/sid/icd-10-cm","version":"2023","code":"A32.7","display":"Listerial sepsis","userSelected":true}]},"subject":{"reference":"Patient/973b0d7a-ac92-4882-9b38-0bfca797269f"},"recordedDate":"2025-10-26T08:00:00.000+00:00"},"request":{"method":"PUT","url":"Condition/62606783-5b6a-4259-a44e-eba4ecfad75f"}},{"fullUrl":"https://madie.cms.gov/Condition/3f9f7120-d52e-4253-ba28-5f0b569039b6","resource":{"resourceType":"Condition","id":"3f9f7120-d52e-4253-ba28-5f0b569039b6","meta":{"profile":["http://hl7.org/fhir/us/qicore/StructureDefinition/qicore-condition"]},"category":[{"coding":[{"system":"http://terminology.hl7.org/CodeSystem/condition-category","code":"encounter-diagnosis","display":"Encounter Diagnosis"}]}],"code":{"coding":[{"system":"http://hl7.org/fhir/sid/icd-10-cm","version":"2024","code":"O43.219","display":"Placenta accreta, unspecified trimester","userSelected":true}]},"subject":{"reference":"Patient/973b0d7a-ac92-4882-9b38-0bfca797269f"},"recordedDate":"2025-10-26T08:00:00.000+00:00"},"request":{"method":"PUT","url":"Condition/3f9f7120-d52e-4253-ba28-5f0b569039b6"}},{"fullUrl":"https://madie.cms.gov/MeasureReport/d20b9dd2-55a6-4d89-9fd0-fdffd9328e98","resource":{"resourceType":"MeasureReport","id":"d20b9dd2-55a6-4d89-9fd0-fdffd9328e98","meta":{"profile":["http://hl7.org/fhir/us/cqfmeasures/StructureDefinition/test-case-cqfm"]},"contained":[{"resourceType":"Parameters","id":"8b57fd14-82b4-4884-b8cd-c85047102254-parameters","parameter":[{"name":"subject","valueString":"973b0d7a-ac92-4882-9b38-0bfca797269f"}]}],"extension":[{"url":"http://hl7.org/fhir/us/cqfmeasures/StructureDefinition/cqfm-inputParameters","valueReference":{"reference":"#8b57fd14-82b4-4884-b8cd-c85047102254-parameters"}},{"url":"http://hl7.org/fhir/us/cqfmeasures/StructureDefinition/cqfm-testCaseDescription","valueMarkdown":"Risk variable Placental Accreta Spectrum, \"placenta accreta, unspecified trimester\" in Placenta Accreta value set."}],"modifierExtension":[{"url":"http://hl7.org/fhir/us/cqfmeasures/StructureDefinition/cqfm-isTestCase","valueBoolean":true}],"status":"complete","type":"individual","measure":"https://madie.cms.gov/Measure/CMS1028FHIRPCSevereOBComps","period":{"start":"2025-01-01","end":"2025-12-31"},"group":[{"population":[{"code":{"coding":[{"system":"http://terminology.hl7.org/CodeSystem/measure-population","code":"initial-population","display":"Initial Population"}]},"count":1},{"code":{"coding":[{"system":"http://terminology.hl7.org/CodeSystem/measure-population","code":"denominator","display":"Denominator"}]},"count":1},{"code":{"coding":[{"system":"http://terminology.hl7.org/CodeSystem/measure-population","code":"numerator","display":"Numerator"}]},"count":1},{"code":{"coding":[{"system":"http://terminology.hl7.org/CodeSystem/measure-population","code":"numerator-exclusion","display":"Numerator Exclusion"}]},"count":0}]},{"population":[{"code":{"coding":[{"system":"http://terminology.hl7.org/CodeSystem/measure-population","code":"initial-population","display":"Initial Population"}]},"count":1},{"code":{"coding":[{"system":"http://terminology.hl7.org/CodeSystem/measure-population","code":"denominator","display":"Denominator"}]},"count":1},{"code":{"coding":[{"system":"http://terminology.hl7.org/CodeSystem/measure-population","code":"numerator","display":"Numerator"}]},"count":1},{"code":{"coding":[{"system":"http://terminology.hl7.org/CodeSystem/measure-population","code":"numerator-exclusion","display":"Numerator Exclusion"}]},"count":0}]}]},"request":{"method":"PUT","url":"MeasureReport/d20b9dd2-55a6-4d89-9fd0-fdffd9328e98"}}]}