{"resourceType":"Bundle","id":"tests-942af6cd-68bb-42a9-90f0-337477ea1e3f-bundle","type":"transaction","entry":[{"fullUrl":"https://madie.cms.gov/Patient/942af6cd-68bb-42a9-90f0-337477ea1e3f","resource":{"resourceType":"Patient","id":"942af6cd-68bb-42a9-90f0-337477ea1e3f","meta":{"profile":["http://hl7.org/fhir/us/qicore/StructureDefinition/qicore-patient"]},"text":{"status":"generated","div":"<div xmlns=\"http://www.w3.org/1999/xhtml\"><div class=\"hapiHeaderText\">AssPrfDELRsltDtTime_AftIPStart <b>DENOMFAIL </b></div><table class=\"hapiPropertyTable\"><tbody><tr><td>Date of birth</td><td><span>01 February 2004</span></td></tr></tbody></table></div>"},"extension":[{"url":"http://hl7.org/fhir/us/core/StructureDefinition/us-core-race","extension":[{"url":"ombCategory","valueCoding":{"system":"urn:oid:2.16.840.1.113883.6.238","code":"1002-5","display":"American Indian or Alaska Native","userSelected":true}},{"url":"text","valueString":"American Indian or Alaska Native"}]},{"url":"http://hl7.org/fhir/us/core/StructureDefinition/us-core-ethnicity","extension":[{"url":"ombCategory","valueCoding":{"system":"urn:oid:2.16.840.1.113883.6.238","code":"2135-2","display":"Hispanic or Latino","userSelected":true}},{"url":"text","valueString":"Hispanic or Latino"}]}],"identifier":[{"type":{"coding":[{"system":"http://terminology.hl7.org/CodeSystem/v2-0203","code":"MR"}]},"system":"https://bonnie-fhir.healthit.gov/","value":"6356c5eb54e383debade7598"}],"active":true,"name":[{"use":"usual","family":"DENOMFail","given":["AssPrfTimeOfDelResultMissing"]}],"gender":"female","birthDate":"2004-02-01"},"request":{"method":"PUT","url":"Patient/942af6cd-68bb-42a9-90f0-337477ea1e3f"}},{"fullUrl":"https://madie.cms.gov/Observation/9d1ea84f-f33d-4cb2-97d5-32225fdb2020","resource":{"resourceType":"Observation","id":"9d1ea84f-f33d-4cb2-97d5-32225fdb2020","meta":{"profile":["http://hl7.org/fhir/us/qicore/StructureDefinition/qicore-observation"]},"status":"final","category":[{"coding":[{"system":"http://terminology.hl7.org/CodeSystem/observation-category","code":"exam","display":"exam","userSelected":true}]}],"code":{"coding":[{"system":"http://loinc.org","code":"93857-1"}]},"subject":{"reference":"Patient/942af6cd-68bb-42a9-90f0-337477ea1e3f"},"effectiveDateTime":"2025-02-01T08:00:00.000+00:00"},"request":{"method":"PUT","url":"Observation/9d1ea84f-f33d-4cb2-97d5-32225fdb2020"}},{"fullUrl":"https://madie.cms.gov/Encounter/858a4d05-efc9-4ade-b0d6-ee5960ca5a88","resource":{"resourceType":"Encounter","id":"858a4d05-efc9-4ade-b0d6-ee5960ca5a88","meta":{"profile":["http://hl7.org/fhir/us/qicore/StructureDefinition/qicore-encounter"]},"status":"finished","class":{"system":"http://terminology.hl7.org/CodeSystem/v3-ActCode","code":"IMP","display":"inpatient encounter"},"type":[{"coding":[{"system":"http://snomed.info/sct","code":"183452005"}]}],"subject":{"reference":"Patient/942af6cd-68bb-42a9-90f0-337477ea1e3f"},"period":{"start":"2025-02-01T08:00:00.000Z","end":"2025-02-05T08:15:00.000Z"}},"request":{"method":"PUT","url":"Encounter/858a4d05-efc9-4ade-b0d6-ee5960ca5a88"}},{"fullUrl":"https://madie.cms.gov/Procedure/7b9b4711-13c6-47c4-b9c6-4229afdef5b6","resource":{"resourceType":"Procedure","id":"7b9b4711-13c6-47c4-b9c6-4229afdef5b6","meta":{"profile":["http://hl7.org/fhir/us/qicore/StructureDefinition/qicore-procedure"]},"extension":[{"url":"http://hl7.org/fhir/us/qicore/StructureDefinition/qicore-recorded","valueDateTime":"2013-04-05T09:35:00-04:00"}],"status":"completed","code":{"coding":[{"system":"http://snomed.info/sct","code":"10745001"}]},"subject":{"reference":"Patient/942af6cd-68bb-42a9-90f0-337477ea1e3f"},"performedPeriod":{"start":"2025-02-01T08:00:00.000Z","end":"2025-02-05T08:15:00.000Z"}},"request":{"method":"PUT","url":"Procedure/7b9b4711-13c6-47c4-b9c6-4229afdef5b6"}},{"fullUrl":"https://madie.cms.gov/Observation/bb805463-20f5-450d-9d32-a27ec1a010f1","resource":{"resourceType":"Observation","id":"bb805463-20f5-450d-9d32-a27ec1a010f1","meta":{"profile":["http://hl7.org/fhir/us/qicore/StructureDefinition/qicore-observation"]},"status":"final","category":[{"coding":[{"system":"http://terminology.hl7.org/CodeSystem/observation-category","code":"exam","display":"exam","userSelected":true}]}],"code":{"coding":[{"system":"http://loinc.org","code":"11778-8","display":"Delivery date Estimated","userSelected":true}]},"subject":{"reference":"Patient/942af6cd-68bb-42a9-90f0-337477ea1e3f"},"effectiveDateTime":"2025-02-01T08:00:00.000+00:00","valueDateTime":"2025-02-01T08:00:00.000+00:00"},"request":{"method":"PUT","url":"Observation/bb805463-20f5-450d-9d32-a27ec1a010f1"}},{"fullUrl":"https://madie.cms.gov/Coverage/7a2db91b-7ad8-4f4a-a06d-13b0d4eca398","resource":{"resourceType":"Coverage","id":"7a2db91b-7ad8-4f4a-a06d-13b0d4eca398","meta":{"profile":["http://hl7.org/fhir/us/qicore/StructureDefinition/qicore-coverage"]},"status":"active","beneficiary":{"reference":"Patient/942af6cd-68bb-42a9-90f0-337477ea1e3f"},"payor":[{"reference":"Organization/db141f66-a1cc-407b-9e95-adac27adee14"}]},"request":{"method":"PUT","url":"Coverage/7a2db91b-7ad8-4f4a-a06d-13b0d4eca398"}},{"fullUrl":"https://madie.cms.gov/Organization/4afcc9ca-4f6f-4958-80f2-ff824553d7d9","resource":{"resourceType":"Organization","id":"db141f66-a1cc-407b-9e95-adac27adee14","meta":{"profile":["http://hl7.org/fhir/us/qicore/StructureDefinition/qicore-organization"]},"identifier":[{"use":"temp","system":"urn:oid:2.16.840.1.113883.4.4","value":"21-3259825"}],"active":true,"type":[{"coding":[{"system":"http://terminology.hl7.org/CodeSystem/organization-type","code":"pay","display":"Payer"}]}],"name":"Blue Cross Blue Shield of Texas","telecom":[{"system":"phone","value":"(+1) 972-766-6900"}],"address":[{"use":"billing","type":"postal","line":["P.O. Box 660044"],"city":"Dallas","state":"TX","postalCode":"75266-0044","country":"USA"}]},"request":{"method":"PUT","url":"Organization/db141f66-a1cc-407b-9e95-adac27adee14"}},{"fullUrl":"https://madie.cms.gov/Practitioner/f4242656-121d-4440-9471-bcf129ad4fa6","resource":{"resourceType":"Practitioner","id":"f4242656-121d-4440-9471-bcf129ad4fa6","identifier":[{"system":"http://hl7.org/fhir/sid/us-npi","value":"123456"}],"name":[{"family":"Evil","prefix":["Dr"]}]},"request":{"method":"PUT","url":"Practitioner/f4242656-121d-4440-9471-bcf129ad4fa6"}},{"fullUrl":"https://madie.cms.gov/MeasureReport/d1407088-464b-44ab-aec8-21b5d5f7daf7","resource":{"resourceType":"MeasureReport","id":"d1407088-464b-44ab-aec8-21b5d5f7daf7","meta":{"profile":["http://hl7.org/fhir/us/cqfmeasures/StructureDefinition/test-case-cqfm"]},"contained":[{"resourceType":"Parameters","id":"8250f683-19aa-469d-812c-044a0a15e5e1-parameters","parameter":[{"name":"subject","valueString":"942af6cd-68bb-42a9-90f0-337477ea1e3f"}]}],"extension":[{"url":"http://hl7.org/fhir/us/cqfmeasures/StructureDefinition/cqfm-inputParameters","valueReference":{"reference":"#8250f683-19aa-469d-812c-044a0a15e5e1-parameters"}},{"url":"http://hl7.org/fhir/us/cqfmeasures/StructureDefinition/cqfm-testCaseDescription","valueMarkdown":"Assessment performed, time of delivery result is missing.\n"}],"modifierExtension":[{"url":"http://hl7.org/fhir/us/cqfmeasures/StructureDefinition/cqfm-isTestCase","valueBoolean":true}],"status":"complete","type":"individual","measure":"https://madie.cms.gov/Measure/CMS1028FHIRPCSevereOBComps","period":{"start":"2025-01-01","end":"2025-12-31"},"group":[{"population":[{"code":{"coding":[{"system":"http://terminology.hl7.org/CodeSystem/measure-population","code":"initial-population","display":"Initial Population"}]},"count":1},{"code":{"coding":[{"system":"http://terminology.hl7.org/CodeSystem/measure-population","code":"denominator","display":"Denominator"}]},"count":0},{"code":{"coding":[{"system":"http://terminology.hl7.org/CodeSystem/measure-population","code":"numerator","display":"Numerator"}]},"count":0},{"code":{"coding":[{"system":"http://terminology.hl7.org/CodeSystem/measure-population","code":"numerator-exclusion","display":"Numerator Exclusion"}]},"count":0}]},{"population":[{"code":{"coding":[{"system":"http://terminology.hl7.org/CodeSystem/measure-population","code":"initial-population","display":"Initial Population"}]},"count":1},{"code":{"coding":[{"system":"http://terminology.hl7.org/CodeSystem/measure-population","code":"denominator","display":"Denominator"}]},"count":0},{"code":{"coding":[{"system":"http://terminology.hl7.org/CodeSystem/measure-population","code":"numerator","display":"Numerator"}]},"count":0},{"code":{"coding":[{"system":"http://terminology.hl7.org/CodeSystem/measure-population","code":"numerator-exclusion","display":"Numerator Exclusion"}]},"count":0}]}]},"request":{"method":"PUT","url":"MeasureReport/d1407088-464b-44ab-aec8-21b5d5f7daf7"}}]}