{"resourceType":"Bundle","id":"tests-e74cd652-0a61-4cf3-9f13-ecd7a7929a07-bundle","type":"transaction","entry":[{"fullUrl":"https://madie.cms.gov/Patient/e74cd652-0a61-4cf3-9f13-ecd7a7929a07","resource":{"resourceType":"Patient","id":"e74cd652-0a61-4cf3-9f13-ecd7a7929a07","meta":{"profile":["http://hl7.org/fhir/us/qicore/StructureDefinition/qicore-patient"]},"text":{"status":"generated","div":"<div xmlns=\"http://www.w3.org/1999/xhtml\"><div class=\"hapiHeaderText\">SMMProcedureMidnightDayOfEDVist <b>NUMPass </b></div><table class=\"hapiPropertyTable\"><tbody><tr><td>Date of birth</td><td><span>01 February 2004</span></td></tr></tbody></table></div>"},"extension":[{"url":"http://hl7.org/fhir/us/core/StructureDefinition/us-core-race","extension":[{"url":"ombCategory","valueCoding":{"system":"urn:oid:2.16.840.1.113883.6.238","code":"1002-5","display":"American Indian or Alaska Native","userSelected":true}},{"url":"text","valueString":"American Indian or Alaska Native"}]},{"url":"http://hl7.org/fhir/us/core/StructureDefinition/us-core-ethnicity","extension":[{"url":"ombCategory","valueCoding":{"system":"urn:oid:2.16.840.1.113883.6.238","code":"2135-2","display":"Hispanic or Latino","userSelected":true}},{"url":"text","valueString":"Hispanic or Latino"}]}],"identifier":[{"type":{"coding":[{"system":"http://terminology.hl7.org/CodeSystem/v2-0203","code":"MR"}]},"system":"https://bonnie-fhir.healthit.gov/","value":"633b3f9f0968f80122503cdb"}],"active":true,"name":[{"use":"usual","family":"NUMPass","given":["SMMProcedureMidnightDayOfEDVist"]}],"gender":"female","birthDate":"2004-02-01"},"request":{"method":"PUT","url":"Patient/e74cd652-0a61-4cf3-9f13-ecd7a7929a07"}},{"fullUrl":"https://madie.cms.gov/Observation/f1c78295-b5d0-4542-a3f3-947c4a31f5b9","resource":{"resourceType":"Observation","id":"f1c78295-b5d0-4542-a3f3-947c4a31f5b9","meta":{"profile":["http://hl7.org/fhir/us/qicore/StructureDefinition/qicore-observation"]},"status":"final","category":[{"coding":[{"system":"http://terminology.hl7.org/CodeSystem/observation-category","code":"exam","display":"exam","userSelected":true}]}],"code":{"coding":[{"system":"http://loinc.org","code":"93857-1"}]},"subject":{"reference":"Patient/e74cd652-0a61-4cf3-9f13-ecd7a7929a07"},"effectiveDateTime":"2025-02-01T08:00:00.000+00:00","valueDateTime":"2025-02-01T08:00:00+00:00"},"request":{"method":"PUT","url":"Observation/f1c78295-b5d0-4542-a3f3-947c4a31f5b9"}},{"fullUrl":"https://madie.cms.gov/Observation/19fdff85-9f63-4187-ba52-2c714515cd92","resource":{"resourceType":"Observation","id":"19fdff85-9f63-4187-ba52-2c714515cd92","meta":{"profile":["http://hl7.org/fhir/us/qicore/StructureDefinition/qicore-observation"]},"status":"final","category":[{"coding":[{"system":"http://terminology.hl7.org/CodeSystem/observation-category","code":"exam","display":"exam","userSelected":true}]}],"code":{"coding":[{"system":"http://loinc.org","code":"11884-4"}]},"subject":{"reference":"Patient/e74cd652-0a61-4cf3-9f13-ecd7a7929a07"},"effectiveDateTime":"2025-02-01T08:00:00.000+00:00","valueQuantity":{"value":20,"system":"http://unitsofmeasure.org","code":"wk"}},"request":{"method":"PUT","url":"Observation/19fdff85-9f63-4187-ba52-2c714515cd92"}},{"fullUrl":"https://madie.cms.gov/Observation/2e15b9b2-d92c-4291-85d3-f0ee880b3eba","resource":{"resourceType":"Observation","id":"2e15b9b2-d92c-4291-85d3-f0ee880b3eba","meta":{"profile":["http://hl7.org/fhir/us/qicore/StructureDefinition/qicore-observation"]},"status":"final","category":[{"coding":[{"system":"http://terminology.hl7.org/CodeSystem/observation-category","code":"exam","display":"exam","userSelected":true}]}],"code":{"coding":[{"system":"http://loinc.org","code":"11884-4"}]},"subject":{"reference":"Patient/e74cd652-0a61-4cf3-9f13-ecd7a7929a07"},"effectiveDateTime":"2025-02-01T08:01:00.000+00:00"},"request":{"method":"PUT","url":"Observation/2e15b9b2-d92c-4291-85d3-f0ee880b3eba"}},{"fullUrl":"https://madie.cms.gov/Encounter/c5f56601-05c4-4183-a6b8-85542ec54159","resource":{"resourceType":"Encounter","id":"c5f56601-05c4-4183-a6b8-85542ec54159","meta":{"profile":["http://hl7.org/fhir/us/qicore/StructureDefinition/qicore-encounter"]},"status":"finished","class":{"system":"http://terminology.hl7.org/CodeSystem/v3-ActCode","code":"IMP","display":"inpatient encounter"},"type":[{"coding":[{"system":"http://snomed.info/sct","code":"183452005"}]}],"subject":{"reference":"Patient/e74cd652-0a61-4cf3-9f13-ecd7a7929a07"},"period":{"start":"2025-02-01T00:10:00.000Z","end":"2025-02-05T08:15:00.000Z"}},"request":{"method":"PUT","url":"Encounter/c5f56601-05c4-4183-a6b8-85542ec54159"}},{"fullUrl":"https://madie.cms.gov/Encounter/c5f56601-05c4-4183-a6b8-85542ec541592","resource":{"resourceType":"Encounter","id":"3651bafa-180b-4ac4-a550-e1918a01066d","meta":{"profile":["http://hl7.org/fhir/us/qicore/StructureDefinition/qicore-encounter"]},"status":"finished","class":{"system":"http://terminology.hl7.org/CodeSystem/v3-ActCode","code":"IMP","display":"inpatient encounter"},"type":[{"coding":[{"system":"http://snomed.info/sct","code":"4525004"}]}],"subject":{"reference":"Patient/e74cd652-0a61-4cf3-9f13-ecd7a7929a07"},"period":{"start":"2025-01-31T08:00:00.000Z","end":"2025-01-31T23:59:00.000Z"}},"request":{"method":"PUT","url":"Encounter/3651bafa-180b-4ac4-a550-e1918a01066d"}},{"fullUrl":"https://madie.cms.gov/Coverage/2aa36e6c-f40a-41c6-ac55-7ca3226582e2","resource":{"resourceType":"Coverage","id":"2aa36e6c-f40a-41c6-ac55-7ca3226582e2","status":"active","beneficiary":{"reference":"Patient/e74cd652-0a61-4cf3-9f13-ecd7a7929a07"},"period":{"start":"2004-02-01T08:00:00.000Z"},"payor":[{"reference":"Organization/db141f66-a1cc-407b-9e95-adac27adee14"}]},"request":{"method":"PUT","url":"Coverage/2aa36e6c-f40a-41c6-ac55-7ca3226582e2"}},{"fullUrl":"https://madie.cms.gov/Procedure/32507a42-d4e8-4681-8ec0-902cb475f0c1","resource":{"resourceType":"Procedure","id":"32507a42-d4e8-4681-8ec0-902cb475f0c1","meta":{"profile":["http://hl7.org/fhir/us/qicore/StructureDefinition/qicore-procedure"]},"extension":[{"url":"http://hl7.org/fhir/us/qicore/StructureDefinition/qicore-recorded","valueDateTime":"2013-04-05T09:35:00-04:00"}],"status":"completed","code":{"coding":[{"system":"http://snomed.info/sct","code":"10745001"}]},"subject":{"reference":"Patient/e74cd652-0a61-4cf3-9f13-ecd7a7929a07"},"performedPeriod":{"start":"2025-02-01T08:00:00.000Z","end":"2025-02-05T08:15:00.000Z"}},"request":{"method":"PUT","url":"Procedure/32507a42-d4e8-4681-8ec0-902cb475f0c1"}},{"fullUrl":"https://madie.cms.gov/Procedure/c9623a5c-c366-42c2-ba2a-265b569e4d1d","resource":{"resourceType":"Procedure","id":"c9623a5c-c366-42c2-ba2a-265b569e4d1d","meta":{"profile":["http://hl7.org/fhir/us/qicore/StructureDefinition/qicore-procedure"]},"extension":[{"url":"http://hl7.org/fhir/us/qicore/StructureDefinition/qicore-recorded","valueDateTime":"2025-02-01T00:01:00-04:00"}],"status":"completed","code":{"coding":[{"system":"http://snomed.info/sct","code":"11050006"}]},"subject":{"reference":"Patient/e74cd652-0a61-4cf3-9f13-ecd7a7929a07"},"performedPeriod":{"start":"2025-01-31T00:00:00.000Z","end":"2025-02-01T11:59:00.000Z"}},"request":{"method":"PUT","url":"Procedure/c9623a5c-c366-42c2-ba2a-265b569e4d1d"}},{"fullUrl":"https://madie.cms.gov/Organization/d5a72dda-e2b1-4bbc-a09c-f3fb9d77f064","resource":{"resourceType":"Organization","id":"db141f66-a1cc-407b-9e95-adac27adee14","meta":{"profile":["http://hl7.org/fhir/us/qicore/StructureDefinition/qicore-organization"]},"identifier":[{"use":"temp","system":"urn:oid:2.16.840.1.113883.4.4","value":"21-3259825"}],"active":true,"type":[{"coding":[{"system":"http://terminology.hl7.org/CodeSystem/organization-type","code":"pay","display":"Payer"}]}],"name":"Blue Cross Blue Shield of Texas","telecom":[{"system":"phone","value":"(+1) 972-766-6900"}],"address":[{"use":"billing","type":"postal","line":["P.O. Box 660044"],"city":"Dallas","state":"TX","postalCode":"75266-0044","country":"USA"}]},"request":{"method":"PUT","url":"Organization/db141f66-a1cc-407b-9e95-adac27adee14"}},{"fullUrl":"https://madie.cms.gov/Practitioner/1e0946ca-af79-403d-afe5-16a03672285f","resource":{"resourceType":"Practitioner","id":"1e0946ca-af79-403d-afe5-16a03672285f","identifier":[{"system":"http://hl7.org/fhir/sid/us-npi","value":"123456"}],"name":[{"family":"Evil","prefix":["Dr"]}]},"request":{"method":"PUT","url":"Practitioner/1e0946ca-af79-403d-afe5-16a03672285f"}},{"fullUrl":"https://madie.cms.gov/MeasureReport/ace8199c-d5b7-4034-ad24-8c98865c8308","resource":{"resourceType":"MeasureReport","id":"ace8199c-d5b7-4034-ad24-8c98865c8308","meta":{"profile":["http://hl7.org/fhir/us/cqfmeasures/StructureDefinition/test-case-cqfm"]},"contained":[{"resourceType":"Parameters","id":"d981a664-04f9-41b2-a9a1-d4837fabd0b1-parameters","parameter":[{"name":"subject","valueString":"e74cd652-0a61-4cf3-9f13-ecd7a7929a07"}]}],"extension":[{"url":"http://hl7.org/fhir/us/cqfmeasures/StructureDefinition/cqfm-inputParameters","valueReference":{"reference":"#d981a664-04f9-41b2-a9a1-d4837fabd0b1-parameters"}},{"url":"http://hl7.org/fhir/us/cqfmeasures/StructureDefinition/cqfm-testCaseDescription","valueMarkdown":"Patient had a SMM Procedure.  Relevant date time midnight day of ED Visit.  Testing Day Of operator\n"}],"modifierExtension":[{"url":"http://hl7.org/fhir/us/cqfmeasures/StructureDefinition/cqfm-isTestCase","valueBoolean":true}],"status":"complete","type":"individual","measure":"https://madie.cms.gov/Measure/CMS1028FHIRPCSevereOBComps","period":{"start":"2025-01-01","end":"2025-12-31"},"group":[{"population":[{"code":{"coding":[{"system":"http://terminology.hl7.org/CodeSystem/measure-population","code":"initial-population","display":"Initial Population"}]},"count":1},{"code":{"coding":[{"system":"http://terminology.hl7.org/CodeSystem/measure-population","code":"denominator","display":"Denominator"}]},"count":1},{"code":{"coding":[{"system":"http://terminology.hl7.org/CodeSystem/measure-population","code":"numerator","display":"Numerator"}]},"count":1},{"code":{"coding":[{"system":"http://terminology.hl7.org/CodeSystem/measure-population","code":"numerator-exclusion","display":"Numerator Exclusion"}]},"count":0}]},{"population":[{"code":{"coding":[{"system":"http://terminology.hl7.org/CodeSystem/measure-population","code":"initial-population","display":"Initial Population"}]},"count":1},{"code":{"coding":[{"system":"http://terminology.hl7.org/CodeSystem/measure-population","code":"denominator","display":"Denominator"}]},"count":1},{"code":{"coding":[{"system":"http://terminology.hl7.org/CodeSystem/measure-population","code":"numerator","display":"Numerator"}]},"count":1},{"code":{"coding":[{"system":"http://terminology.hl7.org/CodeSystem/measure-population","code":"numerator-exclusion","display":"Numerator Exclusion"}]},"count":0}]}]},"request":{"method":"PUT","url":"MeasureReport/ace8199c-d5b7-4034-ad24-8c98865c8308"}}]}