{"resourceType":"Bundle","id":"tests-6c96fedc-959a-415c-9cff-9c3ceb302c4d-bundle","type":"transaction","entry":[{"fullUrl":"https://madie.cms.gov/Patient/6c96fedc-959a-415c-9cff-9c3ceb302c4d","resource":{"resourceType":"Patient","id":"6c96fedc-959a-415c-9cff-9c3ceb302c4d","meta":{"profile":["http://hl7.org/fhir/us/qicore/StructureDefinition/qicore-patient"]},"text":{"status":"generated","div":"<div xmlns=\"http://www.w3.org/1999/xhtml\"><div class=\"hapiHeaderText\">EncDxEQSNOMEDShockPOAisNull <b>NUMFail </b></div><table class=\"hapiPropertyTable\"><tbody><tr><td>Date of birth</td><td><span>01 February 2004</span></td></tr></tbody></table></div>"},"extension":[{"url":"http://hl7.org/fhir/us/core/StructureDefinition/us-core-race","extension":[{"url":"ombCategory","valueCoding":{"system":"urn:oid:2.16.840.1.113883.6.238","code":"1002-5","display":"American Indian or Alaska Native","userSelected":true}},{"url":"text","valueString":"American Indian or Alaska Native"}]},{"url":"http://hl7.org/fhir/us/core/StructureDefinition/us-core-ethnicity","extension":[{"url":"ombCategory","valueCoding":{"system":"urn:oid:2.16.840.1.113883.6.238","code":"2135-2","display":"Hispanic or Latino","userSelected":true}},{"url":"text","valueString":"Hispanic or Latino"}]}],"identifier":[{"type":{"coding":[{"system":"http://terminology.hl7.org/CodeSystem/v2-0203","code":"MR"}]},"system":"https://bonnie-fhir.healthit.gov/","value":"6356dca654e383debade75aa"}],"active":true,"name":[{"use":"usual","family":"NUMFail","given":["EncDxEQSNOMEDShockPOAisNull"]}],"gender":"female","birthDate":"2004-02-01"},"request":{"method":"PUT","url":"Patient/6c96fedc-959a-415c-9cff-9c3ceb302c4d"}},{"fullUrl":"https://madie.cms.gov/Observation/a8d2ea9d-e756-430a-a5bb-ba19db85141a","resource":{"resourceType":"Observation","id":"a8d2ea9d-e756-430a-a5bb-ba19db85141a","meta":{"profile":["http://hl7.org/fhir/us/qicore/StructureDefinition/qicore-observation"]},"status":"final","category":[{"coding":[{"system":"http://terminology.hl7.org/CodeSystem/observation-category","code":"exam","display":"exam","userSelected":true}]}],"code":{"coding":[{"system":"http://loinc.org","code":"93857-1"}]},"subject":{"reference":"Patient/6c96fedc-959a-415c-9cff-9c3ceb302c4d"},"effectiveDateTime":"2025-02-01T08:00:00.000+00:00","valueDateTime":"2025-02-01T08:00:00+00:00"},"request":{"method":"PUT","url":"Observation/a8d2ea9d-e756-430a-a5bb-ba19db85141a"}},{"fullUrl":"https://madie.cms.gov/Observation/566d589a-6462-49aa-bc91-7a18a71d7c85","resource":{"resourceType":"Observation","id":"566d589a-6462-49aa-bc91-7a18a71d7c85","meta":{"profile":["http://hl7.org/fhir/us/qicore/StructureDefinition/qicore-observation"]},"status":"final","category":[{"coding":[{"system":"http://terminology.hl7.org/CodeSystem/observation-category","code":"exam","display":"exam","userSelected":true}]}],"code":{"coding":[{"system":"http://loinc.org","code":"11884-4"}]},"subject":{"reference":"Patient/6c96fedc-959a-415c-9cff-9c3ceb302c4d"},"effectiveDateTime":"2025-02-01T08:00:00.000+00:00","valueQuantity":{"value":21,"system":"http://unitsofmeasure.org","code":"wk"}},"request":{"method":"PUT","url":"Observation/566d589a-6462-49aa-bc91-7a18a71d7c85"}},{"fullUrl":"https://madie.cms.gov/Encounter/351f5d49-3e87-4fad-8cfc-0bd4eeef6cdb","resource":{"resourceType":"Encounter","id":"351f5d49-3e87-4fad-8cfc-0bd4eeef6cdb","meta":{"profile":["http://hl7.org/fhir/us/qicore/StructureDefinition/qicore-encounter"]},"status":"finished","class":{"system":"http://terminology.hl7.org/CodeSystem/v3-ActCode","code":"IMP","display":"inpatient encounter"},"type":[{"coding":[{"system":"http://snomed.info/sct","code":"183452005"}]}],"subject":{"reference":"Patient/6c96fedc-959a-415c-9cff-9c3ceb302c4d"},"period":{"start":"2025-02-01T08:00:00.000Z","end":"2025-02-05T08:15:00.000Z"},"diagnosis":[{"condition":{"reference":"Condition/fb18d1bb-df74-4e19-a442-f40ad781ceda"}}]},"request":{"method":"PUT","url":"Encounter/351f5d49-3e87-4fad-8cfc-0bd4eeef6cdb"}},{"fullUrl":"https://madie.cms.gov/Procedure/638c3361-db56-4154-8447-64ddf04e9c6a","resource":{"resourceType":"Procedure","id":"638c3361-db56-4154-8447-64ddf04e9c6a","meta":{"profile":["http://hl7.org/fhir/us/qicore/StructureDefinition/qicore-procedure"]},"extension":[{"url":"http://hl7.org/fhir/us/qicore/StructureDefinition/qicore-recorded","valueDateTime":"2013-04-05T09:35:00-04:00"}],"status":"completed","code":{"coding":[{"system":"http://snomed.info/sct","code":"10745001"}]},"subject":{"reference":"Patient/6c96fedc-959a-415c-9cff-9c3ceb302c4d"},"performedPeriod":{"start":"2025-02-01T08:00:00.000Z","end":"2025-02-05T08:15:00.000Z"}},"request":{"method":"PUT","url":"Procedure/638c3361-db56-4154-8447-64ddf04e9c6a"}},{"fullUrl":"https://madie.cms.gov/Condition/fb18d1bb-df74-4e19-a442-f40ad781ceda","resource":{"resourceType":"Condition","id":"fb18d1bb-df74-4e19-a442-f40ad781ceda","meta":{"profile":["http://hl7.org/fhir/us/qicore/StructureDefinition/qicore-condition"]},"category":[{"coding":[{"system":"http://terminology.hl7.org/CodeSystem/condition-category","code":"encounter-diagnosis","display":"Encounter Diagnosis"}]}],"code":{"coding":[{"system":"http://snomed.info/sct","version":"2023","code":"1092471000119105","display":"Shock","userSelected":true}]},"subject":{"reference":"Patient/6c96fedc-959a-415c-9cff-9c3ceb302c4d"},"recordedDate":"2025-10-26T08:00:00.000+00:00"},"request":{"method":"PUT","url":"Condition/fb18d1bb-df74-4e19-a442-f40ad781ceda"}},{"fullUrl":"https://madie.cms.gov/Coverage/69fda5da-daba-4625-9b84-ffaaa58c9e29","resource":{"resourceType":"Coverage","id":"69fda5da-daba-4625-9b84-ffaaa58c9e29","meta":{"profile":["http://hl7.org/fhir/us/qicore/StructureDefinition/qicore-coverage"]},"status":"active","beneficiary":{"reference":"Patient/6c96fedc-959a-415c-9cff-9c3ceb302c4d"},"payor":[{"reference":"Organization/e75793c9-fdf6-463a-8c1d-4ee44320dc25"}]},"request":{"method":"PUT","url":"Coverage/69fda5da-daba-4625-9b84-ffaaa58c9e29"}},{"fullUrl":"https://madie.cms.gov/Organization/2046e3fe-a92f-49d5-9328-2140a5413825","resource":{"resourceType":"Organization","id":"e75793c9-fdf6-463a-8c1d-4ee44320dc25","meta":{"profile":["http://hl7.org/fhir/us/qicore/StructureDefinition/qicore-organization"]},"identifier":[{"use":"temp","system":"urn:oid:2.16.840.1.113883.4.4","value":"21-3259825"}],"active":true,"type":[{"coding":[{"system":"http://terminology.hl7.org/CodeSystem/organization-type","code":"pay","display":"Payer"}]}],"name":"Blue Cross Blue Shield of Texas","telecom":[{"system":"phone","value":"(+1) 972-766-6900"}],"address":[{"use":"billing","type":"postal","line":["P.O. Box 660044"],"city":"Dallas","state":"TX","postalCode":"75266-0044","country":"USA"}]},"request":{"method":"PUT","url":"Organization/e75793c9-fdf6-463a-8c1d-4ee44320dc25"}},{"fullUrl":"https://madie.cms.gov/Practitioner/5ea8b423-2ce5-48f8-9897-6281594deb22","resource":{"resourceType":"Practitioner","id":"5ea8b423-2ce5-48f8-9897-6281594deb22","identifier":[{"system":"http://hl7.org/fhir/sid/us-npi","value":"123456"}],"name":[{"family":"Evil","prefix":["Dr"]}]},"request":{"method":"PUT","url":"Practitioner/5ea8b423-2ce5-48f8-9897-6281594deb22"}},{"fullUrl":"https://madie.cms.gov/MeasureReport/077a0fef-b91e-4b94-9bad-4b5d9f208c86","resource":{"resourceType":"MeasureReport","id":"077a0fef-b91e-4b94-9bad-4b5d9f208c86","meta":{"profile":["http://hl7.org/fhir/us/cqfmeasures/StructureDefinition/test-case-cqfm"]},"contained":[{"resourceType":"Parameters","id":"01be02d9-9174-4321-91b3-d15712a00926-parameters","parameter":[{"name":"subject","valueString":"6c96fedc-959a-415c-9cff-9c3ceb302c4d"}]}],"extension":[{"url":"http://hl7.org/fhir/us/cqfmeasures/StructureDefinition/cqfm-inputParameters","valueReference":{"reference":"#01be02d9-9174-4321-91b3-d15712a00926-parameters"}},{"url":"http://hl7.org/fhir/us/cqfmeasures/StructureDefinition/cqfm-testCaseDescription","valueMarkdown":"EncDx= shock.  A SNOMED code is entered and therefore case will fail as SNOMED codes are not in the value set for SMM Diagnoses.\n"}],"modifierExtension":[{"url":"http://hl7.org/fhir/us/cqfmeasures/StructureDefinition/cqfm-isTestCase","valueBoolean":true}],"status":"complete","type":"individual","measure":"https://madie.cms.gov/Measure/CMS1028FHIRPCSevereOBComps","period":{"start":"2025-01-01","end":"2025-12-31"},"group":[{"population":[{"code":{"coding":[{"system":"http://terminology.hl7.org/CodeSystem/measure-population","code":"initial-population","display":"Initial Population"}]},"count":1},{"code":{"coding":[{"system":"http://terminology.hl7.org/CodeSystem/measure-population","code":"denominator","display":"Denominator"}]},"count":1},{"code":{"coding":[{"system":"http://terminology.hl7.org/CodeSystem/measure-population","code":"numerator","display":"Numerator"}]},"count":0},{"code":{"coding":[{"system":"http://terminology.hl7.org/CodeSystem/measure-population","code":"numerator-exclusion","display":"Numerator Exclusion"}]},"count":0}]},{"population":[{"code":{"coding":[{"system":"http://terminology.hl7.org/CodeSystem/measure-population","code":"initial-population","display":"Initial Population"}]},"count":1},{"code":{"coding":[{"system":"http://terminology.hl7.org/CodeSystem/measure-population","code":"denominator","display":"Denominator"}]},"count":1},{"code":{"coding":[{"system":"http://terminology.hl7.org/CodeSystem/measure-population","code":"numerator","display":"Numerator"}]},"count":0},{"code":{"coding":[{"system":"http://terminology.hl7.org/CodeSystem/measure-population","code":"numerator-exclusion","display":"Numerator Exclusion"}]},"count":0}]}]},"request":{"method":"PUT","url":"MeasureReport/077a0fef-b91e-4b94-9bad-4b5d9f208c86"}}]}