{"resourceType":"Bundle","id":"tests-d128dd74-b827-4442-99d6-d9437ad09e07-bundle","type":"transaction","entry":[{"fullUrl":"https://madie.cms.gov/Patient/d128dd74-b827-4442-99d6-d9437ad09e07","resource":{"resourceType":"Patient","id":"d128dd74-b827-4442-99d6-d9437ad09e07","meta":{"profile":["http://hl7.org/fhir/us/qicore/StructureDefinition/qicore-patient"]},"text":{"status":"generated","div":"<div xmlns=\"http://www.w3.org/1999/xhtml\"><div class=\"hapiHeaderText\">2HCT1stMeets2ndDoesNot <b>RISKPass </b></div><table class=\"hapiPropertyTable\"><tbody><tr><td>Date of birth</td><td><span>01 February 2004</span></td></tr></tbody></table></div>"},"extension":[{"url":"http://hl7.org/fhir/us/core/StructureDefinition/us-core-race","extension":[{"url":"ombCategory","valueCoding":{"system":"urn:oid:2.16.840.1.113883.6.238","code":"1002-5","display":"American Indian or Alaska Native","userSelected":true}},{"url":"text","valueString":"American Indian or Alaska Native"}]},{"url":"http://hl7.org/fhir/us/core/StructureDefinition/us-core-ethnicity","extension":[{"url":"ombCategory","valueCoding":{"system":"urn:oid:2.16.840.1.113883.6.238","code":"2135-2","display":"Hispanic or Latino","userSelected":true}},{"url":"text","valueString":"Hispanic or Latino"}]}],"identifier":[{"type":{"coding":[{"system":"http://terminology.hl7.org/CodeSystem/v2-0203","code":"MR"}]},"system":"https://bonnie-fhir.healthit.gov/","value":"6359776b6aee9629c8298235"}],"active":true,"name":[{"use":"usual","family":"RiskPass","given":["2HCT1stMeets2ndDoesNot"]}],"gender":"female","birthDate":"2004-02-01"},"request":{"method":"PUT","url":"Patient/d128dd74-b827-4442-99d6-d9437ad09e07"}},{"fullUrl":"https://madie.cms.gov/Observation/9269ad70-6743-4792-b993-561d4ef320c7","resource":{"resourceType":"Observation","id":"9269ad70-6743-4792-b993-561d4ef320c7","meta":{"profile":["http://hl7.org/fhir/us/qicore/StructureDefinition/qicore-observation"]},"status":"final","category":[{"coding":[{"system":"http://terminology.hl7.org/CodeSystem/observation-category","code":"exam","display":"exam","userSelected":true}]}],"code":{"coding":[{"system":"http://loinc.org","code":"93857-1"}]},"subject":{"reference":"Patient/d128dd74-b827-4442-99d6-d9437ad09e07"},"effectiveDateTime":"2025-02-01T08:00:00.000+00:00","valueDateTime":"2025-02-01T08:00:00+00:00"},"request":{"method":"PUT","url":"Observation/9269ad70-6743-4792-b993-561d4ef320c7"}},{"fullUrl":"https://madie.cms.gov/Observation/d51a0a62-83e4-4fb6-869b-2230744c7dc8","resource":{"resourceType":"Observation","id":"d51a0a62-83e4-4fb6-869b-2230744c7dc8","meta":{"profile":["http://hl7.org/fhir/us/qicore/StructureDefinition/qicore-observation"]},"status":"final","category":[{"coding":[{"system":"http://terminology.hl7.org/CodeSystem/observation-category","code":"exam","display":"exam","userSelected":true}]}],"code":{"coding":[{"system":"http://loinc.org","code":"11884-4"}]},"subject":{"reference":"Patient/d128dd74-b827-4442-99d6-d9437ad09e07"},"effectiveDateTime":"2025-02-01T08:00:00.000+00:00","valueQuantity":{"value":21,"system":"http://unitsofmeasure.org","code":"wk"}},"request":{"method":"PUT","url":"Observation/d51a0a62-83e4-4fb6-869b-2230744c7dc8"}},{"fullUrl":"https://madie.cms.gov/Encounter/27779414-900e-485e-a1b2-262c1c97cd73","resource":{"resourceType":"Encounter","id":"27779414-900e-485e-a1b2-262c1c97cd73","meta":{"profile":["http://hl7.org/fhir/us/qicore/StructureDefinition/qicore-encounter"]},"status":"finished","class":{"system":"http://terminology.hl7.org/CodeSystem/v3-ActCode","code":"IMP","display":"inpatient encounter"},"type":[{"coding":[{"system":"http://snomed.info/sct","code":"183452005"}]}],"subject":{"reference":"Patient/d128dd74-b827-4442-99d6-d9437ad09e07"},"period":{"start":"2025-02-01T08:00:00.000Z","end":"2025-02-05T08:15:00.000Z"}},"request":{"method":"PUT","url":"Encounter/27779414-900e-485e-a1b2-262c1c97cd73"}},{"fullUrl":"https://madie.cms.gov/Encounter/64fa8ca3-63ea-4cf9-88e9-a272aada4631","resource":{"resourceType":"Encounter","id":"64fa8ca3-63ea-4cf9-88e9-a272aada4631","meta":{"profile":["http://hl7.org/fhir/us/qicore/StructureDefinition/qicore-encounter"]},"status":"finished","class":{"system":"http://terminology.hl7.org/CodeSystem/v3-ActCode","code":"EMER","display":"emergency"},"type":[{"coding":[{"system":"http://snomed.info/sct","code":"4525004"}]}],"subject":{"reference":"Patient/d128dd74-b827-4442-99d6-d9437ad09e07"},"period":{"start":"2025-02-01T07:00:00.000Z","end":"2025-02-01T07:59:00.000Z"}},"request":{"method":"PUT","url":"Encounter/64fa8ca3-63ea-4cf9-88e9-a272aada4631"}},{"fullUrl":"https://madie.cms.gov/Procedure/f6ca7099-893d-46d3-b789-b91bb6249377","resource":{"resourceType":"Procedure","id":"f6ca7099-893d-46d3-b789-b91bb6249377","meta":{"profile":["http://hl7.org/fhir/us/qicore/StructureDefinition/qicore-procedure"]},"extension":[{"url":"http://hl7.org/fhir/us/qicore/StructureDefinition/qicore-recorded","valueDateTime":"2025-02-04T09:35:00-04:00"}],"status":"completed","code":{"coding":[{"system":"http://snomed.info/sct","code":"10745001"}]},"subject":{"reference":"Patient/d128dd74-b827-4442-99d6-d9437ad09e07"},"performedPeriod":{"start":"2025-02-01T08:00:00.000Z","end":"2025-02-05T08:15:00.000Z"}},"request":{"method":"PUT","url":"Procedure/f6ca7099-893d-46d3-b789-b91bb6249377"}},{"fullUrl":"https://madie.cms.gov/Observation/7c9de898-997a-4f7e-8829-5d075fbd0fcf","resource":{"resourceType":"Observation","id":"7c9de898-997a-4f7e-8829-5d075fbd0fcf","meta":{"profile":["http://hl7.org/fhir/us/core/StructureDefinition/us-core-observation-lab"]},"status":"final","category":[{"coding":[{"system":"http://terminology.hl7.org/CodeSystem/observation-category","code":"laboratory","display":"laboratory","userSelected":true}]}],"code":{"coding":[{"system":"http://loinc.org","version":"2.73","code":"20570-8","display":"Hematocrit [Volume Fraction] in Blood","userSelected":true}]},"subject":{"reference":"Patient/d128dd74-b827-4442-99d6-d9437ad09e07"},"effectiveDateTime":"2025-02-01T07:59:00.000+00:00","issued":"2025-02-01T07:59:00.000+00:00","valueQuantity":{"value":20,"unit":"%"}},"request":{"method":"PUT","url":"Observation/7c9de898-997a-4f7e-8829-5d075fbd0fcf"}},{"fullUrl":"https://madie.cms.gov/Observation/7c9de898-997a-4f7e-8829-5d075fbd0fcf-b","resource":{"resourceType":"Observation","id":"78b84ae7-989a-41e3-b31d-eb5c6e2b7aae","meta":{"profile":["http://hl7.org/fhir/us/core/StructureDefinition/us-core-observation-lab"]},"status":"final","category":[{"coding":[{"system":"http://terminology.hl7.org/CodeSystem/observation-category","code":"laboratory","display":"laboratory","userSelected":true}]}],"code":{"coding":[{"system":"http://loinc.org","version":"2.73","code":"20570-8","display":"Hematocrit [Volume Fraction] in Blood","userSelected":true}]},"subject":{"reference":"Patient/d128dd74-b827-4442-99d6-d9437ad09e07"},"effectiveDateTime":"2025-02-01T07:59:00.000+00:00","issued":"2025-02-01T08:00:00.000+00:00","valueQuantity":{"value":20,"unit":"%"}},"request":{"method":"PUT","url":"Observation/78b84ae7-989a-41e3-b31d-eb5c6e2b7aae"}},{"fullUrl":"https://madie.cms.gov/MeasureReport/252c02c1-b896-4486-869d-7b9ac7cd4f28","resource":{"resourceType":"MeasureReport","id":"252c02c1-b896-4486-869d-7b9ac7cd4f28","meta":{"profile":["http://hl7.org/fhir/us/cqfmeasures/StructureDefinition/test-case-cqfm"]},"contained":[{"resourceType":"Parameters","id":"409e6d5c-4479-424a-af2e-5feef5d1d34a-parameters","parameter":[{"name":"subject","valueString":"d128dd74-b827-4442-99d6-d9437ad09e07"}]}],"extension":[{"url":"http://hl7.org/fhir/us/cqfmeasures/StructureDefinition/cqfm-inputParameters","valueReference":{"reference":"#409e6d5c-4479-424a-af2e-5feef5d1d34a-parameters"}},{"url":"http://hl7.org/fhir/us/cqfmeasures/StructureDefinition/cqfm-testCaseDescription","valueMarkdown":"Patient with 2 hematocrits during encounter.  1st one meets timing parameter, second does not.\n"}],"modifierExtension":[{"url":"http://hl7.org/fhir/us/cqfmeasures/StructureDefinition/cqfm-isTestCase","valueBoolean":true}],"status":"complete","type":"individual","measure":"https://madie.cms.gov/Measure/CMS1028FHIRPCSevereOBComps","period":{"start":"2025-01-01","end":"2025-12-31"},"group":[{"population":[{"code":{"coding":[{"system":"http://terminology.hl7.org/CodeSystem/measure-population","code":"initial-population","display":"Initial Population"}]},"count":1},{"code":{"coding":[{"system":"http://terminology.hl7.org/CodeSystem/measure-population","code":"denominator","display":"Denominator"}]},"count":1},{"code":{"coding":[{"system":"http://terminology.hl7.org/CodeSystem/measure-population","code":"numerator","display":"Numerator"}]},"count":0},{"code":{"coding":[{"system":"http://terminology.hl7.org/CodeSystem/measure-population","code":"numerator-exclusion","display":"Numerator Exclusion"}]},"count":0}]},{"population":[{"code":{"coding":[{"system":"http://terminology.hl7.org/CodeSystem/measure-population","code":"initial-population","display":"Initial Population"}]},"count":1},{"code":{"coding":[{"system":"http://terminology.hl7.org/CodeSystem/measure-population","code":"denominator","display":"Denominator"}]},"count":1},{"code":{"coding":[{"system":"http://terminology.hl7.org/CodeSystem/measure-population","code":"numerator","display":"Numerator"}]},"count":0},{"code":{"coding":[{"system":"http://terminology.hl7.org/CodeSystem/measure-population","code":"numerator-exclusion","display":"Numerator Exclusion"}]},"count":0}]}]},"request":{"method":"PUT","url":"MeasureReport/252c02c1-b896-4486-869d-7b9ac7cd4f28"}}]}