{"resourceType":"Bundle","id":"tests-b2d27ac4-8709-4296-85a4-598d9ef02fe7-bundle","type":"transaction","entry":[{"fullUrl":"https://madie.cms.gov/Patient/b2d27ac4-8709-4296-85a4-598d9ef02fe7","resource":{"resourceType":"Patient","id":"b2d27ac4-8709-4296-85a4-598d9ef02fe7","meta":{"profile":["http://hl7.org/fhir/us/qicore/StructureDefinition/qicore-patient"]},"text":{"status":"generated","div":"<div xmlns=\"http://www.w3.org/1999/xhtml\"><div class=\"hapiHeaderText\">AssPrfDELRsltDtTime_EQIPStart <b>DENOMPASS </b></div><table class=\"hapiPropertyTable\"><tbody><tr><td>Date of birth</td><td><span>01 February 2004</span></td></tr></tbody></table></div>"},"extension":[{"url":"http://hl7.org/fhir/us/core/StructureDefinition/us-core-race","extension":[{"url":"ombCategory","valueCoding":{"system":"urn:oid:2.16.840.1.113883.6.238","code":"1002-5","display":"American Indian or Alaska Native","userSelected":true}},{"url":"text","valueString":"American Indian or Alaska Native"}]},{"url":"http://hl7.org/fhir/us/core/StructureDefinition/us-core-ethnicity","extension":[{"url":"ombCategory","valueCoding":{"system":"urn:oid:2.16.840.1.113883.6.238","code":"2135-2","display":"Hispanic or Latino","userSelected":true}},{"url":"text","valueString":"Hispanic or Latino"}]}],"identifier":[{"type":{"coding":[{"system":"http://terminology.hl7.org/CodeSystem/v2-0203","code":"MR"}]},"system":"https://bonnie-fhir.healthit.gov/","value":"6356cc6154e383debade759d"}],"active":true,"name":[{"use":"usual","family":"DENOMFail","given":["LastAssPrfEDDRelvTm42WksB4DelDtTimeEDDResultIsNull"]}],"gender":"female","birthDate":"1970-02-01"},"request":{"method":"PUT","url":"Patient/b2d27ac4-8709-4296-85a4-598d9ef02fe7"}},{"fullUrl":"https://madie.cms.gov/Observation/6c04d381-a945-4098-9536-c9946b6ad4d7","resource":{"resourceType":"Observation","id":"6c04d381-a945-4098-9536-c9946b6ad4d7","meta":{"profile":["http://hl7.org/fhir/us/qicore/StructureDefinition/qicore-observation"]},"status":"final","category":[{"coding":[{"system":"http://terminology.hl7.org/CodeSystem/observation-category","code":"exam","display":"exam","userSelected":true}]}],"code":{"coding":[{"system":"http://loinc.org","code":"93857-1"}]},"subject":{"reference":"Patient/b2d27ac4-8709-4296-85a4-598d9ef02fe7"},"effectiveDateTime":"2025-02-01T08:00:00.000+00:00","valueDateTime":"2025-02-01T08:00:00+00:00"},"request":{"method":"PUT","url":"Observation/6c04d381-a945-4098-9536-c9946b6ad4d7"}},{"fullUrl":"https://madie.cms.gov/Observation/6de5814f-a839-4725-9a49-169888e1d432","resource":{"resourceType":"Observation","id":"6de5814f-a839-4725-9a49-169888e1d432","meta":{"profile":["http://hl7.org/fhir/us/qicore/StructureDefinition/qicore-observation"]},"status":"final","category":[{"coding":[{"system":"http://terminology.hl7.org/CodeSystem/observation-category","code":"exam","display":"exam","userSelected":true}]}],"code":{"coding":[{"system":"http://loinc.org","code":"11778-8"}]},"subject":{"reference":"Patient/b2d27ac4-8709-4296-85a4-598d9ef02fe7"},"effectiveDateTime":"2024-04-13T08:00:00.000+00:00"},"request":{"method":"PUT","url":"Observation/6de5814f-a839-4725-9a49-169888e1d432"}},{"fullUrl":"https://madie.cms.gov/Encounter/0e8ff1fe-8f9c-4765-82d2-17c47edbec85","resource":{"resourceType":"Encounter","id":"0e8ff1fe-8f9c-4765-82d2-17c47edbec85","meta":{"profile":["http://hl7.org/fhir/us/qicore/StructureDefinition/qicore-encounter"]},"status":"finished","class":{"system":"http://terminology.hl7.org/CodeSystem/v3-ActCode","code":"IMP","display":"inpatient encounter"},"type":[{"coding":[{"system":"http://snomed.info/sct","code":"183452005"},{"system":"http://snomed.info/sct","code":"32485007","userSelected":true}]}],"subject":{"reference":"Patient/b2d27ac4-8709-4296-85a4-598d9ef02fe7"},"period":{"start":"2025-01-30T08:00:00.000+00:00","end":"2025-02-05T08:15:00.000+00:00"}},"request":{"method":"PUT","url":"Encounter/0e8ff1fe-8f9c-4765-82d2-17c47edbec85"}},{"fullUrl":"https://madie.cms.gov/Procedure/276eaaa6-1e6b-403c-b4af-dba7653c020d","resource":{"resourceType":"Procedure","id":"276eaaa6-1e6b-403c-b4af-dba7653c020d","meta":{"profile":["http://hl7.org/fhir/us/qicore/StructureDefinition/qicore-procedure"]},"extension":[{"url":"http://hl7.org/fhir/us/qicore/StructureDefinition/qicore-recorded","valueDateTime":"2013-04-05T09:35:00-04:00"}],"status":"completed","code":{"coding":[{"system":"http://snomed.info/sct","code":"10745001"},{"system":"http://snomed.info/sct","code":"11466000","userSelected":true}]},"subject":{"reference":"Patient/b2d27ac4-8709-4296-85a4-598d9ef02fe7"},"performedPeriod":{"start":"2025-02-01T08:00:00.000Z","end":"2025-02-05T08:15:00.000Z"}},"request":{"method":"PUT","url":"Procedure/276eaaa6-1e6b-403c-b4af-dba7653c020d"}},{"fullUrl":"https://madie.cms.gov/Coverage/5b675246-2140-46de-b299-bf79964c1ce3","resource":{"resourceType":"Coverage","id":"5b675246-2140-46de-b299-bf79964c1ce3","meta":{"profile":["http://hl7.org/fhir/us/qicore/StructureDefinition/qicore-coverage"]},"status":"active","beneficiary":{"reference":"Patient/b2d27ac4-8709-4296-85a4-598d9ef02fe7"},"payor":[{"reference":"Organization/e75793c9-fdf6-463a-8c1d-4ee44320dc25"}]},"request":{"method":"PUT","url":"Coverage/5b675246-2140-46de-b299-bf79964c1ce3"}},{"fullUrl":"https://madie.cms.gov/Organization/35758697-f8c8-4e44-9dcf-b5c5bf79823e","resource":{"resourceType":"Organization","id":"e75793c9-fdf6-463a-8c1d-4ee44320dc25","meta":{"profile":["http://hl7.org/fhir/us/qicore/StructureDefinition/qicore-organization"]},"identifier":[{"use":"temp","system":"urn:oid:2.16.840.1.113883.4.4","value":"21-3259825"}],"active":true,"type":[{"coding":[{"system":"http://terminology.hl7.org/CodeSystem/organization-type","code":"pay","display":"Payer"}]}],"name":"Blue Cross Blue Shield of Texas","telecom":[{"system":"phone","value":"(+1) 972-766-6900"}],"address":[{"use":"billing","type":"postal","line":["P.O. Box 660044"],"city":"Dallas","state":"TX","postalCode":"75266-0044","country":"USA"}]},"request":{"method":"PUT","url":"Organization/e75793c9-fdf6-463a-8c1d-4ee44320dc25"}},{"fullUrl":"https://madie.cms.gov/Practitioner/09824027-365d-44b9-895d-4ee9f2887587","resource":{"resourceType":"Practitioner","id":"09824027-365d-44b9-895d-4ee9f2887587","identifier":[{"system":"http://hl7.org/fhir/sid/us-npi","value":"123456"}],"name":[{"family":"Evil","prefix":["Dr"]}]},"request":{"method":"PUT","url":"Practitioner/09824027-365d-44b9-895d-4ee9f2887587"}},{"fullUrl":"https://madie.cms.gov/MeasureReport/2b6c1183-ef42-42c8-9a53-eb4c611822ba","resource":{"resourceType":"MeasureReport","id":"2b6c1183-ef42-42c8-9a53-eb4c611822ba","meta":{"profile":["http://hl7.org/fhir/us/cqfmeasures/StructureDefinition/test-case-cqfm"]},"contained":[{"resourceType":"Parameters","id":"60f29cd9-d865-4a68-ab54-9e6e7b7a96a3-parameters","parameter":[{"name":"subject","valueString":"b2d27ac4-8709-4296-85a4-598d9ef02fe7"}]}],"extension":[{"url":"http://hl7.org/fhir/us/cqfmeasures/StructureDefinition/cqfm-inputParameters","valueReference":{"reference":"#60f29cd9-d865-4a68-ab54-9e6e7b7a96a3-parameters"}},{"url":"http://hl7.org/fhir/us/cqfmeasures/StructureDefinition/cqfm-testCaseDescription","valueMarkdown":"Last assessment Performed, Estimated Delivery Date, Relevant time, 42 weeks before Delivery Result Date/Time.  However, EDD Result is null.\n"}],"modifierExtension":[{"url":"http://hl7.org/fhir/us/cqfmeasures/StructureDefinition/cqfm-isTestCase","valueBoolean":true}],"status":"complete","type":"individual","measure":"https://madie.cms.gov/Measure/CMS1028FHIRPCSevereOBComps","period":{"start":"2025-01-01","end":"2025-12-31"},"group":[{"population":[{"code":{"coding":[{"system":"http://terminology.hl7.org/CodeSystem/measure-population","code":"initial-population","display":"Initial Population"}]},"count":1},{"code":{"coding":[{"system":"http://terminology.hl7.org/CodeSystem/measure-population","code":"denominator","display":"Denominator"}]},"count":0},{"code":{"coding":[{"system":"http://terminology.hl7.org/CodeSystem/measure-population","code":"numerator","display":"Numerator"}]},"count":0},{"code":{"coding":[{"system":"http://terminology.hl7.org/CodeSystem/measure-population","code":"numerator-exclusion","display":"Numerator Exclusion"}]},"count":0}]},{"population":[{"code":{"coding":[{"system":"http://terminology.hl7.org/CodeSystem/measure-population","code":"initial-population","display":"Initial Population"}]},"count":1},{"code":{"coding":[{"system":"http://terminology.hl7.org/CodeSystem/measure-population","code":"denominator","display":"Denominator"}]},"count":0},{"code":{"coding":[{"system":"http://terminology.hl7.org/CodeSystem/measure-population","code":"numerator","display":"Numerator"}]},"count":0},{"code":{"coding":[{"system":"http://terminology.hl7.org/CodeSystem/measure-population","code":"numerator-exclusion","display":"Numerator Exclusion"}]},"count":0}]}]},"request":{"method":"PUT","url":"MeasureReport/2b6c1183-ef42-42c8-9a53-eb4c611822ba"}}]}