{"resourceType":"Bundle","id":"tests-6fe7d963-52f2-4775-a428-73f2080e3ba3-bundle","type":"transaction","entry":[{"fullUrl":"https://madie.cms.gov/Patient/6fe7d963-52f2-4775-a428-73f2080e3ba3","resource":{"resourceType":"Patient","id":"6fe7d963-52f2-4775-a428-73f2080e3ba3","meta":{"profile":["http://hl7.org/fhir/us/qicore/StructureDefinition/qicore-patient"]},"text":{"status":"generated","div":"<div xmlns=\"http://www.w3.org/1999/xhtml\"><div class=\"hapiHeaderText\">Age64Yrs364DaysOnDayOfEncStart <b>IPPASS </b></div><table class=\"hapiPropertyTable\"><tbody><tr><td>Date of birth</td><td><span>02 February 1947</span></td></tr></tbody></table></div>"},"extension":[{"url":"http://hl7.org/fhir/us/core/StructureDefinition/us-core-race","extension":[{"url":"ombCategory","valueCoding":{"system":"urn:oid:2.16.840.1.113883.6.238","code":"1002-5","display":"American Indian or Alaska Native","userSelected":true}},{"url":"text","valueString":"American Indian or Alaska Native"}]},{"url":"http://hl7.org/fhir/us/core/StructureDefinition/us-core-ethnicity","extension":[{"url":"ombCategory","valueCoding":{"system":"urn:oid:2.16.840.1.113883.6.238","code":"2135-2","display":"Hispanic or Latino","userSelected":true}},{"url":"text","valueString":"Hispanic or Latino"}]}],"identifier":[{"type":{"coding":[{"system":"http://terminology.hl7.org/CodeSystem/v2-0203","code":"MR"}]},"system":"https://bonnie-fhir.healthit.gov/","value":"633b3f9e0968f80122503cbf"}],"active":true,"name":[{"use":"usual","family":"IPPass","given":["Age64Yrs364DaysOnDayOfEncStart"]}],"gender":"female","birthDate":"1960-02-02"},"request":{"method":"PUT","url":"Patient/6fe7d963-52f2-4775-a428-73f2080e3ba3"}},{"fullUrl":"https://madie.cms.gov/Encounter/1fcf3ce8-8039-4f64-a7f1-88f1f592e392","resource":{"resourceType":"Encounter","id":"1fcf3ce8-8039-4f64-a7f1-88f1f592e392","meta":{"profile":["http://hl7.org/fhir/us/qicore/StructureDefinition/qicore-encounter"]},"status":"finished","class":{"system":"http://terminology.hl7.org/CodeSystem/v3-ActCode","code":"IMP","display":"inpatient encounter"},"type":[{"coding":[{"system":"http://snomed.info/sct","code":"183452005"}]}],"subject":{"reference":"Patient/6fe7d963-52f2-4775-a428-73f2080e3ba3"},"period":{"start":"2025-02-01T08:00:00.000Z","end":"2025-02-05T08:15:00.000Z"}},"request":{"method":"PUT","url":"Encounter/1fcf3ce8-8039-4f64-a7f1-88f1f592e392"}},{"fullUrl":"https://madie.cms.gov/Procedure/5ed759b4-5585-401d-ab28-d1ec3db7dc06","resource":{"resourceType":"Procedure","id":"5ed759b4-5585-401d-ab28-d1ec3db7dc06","meta":{"profile":["http://hl7.org/fhir/us/qicore/StructureDefinition/qicore-procedure"]},"extension":[{"url":"http://hl7.org/fhir/us/qicore/StructureDefinition/qicore-recorded","valueDateTime":"2013-04-05T09:35:00-04:00"}],"status":"completed","code":{"coding":[{"system":"http://snomed.info/sct","code":"10745001"}]},"subject":{"reference":"Patient/6fe7d963-52f2-4775-a428-73f2080e3ba3"},"performedPeriod":{"start":"2025-02-01T08:00:00.000Z","end":"2025-02-05T08:15:00.000Z"}},"request":{"method":"PUT","url":"Procedure/5ed759b4-5585-401d-ab28-d1ec3db7dc06"}},{"fullUrl":"https://madie.cms.gov/Coverage/0d799094-a5b7-4b1b-a91d-64edf86f2285","resource":{"resourceType":"Coverage","id":"0d799094-a5b7-4b1b-a91d-64edf86f2285","meta":{"profile":["http://hl7.org/fhir/us/qicore/StructureDefinition/qicore-coverage"]},"status":"active","beneficiary":{"reference":"Patient/6fe7d963-52f2-4775-a428-73f2080e3ba3"},"payor":[{"reference":"Organization/5ad6ea38-07e9-4482-9e1b-c09eee595be9"}]},"request":{"method":"PUT","url":"Coverage/0d799094-a5b7-4b1b-a91d-64edf86f2285"}},{"fullUrl":"https://madie.cms.gov/Organization/8231c8cd-278f-4a9f-b519-74b7625fb4d9","resource":{"resourceType":"Organization","id":"5ad6ea38-07e9-4482-9e1b-c09eee595be9","meta":{"profile":["http://hl7.org/fhir/us/qicore/StructureDefinition/qicore-organization"]},"identifier":[{"use":"temp","system":"urn:oid:2.16.840.1.113883.4.4","value":"21-3259825"}],"active":true,"type":[{"coding":[{"system":"http://terminology.hl7.org/CodeSystem/organization-type","code":"pay","display":"Payer"}]}],"name":"Blue Cross Blue Shield of Texas","telecom":[{"system":"phone","value":"(+1) 972-766-6900"}],"address":[{"use":"billing","type":"postal","line":["P.O. Box 660044"],"city":"Dallas","state":"TX","postalCode":"75266-0044","country":"USA"}]},"request":{"method":"PUT","url":"Organization/5ad6ea38-07e9-4482-9e1b-c09eee595be9"}},{"fullUrl":"https://madie.cms.gov/Practitioner/3cacbdcd-d44d-4e93-b1a1-4463d8af7fcf","resource":{"resourceType":"Practitioner","id":"3cacbdcd-d44d-4e93-b1a1-4463d8af7fcf","identifier":[{"system":"http://hl7.org/fhir/sid/us-npi","value":"123456"}],"name":[{"family":"Evil","prefix":["Dr"]}]},"request":{"method":"PUT","url":"Practitioner/3cacbdcd-d44d-4e93-b1a1-4463d8af7fcf"}},{"fullUrl":"https://madie.cms.gov/MeasureReport/b8701824-8057-44f3-bb15-43b06bd88b1f","resource":{"resourceType":"MeasureReport","id":"b8701824-8057-44f3-bb15-43b06bd88b1f","meta":{"profile":["http://hl7.org/fhir/us/cqfmeasures/StructureDefinition/test-case-cqfm"]},"contained":[{"resourceType":"Parameters","id":"9eec8d5a-1445-40ff-b4d4-7fbc7d7c092a-parameters","parameter":[{"name":"subject","valueString":"6fe7d963-52f2-4775-a428-73f2080e3ba3"}]}],"extension":[{"url":"http://hl7.org/fhir/us/cqfmeasures/StructureDefinition/cqfm-inputParameters","valueReference":{"reference":"#9eec8d5a-1445-40ff-b4d4-7fbc7d7c092a-parameters"}},{"url":"http://hl7.org/fhir/us/cqfmeasures/StructureDefinition/cqfm-testCaseDescription","valueMarkdown":"Patient is 64 years and 364 days of age on day encounter starts.\n"}],"modifierExtension":[{"url":"http://hl7.org/fhir/us/cqfmeasures/StructureDefinition/cqfm-isTestCase","valueBoolean":true}],"status":"complete","type":"individual","measure":"https://madie.cms.gov/Measure/CMS1028FHIRPCSevereOBComps","period":{"start":"2025-01-01","end":"2025-12-31"},"group":[{"population":[{"code":{"coding":[{"system":"http://terminology.hl7.org/CodeSystem/measure-population","code":"initial-population","display":"Initial Population"}]},"count":1},{"code":{"coding":[{"system":"http://terminology.hl7.org/CodeSystem/measure-population","code":"denominator","display":"Denominator"}]},"count":0},{"code":{"coding":[{"system":"http://terminology.hl7.org/CodeSystem/measure-population","code":"numerator","display":"Numerator"}]},"count":0},{"code":{"coding":[{"system":"http://terminology.hl7.org/CodeSystem/measure-population","code":"numerator-exclusion","display":"Numerator Exclusion"}]},"count":0}]},{"population":[{"code":{"coding":[{"system":"http://terminology.hl7.org/CodeSystem/measure-population","code":"initial-population","display":"Initial Population"}]},"count":1},{"code":{"coding":[{"system":"http://terminology.hl7.org/CodeSystem/measure-population","code":"denominator","display":"Denominator"}]},"count":0},{"code":{"coding":[{"system":"http://terminology.hl7.org/CodeSystem/measure-population","code":"numerator","display":"Numerator"}]},"count":0},{"code":{"coding":[{"system":"http://terminology.hl7.org/CodeSystem/measure-population","code":"numerator-exclusion","display":"Numerator Exclusion"}]},"count":0}]}]},"request":{"method":"PUT","url":"MeasureReport/b8701824-8057-44f3-bb15-43b06bd88b1f"}}]}