{"resourceType":"Bundle","id":"tests-134ba0d1-1c06-4eb0-b2ec-46f30421d947-bundle","type":"transaction","entry":[{"fullUrl":"https://madie.cms.gov/Patient/134ba0d1-1c06-4eb0-b2ec-46f30421d947","resource":{"resourceType":"Patient","id":"134ba0d1-1c06-4eb0-b2ec-46f30421d947","meta":{"profile":["http://hl7.org/fhir/us/qicore/StructureDefinition/qicore-patient"]},"text":{"status":"generated","div":"<div xmlns=\"http://www.w3.org/1999/xhtml\"><div class=\"hapiHeaderText\">Age GT65 <b>IPFAIL </b></div><table class=\"hapiPropertyTable\"><tbody><tr><td>Date of birth</td><td><span>01 February 1946</span></td></tr></tbody></table></div>"},"extension":[{"url":"http://hl7.org/fhir/us/core/StructureDefinition/us-core-race","extension":[{"url":"ombCategory","valueCoding":{"system":"urn:oid:2.16.840.1.113883.6.238","code":"1002-5","display":"American Indian or Alaska Native","userSelected":true}},{"url":"text","valueString":"American Indian or Alaska Native"}]},{"url":"http://hl7.org/fhir/us/core/StructureDefinition/us-core-ethnicity","extension":[{"url":"ombCategory","valueCoding":{"system":"urn:oid:2.16.840.1.113883.6.238","code":"2135-2","display":"Hispanic or Latino","userSelected":true}},{"url":"text","valueString":"Hispanic or Latino"}]}],"identifier":[{"type":{"coding":[{"system":"http://terminology.hl7.org/CodeSystem/v2-0203","code":"MR"}]},"system":"https://bonnie-fhir.healthit.gov/","value":"633b3f9f0968f80122503ce9"}],"active":true,"name":[{"use":"usual","family":"IPFail","given":["Age GT65"]}],"gender":"female","birthDate":"1958-02-01"},"request":{"method":"PUT","url":"Patient/134ba0d1-1c06-4eb0-b2ec-46f30421d947"}},{"fullUrl":"https://madie.cms.gov/Encounter/6867c63c-10a5-414d-b164-a37b6269f5d9","resource":{"resourceType":"Encounter","id":"6867c63c-10a5-414d-b164-a37b6269f5d9","meta":{"profile":["http://hl7.org/fhir/us/qicore/StructureDefinition/qicore-encounter"]},"status":"finished","class":{"system":"http://terminology.hl7.org/CodeSystem/v3-ActCode","code":"IMP","display":"inpatient encounter"},"type":[{"coding":[{"system":"http://snomed.info/sct","code":"183452005"}]}],"subject":{"reference":"Patient/134ba0d1-1c06-4eb0-b2ec-46f30421d947"},"period":{"start":"2025-02-01T08:00:00.000Z","end":"2025-02-05T08:15:00.000Z"}},"request":{"method":"PUT","url":"Encounter/6867c63c-10a5-414d-b164-a37b6269f5d9"}},{"fullUrl":"https://madie.cms.gov/Procedure/ccd96258-c3f3-4e29-94be-9b0575ceb0e5","resource":{"resourceType":"Procedure","id":"ccd96258-c3f3-4e29-94be-9b0575ceb0e5","meta":{"profile":["http://hl7.org/fhir/us/qicore/StructureDefinition/qicore-procedure"]},"extension":[{"url":"http://hl7.org/fhir/us/qicore/StructureDefinition/qicore-recorded","valueDateTime":"2013-04-05T09:35:00-04:00"}],"status":"completed","code":{"coding":[{"system":"http://snomed.info/sct","code":"10745001"}]},"subject":{"reference":"Patient/134ba0d1-1c06-4eb0-b2ec-46f30421d947"},"performedPeriod":{"start":"2025-02-01T08:00:00.000Z","end":"2025-02-05T08:15:00.000Z"}},"request":{"method":"PUT","url":"Procedure/ccd96258-c3f3-4e29-94be-9b0575ceb0e5"}},{"fullUrl":"https://madie.cms.gov/Coverage/0fad0257-71af-48cc-b104-67c309b01bde","resource":{"resourceType":"Coverage","id":"0fad0257-71af-48cc-b104-67c309b01bde","meta":{"profile":["http://hl7.org/fhir/us/qicore/StructureDefinition/qicore-coverage"]},"status":"active","beneficiary":{"reference":"Patient/134ba0d1-1c06-4eb0-b2ec-46f30421d947"},"payor":[{"reference":"Organization/e75793c9-fdf6-463a-8c1d-4ee44320dc25"}]},"request":{"method":"PUT","url":"Coverage/0fad0257-71af-48cc-b104-67c309b01bde"}},{"fullUrl":"https://madie.cms.gov/Organization/f91f9e9f-7215-49cc-b284-35098d701d35","resource":{"resourceType":"Organization","id":"e75793c9-fdf6-463a-8c1d-4ee44320dc25","meta":{"profile":["http://hl7.org/fhir/us/qicore/StructureDefinition/qicore-organization"]},"identifier":[{"use":"temp","system":"urn:oid:2.16.840.1.113883.4.4","value":"21-3259825"}],"active":true,"type":[{"coding":[{"system":"http://terminology.hl7.org/CodeSystem/organization-type","code":"pay","display":"Payer"}]}],"name":"Blue Cross Blue Shield of Texas","telecom":[{"system":"phone","value":"(+1) 972-766-6900"}],"address":[{"use":"billing","type":"postal","line":["P.O. Box 660044"],"city":"Dallas","state":"TX","postalCode":"75266-0044","country":"USA"}]},"request":{"method":"PUT","url":"Organization/e75793c9-fdf6-463a-8c1d-4ee44320dc25"}},{"fullUrl":"https://madie.cms.gov/Practitioner/c16804d7-38a8-488e-b28a-211abceb076e","resource":{"resourceType":"Practitioner","id":"c16804d7-38a8-488e-b28a-211abceb076e","identifier":[{"system":"http://hl7.org/fhir/sid/us-npi","value":"123456"}],"name":[{"family":"Evil","prefix":["Dr"]}]},"request":{"method":"PUT","url":"Practitioner/c16804d7-38a8-488e-b28a-211abceb076e"}},{"fullUrl":"https://madie.cms.gov/MeasureReport/d6df1cbe-e9db-46e5-ab97-d104a8e4312d","resource":{"resourceType":"MeasureReport","id":"d6df1cbe-e9db-46e5-ab97-d104a8e4312d","meta":{"profile":["http://hl7.org/fhir/us/cqfmeasures/StructureDefinition/test-case-cqfm"]},"contained":[{"resourceType":"Parameters","id":"adbc4439-2580-4781-99f8-2893cc26546a-parameters","parameter":[{"name":"subject","valueString":"134ba0d1-1c06-4eb0-b2ec-46f30421d947"}]}],"extension":[{"url":"http://hl7.org/fhir/us/cqfmeasures/StructureDefinition/cqfm-inputParameters","valueReference":{"reference":"#adbc4439-2580-4781-99f8-2893cc26546a-parameters"}},{"url":"http://hl7.org/fhir/us/cqfmeasures/StructureDefinition/cqfm-testCaseDescription","valueMarkdown":"Patient turns 65 years of age on day encounter starts.\n"}],"modifierExtension":[{"url":"http://hl7.org/fhir/us/cqfmeasures/StructureDefinition/cqfm-isTestCase","valueBoolean":true}],"status":"complete","type":"individual","measure":"https://madie.cms.gov/Measure/CMS1028FHIRPCSevereOBComps","period":{"start":"2025-01-01","end":"2025-12-31"},"group":[{"population":[{"code":{"coding":[{"system":"http://terminology.hl7.org/CodeSystem/measure-population","code":"initial-population","display":"Initial Population"}]},"count":0},{"code":{"coding":[{"system":"http://terminology.hl7.org/CodeSystem/measure-population","code":"denominator","display":"Denominator"}]},"count":0},{"code":{"coding":[{"system":"http://terminology.hl7.org/CodeSystem/measure-population","code":"numerator","display":"Numerator"}]},"count":0},{"code":{"coding":[{"system":"http://terminology.hl7.org/CodeSystem/measure-population","code":"numerator-exclusion","display":"Numerator Exclusion"}]},"count":0}]}]},"request":{"method":"PUT","url":"MeasureReport/d6df1cbe-e9db-46e5-ab97-d104a8e4312d"}}]}