{"resourceType":"Bundle","id":"tests-decebbd0-750f-4bb8-92ac-c6c88e331250-bundle","type":"transaction","entry":[{"fullUrl":"https://madie.cms.gov/Patient/decebbd0-750f-4bb8-92ac-c6c88e331250","resource":{"resourceType":"Patient","id":"decebbd0-750f-4bb8-92ac-c6c88e331250","meta":{"profile":["http://hl7.org/fhir/us/qicore/StructureDefinition/qicore-patient"]},"text":{"status":"generated","div":"<div xmlns=\"http://www.w3.org/1999/xhtml\"><div class=\"hapiHeaderText\">Risk_GastrointestinalDisease<b>RISKPass </b></div><table class=\"hapiPropertyTable\"><tbody><tr><td>Date of birth</td><td><span>01 February 2004</span></td></tr></tbody></table></div>"},"extension":[{"url":"http://hl7.org/fhir/us/core/StructureDefinition/us-core-race","extension":[{"url":"ombCategory","valueCoding":{"system":"urn:oid:2.16.840.1.113883.6.238","code":"1002-5","display":"American Indian or Alaska Native","userSelected":true}},{"url":"text","valueString":"American Indian or Alaska Native"}]},{"url":"http://hl7.org/fhir/us/core/StructureDefinition/us-core-ethnicity","extension":[{"url":"ombCategory","valueCoding":{"system":"urn:oid:2.16.840.1.113883.6.238","code":"2135-2","display":"Hispanic or Latino","userSelected":true}},{"url":"text","valueString":"Hispanic or Latino"}]}],"identifier":[{"type":{"coding":[{"system":"http://terminology.hl7.org/CodeSystem/v2-0203","code":"MR"}]},"system":"https://bonnie-fhir.healthit.gov/","value":"63594c7a6aee9629c82981df"}],"active":true,"name":[{"use":"usual","family":"RiskPass","given":["Risk_GastrointestinalDisease"]}],"gender":"female","birthDate":"2004-02-01"},"request":{"method":"PUT","url":"Patient/decebbd0-750f-4bb8-92ac-c6c88e331250"}},{"fullUrl":"https://madie.cms.gov/Observation/1dfca976-26a5-4cda-8a86-068f7b069613","resource":{"resourceType":"Observation","id":"1dfca976-26a5-4cda-8a86-068f7b069613","meta":{"profile":["http://hl7.org/fhir/us/qicore/StructureDefinition/qicore-observation"]},"status":"final","category":[{"coding":[{"system":"http://terminology.hl7.org/CodeSystem/observation-category","code":"exam","display":"exam","userSelected":true}]}],"code":{"coding":[{"system":"http://loinc.org","code":"93857-1"}]},"subject":{"reference":"Patient/decebbd0-750f-4bb8-92ac-c6c88e331250"},"effectiveDateTime":"2025-02-01T08:00:00.000+00:00","valueDateTime":"2025-02-01T08:00:00+00:00"},"request":{"method":"PUT","url":"Observation/1dfca976-26a5-4cda-8a86-068f7b069613"}},{"fullUrl":"https://madie.cms.gov/Observation/3efa3a21-c31d-4053-b0ca-29a3a979e79f","resource":{"resourceType":"Observation","id":"3efa3a21-c31d-4053-b0ca-29a3a979e79f","meta":{"profile":["http://hl7.org/fhir/us/qicore/StructureDefinition/qicore-observation"]},"status":"final","category":[{"coding":[{"system":"http://terminology.hl7.org/CodeSystem/observation-category","code":"exam","display":"exam","userSelected":true}]}],"code":{"coding":[{"system":"http://loinc.org","code":"11778-8"}]},"subject":{"reference":"Patient/decebbd0-750f-4bb8-92ac-c6c88e331250"},"effectiveDateTime":"2025-02-01T08:00:00.000+00:00","valueDateTime":"2025-02-01T00:00:00.000+00:00"},"request":{"method":"PUT","url":"Observation/3efa3a21-c31d-4053-b0ca-29a3a979e79f"}},{"fullUrl":"https://madie.cms.gov/Encounter/3da9f104-a233-4889-8b40-1ab3457479e0","resource":{"resourceType":"Encounter","id":"3da9f104-a233-4889-8b40-1ab3457479e0","meta":{"profile":["http://hl7.org/fhir/us/qicore/StructureDefinition/qicore-encounter"]},"status":"finished","class":{"system":"http://terminology.hl7.org/CodeSystem/v3-ActCode","code":"IMP","display":"inpatient encounter"},"type":[{"coding":[{"system":"http://snomed.info/sct","code":"183452005"}]}],"subject":{"reference":"Patient/decebbd0-750f-4bb8-92ac-c6c88e331250"},"period":{"start":"2025-02-01T08:00:00.000Z","end":"2025-02-05T08:15:00.000Z"},"diagnosis":[{"extension":[{"url":"http://hl7.org/fhir/us/qicore/StructureDefinition/qicore-encounter-diagnosisPresentOnAdmission","valueCodeableConcept":{"coding":[{"system":"https://www.cms.gov/Medicare/Medicare-Fee-for-Service-Payment/HospitalAcqCond/Coding","code":"Y"}]}}],"condition":{"reference":"Condition/4fba1890-ed7a-4906-b73f-f35b8397749f"}},{"extension":[{"url":"http://hl7.org/fhir/us/qicore/StructureDefinition/qicore-encounter-diagnosisPresentOnAdmission","valueCodeableConcept":{"coding":[{"system":"https://www.cms.gov/Medicare/Medicare-Fee-for-Service-Payment/HospitalAcqCond/Coding","code":"N"}]}}],"condition":{"reference":"Condition/e96e937d-d6a6-44e6-b25e-3c202a56431d"}}]},"request":{"method":"PUT","url":"Encounter/3da9f104-a233-4889-8b40-1ab3457479e0"}},{"fullUrl":"https://madie.cms.gov/Procedure/d98d0471-0026-4801-a312-1d811dbf8bfe","resource":{"resourceType":"Procedure","id":"d98d0471-0026-4801-a312-1d811dbf8bfe","meta":{"profile":["http://hl7.org/fhir/us/qicore/StructureDefinition/qicore-procedure"]},"extension":[{"url":"http://hl7.org/fhir/us/qicore/StructureDefinition/qicore-recorded","valueDateTime":"2013-04-05T09:35:00-04:00"}],"status":"completed","code":{"coding":[{"system":"http://snomed.info/sct","code":"10745001"}]},"subject":{"reference":"Patient/decebbd0-750f-4bb8-92ac-c6c88e331250"},"performedDateTime":"2025-02-01T08:00:00.000+00:00"},"request":{"method":"PUT","url":"Procedure/d98d0471-0026-4801-a312-1d811dbf8bfe"}},{"fullUrl":"https://madie.cms.gov/Condition/e96e937d-d6a6-44e6-b25e-3c202a56431d","resource":{"resourceType":"Condition","id":"e96e937d-d6a6-44e6-b25e-3c202a56431d","meta":{"profile":["http://hl7.org/fhir/us/qicore/StructureDefinition/qicore-condition"]},"category":[{"coding":[{"system":"http://terminology.hl7.org/CodeSystem/condition-category","code":"encounter-diagnosis","display":"Encounter Diagnosis"}]}],"code":{"coding":[{"system":"http://hl7.org/fhir/sid/icd-10-cm","version":"2023","code":"A32.7","display":"Listerial sepsis","userSelected":true}]},"subject":{"reference":"Patient/decebbd0-750f-4bb8-92ac-c6c88e331250"},"recordedDate":"2025-10-26T08:00:00.000+00:00"},"request":{"method":"PUT","url":"Condition/e96e937d-d6a6-44e6-b25e-3c202a56431d"}},{"fullUrl":"https://madie.cms.gov/Condition/4fba1890-ed7a-4906-b73f-f35b8397749f","resource":{"resourceType":"Condition","id":"4fba1890-ed7a-4906-b73f-f35b8397749f","meta":{"profile":["http://hl7.org/fhir/us/qicore/StructureDefinition/qicore-condition"]},"category":[{"coding":[{"system":"http://terminology.hl7.org/CodeSystem/condition-category","code":"encounter-diagnosis","display":"Encounter Diagnosis"}]}],"code":{"coding":[{"system":"http://hl7.org/fhir/sid/icd-10-cm","version":"2023","code":"K50.00","display":"GI Disease","userSelected":true}]},"subject":{"reference":"Patient/decebbd0-750f-4bb8-92ac-c6c88e331250"},"recordedDate":"2025-10-26T08:00:00.000+00:00"},"request":{"method":"PUT","url":"Condition/4fba1890-ed7a-4906-b73f-f35b8397749f"}},{"fullUrl":"https://madie.cms.gov/MeasureReport/f062ed80-b66c-46ba-9210-82d7b65749f0","resource":{"resourceType":"MeasureReport","id":"f062ed80-b66c-46ba-9210-82d7b65749f0","meta":{"profile":["http://hl7.org/fhir/us/cqfmeasures/StructureDefinition/test-case-cqfm"]},"contained":[{"resourceType":"Parameters","id":"afcc94d3-6694-46b5-91d3-f2aad945c0d8-parameters","parameter":[{"name":"subject","valueString":"decebbd0-750f-4bb8-92ac-c6c88e331250"}]}],"extension":[{"url":"http://hl7.org/fhir/us/cqfmeasures/StructureDefinition/cqfm-inputParameters","valueReference":{"reference":"#afcc94d3-6694-46b5-91d3-f2aad945c0d8-parameters"}},{"url":"http://hl7.org/fhir/us/cqfmeasures/StructureDefinition/cqfm-testCaseDescription","valueMarkdown":"Risk variable of gastrointestinal disease.\n\n"}],"modifierExtension":[{"url":"http://hl7.org/fhir/us/cqfmeasures/StructureDefinition/cqfm-isTestCase","valueBoolean":true}],"status":"complete","type":"individual","measure":"https://madie.cms.gov/Measure/CMS1028FHIRPCSevereOBComps","period":{"start":"2025-01-01","end":"2025-12-31"},"group":[{"population":[{"code":{"coding":[{"system":"http://terminology.hl7.org/CodeSystem/measure-population","code":"initial-population","display":"Initial Population"}]},"count":1},{"code":{"coding":[{"system":"http://terminology.hl7.org/CodeSystem/measure-population","code":"denominator","display":"Denominator"}]},"count":1},{"code":{"coding":[{"system":"http://terminology.hl7.org/CodeSystem/measure-population","code":"numerator","display":"Numerator"}]},"count":1},{"code":{"coding":[{"system":"http://terminology.hl7.org/CodeSystem/measure-population","code":"numerator-exclusion","display":"Numerator Exclusion"}]},"count":0}]},{"population":[{"code":{"coding":[{"system":"http://terminology.hl7.org/CodeSystem/measure-population","code":"initial-population","display":"Initial Population"}]},"count":1},{"code":{"coding":[{"system":"http://terminology.hl7.org/CodeSystem/measure-population","code":"denominator","display":"Denominator"}]},"count":1},{"code":{"coding":[{"system":"http://terminology.hl7.org/CodeSystem/measure-population","code":"numerator","display":"Numerator"}]},"count":1},{"code":{"coding":[{"system":"http://terminology.hl7.org/CodeSystem/measure-population","code":"numerator-exclusion","display":"Numerator Exclusion"}]},"count":0}]}]},"request":{"method":"PUT","url":"MeasureReport/f062ed80-b66c-46ba-9210-82d7b65749f0"}}]}