{"resourceType":"Bundle","id":"tests-516e96fa-20cc-458c-8b63-435d78a8bd9a-bundle","type":"transaction","entry":[{"fullUrl":"https://madie.cms.gov/Patient/516e96fa-20cc-458c-8b63-435d78a8bd9a","resource":{"resourceType":"Patient","id":"516e96fa-20cc-458c-8b63-435d78a8bd9a","meta":{"profile":["http://hl7.org/fhir/us/qicore/StructureDefinition/qicore-patient"]},"text":{"status":"generated","div":"<div xmlns=\"http://www.w3.org/1999/xhtml\"><div class=\"hapiHeaderText\">DelProcRelDtTmEQEDStart <b>IPPASS </b></div><table class=\"hapiPropertyTable\"><tbody><tr><td>Date of birth</td><td><span>31 January 2004</span></td></tr></tbody></table></div>"},"extension":[{"url":"http://hl7.org/fhir/us/core/StructureDefinition/us-core-race","extension":[{"url":"ombCategory","valueCoding":{"system":"urn:oid:2.16.840.1.113883.6.238","code":"1002-5","display":"American Indian or Alaska Native","userSelected":true}},{"url":"text","valueString":"American Indian or Alaska Native"}]},{"url":"http://hl7.org/fhir/us/core/StructureDefinition/us-core-ethnicity","extension":[{"url":"ombCategory","valueCoding":{"system":"urn:oid:2.16.840.1.113883.6.238","code":"2135-2","display":"Hispanic or Latino","userSelected":true}},{"url":"text","valueString":"Hispanic or Latino"}]}],"identifier":[{"type":{"coding":[{"system":"http://terminology.hl7.org/CodeSystem/v2-0203","code":"MR"}]},"system":"https://bonnie-fhir.healthit.gov/","value":"633b3fa00968f80122503d13"}],"active":true,"name":[{"use":"usual","family":"IPPass","given":["DelProcRelDtTmEQEDStart"]}],"gender":"female","birthDate":"2004-01-31"},"request":{"method":"PUT","url":"Patient/516e96fa-20cc-458c-8b63-435d78a8bd9a"}},{"fullUrl":"https://madie.cms.gov/Encounter/dc945d69-9ff2-4cba-8bdd-a28d718ca243","resource":{"resourceType":"Encounter","id":"dc945d69-9ff2-4cba-8bdd-a28d718ca243","meta":{"profile":["http://hl7.org/fhir/us/qicore/StructureDefinition/qicore-encounter"]},"status":"finished","class":{"system":"http://terminology.hl7.org/CodeSystem/v3-ActCode","code":"IMP","display":"inpatient encounter"},"type":[{"coding":[{"system":"http://snomed.info/sct","code":"183452005"}]}],"subject":{"reference":"Patient/516e96fa-20cc-458c-8b63-435d78a8bd9a"},"period":{"start":"2025-02-01T09:00:00.000Z","end":"2025-02-05T08:15:00.000Z"}},"request":{"method":"PUT","url":"Encounter/dc945d69-9ff2-4cba-8bdd-a28d718ca243"}},{"fullUrl":"https://madie.cms.gov/Encounter/bd330ab6-6623-4ea5-aaf9-873008a150f8","resource":{"resourceType":"Encounter","id":"bd330ab6-6623-4ea5-aaf9-873008a150f8","meta":{"profile":["http://hl7.org/fhir/us/qicore/StructureDefinition/qicore-encounter"]},"status":"finished","class":{"system":"http://terminology.hl7.org/CodeSystem/v3-ActCode","code":"IMP","display":"inpatient encounter"},"type":[{"coding":[{"system":"http://snomed.info/sct","code":"448951000124107"}]}],"subject":{"reference":"Patient/516e96fa-20cc-458c-8b63-435d78a8bd9a"},"period":{"start":"2025-02-01T08:00:00.000Z","end":"2025-02-01T08:59:00.000Z"}},"request":{"method":"PUT","url":"Encounter/bd330ab6-6623-4ea5-aaf9-873008a150f8"}},{"fullUrl":"https://madie.cms.gov/Encounter/49f2776d-d06a-42b0-bdc7-a3c0525e16da","resource":{"resourceType":"Encounter","id":"49f2776d-d06a-42b0-bdc7-a3c0525e16da","meta":{"profile":["http://hl7.org/fhir/us/qicore/StructureDefinition/qicore-encounter"]},"status":"finished","class":{"system":"http://terminology.hl7.org/CodeSystem/v3-ActCode","code":"IMP","display":"inpatient encounter"},"type":[{"coding":[{"system":"http://snomed.info/sct","code":"4525004"}]}],"subject":{"reference":"Patient/516e96fa-20cc-458c-8b63-435d78a8bd9a"},"period":{"start":"2025-02-01T07:00:00.000Z","end":"2025-02-01T07:59:00.000Z"}},"request":{"method":"PUT","url":"Encounter/49f2776d-d06a-42b0-bdc7-a3c0525e16da"}},{"fullUrl":"https://madie.cms.gov/Procedure/b12bafe9-4b19-4bab-ba53-74b96911b45f","resource":{"resourceType":"Procedure","id":"b12bafe9-4b19-4bab-ba53-74b96911b45f","meta":{"profile":["http://hl7.org/fhir/us/qicore/StructureDefinition/qicore-procedure"]},"extension":[{"url":"http://hl7.org/fhir/us/qicore/StructureDefinition/qicore-recorded","valueDateTime":"2013-04-05T09:35:00-04:00"}],"status":"completed","code":{"coding":[{"system":"http://snomed.info/sct","code":"10745001"}]},"subject":{"reference":"Patient/516e96fa-20cc-458c-8b63-435d78a8bd9a"},"performedDateTime":"2025-02-01T07:00:00.000+00:00"},"request":{"method":"PUT","url":"Procedure/b12bafe9-4b19-4bab-ba53-74b96911b45f"}},{"fullUrl":"https://madie.cms.gov/Coverage/719fc60a-cf05-482a-8144-1fc037c5acf6","resource":{"resourceType":"Coverage","id":"719fc60a-cf05-482a-8144-1fc037c5acf6","meta":{"profile":["http://hl7.org/fhir/us/qicore/StructureDefinition/qicore-coverage"]},"status":"active","beneficiary":{"reference":"Patient/516e96fa-20cc-458c-8b63-435d78a8bd9a"},"payor":[{"reference":"Organization/5ad6ea38-07e9-4482-9e1b-c09eee595be9"}]},"request":{"method":"PUT","url":"Coverage/719fc60a-cf05-482a-8144-1fc037c5acf6"}},{"fullUrl":"https://madie.cms.gov/Organization/eb46bda8-56fc-487b-9289-e07ed59170e7","resource":{"resourceType":"Organization","id":"5ad6ea38-07e9-4482-9e1b-c09eee595be9","meta":{"profile":["http://hl7.org/fhir/us/qicore/StructureDefinition/qicore-organization"]},"identifier":[{"use":"temp","system":"urn:oid:2.16.840.1.113883.4.4","value":"21-3259825"}],"active":true,"type":[{"coding":[{"system":"http://terminology.hl7.org/CodeSystem/organization-type","code":"pay","display":"Payer"}]}],"name":"Blue Cross Blue Shield of Texas","telecom":[{"system":"phone","value":"(+1) 972-766-6900"}],"address":[{"use":"billing","type":"postal","line":["P.O. Box 660044"],"city":"Dallas","state":"TX","postalCode":"75266-0044","country":"USA"}]},"request":{"method":"PUT","url":"Organization/5ad6ea38-07e9-4482-9e1b-c09eee595be9"}},{"fullUrl":"https://madie.cms.gov/Practitioner/635fd844-1e13-43c6-b86a-151fd31ca4fa","resource":{"resourceType":"Practitioner","id":"635fd844-1e13-43c6-b86a-151fd31ca4fa","identifier":[{"system":"http://hl7.org/fhir/sid/us-npi","value":"123456"}],"name":[{"family":"Evil","prefix":["Dr"]}]},"request":{"method":"PUT","url":"Practitioner/635fd844-1e13-43c6-b86a-151fd31ca4fa"}},{"fullUrl":"https://madie.cms.gov/MeasureReport/ad3b08a7-88e2-4acc-a556-76432b1db337","resource":{"resourceType":"MeasureReport","id":"ad3b08a7-88e2-4acc-a556-76432b1db337","meta":{"profile":["http://hl7.org/fhir/us/cqfmeasures/StructureDefinition/test-case-cqfm"]},"contained":[{"resourceType":"Parameters","id":"74538813-20a4-4e8b-94ed-15fb1ed2b138-parameters","parameter":[{"name":"subject","valueString":"516e96fa-20cc-458c-8b63-435d78a8bd9a"}]}],"extension":[{"url":"http://hl7.org/fhir/us/cqfmeasures/StructureDefinition/cqfm-inputParameters","valueReference":{"reference":"#74538813-20a4-4e8b-94ed-15fb1ed2b138-parameters"}},{"url":"http://hl7.org/fhir/us/cqfmeasures/StructureDefinition/cqfm-testCaseDescription","valueMarkdown":"Delivery Procedure rel date/time = ED start.  ED/OBS/IP all meet global hospitalization criteria.\n"}],"modifierExtension":[{"url":"http://hl7.org/fhir/us/cqfmeasures/StructureDefinition/cqfm-isTestCase","valueBoolean":true}],"status":"complete","type":"individual","measure":"https://madie.cms.gov/Measure/CMS1028FHIRPCSevereOBComps","period":{"start":"2025-01-01","end":"2025-12-31"},"group":[{"population":[{"code":{"coding":[{"system":"http://terminology.hl7.org/CodeSystem/measure-population","code":"initial-population","display":"Initial Population"}]},"count":1},{"code":{"coding":[{"system":"http://terminology.hl7.org/CodeSystem/measure-population","code":"denominator","display":"Denominator"}]},"count":0},{"code":{"coding":[{"system":"http://terminology.hl7.org/CodeSystem/measure-population","code":"numerator","display":"Numerator"}]},"count":0},{"code":{"coding":[{"system":"http://terminology.hl7.org/CodeSystem/measure-population","code":"numerator-exclusion","display":"Numerator Exclusion"}]},"count":0}]},{"population":[{"code":{"coding":[{"system":"http://terminology.hl7.org/CodeSystem/measure-population","code":"initial-population","display":"Initial Population"}]},"count":1},{"code":{"coding":[{"system":"http://terminology.hl7.org/CodeSystem/measure-population","code":"denominator","display":"Denominator"}]},"count":0},{"code":{"coding":[{"system":"http://terminology.hl7.org/CodeSystem/measure-population","code":"numerator","display":"Numerator"}]},"count":0},{"code":{"coding":[{"system":"http://terminology.hl7.org/CodeSystem/measure-population","code":"numerator-exclusion","display":"Numerator Exclusion"}]},"count":0}]}]},"request":{"method":"PUT","url":"MeasureReport/ad3b08a7-88e2-4acc-a556-76432b1db337"}}]}