{"resourceType":"Bundle","id":"tests-aa12a3d9-20e7-4c0e-b5c1-a4de7eb5f15c-bundle","type":"transaction","entry":[{"fullUrl":"https://madie.cms.gov/Patient/aa12a3d9-20e7-4c0e-b5c1-a4de7eb5f15c","resource":{"resourceType":"Patient","id":"aa12a3d9-20e7-4c0e-b5c1-a4de7eb5f15c","meta":{"profile":["http://hl7.org/fhir/us/qicore/StructureDefinition/qicore-patient"]},"text":{"status":"generated","div":"<div xmlns=\"http://www.w3.org/1999/xhtml\"><div class=\"hapiHeaderText\">LastAssPrfEstDELRelvTm_00Hr00Min00Sec_EQDELRsltDtTime <b>DENOMPASS </b></div><table class=\"hapiPropertyTable\"><tbody><tr><td>Date of birth</td><td><span>01 February 2004</span></td></tr></tbody></table></div>"},"extension":[{"url":"http://hl7.org/fhir/us/core/StructureDefinition/us-core-race","extension":[{"url":"ombCategory","valueCoding":{"system":"urn:oid:2.16.840.1.113883.6.238","code":"1002-5","display":"American Indian or Alaska Native","userSelected":true}},{"url":"text","valueString":"American Indian or Alaska Native"}]},{"url":"http://hl7.org/fhir/us/core/StructureDefinition/us-core-ethnicity","extension":[{"url":"ombCategory","valueCoding":{"system":"urn:oid:2.16.840.1.113883.6.238","code":"2135-2","display":"Hispanic or Latino","userSelected":true}},{"url":"text","valueString":"Hispanic or Latino"}]}],"identifier":[{"type":{"coding":[{"system":"http://terminology.hl7.org/CodeSystem/v2-0203","code":"MR"}]},"system":"https://bonnie-fhir.healthit.gov/","value":"633b3f9e0968f80122503cd4"}],"active":true,"name":[{"use":"usual","family":"DENOMPass","given":["LastAssPrfEstDELRelvTm_00Hr00Min00Sec_EQDELRsltDtTime"]}],"gender":"female","birthDate":"2004-02-01"},"request":{"method":"PUT","url":"Patient/aa12a3d9-20e7-4c0e-b5c1-a4de7eb5f15c"}},{"fullUrl":"https://madie.cms.gov/Observation/0c326a6b-de51-4b3c-9ebb-6db7b42091ee","resource":{"resourceType":"Observation","id":"0c326a6b-de51-4b3c-9ebb-6db7b42091ee","meta":{"profile":["http://hl7.org/fhir/us/qicore/StructureDefinition/qicore-observation"]},"status":"final","category":[{"coding":[{"system":"http://terminology.hl7.org/CodeSystem/observation-category","code":"exam","display":"exam","userSelected":true}]}],"code":{"coding":[{"system":"http://loinc.org","code":"93857-1"}]},"subject":{"reference":"Patient/aa12a3d9-20e7-4c0e-b5c1-a4de7eb5f15c"},"effectiveDateTime":"2025-02-01T08:00:00.000+00:00","valueDateTime":"2025-02-01T08:00:00+00:00"},"request":{"method":"PUT","url":"Observation/0c326a6b-de51-4b3c-9ebb-6db7b42091ee"}},{"fullUrl":"https://madie.cms.gov/Observation/7e553c9d-03b9-4d19-9796-d10980e6300f","resource":{"resourceType":"Observation","id":"7e553c9d-03b9-4d19-9796-d10980e6300f","meta":{"profile":["http://hl7.org/fhir/us/qicore/StructureDefinition/qicore-observation"]},"status":"final","category":[{"coding":[{"system":"http://terminology.hl7.org/CodeSystem/observation-category","code":"exam","display":"exam","userSelected":true}]}],"code":{"coding":[{"system":"http://loinc.org","code":"11778-8"}]},"subject":{"reference":"Patient/aa12a3d9-20e7-4c0e-b5c1-a4de7eb5f15c"},"effectiveDateTime":"2025-02-01T08:00:00.000+00:00","valueDateTime":"2025-02-01T08:00:00.000+00:00"},"request":{"method":"PUT","url":"Observation/7e553c9d-03b9-4d19-9796-d10980e6300f"}},{"fullUrl":"https://madie.cms.gov/Encounter/6a2ec930-3973-4b14-beb0-0f1114e8b0d7","resource":{"resourceType":"Encounter","id":"6a2ec930-3973-4b14-beb0-0f1114e8b0d7","meta":{"profile":["http://hl7.org/fhir/us/qicore/StructureDefinition/qicore-encounter"]},"status":"finished","class":{"system":"http://terminology.hl7.org/CodeSystem/v3-ActCode","code":"IMP","display":"inpatient encounter"},"type":[{"coding":[{"system":"http://snomed.info/sct","code":"183452005"}]}],"subject":{"reference":"Patient/aa12a3d9-20e7-4c0e-b5c1-a4de7eb5f15c"},"period":{"start":"2025-02-01T08:00:00.000Z","end":"2025-02-05T08:15:00.000Z"}},"request":{"method":"PUT","url":"Encounter/6a2ec930-3973-4b14-beb0-0f1114e8b0d7"}},{"fullUrl":"https://madie.cms.gov/Procedure/761b31aa-f2c4-4db8-91fd-4c1eac09f0fa","resource":{"resourceType":"Procedure","id":"761b31aa-f2c4-4db8-91fd-4c1eac09f0fa","meta":{"profile":["http://hl7.org/fhir/us/qicore/StructureDefinition/qicore-procedure"]},"extension":[{"url":"http://hl7.org/fhir/us/qicore/StructureDefinition/qicore-recorded","valueDateTime":"2013-04-05T09:35:00-04:00"}],"status":"completed","code":{"coding":[{"system":"http://snomed.info/sct","code":"10745001"}]},"subject":{"reference":"Patient/aa12a3d9-20e7-4c0e-b5c1-a4de7eb5f15c"},"performedPeriod":{"start":"2025-02-01T08:00:00.000Z","end":"2025-02-05T08:15:00.000Z"}},"request":{"method":"PUT","url":"Procedure/761b31aa-f2c4-4db8-91fd-4c1eac09f0fa"}},{"fullUrl":"https://madie.cms.gov/Coverage/3a74c90d-2c90-4c93-b732-3a9438dd0c88","resource":{"resourceType":"Coverage","id":"3a74c90d-2c90-4c93-b732-3a9438dd0c88","meta":{"profile":["http://hl7.org/fhir/us/qicore/StructureDefinition/qicore-coverage"]},"status":"active","beneficiary":{"reference":"Patient/aa12a3d9-20e7-4c0e-b5c1-a4de7eb5f15c"},"payor":[{"reference":"Organization/5ad6ea38-07e9-4482-9e1b-c09eee595be9"}]},"request":{"method":"PUT","url":"Coverage/3a74c90d-2c90-4c93-b732-3a9438dd0c88"}},{"fullUrl":"https://madie.cms.gov/Organization/d52abf56-6cba-433c-8c4d-1eab6badb0e9","resource":{"resourceType":"Organization","id":"5ad6ea38-07e9-4482-9e1b-c09eee595be9","meta":{"profile":["http://hl7.org/fhir/us/qicore/StructureDefinition/qicore-organization"]},"identifier":[{"use":"temp","system":"urn:oid:2.16.840.1.113883.4.4","value":"21-3259825"}],"active":true,"type":[{"coding":[{"system":"http://terminology.hl7.org/CodeSystem/organization-type","code":"pay","display":"Payer"}]}],"name":"Blue Cross Blue Shield of Texas","telecom":[{"system":"phone","value":"(+1) 972-766-6900"}],"address":[{"use":"billing","type":"postal","line":["P.O. Box 660044"],"city":"Dallas","state":"TX","postalCode":"75266-0044","country":"USA"}]},"request":{"method":"PUT","url":"Organization/5ad6ea38-07e9-4482-9e1b-c09eee595be9"}},{"fullUrl":"https://madie.cms.gov/Practitioner/97c07ede-e827-4a7a-92a3-bcc52ec273e4","resource":{"resourceType":"Practitioner","id":"97c07ede-e827-4a7a-92a3-bcc52ec273e4","identifier":[{"system":"http://hl7.org/fhir/sid/us-npi","value":"123456"}],"name":[{"family":"Evil","prefix":["Dr"]}]},"request":{"method":"PUT","url":"Practitioner/97c07ede-e827-4a7a-92a3-bcc52ec273e4"}},{"fullUrl":"https://madie.cms.gov/MeasureReport/ea457424-5a17-4585-bee7-7ab70f676754","resource":{"resourceType":"MeasureReport","id":"ea457424-5a17-4585-bee7-7ab70f676754","meta":{"profile":["http://hl7.org/fhir/us/cqfmeasures/StructureDefinition/test-case-cqfm"]},"contained":[{"resourceType":"Parameters","id":"393967d6-22aa-471d-a9cb-df28683e70d0-parameters","parameter":[{"name":"subject","valueString":"aa12a3d9-20e7-4c0e-b5c1-a4de7eb5f15c"}]}],"extension":[{"url":"http://hl7.org/fhir/us/cqfmeasures/StructureDefinition/cqfm-inputParameters","valueReference":{"reference":"#393967d6-22aa-471d-a9cb-df28683e70d0-parameters"}},{"url":"http://hl7.org/fhir/us/cqfmeasures/StructureDefinition/cqfm-testCaseDescription","valueMarkdown":"Last assessment Performed, Estimated Delivery Date, Relevant time, equal to Delivery Result Date/Time\n"}],"modifierExtension":[{"url":"http://hl7.org/fhir/us/cqfmeasures/StructureDefinition/cqfm-isTestCase","valueBoolean":true}],"status":"complete","type":"individual","measure":"https://madie.cms.gov/Measure/CMS1028FHIRPCSevereOBComps","period":{"start":"2025-01-01","end":"2025-12-31"},"group":[{"population":[{"code":{"coding":[{"system":"http://terminology.hl7.org/CodeSystem/measure-population","code":"initial-population","display":"Initial Population"}]},"count":1},{"code":{"coding":[{"system":"http://terminology.hl7.org/CodeSystem/measure-population","code":"denominator","display":"Denominator"}]},"count":1},{"code":{"coding":[{"system":"http://terminology.hl7.org/CodeSystem/measure-population","code":"numerator","display":"Numerator"}]},"count":0},{"code":{"coding":[{"system":"http://terminology.hl7.org/CodeSystem/measure-population","code":"numerator-exclusion","display":"Numerator Exclusion"}]},"count":0}]},{"population":[{"code":{"coding":[{"system":"http://terminology.hl7.org/CodeSystem/measure-population","code":"initial-population","display":"Initial Population"}]},"count":1},{"code":{"coding":[{"system":"http://terminology.hl7.org/CodeSystem/measure-population","code":"denominator","display":"Denominator"}]},"count":1},{"code":{"coding":[{"system":"http://terminology.hl7.org/CodeSystem/measure-population","code":"numerator","display":"Numerator"}]},"count":0},{"code":{"coding":[{"system":"http://terminology.hl7.org/CodeSystem/measure-population","code":"numerator-exclusion","display":"Numerator Exclusion"}]},"count":0}]}]},"request":{"method":"PUT","url":"MeasureReport/ea457424-5a17-4585-bee7-7ab70f676754"}}]}