{"resourceType":"Bundle","id":"tests-1f1dbd4d-0631-4c37-8822-2f17f69f2c0d-bundle","type":"transaction","entry":[{"fullUrl":"https://madie.cms.gov/Patient/1f1dbd4d-0631-4c37-8822-2f17f69f2c0d","resource":{"resourceType":"Patient","id":"1f1dbd4d-0631-4c37-8822-2f17f69f2c0d","meta":{"profile":["http://hl7.org/fhir/us/qicore/StructureDefinition/qicore-patient"]},"text":{"status":"generated","div":"<div xmlns=\"http://www.w3.org/1999/xhtml\"><div class=\"hapiHeaderText\">Age8OnDayB4EncStart <b>IPPASS </b></div><table class=\"hapiPropertyTable\"><tbody><tr><td>Date of birth</td><td><span>31 January 2004</span></td></tr></tbody></table></div>"},"extension":[{"url":"http://hl7.org/fhir/us/core/StructureDefinition/us-core-race","extension":[{"url":"ombCategory","valueCoding":{"system":"urn:oid:2.16.840.1.113883.6.238","code":"1002-5","display":"American Indian or Alaska Native","userSelected":true}},{"url":"text","valueString":"American Indian or Alaska Native"}]},{"url":"http://hl7.org/fhir/us/core/StructureDefinition/us-core-ethnicity","extension":[{"url":"ombCategory","valueCoding":{"system":"urn:oid:2.16.840.1.113883.6.238","code":"2135-2","display":"Hispanic or Latino","userSelected":true}},{"url":"text","valueString":"Hispanic or Latino"}]}],"identifier":[{"type":{"coding":[{"system":"http://terminology.hl7.org/CodeSystem/v2-0203","code":"MR"}]},"system":"https://bonnie-fhir.healthit.gov/","value":"633b3f9e0968f80122503cbc"}],"active":true,"name":[{"use":"usual","family":"IPPass","given":["Age8OnDayB4EncStart"]}],"gender":"female","birthDate":"2016-01-31"},"request":{"method":"PUT","url":"Patient/1f1dbd4d-0631-4c37-8822-2f17f69f2c0d"}},{"fullUrl":"https://madie.cms.gov/Encounter/f88a6a13-346d-4717-bb3c-26c7f1d84c72","resource":{"resourceType":"Encounter","id":"f88a6a13-346d-4717-bb3c-26c7f1d84c72","meta":{"profile":["http://hl7.org/fhir/us/qicore/StructureDefinition/qicore-encounter"]},"status":"finished","class":{"system":"http://terminology.hl7.org/CodeSystem/v3-ActCode","code":"IMP","display":"inpatient encounter"},"type":[{"coding":[{"system":"http://snomed.info/sct","code":"183452005"}]}],"subject":{"reference":"Patient/1f1dbd4d-0631-4c37-8822-2f17f69f2c0d"},"period":{"start":"2025-02-01T08:00:00.000Z","end":"2025-02-05T08:15:00.000Z"}},"request":{"method":"PUT","url":"Encounter/f88a6a13-346d-4717-bb3c-26c7f1d84c72"}},{"fullUrl":"https://madie.cms.gov/Procedure/de8d9977-c95d-4a94-a9b9-37fce1cf765c","resource":{"resourceType":"Procedure","id":"de8d9977-c95d-4a94-a9b9-37fce1cf765c","meta":{"profile":["http://hl7.org/fhir/us/qicore/StructureDefinition/qicore-procedure"]},"extension":[{"url":"http://hl7.org/fhir/us/qicore/StructureDefinition/qicore-recorded","valueDateTime":"2013-04-05T09:35:00-04:00"}],"status":"completed","code":{"coding":[{"system":"http://snomed.info/sct","code":"10745001"}]},"subject":{"reference":"Patient/1f1dbd4d-0631-4c37-8822-2f17f69f2c0d"},"performedPeriod":{"start":"2025-02-01T08:00:00.000Z","end":"2025-02-05T08:15:00.000Z"}},"request":{"method":"PUT","url":"Procedure/de8d9977-c95d-4a94-a9b9-37fce1cf765c"}},{"fullUrl":"https://madie.cms.gov/Coverage/0265caa6-79c1-4edf-be95-71c4a2328f1d","resource":{"resourceType":"Coverage","id":"0265caa6-79c1-4edf-be95-71c4a2328f1d","meta":{"profile":["http://hl7.org/fhir/us/qicore/StructureDefinition/qicore-coverage"]},"status":"active","beneficiary":{"reference":"Patient/1f1dbd4d-0631-4c37-8822-2f17f69f2c0d"},"payor":[{"reference":"Organization/5ad6ea38-07e9-4482-9e1b-c09eee595be9"}]},"request":{"method":"PUT","url":"Coverage/0265caa6-79c1-4edf-be95-71c4a2328f1d"}},{"fullUrl":"https://madie.cms.gov/Organization/bd66e07a-9eab-41a4-844d-20cd1800d2ed","resource":{"resourceType":"Organization","id":"5ad6ea38-07e9-4482-9e1b-c09eee595be9","meta":{"profile":["http://hl7.org/fhir/us/qicore/StructureDefinition/qicore-organization"]},"identifier":[{"use":"temp","system":"urn:oid:2.16.840.1.113883.4.4","value":"21-3259825"}],"active":true,"type":[{"coding":[{"system":"http://terminology.hl7.org/CodeSystem/organization-type","code":"pay","display":"Payer"}]}],"name":"Blue Cross Blue Shield of Texas","telecom":[{"system":"phone","value":"(+1) 972-766-6900"}],"address":[{"use":"billing","type":"postal","line":["P.O. Box 660044"],"city":"Dallas","state":"TX","postalCode":"75266-0044","country":"USA"}]},"request":{"method":"PUT","url":"Organization/5ad6ea38-07e9-4482-9e1b-c09eee595be9"}},{"fullUrl":"https://madie.cms.gov/Practitioner/b21467ab-349a-4cb1-adee-76c2529c0ba7","resource":{"resourceType":"Practitioner","id":"b21467ab-349a-4cb1-adee-76c2529c0ba7","identifier":[{"system":"http://hl7.org/fhir/sid/us-npi","value":"123456"}],"name":[{"family":"Evil","prefix":["Dr"]}]},"request":{"method":"PUT","url":"Practitioner/b21467ab-349a-4cb1-adee-76c2529c0ba7"}},{"fullUrl":"https://madie.cms.gov/MeasureReport/765c05ab-d3a9-4355-a746-79515c6bc6ca","resource":{"resourceType":"MeasureReport","id":"765c05ab-d3a9-4355-a746-79515c6bc6ca","meta":{"profile":["http://hl7.org/fhir/us/cqfmeasures/StructureDefinition/test-case-cqfm"]},"contained":[{"resourceType":"Parameters","id":"eb1a9a83-2955-4080-8495-78d65fef61f2-parameters","parameter":[{"name":"subject","valueString":"1f1dbd4d-0631-4c37-8822-2f17f69f2c0d"}]}],"extension":[{"url":"http://hl7.org/fhir/us/cqfmeasures/StructureDefinition/cqfm-inputParameters","valueReference":{"reference":"#eb1a9a83-2955-4080-8495-78d65fef61f2-parameters"}},{"url":"http://hl7.org/fhir/us/cqfmeasures/StructureDefinition/cqfm-testCaseDescription","valueMarkdown":"Patient is 8 years of age on day before encounter starts.\n"}],"modifierExtension":[{"url":"http://hl7.org/fhir/us/cqfmeasures/StructureDefinition/cqfm-isTestCase","valueBoolean":true}],"status":"complete","type":"individual","measure":"https://madie.cms.gov/Measure/CMS1028FHIRPCSevereOBComps","period":{"start":"2025-01-01","end":"2025-12-31"},"group":[{"population":[{"code":{"coding":[{"system":"http://terminology.hl7.org/CodeSystem/measure-population","code":"initial-population","display":"Initial Population"}]},"count":1},{"code":{"coding":[{"system":"http://terminology.hl7.org/CodeSystem/measure-population","code":"denominator","display":"Denominator"}]},"count":0},{"code":{"coding":[{"system":"http://terminology.hl7.org/CodeSystem/measure-population","code":"numerator","display":"Numerator"}]},"count":0},{"code":{"coding":[{"system":"http://terminology.hl7.org/CodeSystem/measure-population","code":"numerator-exclusion","display":"Numerator Exclusion"}]},"count":0}]},{"population":[{"code":{"coding":[{"system":"http://terminology.hl7.org/CodeSystem/measure-population","code":"initial-population","display":"Initial Population"}]},"count":1},{"code":{"coding":[{"system":"http://terminology.hl7.org/CodeSystem/measure-population","code":"denominator","display":"Denominator"}]},"count":0},{"code":{"coding":[{"system":"http://terminology.hl7.org/CodeSystem/measure-population","code":"numerator","display":"Numerator"}]},"count":0},{"code":{"coding":[{"system":"http://terminology.hl7.org/CodeSystem/measure-population","code":"numerator-exclusion","display":"Numerator Exclusion"}]},"count":0}]}]},"request":{"method":"PUT","url":"MeasureReport/765c05ab-d3a9-4355-a746-79515c6bc6ca"}}]}