{"resourceType":"Bundle","id":"tests-e1c9cd1e-0845-4c81-a875-eb897e9bc661-bundle","type":"transaction","entry":[{"fullUrl":"https://madie.cms.gov/Patient/e1c9cd1e-0845-4c81-a875-eb897e9bc661","resource":{"resourceType":"Patient","id":"e1c9cd1e-0845-4c81-a875-eb897e9bc661","meta":{"profile":["http://hl7.org/fhir/us/qicore/StructureDefinition/qicore-patient"]},"text":{"status":"generated","div":"<div xmlns=\"http://www.w3.org/1999/xhtml\"><div class=\"hapiHeaderText\">Risk_OtherPreEclampsia<b>RISKPass </b></div><table class=\"hapiPropertyTable\"><tbody><tr><td>Date of birth</td><td><span>01 February 2004</span></td></tr></tbody></table></div>"},"extension":[{"url":"http://hl7.org/fhir/us/core/StructureDefinition/us-core-race","extension":[{"url":"ombCategory","valueCoding":{"system":"urn:oid:2.16.840.1.113883.6.238","code":"1002-5","display":"American Indian or Alaska Native","userSelected":true}},{"url":"text","valueString":"American Indian or Alaska Native"}]},{"url":"http://hl7.org/fhir/us/core/StructureDefinition/us-core-ethnicity","extension":[{"url":"ombCategory","valueCoding":{"system":"urn:oid:2.16.840.1.113883.6.238","code":"2135-2","display":"Hispanic or Latino","userSelected":true}},{"url":"text","valueString":"Hispanic or Latino"}]}],"identifier":[{"type":{"coding":[{"system":"http://terminology.hl7.org/CodeSystem/v2-0203","code":"MR"}]},"system":"https://bonnie-fhir.healthit.gov/","value":"63594c7a6aee9629c82981df"}],"active":true,"name":[{"use":"usual","family":"RiskPass","given":["Risk_OtherPreEclampsia"]}],"gender":"female","birthDate":"2004-02-01"},"request":{"method":"PUT","url":"Patient/e1c9cd1e-0845-4c81-a875-eb897e9bc661"}},{"fullUrl":"https://madie.cms.gov/Observation/ca4d2f27-a604-4f88-8e35-18dfedf213a4","resource":{"resourceType":"Observation","id":"ca4d2f27-a604-4f88-8e35-18dfedf213a4","meta":{"profile":["http://hl7.org/fhir/us/qicore/StructureDefinition/qicore-observation"]},"status":"final","category":[{"coding":[{"system":"http://terminology.hl7.org/CodeSystem/observation-category","code":"exam","display":"exam","userSelected":true}]}],"code":{"coding":[{"system":"http://loinc.org","code":"93857-1"}]},"subject":{"reference":"Patient/e1c9cd1e-0845-4c81-a875-eb897e9bc661"},"effectiveDateTime":"2025-02-01T08:00:00.000+00:00","valueDateTime":"2025-02-01T08:00:00+00:00"},"request":{"method":"PUT","url":"Observation/ca4d2f27-a604-4f88-8e35-18dfedf213a4"}},{"fullUrl":"https://madie.cms.gov/Observation/0e9bf5ef-b661-455f-a3c0-85f2adf115c5","resource":{"resourceType":"Observation","id":"0e9bf5ef-b661-455f-a3c0-85f2adf115c5","meta":{"profile":["http://hl7.org/fhir/us/qicore/StructureDefinition/qicore-observation"]},"status":"final","category":[{"coding":[{"system":"http://terminology.hl7.org/CodeSystem/observation-category","code":"exam","display":"exam","userSelected":true}]}],"code":{"coding":[{"system":"http://loinc.org","code":"11778-8"}]},"subject":{"reference":"Patient/e1c9cd1e-0845-4c81-a875-eb897e9bc661"},"effectiveDateTime":"2025-02-01T08:00:00.000+00:00","valueDateTime":"2025-02-01T00:00:00.000+00:00"},"request":{"method":"PUT","url":"Observation/0e9bf5ef-b661-455f-a3c0-85f2adf115c5"}},{"fullUrl":"https://madie.cms.gov/Encounter/00f490d3-0b31-4e6c-95f1-0f7008f2885e","resource":{"resourceType":"Encounter","id":"00f490d3-0b31-4e6c-95f1-0f7008f2885e","meta":{"profile":["http://hl7.org/fhir/us/qicore/StructureDefinition/qicore-encounter"]},"status":"finished","class":{"system":"http://terminology.hl7.org/CodeSystem/v3-ActCode","code":"IMP","display":"inpatient encounter"},"type":[{"coding":[{"system":"http://snomed.info/sct","code":"183452005"}]}],"subject":{"reference":"Patient/e1c9cd1e-0845-4c81-a875-eb897e9bc661"},"period":{"start":"2025-02-01T08:00:00.000Z","end":"2025-02-05T08:15:00.000Z"},"diagnosis":[{"extension":[{"url":"http://hl7.org/fhir/us/qicore/StructureDefinition/qicore-encounter-diagnosisPresentOnAdmission","valueCodeableConcept":{"coding":[{"system":"https://www.cms.gov/Medicare/Medicare-Fee-for-Service-Payment/HospitalAcqCond/Coding","code":"Y"}]}}],"condition":{"reference":"Condition/58df7d14-7df8-4116-8693-071cc5664de2"}},{"extension":[{"url":"http://hl7.org/fhir/us/qicore/StructureDefinition/qicore-encounter-diagnosisPresentOnAdmission","valueCodeableConcept":{"coding":[{"system":"https://www.cms.gov/Medicare/Medicare-Fee-for-Service-Payment/HospitalAcqCond/Coding","code":"N"}]}}],"condition":{"reference":"Condition/a0c40aeb-aaee-4a16-b931-1886620141b7"}}]},"request":{"method":"PUT","url":"Encounter/00f490d3-0b31-4e6c-95f1-0f7008f2885e"}},{"fullUrl":"https://madie.cms.gov/Procedure/bf62411c-3c9f-4d46-bf04-d9fdf2ace6eb","resource":{"resourceType":"Procedure","id":"bf62411c-3c9f-4d46-bf04-d9fdf2ace6eb","meta":{"profile":["http://hl7.org/fhir/us/qicore/StructureDefinition/qicore-procedure"]},"extension":[{"url":"http://hl7.org/fhir/us/qicore/StructureDefinition/qicore-recorded","valueDateTime":"2013-04-05T09:35:00-04:00"}],"status":"completed","code":{"coding":[{"system":"http://snomed.info/sct","code":"10745001"}]},"subject":{"reference":"Patient/e1c9cd1e-0845-4c81-a875-eb897e9bc661"},"performedDateTime":"2025-02-01T08:00:00.000+00:00"},"request":{"method":"PUT","url":"Procedure/bf62411c-3c9f-4d46-bf04-d9fdf2ace6eb"}},{"fullUrl":"https://madie.cms.gov/Condition/a0c40aeb-aaee-4a16-b931-1886620141b7","resource":{"resourceType":"Condition","id":"a0c40aeb-aaee-4a16-b931-1886620141b7","meta":{"profile":["http://hl7.org/fhir/us/qicore/StructureDefinition/qicore-condition"]},"category":[{"coding":[{"system":"http://terminology.hl7.org/CodeSystem/condition-category","code":"encounter-diagnosis","display":"Encounter Diagnosis"}]}],"code":{"coding":[{"system":"http://hl7.org/fhir/sid/icd-10-cm","version":"2023","code":"A32.7","display":"Listerial sepsis","userSelected":true}]},"subject":{"reference":"Patient/e1c9cd1e-0845-4c81-a875-eb897e9bc661"},"recordedDate":"2025-10-26T08:00:00.000+00:00"},"request":{"method":"PUT","url":"Condition/a0c40aeb-aaee-4a16-b931-1886620141b7"}},{"fullUrl":"https://madie.cms.gov/Condition/58df7d14-7df8-4116-8693-071cc5664de2","resource":{"resourceType":"Condition","id":"58df7d14-7df8-4116-8693-071cc5664de2","meta":{"profile":["http://hl7.org/fhir/us/qicore/StructureDefinition/qicore-condition"]},"category":[{"coding":[{"system":"http://terminology.hl7.org/CodeSystem/condition-category","code":"encounter-diagnosis","display":"Encounter Diagnosis"}]}],"code":{"coding":[{"system":"http://hl7.org/fhir/sid/icd-10-cm","version":"2023","code":"O13.1","display":"Other PreEclampsia","userSelected":true}]},"subject":{"reference":"Patient/e1c9cd1e-0845-4c81-a875-eb897e9bc661"},"recordedDate":"2025-10-26T08:00:00.000+00:00"},"request":{"method":"PUT","url":"Condition/58df7d14-7df8-4116-8693-071cc5664de2"}},{"fullUrl":"https://madie.cms.gov/MeasureReport/12fafc02-a557-4a1f-af54-4a4df62e620c","resource":{"resourceType":"MeasureReport","id":"12fafc02-a557-4a1f-af54-4a4df62e620c","meta":{"profile":["http://hl7.org/fhir/us/cqfmeasures/StructureDefinition/test-case-cqfm"]},"contained":[{"resourceType":"Parameters","id":"f82add1d-c72e-4b5a-91dc-c26e1f8f11dc-parameters","parameter":[{"name":"subject","valueString":"e1c9cd1e-0845-4c81-a875-eb897e9bc661"}]}],"extension":[{"url":"http://hl7.org/fhir/us/cqfmeasures/StructureDefinition/cqfm-inputParameters","valueReference":{"reference":"#f82add1d-c72e-4b5a-91dc-c26e1f8f11dc-parameters"}},{"url":"http://hl7.org/fhir/us/cqfmeasures/StructureDefinition/cqfm-testCaseDescription","valueMarkdown":"Risk variable of other pre-eclampsia.\n\n"}],"modifierExtension":[{"url":"http://hl7.org/fhir/us/cqfmeasures/StructureDefinition/cqfm-isTestCase","valueBoolean":true}],"status":"complete","type":"individual","measure":"https://madie.cms.gov/Measure/CMS1028FHIRPCSevereOBComps","period":{"start":"2025-01-01","end":"2025-12-31"},"group":[{"population":[{"code":{"coding":[{"system":"http://terminology.hl7.org/CodeSystem/measure-population","code":"initial-population","display":"Initial Population"}]},"count":1},{"code":{"coding":[{"system":"http://terminology.hl7.org/CodeSystem/measure-population","code":"denominator","display":"Denominator"}]},"count":1},{"code":{"coding":[{"system":"http://terminology.hl7.org/CodeSystem/measure-population","code":"numerator","display":"Numerator"}]},"count":1},{"code":{"coding":[{"system":"http://terminology.hl7.org/CodeSystem/measure-population","code":"numerator-exclusion","display":"Numerator Exclusion"}]},"count":0}]},{"population":[{"code":{"coding":[{"system":"http://terminology.hl7.org/CodeSystem/measure-population","code":"initial-population","display":"Initial Population"}]},"count":1},{"code":{"coding":[{"system":"http://terminology.hl7.org/CodeSystem/measure-population","code":"denominator","display":"Denominator"}]},"count":1},{"code":{"coding":[{"system":"http://terminology.hl7.org/CodeSystem/measure-population","code":"numerator","display":"Numerator"}]},"count":1},{"code":{"coding":[{"system":"http://terminology.hl7.org/CodeSystem/measure-population","code":"numerator-exclusion","display":"Numerator Exclusion"}]},"count":0}]}]},"request":{"method":"PUT","url":"MeasureReport/12fafc02-a557-4a1f-af54-4a4df62e620c"}}]}