{"resourceType":"Bundle","id":"tests-81aff249-2af4-4a36-9b3b-c1255bb0a13d-bundle","type":"transaction","entry":[{"fullUrl":"https://madie.cms.gov/Patient/81aff249-2af4-4a36-9b3b-c1255bb0a13d","resource":{"resourceType":"Patient","id":"81aff249-2af4-4a36-9b3b-c1255bb0a13d","meta":{"profile":["http://hl7.org/fhir/us/qicore/StructureDefinition/qicore-patient"]},"text":{"status":"generated","div":"<div xmlns=\"http://www.w3.org/1999/xhtml\"><div class=\"hapiHeaderText\">AssPrfEGALastIsNullFirstIs20 <b>DENOMPASS </b></div><table class=\"hapiPropertyTable\"><tbody><tr><td>Date of birth</td><td><span>01 February 2004</span></td></tr></tbody></table></div>"},"extension":[{"url":"http://hl7.org/fhir/us/core/StructureDefinition/us-core-race","extension":[{"url":"ombCategory","valueCoding":{"system":"urn:oid:2.16.840.1.113883.6.238","code":"1002-5","display":"American Indian or Alaska Native","userSelected":true}},{"url":"text","valueString":"American Indian or Alaska Native"}]},{"url":"http://hl7.org/fhir/us/core/StructureDefinition/us-core-ethnicity","extension":[{"url":"ombCategory","valueCoding":{"system":"urn:oid:2.16.840.1.113883.6.238","code":"2135-2","display":"Hispanic or Latino","userSelected":true}},{"url":"text","valueString":"Hispanic or Latino"}]}],"identifier":[{"type":{"coding":[{"system":"http://terminology.hl7.org/CodeSystem/v2-0203","code":"MR"}]},"system":"https://bonnie-fhir.healthit.gov/","value":"633b3f9f0968f80122503cdb"}],"active":true,"name":[{"use":"usual","family":"DENOMPass","given":["AssPrfEGALastIsNullFirstIs20 "]}],"gender":"female","birthDate":"2004-02-01"},"request":{"method":"PUT","url":"Patient/81aff249-2af4-4a36-9b3b-c1255bb0a13d"}},{"fullUrl":"https://madie.cms.gov/Observation/1f552f6f-873d-459d-b444-f6e1e3606945","resource":{"resourceType":"Observation","id":"1f552f6f-873d-459d-b444-f6e1e3606945","meta":{"profile":["http://hl7.org/fhir/us/qicore/StructureDefinition/qicore-observation"]},"status":"final","category":[{"coding":[{"system":"http://terminology.hl7.org/CodeSystem/observation-category","code":"exam","display":"exam","userSelected":true}]}],"code":{"coding":[{"system":"http://loinc.org","code":"93857-1"}]},"subject":{"reference":"Patient/81aff249-2af4-4a36-9b3b-c1255bb0a13d"},"effectiveDateTime":"2025-02-01T08:00:00.000+00:00","valueDateTime":"2025-02-01T08:00:00+00:00"},"request":{"method":"PUT","url":"Observation/1f552f6f-873d-459d-b444-f6e1e3606945"}},{"fullUrl":"https://madie.cms.gov/Observation/811f171d-7874-4162-b87b-093486110f0e","resource":{"resourceType":"Observation","id":"811f171d-7874-4162-b87b-093486110f0e","meta":{"profile":["http://hl7.org/fhir/us/qicore/StructureDefinition/qicore-observation"]},"status":"final","category":[{"coding":[{"system":"http://terminology.hl7.org/CodeSystem/observation-category","code":"exam","display":"exam","userSelected":true}]}],"code":{"coding":[{"system":"http://loinc.org","code":"11884-4"}]},"subject":{"reference":"Patient/81aff249-2af4-4a36-9b3b-c1255bb0a13d"},"effectiveDateTime":"2025-02-01T08:00:00.000+00:00","valueQuantity":{"value":20,"system":"http://unitsofmeasure.org","code":"wk"}},"request":{"method":"PUT","url":"Observation/811f171d-7874-4162-b87b-093486110f0e"}},{"fullUrl":"https://madie.cms.gov/Observation/6b0f7593-b14f-45fe-ab01-21395982ec89","resource":{"resourceType":"Observation","id":"6b0f7593-b14f-45fe-ab01-21395982ec89","meta":{"profile":["http://hl7.org/fhir/us/qicore/StructureDefinition/qicore-observation"]},"status":"final","category":[{"coding":[{"system":"http://terminology.hl7.org/CodeSystem/observation-category","code":"exam","display":"exam","userSelected":true}]}],"code":{"coding":[{"system":"http://loinc.org","code":"11884-4"}]},"subject":{"reference":"Patient/81aff249-2af4-4a36-9b3b-c1255bb0a13d"},"effectiveDateTime":"2025-02-01T08:01:00.000+00:00"},"request":{"method":"PUT","url":"Observation/6b0f7593-b14f-45fe-ab01-21395982ec89"}},{"fullUrl":"https://madie.cms.gov/Encounter/b49aa3a6-0f6c-4209-8f23-5110888287c3","resource":{"resourceType":"Encounter","id":"b49aa3a6-0f6c-4209-8f23-5110888287c3","meta":{"profile":["http://hl7.org/fhir/us/qicore/StructureDefinition/qicore-encounter"]},"status":"finished","class":{"system":"http://terminology.hl7.org/CodeSystem/v3-ActCode","code":"IMP","display":"inpatient encounter"},"type":[{"coding":[{"system":"http://snomed.info/sct","code":"183452005"}]}],"subject":{"reference":"Patient/81aff249-2af4-4a36-9b3b-c1255bb0a13d"},"period":{"start":"2025-02-01T08:00:00.000Z","end":"2025-02-05T08:15:00.000Z"}},"request":{"method":"PUT","url":"Encounter/b49aa3a6-0f6c-4209-8f23-5110888287c3"}},{"fullUrl":"https://madie.cms.gov/Coverage/a3f179f3-0dd1-4b79-92a0-524ac987313b","resource":{"resourceType":"Coverage","id":"a3f179f3-0dd1-4b79-92a0-524ac987313b","status":"active","beneficiary":{"reference":"Patient/81aff249-2af4-4a36-9b3b-c1255bb0a13d"},"period":{"start":"2004-02-01T08:00:00.000Z"},"payor":[{"reference":"Organization/5ad6ea38-07e9-4482-9e1b-c09eee595be9"}]},"request":{"method":"PUT","url":"Coverage/a3f179f3-0dd1-4b79-92a0-524ac987313b"}},{"fullUrl":"https://madie.cms.gov/Procedure/53ce8667-07bc-4a10-86da-6691308bd22d","resource":{"resourceType":"Procedure","id":"53ce8667-07bc-4a10-86da-6691308bd22d","meta":{"profile":["http://hl7.org/fhir/us/qicore/StructureDefinition/qicore-procedure"]},"extension":[{"url":"http://hl7.org/fhir/us/qicore/StructureDefinition/qicore-recorded","valueDateTime":"2013-04-05T09:35:00-04:00"}],"status":"completed","code":{"coding":[{"system":"http://snomed.info/sct","code":"10745001"}]},"subject":{"reference":"Patient/81aff249-2af4-4a36-9b3b-c1255bb0a13d"},"performedPeriod":{"start":"2025-02-01T08:00:00.000Z","end":"2025-02-05T08:15:00.000Z"}},"request":{"method":"PUT","url":"Procedure/53ce8667-07bc-4a10-86da-6691308bd22d"}},{"fullUrl":"https://madie.cms.gov/Organization/503b2fdc-556b-496a-85ce-2f2ddd59734b","resource":{"resourceType":"Organization","id":"5ad6ea38-07e9-4482-9e1b-c09eee595be9","meta":{"profile":["http://hl7.org/fhir/us/qicore/StructureDefinition/qicore-organization"]},"identifier":[{"use":"temp","system":"urn:oid:2.16.840.1.113883.4.4","value":"21-3259825"}],"active":true,"type":[{"coding":[{"system":"http://terminology.hl7.org/CodeSystem/organization-type","code":"pay","display":"Payer"}]}],"name":"Blue Cross Blue Shield of Texas","telecom":[{"system":"phone","value":"(+1) 972-766-6900"}],"address":[{"use":"billing","type":"postal","line":["P.O. Box 660044"],"city":"Dallas","state":"TX","postalCode":"75266-0044","country":"USA"}]},"request":{"method":"PUT","url":"Organization/5ad6ea38-07e9-4482-9e1b-c09eee595be9"}},{"fullUrl":"https://madie.cms.gov/Practitioner/e69a3c43-4fa2-4278-8e92-9b0ea8f3b38a","resource":{"resourceType":"Practitioner","id":"e69a3c43-4fa2-4278-8e92-9b0ea8f3b38a","identifier":[{"system":"http://hl7.org/fhir/sid/us-npi","value":"123456"}],"name":[{"family":"Evil","prefix":["Dr"]}]},"request":{"method":"PUT","url":"Practitioner/e69a3c43-4fa2-4278-8e92-9b0ea8f3b38a"}},{"fullUrl":"https://madie.cms.gov/MeasureReport/94b9285d-6e00-4c53-8e98-c4b4f853f752","resource":{"resourceType":"MeasureReport","id":"94b9285d-6e00-4c53-8e98-c4b4f853f752","meta":{"profile":["http://hl7.org/fhir/us/cqfmeasures/StructureDefinition/test-case-cqfm"]},"contained":[{"resourceType":"Parameters","id":"1a1b38de-9612-49ff-b610-460776340f6b-parameters","parameter":[{"name":"subject","valueString":"81aff249-2af4-4a36-9b3b-c1255bb0a13d"}]}],"extension":[{"url":"http://hl7.org/fhir/us/cqfmeasures/StructureDefinition/cqfm-inputParameters","valueReference":{"reference":"#1a1b38de-9612-49ff-b610-460776340f6b-parameters"}},{"url":"http://hl7.org/fhir/us/cqfmeasures/StructureDefinition/cqfm-testCaseDescription","valueMarkdown":"Estimated Gestational Age is 20 on 1st assessment, null on last.\n"}],"modifierExtension":[{"url":"http://hl7.org/fhir/us/cqfmeasures/StructureDefinition/cqfm-isTestCase","valueBoolean":true}],"status":"complete","type":"individual","measure":"https://madie.cms.gov/Measure/CMS1028FHIRPCSevereOBComps","period":{"start":"2025-01-01","end":"2025-12-31"},"group":[{"population":[{"code":{"coding":[{"system":"http://terminology.hl7.org/CodeSystem/measure-population","code":"initial-population","display":"Initial Population"}]},"count":1},{"code":{"coding":[{"system":"http://terminology.hl7.org/CodeSystem/measure-population","code":"denominator","display":"Denominator"}]},"count":1},{"code":{"coding":[{"system":"http://terminology.hl7.org/CodeSystem/measure-population","code":"numerator","display":"Numerator"}]},"count":0},{"code":{"coding":[{"system":"http://terminology.hl7.org/CodeSystem/measure-population","code":"numerator-exclusion","display":"Numerator Exclusion"}]},"count":0}]},{"population":[{"code":{"coding":[{"system":"http://terminology.hl7.org/CodeSystem/measure-population","code":"initial-population","display":"Initial Population"}]},"count":1},{"code":{"coding":[{"system":"http://terminology.hl7.org/CodeSystem/measure-population","code":"denominator","display":"Denominator"}]},"count":1},{"code":{"coding":[{"system":"http://terminology.hl7.org/CodeSystem/measure-population","code":"numerator","display":"Numerator"}]},"count":0},{"code":{"coding":[{"system":"http://terminology.hl7.org/CodeSystem/measure-population","code":"numerator-exclusion","display":"Numerator Exclusion"}]},"count":0}]}]},"request":{"method":"PUT","url":"MeasureReport/94b9285d-6e00-4c53-8e98-c4b4f853f752"}}]}