{"resourceType":"Bundle","id":"tests-cacdd197-cf7f-4159-ae68-96c6d3ed5ea7-bundle","type":"transaction","entry":[{"fullUrl":"https://madie.cms.gov/Patient/cacdd197-cf7f-4159-ae68-96c6d3ed5ea7","resource":{"resourceType":"Patient","id":"cacdd197-cf7f-4159-ae68-96c6d3ed5ea7","meta":{"profile":["http://hl7.org/fhir/us/qicore/StructureDefinition/qicore-patient"]},"text":{"status":"generated","div":"<div xmlns=\"http://www.w3.org/1999/xhtml\"><div class=\"hapiHeaderText\">RISKHctRsltDtTimeEQDelStartless1Min <b>RISKPass </b></div><table class=\"hapiPropertyTable\"><tbody><tr><td>Date of birth</td><td><span>01 February 2004</span></td></tr></tbody></table></div>"},"extension":[{"url":"http://hl7.org/fhir/us/core/StructureDefinition/us-core-race","extension":[{"url":"ombCategory","valueCoding":{"system":"urn:oid:2.16.840.1.113883.6.238","code":"1002-5","display":"American Indian or Alaska Native","userSelected":true}},{"url":"text","valueString":"American Indian or Alaska Native"}]},{"url":"http://hl7.org/fhir/us/core/StructureDefinition/us-core-ethnicity","extension":[{"url":"ombCategory","valueCoding":{"system":"urn:oid:2.16.840.1.113883.6.238","code":"2135-2","display":"Hispanic or Latino","userSelected":true}},{"url":"text","valueString":"Hispanic or Latino"}]}],"identifier":[{"type":{"coding":[{"system":"http://terminology.hl7.org/CodeSystem/v2-0203","code":"MR"}]},"system":"https://bonnie-fhir.healthit.gov/","value":"6359776b6aee9629c8298235"}],"active":true,"name":[{"use":"usual","family":"RiskPass","given":["RISKHctRsltDtTimeEQDelStartless1Min"]}],"gender":"female","birthDate":"2004-02-01"},"request":{"method":"PUT","url":"Patient/cacdd197-cf7f-4159-ae68-96c6d3ed5ea7"}},{"fullUrl":"https://madie.cms.gov/Observation/36d2a96f-e230-46de-81d1-bd7f50b2cac5","resource":{"resourceType":"Observation","id":"36d2a96f-e230-46de-81d1-bd7f50b2cac5","meta":{"profile":["http://hl7.org/fhir/us/qicore/StructureDefinition/qicore-observation"]},"status":"final","category":[{"coding":[{"system":"http://terminology.hl7.org/CodeSystem/observation-category","code":"exam","display":"exam","userSelected":true}]}],"code":{"coding":[{"system":"http://loinc.org","code":"93857-1"}]},"subject":{"reference":"Patient/cacdd197-cf7f-4159-ae68-96c6d3ed5ea7"},"effectiveDateTime":"2025-02-01T08:00:00.000+00:00","valueDateTime":"2025-02-01T08:00:00+00:00"},"request":{"method":"PUT","url":"Observation/36d2a96f-e230-46de-81d1-bd7f50b2cac5"}},{"fullUrl":"https://madie.cms.gov/Observation/f941ebab-4c87-4420-903d-ced5f2192265","resource":{"resourceType":"Observation","id":"f941ebab-4c87-4420-903d-ced5f2192265","meta":{"profile":["http://hl7.org/fhir/us/qicore/StructureDefinition/qicore-observation"]},"status":"final","category":[{"coding":[{"system":"http://terminology.hl7.org/CodeSystem/observation-category","code":"exam","display":"exam","userSelected":true}]}],"code":{"coding":[{"system":"http://loinc.org","code":"11884-4"}]},"subject":{"reference":"Patient/cacdd197-cf7f-4159-ae68-96c6d3ed5ea7"},"effectiveDateTime":"2025-02-01T08:00:00.000+00:00","valueQuantity":{"value":21,"system":"http://unitsofmeasure.org","code":"wk"}},"request":{"method":"PUT","url":"Observation/f941ebab-4c87-4420-903d-ced5f2192265"}},{"fullUrl":"https://madie.cms.gov/Encounter/f79df75e-ff5c-4fe0-8c57-c7ba5c6e97cb","resource":{"resourceType":"Encounter","id":"f79df75e-ff5c-4fe0-8c57-c7ba5c6e97cb","meta":{"profile":["http://hl7.org/fhir/us/qicore/StructureDefinition/qicore-encounter"]},"status":"finished","class":{"system":"http://terminology.hl7.org/CodeSystem/v3-ActCode","code":"IMP","display":"inpatient encounter"},"type":[{"coding":[{"system":"http://snomed.info/sct","code":"183452005"}]}],"subject":{"reference":"Patient/cacdd197-cf7f-4159-ae68-96c6d3ed5ea7"},"period":{"start":"2025-02-01T08:00:00.000Z","end":"2025-02-05T08:15:00.000Z"}},"request":{"method":"PUT","url":"Encounter/f79df75e-ff5c-4fe0-8c57-c7ba5c6e97cb"}},{"fullUrl":"https://madie.cms.gov/Encounter/12b14e8f-4b12-4b0e-b056-dad6ec716568","resource":{"resourceType":"Encounter","id":"12b14e8f-4b12-4b0e-b056-dad6ec716568","meta":{"profile":["http://hl7.org/fhir/us/qicore/StructureDefinition/qicore-encounter"]},"status":"finished","class":{"system":"http://terminology.hl7.org/CodeSystem/v3-ActCode","code":"EMER","display":"emergency"},"type":[{"coding":[{"system":"http://snomed.info/sct","code":"4525004"}]}],"subject":{"reference":"Patient/cacdd197-cf7f-4159-ae68-96c6d3ed5ea7"},"period":{"start":"2025-02-01T07:00:00.000Z","end":"2025-02-01T07:59:00.000Z"}},"request":{"method":"PUT","url":"Encounter/12b14e8f-4b12-4b0e-b056-dad6ec716568"}},{"fullUrl":"https://madie.cms.gov/Procedure/2c5ab1eb-2d81-4a86-a33e-b747e80eb8db","resource":{"resourceType":"Procedure","id":"2c5ab1eb-2d81-4a86-a33e-b747e80eb8db","meta":{"profile":["http://hl7.org/fhir/us/qicore/StructureDefinition/qicore-procedure"]},"extension":[{"url":"http://hl7.org/fhir/us/qicore/StructureDefinition/qicore-recorded","valueDateTime":"2025-02-04T09:35:00-04:00"}],"status":"completed","code":{"coding":[{"system":"http://snomed.info/sct","code":"10745001"}]},"subject":{"reference":"Patient/cacdd197-cf7f-4159-ae68-96c6d3ed5ea7"},"performedPeriod":{"start":"2025-02-01T08:00:00.000Z","end":"2025-02-05T08:15:00.000Z"}},"request":{"method":"PUT","url":"Procedure/2c5ab1eb-2d81-4a86-a33e-b747e80eb8db"}},{"fullUrl":"https://madie.cms.gov/Observation/93ff8bcd-dbf0-4975-b59a-c12d70c84c70","resource":{"resourceType":"Observation","id":"93ff8bcd-dbf0-4975-b59a-c12d70c84c70","meta":{"profile":["http://hl7.org/fhir/us/core/StructureDefinition/us-core-observation-lab"]},"status":"final","category":[{"coding":[{"system":"http://terminology.hl7.org/CodeSystem/observation-category","code":"laboratory","display":"laboratory","userSelected":true}]}],"code":{"coding":[{"system":"http://loinc.org","version":"2.73","code":"20570-8","display":"Hematocrit [Volume Fraction] in Blood","userSelected":true}]},"subject":{"reference":"Patient/cacdd197-cf7f-4159-ae68-96c6d3ed5ea7"},"effectiveDateTime":"2025-02-01T07:59:00.000+00:00","issued":"2025-02-01T07:59:00.000+00:00","valueQuantity":{"value":20,"unit":"%"}},"request":{"method":"PUT","url":"Observation/93ff8bcd-dbf0-4975-b59a-c12d70c84c70"}},{"fullUrl":"https://madie.cms.gov/MeasureReport/5b3fa378-ed43-4aaa-859c-89718d205c15","resource":{"resourceType":"MeasureReport","id":"5b3fa378-ed43-4aaa-859c-89718d205c15","meta":{"profile":["http://hl7.org/fhir/us/cqfmeasures/StructureDefinition/test-case-cqfm"]},"contained":[{"resourceType":"Parameters","id":"14e88214-1a72-4e35-b358-cd0797711ad6-parameters","parameter":[{"name":"subject","valueString":"cacdd197-cf7f-4159-ae68-96c6d3ed5ea7"}]}],"extension":[{"url":"http://hl7.org/fhir/us/cqfmeasures/StructureDefinition/cqfm-inputParameters","valueReference":{"reference":"#14e88214-1a72-4e35-b358-cd0797711ad6-parameters"}},{"url":"http://hl7.org/fhir/us/cqfmeasures/StructureDefinition/cqfm-testCaseDescription","valueMarkdown":"Patient with hematocrit result date/time = delivery date/time minus 1 minute\n"}],"modifierExtension":[{"url":"http://hl7.org/fhir/us/cqfmeasures/StructureDefinition/cqfm-isTestCase","valueBoolean":true}],"status":"complete","type":"individual","measure":"https://madie.cms.gov/Measure/CMS1028FHIRPCSevereOBComps","period":{"start":"2025-01-01","end":"2025-12-31"},"group":[{"population":[{"code":{"coding":[{"system":"http://terminology.hl7.org/CodeSystem/measure-population","code":"initial-population","display":"Initial Population"}]},"count":1},{"code":{"coding":[{"system":"http://terminology.hl7.org/CodeSystem/measure-population","code":"denominator","display":"Denominator"}]},"count":1},{"code":{"coding":[{"system":"http://terminology.hl7.org/CodeSystem/measure-population","code":"numerator","display":"Numerator"}]},"count":0},{"code":{"coding":[{"system":"http://terminology.hl7.org/CodeSystem/measure-population","code":"numerator-exclusion","display":"Numerator Exclusion"}]},"count":0}]},{"population":[{"code":{"coding":[{"system":"http://terminology.hl7.org/CodeSystem/measure-population","code":"initial-population","display":"Initial Population"}]},"count":1},{"code":{"coding":[{"system":"http://terminology.hl7.org/CodeSystem/measure-population","code":"denominator","display":"Denominator"}]},"count":1},{"code":{"coding":[{"system":"http://terminology.hl7.org/CodeSystem/measure-population","code":"numerator","display":"Numerator"}]},"count":0},{"code":{"coding":[{"system":"http://terminology.hl7.org/CodeSystem/measure-population","code":"numerator-exclusion","display":"Numerator Exclusion"}]},"count":0}]}]},"request":{"method":"PUT","url":"MeasureReport/5b3fa378-ed43-4aaa-859c-89718d205c15"}}]}