{"resourceType":"Bundle","id":"tests-39b4a302-b060-4fc7-b2a5-3ac12fa98a43-bundle","type":"transaction","entry":[{"fullUrl":"https://madie.cms.gov/Patient/39b4a302-b060-4fc7-b2a5-3ac12fa98a43","resource":{"resourceType":"Patient","id":"39b4a302-b060-4fc7-b2a5-3ac12fa98a43","meta":{"profile":["http://hl7.org/fhir/us/qicore/StructureDefinition/qicore-patient"]},"text":{"status":"generated","div":"<div xmlns=\"http://www.w3.org/1999/xhtml\"><div class=\"hapiHeaderText\">LastAssPrfEGARelvTm_24Hr00Min00Sec_B4LastTmDELRsltDtTime <b>DENOMPASS </b></div><table class=\"hapiPropertyTable\"><tbody><tr><td>Date of birth</td><td><span>01 February 2004</span></td></tr></tbody></table></div>"},"extension":[{"url":"http://hl7.org/fhir/us/core/StructureDefinition/us-core-race","extension":[{"url":"ombCategory","valueCoding":{"system":"urn:oid:2.16.840.1.113883.6.238","code":"1002-5","display":"American Indian or Alaska Native","userSelected":true}},{"url":"text","valueString":"American Indian or Alaska Native"}]},{"url":"http://hl7.org/fhir/us/core/StructureDefinition/us-core-ethnicity","extension":[{"url":"ombCategory","valueCoding":{"system":"urn:oid:2.16.840.1.113883.6.238","code":"2135-2","display":"Hispanic or Latino","userSelected":true}},{"url":"text","valueString":"Hispanic or Latino"}]}],"identifier":[{"type":{"coding":[{"system":"http://terminology.hl7.org/CodeSystem/v2-0203","code":"MR"}]},"system":"https://bonnie-fhir.healthit.gov/","value":"633b3f9f0968f80122503cdd"}],"active":true,"name":[{"use":"usual","family":"DENOMPass","given":["LastAssPrfEGARelvTm_24Hr00Min00Sec_B4LastTmDELRsltDtTime"]}],"gender":"female","birthDate":"2004-02-01"},"request":{"method":"PUT","url":"Patient/39b4a302-b060-4fc7-b2a5-3ac12fa98a43"}},{"fullUrl":"https://madie.cms.gov/Observation/874c3b99-3c2c-402d-a3dd-139ecf052ef0","resource":{"resourceType":"Observation","id":"874c3b99-3c2c-402d-a3dd-139ecf052ef0","meta":{"profile":["http://hl7.org/fhir/us/qicore/StructureDefinition/qicore-observation"]},"status":"final","category":[{"coding":[{"system":"http://terminology.hl7.org/CodeSystem/observation-category","code":"exam","display":"exam","userSelected":true}]}],"code":{"coding":[{"system":"http://loinc.org","code":"93857-1"}]},"subject":{"reference":"Patient/39b4a302-b060-4fc7-b2a5-3ac12fa98a43"},"effectiveDateTime":"2025-02-01T08:00:00.000+00:00","valueDateTime":"2025-02-01T08:00:00+00:00"},"request":{"method":"PUT","url":"Observation/874c3b99-3c2c-402d-a3dd-139ecf052ef0"}},{"fullUrl":"https://madie.cms.gov/Observation/630ed62a-00de-4200-ad13-30bb889ce0a8","resource":{"resourceType":"Observation","id":"630ed62a-00de-4200-ad13-30bb889ce0a8","meta":{"profile":["http://hl7.org/fhir/us/qicore/StructureDefinition/qicore-observation"]},"status":"final","category":[{"coding":[{"system":"http://terminology.hl7.org/CodeSystem/observation-category","code":"exam","display":"exam","userSelected":true}]}],"code":{"coding":[{"system":"http://loinc.org","code":"11884-4"}]},"subject":{"reference":"Patient/39b4a302-b060-4fc7-b2a5-3ac12fa98a43"},"effectiveDateTime":"2025-01-31T08:00:00.000+00:00","valueQuantity":{"value":20,"unit":"wk"}},"request":{"method":"PUT","url":"Observation/630ed62a-00de-4200-ad13-30bb889ce0a8"}},{"fullUrl":"https://madie.cms.gov/Encounter/0bcb927a-579a-4d53-9707-ce98643b8378","resource":{"resourceType":"Encounter","id":"0bcb927a-579a-4d53-9707-ce98643b8378","meta":{"profile":["http://hl7.org/fhir/us/qicore/StructureDefinition/qicore-encounter"]},"status":"finished","class":{"system":"http://terminology.hl7.org/CodeSystem/v3-ActCode","code":"IMP","display":"inpatient encounter"},"type":[{"coding":[{"system":"http://snomed.info/sct","code":"183452005"}]}],"subject":{"reference":"Patient/39b4a302-b060-4fc7-b2a5-3ac12fa98a43"},"period":{"start":"2025-02-01T08:00:00.000Z","end":"2025-02-05T08:15:00.000Z"}},"request":{"method":"PUT","url":"Encounter/0bcb927a-579a-4d53-9707-ce98643b8378"}},{"fullUrl":"https://madie.cms.gov/Procedure/ebd35904-6f8a-412f-818d-7d654d7c6e0b","resource":{"resourceType":"Procedure","id":"ebd35904-6f8a-412f-818d-7d654d7c6e0b","meta":{"profile":["http://hl7.org/fhir/us/qicore/StructureDefinition/qicore-procedure"]},"extension":[{"url":"http://hl7.org/fhir/us/qicore/StructureDefinition/qicore-recorded","valueDateTime":"2013-04-05T09:35:00-04:00"}],"status":"completed","code":{"coding":[{"system":"http://snomed.info/sct","code":"10745001"}]},"subject":{"reference":"Patient/39b4a302-b060-4fc7-b2a5-3ac12fa98a43"},"performedPeriod":{"start":"2025-02-01T08:00:00.000Z","end":"2025-02-05T08:15:00.000Z"}},"request":{"method":"PUT","url":"Procedure/ebd35904-6f8a-412f-818d-7d654d7c6e0b"}},{"fullUrl":"https://madie.cms.gov/Coverage/2c1f3f98-c862-4216-84eb-425a7c72097d","resource":{"resourceType":"Coverage","id":"2c1f3f98-c862-4216-84eb-425a7c72097d","meta":{"profile":["http://hl7.org/fhir/us/qicore/StructureDefinition/qicore-coverage"]},"status":"active","beneficiary":{"reference":"Patient/39b4a302-b060-4fc7-b2a5-3ac12fa98a43"},"payor":[{"reference":"Organization/db141f66-a1cc-407b-9e95-adac27adee14"}]},"request":{"method":"PUT","url":"Coverage/2c1f3f98-c862-4216-84eb-425a7c72097d"}},{"fullUrl":"https://madie.cms.gov/Organization/6df8da08-4f84-42fb-b7c0-1e0c248b5c2d","resource":{"resourceType":"Organization","id":"db141f66-a1cc-407b-9e95-adac27adee14","meta":{"profile":["http://hl7.org/fhir/us/qicore/StructureDefinition/qicore-organization"]},"identifier":[{"use":"temp","system":"urn:oid:2.16.840.1.113883.4.4","value":"21-3259825"}],"active":true,"type":[{"coding":[{"system":"http://terminology.hl7.org/CodeSystem/organization-type","code":"pay","display":"Payer"}]}],"name":"Blue Cross Blue Shield of Texas","telecom":[{"system":"phone","value":"(+1) 972-766-6900"}],"address":[{"use":"billing","type":"postal","line":["P.O. Box 660044"],"city":"Dallas","state":"TX","postalCode":"75266-0044","country":"USA"}]},"request":{"method":"PUT","url":"Organization/db141f66-a1cc-407b-9e95-adac27adee14"}},{"fullUrl":"https://madie.cms.gov/Practitioner/4706a8e2-e80e-4eee-a51f-afc77ff789c7","resource":{"resourceType":"Practitioner","id":"4706a8e2-e80e-4eee-a51f-afc77ff789c7","identifier":[{"system":"http://hl7.org/fhir/sid/us-npi","value":"123456"}],"name":[{"family":"Evil","prefix":["Dr"]}]},"request":{"method":"PUT","url":"Practitioner/4706a8e2-e80e-4eee-a51f-afc77ff789c7"}},{"fullUrl":"https://madie.cms.gov/MeasureReport/d43d4d82-689f-4bcc-a7ee-cd12447ce6f7","resource":{"resourceType":"MeasureReport","id":"d43d4d82-689f-4bcc-a7ee-cd12447ce6f7","meta":{"profile":["http://hl7.org/fhir/us/cqfmeasures/StructureDefinition/test-case-cqfm"]},"contained":[{"resourceType":"Parameters","id":"0c9ef7f1-28d0-4bc7-86de-e7b6ca878c57-parameters","parameter":[{"name":"subject","valueString":"39b4a302-b060-4fc7-b2a5-3ac12fa98a43"}]}],"extension":[{"url":"http://hl7.org/fhir/us/cqfmeasures/StructureDefinition/cqfm-inputParameters","valueReference":{"reference":"#0c9ef7f1-28d0-4bc7-86de-e7b6ca878c57-parameters"}},{"url":"http://hl7.org/fhir/us/cqfmeasures/StructureDefinition/cqfm-testCaseDescription","valueMarkdown":"Estimated Gestational Age Relevant Date Time is 24 hours before Time of Delivery (result)\n"}],"modifierExtension":[{"url":"http://hl7.org/fhir/us/cqfmeasures/StructureDefinition/cqfm-isTestCase","valueBoolean":true}],"status":"complete","type":"individual","measure":"https://madie.cms.gov/Measure/CMS1028FHIRPCSevereOBComps","period":{"start":"2025-01-01","end":"2025-12-31"},"group":[{"population":[{"code":{"coding":[{"system":"http://terminology.hl7.org/CodeSystem/measure-population","code":"initial-population","display":"Initial Population"}]},"count":1},{"code":{"coding":[{"system":"http://terminology.hl7.org/CodeSystem/measure-population","code":"denominator","display":"Denominator"}]},"count":1},{"code":{"coding":[{"system":"http://terminology.hl7.org/CodeSystem/measure-population","code":"numerator","display":"Numerator"}]},"count":0},{"code":{"coding":[{"system":"http://terminology.hl7.org/CodeSystem/measure-population","code":"numerator-exclusion","display":"Numerator Exclusion"}]},"count":0}]},{"population":[{"code":{"coding":[{"system":"http://terminology.hl7.org/CodeSystem/measure-population","code":"initial-population","display":"Initial Population"}]},"count":1},{"code":{"coding":[{"system":"http://terminology.hl7.org/CodeSystem/measure-population","code":"denominator","display":"Denominator"}]},"count":1},{"code":{"coding":[{"system":"http://terminology.hl7.org/CodeSystem/measure-population","code":"numerator","display":"Numerator"}]},"count":0},{"code":{"coding":[{"system":"http://terminology.hl7.org/CodeSystem/measure-population","code":"numerator-exclusion","display":"Numerator Exclusion"}]},"count":0}]}]},"request":{"method":"PUT","url":"MeasureReport/d43d4d82-689f-4bcc-a7ee-cd12447ce6f7"}}]}