{"resourceType":"Bundle","id":"tests-a8615f09-8387-4b16-8637-76ebabb4d9f5-bundle","type":"transaction","entry":[{"fullUrl":"https://madie.cms.gov/Patient/a8615f09-8387-4b16-8637-76ebabb4d9f5","resource":{"resourceType":"Patient","id":"a8615f09-8387-4b16-8637-76ebabb4d9f5","meta":{"profile":["http://hl7.org/fhir/us/qicore/StructureDefinition/qicore-patient"]},"text":{"status":"generated","div":"<div xmlns=\"http://www.w3.org/1999/xhtml\"><div class=\"hapiHeaderText\">AssPrfDELRsltDtTime_EQIPEndMinus1Min <b>DENOMPASS </b></div><table class=\"hapiPropertyTable\"><tbody><tr><td>Date of birth</td><td><span>01 February 2004</span></td></tr></tbody></table></div>"},"extension":[{"url":"http://hl7.org/fhir/us/core/StructureDefinition/us-core-race","extension":[{"url":"ombCategory","valueCoding":{"system":"urn:oid:2.16.840.1.113883.6.238","code":"1002-5","display":"American Indian or Alaska Native","userSelected":true}},{"url":"text","valueString":"American Indian or Alaska Native"}]},{"url":"http://hl7.org/fhir/us/core/StructureDefinition/us-core-ethnicity","extension":[{"url":"ombCategory","valueCoding":{"system":"urn:oid:2.16.840.1.113883.6.238","code":"2135-2","display":"Hispanic or Latino","userSelected":true}},{"url":"text","valueString":"Hispanic or Latino"}]}],"identifier":[{"type":{"coding":[{"system":"http://terminology.hl7.org/CodeSystem/v2-0203","code":"MR"}]},"system":"https://bonnie-fhir.healthit.gov/","value":"633b3f9f0968f80122503cea"}],"active":true,"name":[{"use":"usual","family":"DENOMPass","given":["AssPrfDELRsltDtTime_EQIPEndMinus1Min"]}],"gender":"female","birthDate":"2004-02-01"},"request":{"method":"PUT","url":"Patient/a8615f09-8387-4b16-8637-76ebabb4d9f5"}},{"fullUrl":"https://madie.cms.gov/Observation/b692b1d4-9f3a-49dd-8df4-29b3090e1271","resource":{"resourceType":"Observation","id":"b692b1d4-9f3a-49dd-8df4-29b3090e1271","meta":{"profile":["http://hl7.org/fhir/us/qicore/StructureDefinition/qicore-observation"]},"status":"final","category":[{"coding":[{"system":"http://terminology.hl7.org/CodeSystem/observation-category","code":"exam","display":"exam","userSelected":true}]}],"code":{"coding":[{"system":"http://loinc.org","code":"93857-1"}]},"subject":{"reference":"Patient/a8615f09-8387-4b16-8637-76ebabb4d9f5"},"effectiveDateTime":"2025-02-05T08:14:00.000+00:00","valueDateTime":"2025-02-05T08:14:00+00:00"},"request":{"method":"PUT","url":"Observation/b692b1d4-9f3a-49dd-8df4-29b3090e1271"}},{"fullUrl":"https://madie.cms.gov/Observation/1b7a5445-96c6-42ce-bf3a-3ab32bfbdf11","resource":{"resourceType":"Observation","id":"1b7a5445-96c6-42ce-bf3a-3ab32bfbdf11","meta":{"profile":["http://hl7.org/fhir/us/qicore/StructureDefinition/qicore-observation"]},"status":"final","category":[{"coding":[{"system":"http://terminology.hl7.org/CodeSystem/observation-category","code":"exam","display":"exam","userSelected":true}]}],"code":{"coding":[{"system":"http://loinc.org","code":"11778-8"}]},"subject":{"reference":"Patient/a8615f09-8387-4b16-8637-76ebabb4d9f5"},"effectiveDateTime":"2025-02-05T08:00:00.000+00:00","valueDateTime":"2025-02-01T08:00:00.000+00:00"},"request":{"method":"PUT","url":"Observation/1b7a5445-96c6-42ce-bf3a-3ab32bfbdf11"}},{"fullUrl":"https://madie.cms.gov/Encounter/a4e4f1c7-aa18-405b-a51c-0068d3eec9f5","resource":{"resourceType":"Encounter","id":"a4e4f1c7-aa18-405b-a51c-0068d3eec9f5","meta":{"profile":["http://hl7.org/fhir/us/qicore/StructureDefinition/qicore-encounter"]},"status":"finished","class":{"system":"http://terminology.hl7.org/CodeSystem/v3-ActCode","code":"IMP","display":"inpatient encounter"},"type":[{"coding":[{"system":"http://snomed.info/sct","code":"183452005"}]}],"subject":{"reference":"Patient/a8615f09-8387-4b16-8637-76ebabb4d9f5"},"period":{"start":"2025-02-01T08:00:00.000Z","end":"2025-02-05T08:15:00.000Z"}},"request":{"method":"PUT","url":"Encounter/a4e4f1c7-aa18-405b-a51c-0068d3eec9f5"}},{"fullUrl":"https://madie.cms.gov/Procedure/be8670eb-4b0e-4c0d-8513-f5c6351b142b","resource":{"resourceType":"Procedure","id":"be8670eb-4b0e-4c0d-8513-f5c6351b142b","meta":{"profile":["http://hl7.org/fhir/us/qicore/StructureDefinition/qicore-procedure"]},"extension":[{"url":"http://hl7.org/fhir/us/qicore/StructureDefinition/qicore-recorded","valueDateTime":"2013-04-05T09:35:00-04:00"}],"status":"completed","code":{"coding":[{"system":"http://snomed.info/sct","code":"10745001"}]},"subject":{"reference":"Patient/a8615f09-8387-4b16-8637-76ebabb4d9f5"},"performedPeriod":{"start":"2025-02-01T08:00:00.000Z","end":"2025-02-05T08:15:00.000Z"}},"request":{"method":"PUT","url":"Procedure/be8670eb-4b0e-4c0d-8513-f5c6351b142b"}},{"fullUrl":"https://madie.cms.gov/Coverage/d286614f-467d-4289-be17-3b898d60ccaa","resource":{"resourceType":"Coverage","id":"d286614f-467d-4289-be17-3b898d60ccaa","meta":{"profile":["http://hl7.org/fhir/us/qicore/StructureDefinition/qicore-coverage"]},"status":"active","beneficiary":{"reference":"Patient/a8615f09-8387-4b16-8637-76ebabb4d9f5"},"payor":[{"reference":"Organization/5ad6ea38-07e9-4482-9e1b-c09eee595be9"}]},"request":{"method":"PUT","url":"Coverage/d286614f-467d-4289-be17-3b898d60ccaa"}},{"fullUrl":"https://madie.cms.gov/Organization/060e48e0-0134-41d1-bc58-5e94d58290a7","resource":{"resourceType":"Organization","id":"5ad6ea38-07e9-4482-9e1b-c09eee595be9","meta":{"profile":["http://hl7.org/fhir/us/qicore/StructureDefinition/qicore-organization"]},"identifier":[{"use":"temp","system":"urn:oid:2.16.840.1.113883.4.4","value":"21-3259825"}],"active":true,"type":[{"coding":[{"system":"http://terminology.hl7.org/CodeSystem/organization-type","code":"pay","display":"Payer"}]}],"name":"Blue Cross Blue Shield of Texas","telecom":[{"system":"phone","value":"(+1) 972-766-6900"}],"address":[{"use":"billing","type":"postal","line":["P.O. Box 660044"],"city":"Dallas","state":"TX","postalCode":"75266-0044","country":"USA"}]},"request":{"method":"PUT","url":"Organization/5ad6ea38-07e9-4482-9e1b-c09eee595be9"}},{"fullUrl":"https://madie.cms.gov/Practitioner/2a2a9360-88f3-4446-b51b-aa14697633a9","resource":{"resourceType":"Practitioner","id":"2a2a9360-88f3-4446-b51b-aa14697633a9","identifier":[{"system":"http://hl7.org/fhir/sid/us-npi","value":"123456"}],"name":[{"family":"Evil","prefix":["Dr"]}]},"request":{"method":"PUT","url":"Practitioner/2a2a9360-88f3-4446-b51b-aa14697633a9"}},{"fullUrl":"https://madie.cms.gov/MeasureReport/9bb6ea9f-e060-4c76-a7ed-04411199aaea","resource":{"resourceType":"MeasureReport","id":"9bb6ea9f-e060-4c76-a7ed-04411199aaea","meta":{"profile":["http://hl7.org/fhir/us/cqfmeasures/StructureDefinition/test-case-cqfm"]},"contained":[{"resourceType":"Parameters","id":"723a2888-af2d-4cb0-949e-711d199b11f2-parameters","parameter":[{"name":"subject","valueString":"a8615f09-8387-4b16-8637-76ebabb4d9f5"}]}],"extension":[{"url":"http://hl7.org/fhir/us/cqfmeasures/StructureDefinition/cqfm-inputParameters","valueReference":{"reference":"#723a2888-af2d-4cb0-949e-711d199b11f2-parameters"}},{"url":"http://hl7.org/fhir/us/cqfmeasures/StructureDefinition/cqfm-testCaseDescription","valueMarkdown":"Result date/Time of delivery (based on assessment performed) is equal to encounter end minus one minute\n"}],"modifierExtension":[{"url":"http://hl7.org/fhir/us/cqfmeasures/StructureDefinition/cqfm-isTestCase","valueBoolean":true}],"status":"complete","type":"individual","measure":"https://madie.cms.gov/Measure/CMS1028FHIRPCSevereOBComps","period":{"start":"2025-01-01","end":"2025-12-31"},"group":[{"population":[{"code":{"coding":[{"system":"http://terminology.hl7.org/CodeSystem/measure-population","code":"initial-population","display":"Initial Population"}]},"count":1},{"code":{"coding":[{"system":"http://terminology.hl7.org/CodeSystem/measure-population","code":"denominator","display":"Denominator"}]},"count":1},{"code":{"coding":[{"system":"http://terminology.hl7.org/CodeSystem/measure-population","code":"numerator","display":"Numerator"}]},"count":0},{"code":{"coding":[{"system":"http://terminology.hl7.org/CodeSystem/measure-population","code":"numerator-exclusion","display":"Numerator Exclusion"}]},"count":0}]},{"population":[{"code":{"coding":[{"system":"http://terminology.hl7.org/CodeSystem/measure-population","code":"initial-population","display":"Initial Population"}]},"count":1},{"code":{"coding":[{"system":"http://terminology.hl7.org/CodeSystem/measure-population","code":"denominator","display":"Denominator"}]},"count":1},{"code":{"coding":[{"system":"http://terminology.hl7.org/CodeSystem/measure-population","code":"numerator","display":"Numerator"}]},"count":0},{"code":{"coding":[{"system":"http://terminology.hl7.org/CodeSystem/measure-population","code":"numerator-exclusion","display":"Numerator Exclusion"}]},"count":0}]}]},"request":{"method":"PUT","url":"MeasureReport/9bb6ea9f-e060-4c76-a7ed-04411199aaea"}}]}