{"resourceType":"Bundle","id":"tests-1a1411f1-a9f1-4b4c-b722-d0558b95a8df-bundle","type":"transaction","entry":[{"fullUrl":"https://madie.cms.gov/Patient/1a1411f1-a9f1-4b4c-b722-d0558b95a8df","resource":{"resourceType":"Patient","id":"1a1411f1-a9f1-4b4c-b722-d0558b95a8df","meta":{"profile":["http://hl7.org/fhir/us/qicore/StructureDefinition/qicore-patient"]},"text":{"status":"generated","div":"<div xmlns=\"http://www.w3.org/1999/xhtml\"><div class=\"hapiHeaderText\">LastAssPrfEGAResultQuantityEQ21 <b>DENOMPASS </b></div><table class=\"hapiPropertyTable\"><tbody><tr><td>Date of birth</td><td><span>01 February 2004</span></td></tr></tbody></table></div>"},"extension":[{"url":"http://hl7.org/fhir/us/core/StructureDefinition/us-core-race","extension":[{"url":"ombCategory","valueCoding":{"system":"urn:oid:2.16.840.1.113883.6.238","code":"1002-5","display":"American Indian or Alaska Native","userSelected":true}},{"url":"text","valueString":"American Indian or Alaska Native"}]},{"url":"http://hl7.org/fhir/us/core/StructureDefinition/us-core-ethnicity","extension":[{"url":"ombCategory","valueCoding":{"system":"urn:oid:2.16.840.1.113883.6.238","code":"2135-2","display":"Hispanic or Latino","userSelected":true}},{"url":"text","valueString":"Hispanic or Latino"}]}],"identifier":[{"type":{"coding":[{"system":"http://terminology.hl7.org/CodeSystem/v2-0203","code":"MR"}]},"system":"https://bonnie-fhir.healthit.gov/","value":"633b3f9f0968f80122503ce2"}],"active":true,"name":[{"use":"usual","family":"DENOMPass","given":["LastAssPrfEGAResultQuantityEQ21"]}],"gender":"female","birthDate":"2016-02-01"},"request":{"method":"PUT","url":"Patient/1a1411f1-a9f1-4b4c-b722-d0558b95a8df"}},{"fullUrl":"https://madie.cms.gov/Observation/278b28b0-56fb-42ac-ad19-7a53de863f7a","resource":{"resourceType":"Observation","id":"278b28b0-56fb-42ac-ad19-7a53de863f7a","meta":{"profile":["http://hl7.org/fhir/us/qicore/StructureDefinition/qicore-observation"]},"status":"final","category":[{"coding":[{"system":"http://terminology.hl7.org/CodeSystem/observation-category","code":"exam","display":"exam","userSelected":true}]}],"code":{"coding":[{"system":"http://loinc.org","code":"93857-1"}]},"subject":{"reference":"Patient/1a1411f1-a9f1-4b4c-b722-d0558b95a8df"},"effectiveDateTime":"2025-02-01T08:00:00.000+00:00","valueDateTime":"2025-02-01T08:00:00+00:00"},"request":{"method":"PUT","url":"Observation/278b28b0-56fb-42ac-ad19-7a53de863f7a"}},{"fullUrl":"https://madie.cms.gov/Observation/03aa38f2-f76a-48ae-b87c-8f951ccc609d","resource":{"resourceType":"Observation","id":"03aa38f2-f76a-48ae-b87c-8f951ccc609d","meta":{"profile":["http://hl7.org/fhir/us/qicore/StructureDefinition/qicore-observation"]},"status":"final","category":[{"coding":[{"system":"http://terminology.hl7.org/CodeSystem/observation-category","code":"exam","display":"exam","userSelected":true}]}],"code":{"coding":[{"system":"http://loinc.org","code":"11884-4"}]},"subject":{"reference":"Patient/1a1411f1-a9f1-4b4c-b722-d0558b95a8df"},"effectiveDateTime":"2025-02-01T08:00:00.000+00:00","valueQuantity":{"value":20,"unit":"wk"}},"request":{"method":"PUT","url":"Observation/03aa38f2-f76a-48ae-b87c-8f951ccc609d"}},{"fullUrl":"https://madie.cms.gov/Encounter/c45a6014-bb38-426b-8281-63448df13905","resource":{"resourceType":"Encounter","id":"c45a6014-bb38-426b-8281-63448df13905","meta":{"profile":["http://hl7.org/fhir/us/qicore/StructureDefinition/qicore-encounter"]},"status":"finished","class":{"system":"http://terminology.hl7.org/CodeSystem/v3-ActCode","code":"IMP","display":"inpatient encounter"},"type":[{"coding":[{"system":"http://snomed.info/sct","code":"183452005"}]}],"subject":{"reference":"Patient/1a1411f1-a9f1-4b4c-b722-d0558b95a8df"},"period":{"start":"2025-02-01T08:00:00.000Z","end":"2025-02-05T08:15:00.000Z"}},"request":{"method":"PUT","url":"Encounter/c45a6014-bb38-426b-8281-63448df13905"}},{"fullUrl":"https://madie.cms.gov/Procedure/933d7341-d204-455c-9db7-66bcd9322714","resource":{"resourceType":"Procedure","id":"933d7341-d204-455c-9db7-66bcd9322714","meta":{"profile":["http://hl7.org/fhir/us/qicore/StructureDefinition/qicore-procedure"]},"extension":[{"url":"http://hl7.org/fhir/us/qicore/StructureDefinition/qicore-recorded","valueDateTime":"2013-04-05T09:35:00-04:00"}],"status":"completed","code":{"coding":[{"system":"http://snomed.info/sct","code":"10745001"}]},"subject":{"reference":"Patient/1a1411f1-a9f1-4b4c-b722-d0558b95a8df"},"performedPeriod":{"start":"2025-02-01T08:00:00.000Z","end":"2025-02-05T08:15:00.000Z"}},"request":{"method":"PUT","url":"Procedure/933d7341-d204-455c-9db7-66bcd9322714"}},{"fullUrl":"https://madie.cms.gov/Coverage/48dc99cb-3735-4a44-bbe9-746bc063fa9f","resource":{"resourceType":"Coverage","id":"48dc99cb-3735-4a44-bbe9-746bc063fa9f","meta":{"profile":["http://hl7.org/fhir/us/qicore/StructureDefinition/qicore-coverage"]},"status":"active","beneficiary":{"reference":"Patient/1a1411f1-a9f1-4b4c-b722-d0558b95a8df"},"payor":[{"reference":"Organization/e75793c9-fdf6-463a-8c1d-4ee44320dc25"}]},"request":{"method":"PUT","url":"Coverage/48dc99cb-3735-4a44-bbe9-746bc063fa9f"}},{"fullUrl":"https://madie.cms.gov/Organization/c92ff210-b121-4895-989a-55d9e75a4591","resource":{"resourceType":"Organization","id":"e75793c9-fdf6-463a-8c1d-4ee44320dc25","meta":{"profile":["http://hl7.org/fhir/us/qicore/StructureDefinition/qicore-organization"]},"identifier":[{"use":"temp","system":"urn:oid:2.16.840.1.113883.4.4","value":"21-3259825"}],"active":true,"type":[{"coding":[{"system":"http://terminology.hl7.org/CodeSystem/organization-type","code":"pay","display":"Payer"}]}],"name":"Blue Cross Blue Shield of Texas","telecom":[{"system":"phone","value":"(+1) 972-766-6900"}],"address":[{"use":"billing","type":"postal","line":["P.O. Box 660044"],"city":"Dallas","state":"TX","postalCode":"75266-0044","country":"USA"}]},"request":{"method":"PUT","url":"Organization/e75793c9-fdf6-463a-8c1d-4ee44320dc25"}},{"fullUrl":"https://madie.cms.gov/Practitioner/5f1008e0-4f9e-4955-a3a2-f97396648336","resource":{"resourceType":"Practitioner","id":"5f1008e0-4f9e-4955-a3a2-f97396648336","identifier":[{"system":"http://hl7.org/fhir/sid/us-npi","value":"123456"}],"name":[{"family":"Evil","prefix":["Dr"]}]},"request":{"method":"PUT","url":"Practitioner/5f1008e0-4f9e-4955-a3a2-f97396648336"}},{"fullUrl":"https://madie.cms.gov/MeasureReport/c44b9fba-ca2a-4444-81ff-3df8682ca8a4","resource":{"resourceType":"MeasureReport","id":"c44b9fba-ca2a-4444-81ff-3df8682ca8a4","meta":{"profile":["http://hl7.org/fhir/us/cqfmeasures/StructureDefinition/test-case-cqfm"]},"contained":[{"resourceType":"Parameters","id":"6b682666-6dd9-4928-b9f3-120c7004c395-parameters","parameter":[{"name":"subject","valueString":"1a1411f1-a9f1-4b4c-b722-d0558b95a8df"}]}],"extension":[{"url":"http://hl7.org/fhir/us/cqfmeasures/StructureDefinition/cqfm-inputParameters","valueReference":{"reference":"#6b682666-6dd9-4928-b9f3-120c7004c395-parameters"}},{"url":"http://hl7.org/fhir/us/cqfmeasures/StructureDefinition/cqfm-testCaseDescription","valueMarkdown":"Last Assessment Performed EGA = 21 weeks\n"}],"modifierExtension":[{"url":"http://hl7.org/fhir/us/cqfmeasures/StructureDefinition/cqfm-isTestCase","valueBoolean":true}],"status":"complete","type":"individual","measure":"https://madie.cms.gov/Measure/CMS1028FHIRPCSevereOBComps","period":{"start":"2025-01-01","end":"2025-12-31"},"group":[{"population":[{"code":{"coding":[{"system":"http://terminology.hl7.org/CodeSystem/measure-population","code":"initial-population","display":"Initial Population"}]},"count":1},{"code":{"coding":[{"system":"http://terminology.hl7.org/CodeSystem/measure-population","code":"denominator","display":"Denominator"}]},"count":1},{"code":{"coding":[{"system":"http://terminology.hl7.org/CodeSystem/measure-population","code":"numerator","display":"Numerator"}]},"count":0},{"code":{"coding":[{"system":"http://terminology.hl7.org/CodeSystem/measure-population","code":"numerator-exclusion","display":"Numerator Exclusion"}]},"count":0}]},{"population":[{"code":{"coding":[{"system":"http://terminology.hl7.org/CodeSystem/measure-population","code":"initial-population","display":"Initial Population"}]},"count":1},{"code":{"coding":[{"system":"http://terminology.hl7.org/CodeSystem/measure-population","code":"denominator","display":"Denominator"}]},"count":1},{"code":{"coding":[{"system":"http://terminology.hl7.org/CodeSystem/measure-population","code":"numerator","display":"Numerator"}]},"count":0},{"code":{"coding":[{"system":"http://terminology.hl7.org/CodeSystem/measure-population","code":"numerator-exclusion","display":"Numerator Exclusion"}]},"count":0}]}]},"request":{"method":"PUT","url":"MeasureReport/c44b9fba-ca2a-4444-81ff-3df8682ca8a4"}}]}