{"resourceType":"Bundle","id":"tests-f8e41533-dc9b-4813-9068-cfc6661df652-bundle","type":"transaction","entry":[{"fullUrl":"https://madie.cms.gov/Patient/f8e41533-dc9b-4813-9068-cfc6661df652","resource":{"resourceType":"Patient","id":"f8e41533-dc9b-4813-9068-cfc6661df652","meta":{"profile":["http://hl7.org/fhir/us/qicore/StructureDefinition/qicore-patient"]},"text":{"status":"generated","div":"<div xmlns=\"http://www.w3.org/1999/xhtml\"><div class=\"hapiHeaderText\">DxCodeOf20Weeks <b>DENOMPASS </b></div><table class=\"hapiPropertyTable\"><tbody><tr><td>Date of birth</td><td><span>01 February 2004</span></td></tr></tbody></table></div>"},"extension":[{"url":"http://hl7.org/fhir/us/core/StructureDefinition/us-core-race","extension":[{"url":"ombCategory","valueCoding":{"system":"urn:oid:2.16.840.1.113883.6.238","code":"1002-5","display":"American Indian or Alaska Native","userSelected":true}},{"url":"text","valueString":"American Indian or Alaska Native"}]},{"url":"http://hl7.org/fhir/us/core/StructureDefinition/us-core-ethnicity","extension":[{"url":"ombCategory","valueCoding":{"system":"urn:oid:2.16.840.1.113883.6.238","code":"2135-2","display":"Hispanic or Latino","userSelected":true}},{"url":"text","valueString":"Hispanic or Latino"}]}],"identifier":[{"type":{"coding":[{"system":"http://terminology.hl7.org/CodeSystem/v2-0203","code":"MR"}]},"system":"https://bonnie-fhir.healthit.gov/","value":"6356d03854e383debade759e"}],"active":true,"name":[{"use":"usual","family":"DENOMPass","given":["DxCodeOf20Weeks"]}],"gender":"female","birthDate":"2004-02-01"},"request":{"method":"PUT","url":"Patient/f8e41533-dc9b-4813-9068-cfc6661df652"}},{"fullUrl":"https://madie.cms.gov/Observation/e5c03069-6b1f-4998-a7e1-d3bcc3a99243","resource":{"resourceType":"Observation","id":"e5c03069-6b1f-4998-a7e1-d3bcc3a99243","meta":{"profile":["http://hl7.org/fhir/us/qicore/StructureDefinition/qicore-observation"]},"status":"final","category":[{"coding":[{"system":"http://terminology.hl7.org/CodeSystem/observation-category","code":"exam","display":"exam","userSelected":true}]}],"code":{"coding":[{"system":"http://loinc.org","code":"93857-1"}]},"subject":{"reference":"Patient/f8e41533-dc9b-4813-9068-cfc6661df652"},"effectiveDateTime":"2025-02-01T08:00:00.000+00:00","valueDateTime":"2025-02-01T08:00:00.000+00:00"},"request":{"method":"PUT","url":"Observation/e5c03069-6b1f-4998-a7e1-d3bcc3a99243"}},{"fullUrl":"https://madie.cms.gov/Encounter/cfd4b748-65cc-468a-9e9e-e95e53473b2a","resource":{"resourceType":"Encounter","id":"cfd4b748-65cc-468a-9e9e-e95e53473b2a","meta":{"profile":["http://hl7.org/fhir/us/qicore/StructureDefinition/qicore-encounter"]},"status":"finished","class":{"system":"http://terminology.hl7.org/CodeSystem/v3-ActCode","code":"IMP","display":"inpatient encounter"},"type":[{"coding":[{"system":"http://snomed.info/sct","code":"183452005"}]}],"subject":{"reference":"Patient/f8e41533-dc9b-4813-9068-cfc6661df652"},"period":{"start":"2025-02-01T08:00:00.000Z","end":"2025-02-05T08:15:00.000Z"},"diagnosis":[{"condition":{"reference":"Condition/891cdf14-8260-49aa-b7c9-5d0aaddf4ff1"}}]},"request":{"method":"PUT","url":"Encounter/cfd4b748-65cc-468a-9e9e-e95e53473b2a"}},{"fullUrl":"https://madie.cms.gov/Procedure/aefabdb0-b24e-44b5-9f5a-0e636e4bb642","resource":{"resourceType":"Procedure","id":"aefabdb0-b24e-44b5-9f5a-0e636e4bb642","meta":{"profile":["http://hl7.org/fhir/us/qicore/StructureDefinition/qicore-procedure"]},"extension":[{"url":"http://hl7.org/fhir/us/qicore/StructureDefinition/qicore-recorded","valueDateTime":"2013-04-05T09:35:00-04:00"}],"status":"completed","code":{"coding":[{"system":"http://snomed.info/sct","code":"10745001"}]},"subject":{"reference":"Patient/f8e41533-dc9b-4813-9068-cfc6661df652"},"performedPeriod":{"start":"2025-02-01T08:00:00.000Z","end":"2025-02-05T08:15:00.000Z"}},"request":{"method":"PUT","url":"Procedure/aefabdb0-b24e-44b5-9f5a-0e636e4bb642"}},{"fullUrl":"https://madie.cms.gov/Condition/891cdf14-8260-49aa-b7c9-5d0aaddf4ff1","resource":{"resourceType":"Condition","id":"891cdf14-8260-49aa-b7c9-5d0aaddf4ff1","meta":{"profile":["http://hl7.org/fhir/us/qicore/StructureDefinition/qicore-condition"]},"category":[{"coding":[{"system":"http://terminology.hl7.org/CodeSystem/condition-category","code":"encounter-diagnosis","display":"Encounter Diagnosis"}]}],"code":{"coding":[{"system":"http://snomed.info/sct","version":"2024-03","code":"23464008","display":"Gestation period, 20 weeks","userSelected":true}]},"subject":{"reference":"Patient/f8e41533-dc9b-4813-9068-cfc6661df652"},"recordedDate":"2025-10-24T08:00:00.000+00:00"},"request":{"method":"PUT","url":"Condition/891cdf14-8260-49aa-b7c9-5d0aaddf4ff1"}},{"fullUrl":"https://madie.cms.gov/Coverage/1003bd2a-f925-4c6f-856d-f31c1d700cf2","resource":{"resourceType":"Coverage","id":"1003bd2a-f925-4c6f-856d-f31c1d700cf2","meta":{"profile":["http://hl7.org/fhir/us/qicore/StructureDefinition/qicore-coverage"]},"status":"active","beneficiary":{"reference":"Patient/f8e41533-dc9b-4813-9068-cfc6661df652"},"payor":[{"reference":"Organization/db141f66-a1cc-407b-9e95-adac27adee14"}]},"request":{"method":"PUT","url":"Coverage/1003bd2a-f925-4c6f-856d-f31c1d700cf2"}},{"fullUrl":"https://madie.cms.gov/Organization/631b3ec5-492a-451d-8824-7535148b7387","resource":{"resourceType":"Organization","id":"db141f66-a1cc-407b-9e95-adac27adee14","meta":{"profile":["http://hl7.org/fhir/us/qicore/StructureDefinition/qicore-organization"]},"identifier":[{"use":"temp","system":"urn:oid:2.16.840.1.113883.4.4","value":"21-3259825"}],"active":true,"type":[{"coding":[{"system":"http://terminology.hl7.org/CodeSystem/organization-type","code":"pay","display":"Payer"}]}],"name":"Blue Cross Blue Shield of Texas","telecom":[{"system":"phone","value":"(+1) 972-766-6900"}],"address":[{"use":"billing","type":"postal","line":["P.O. Box 660044"],"city":"Dallas","state":"TX","postalCode":"75266-0044","country":"USA"}]},"request":{"method":"PUT","url":"Organization/db141f66-a1cc-407b-9e95-adac27adee14"}},{"fullUrl":"https://madie.cms.gov/Practitioner/8fc5ef46-d943-4a8a-b4c8-ec7c9fba700c","resource":{"resourceType":"Practitioner","id":"8fc5ef46-d943-4a8a-b4c8-ec7c9fba700c","identifier":[{"system":"http://hl7.org/fhir/sid/us-npi","value":"123456"}],"name":[{"family":"Evil","prefix":["Dr"]}]},"request":{"method":"PUT","url":"Practitioner/8fc5ef46-d943-4a8a-b4c8-ec7c9fba700c"}},{"fullUrl":"https://madie.cms.gov/MeasureReport/8e636d0f-266d-4aa8-9563-a3515c118cb0","resource":{"resourceType":"MeasureReport","id":"8e636d0f-266d-4aa8-9563-a3515c118cb0","meta":{"profile":["http://hl7.org/fhir/us/cqfmeasures/StructureDefinition/test-case-cqfm"]},"contained":[{"resourceType":"Parameters","id":"af752d84-39a4-4e78-96c3-47190d4fde2d-parameters","parameter":[{"name":"subject","valueString":"f8e41533-dc9b-4813-9068-cfc6661df652"}]}],"extension":[{"url":"http://hl7.org/fhir/us/cqfmeasures/StructureDefinition/cqfm-inputParameters","valueReference":{"reference":"#af752d84-39a4-4e78-96c3-47190d4fde2d-parameters"}},{"url":"http://hl7.org/fhir/us/cqfmeasures/StructureDefinition/cqfm-testCaseDescription","valueMarkdown":"Diagnosis Code of 20 Weeks."}],"modifierExtension":[{"url":"http://hl7.org/fhir/us/cqfmeasures/StructureDefinition/cqfm-isTestCase","valueBoolean":true}],"status":"complete","type":"individual","measure":"https://madie.cms.gov/Measure/CMS1028FHIRPCSevereOBComps","period":{"start":"2025-01-01","end":"2025-12-31"},"group":[{"population":[{"code":{"coding":[{"system":"http://terminology.hl7.org/CodeSystem/measure-population","code":"initial-population","display":"Initial Population"}]},"count":1},{"code":{"coding":[{"system":"http://terminology.hl7.org/CodeSystem/measure-population","code":"denominator","display":"Denominator"}]},"count":1},{"code":{"coding":[{"system":"http://terminology.hl7.org/CodeSystem/measure-population","code":"numerator","display":"Numerator"}]},"count":0},{"code":{"coding":[{"system":"http://terminology.hl7.org/CodeSystem/measure-population","code":"numerator-exclusion","display":"Numerator Exclusion"}]},"count":0}]},{"population":[{"code":{"coding":[{"system":"http://terminology.hl7.org/CodeSystem/measure-population","code":"initial-population","display":"Initial Population"}]},"count":1},{"code":{"coding":[{"system":"http://terminology.hl7.org/CodeSystem/measure-population","code":"denominator","display":"Denominator"}]},"count":1},{"code":{"coding":[{"system":"http://terminology.hl7.org/CodeSystem/measure-population","code":"numerator","display":"Numerator"}]},"count":0},{"code":{"coding":[{"system":"http://terminology.hl7.org/CodeSystem/measure-population","code":"numerator-exclusion","display":"Numerator Exclusion"}]},"count":0}]}]},"request":{"method":"PUT","url":"MeasureReport/8e636d0f-266d-4aa8-9563-a3515c118cb0"}}]}