{"resourceType":"Bundle","id":"tests-156d9664-00ca-4f3d-92a0-7fe0e4df33c4-bundle","type":"transaction","entry":[{"fullUrl":"https://madie.cms.gov/Patient/156d9664-00ca-4f3d-92a0-7fe0e4df33c4","resource":{"resourceType":"Patient","id":"156d9664-00ca-4f3d-92a0-7fe0e4df33c4","meta":{"profile":["http://hl7.org/fhir/us/qicore/StructureDefinition/qicore-patient"]},"text":{"status":"generated","div":"<div xmlns=\"http://www.w3.org/1999/xhtml\"><div class=\"hapiHeaderText\">SMMEQSepsis <b>STRAT1Pass </b></div><table class=\"hapiPropertyTable\"><tbody><tr><td>Date of birth</td><td><span>01 February 2004</span></td></tr></tbody></table></div>"},"extension":[{"url":"http://hl7.org/fhir/us/core/StructureDefinition/us-core-race","extension":[{"url":"ombCategory","valueCoding":{"system":"urn:oid:2.16.840.1.113883.6.238","code":"1002-5","display":"American Indian or Alaska Native","userSelected":true}},{"url":"text","valueString":"American Indian or Alaska Native"}]},{"url":"http://hl7.org/fhir/us/core/StructureDefinition/us-core-ethnicity","extension":[{"url":"ombCategory","valueCoding":{"system":"urn:oid:2.16.840.1.113883.6.238","code":"2135-2","display":"Hispanic or Latino","userSelected":true}},{"url":"text","valueString":"Hispanic or Latino"}]}],"identifier":[{"type":{"coding":[{"system":"http://terminology.hl7.org/CodeSystem/v2-0203","code":"MR"}]},"system":"https://bonnie-fhir.healthit.gov/","value":"6356dca654e383debade75aa"}],"active":true,"name":[{"use":"usual","family":"STRAT1Pass","given":["SMMEQSepsis"]}],"gender":"female","birthDate":"2004-02-01"},"request":{"method":"PUT","url":"Patient/156d9664-00ca-4f3d-92a0-7fe0e4df33c4"}},{"fullUrl":"https://madie.cms.gov/Observation/208e7292-39fe-43a3-a2ac-91932db8f043","resource":{"resourceType":"Observation","id":"208e7292-39fe-43a3-a2ac-91932db8f043","meta":{"profile":["http://hl7.org/fhir/us/qicore/StructureDefinition/qicore-observation"]},"status":"final","category":[{"coding":[{"system":"http://terminology.hl7.org/CodeSystem/observation-category","code":"exam","display":"exam","userSelected":true}]}],"code":{"coding":[{"system":"http://loinc.org","code":"93857-1"}]},"subject":{"reference":"Patient/156d9664-00ca-4f3d-92a0-7fe0e4df33c4"},"effectiveDateTime":"2025-02-01T08:00:00.000+00:00","valueDateTime":"2025-02-01T08:00:00+00:00"},"request":{"method":"PUT","url":"Observation/208e7292-39fe-43a3-a2ac-91932db8f043"}},{"fullUrl":"https://madie.cms.gov/Observation/07e1122d-d956-45cd-85fd-342da82138ee","resource":{"resourceType":"Observation","id":"07e1122d-d956-45cd-85fd-342da82138ee","meta":{"profile":["http://hl7.org/fhir/us/qicore/StructureDefinition/qicore-observation"]},"status":"final","category":[{"coding":[{"system":"http://terminology.hl7.org/CodeSystem/observation-category","code":"exam","display":"exam","userSelected":true}]}],"code":{"coding":[{"system":"http://loinc.org","code":"11884-4"}]},"subject":{"reference":"Patient/156d9664-00ca-4f3d-92a0-7fe0e4df33c4"},"effectiveDateTime":"2025-02-01T08:00:00.000+00:00","valueQuantity":{"value":21,"system":"http://unitsofmeasure.org","code":"wk"}},"request":{"method":"PUT","url":"Observation/07e1122d-d956-45cd-85fd-342da82138ee"}},{"fullUrl":"https://madie.cms.gov/Encounter/83d968a9-c1dd-4850-965f-bcb7088c5438","resource":{"resourceType":"Encounter","id":"83d968a9-c1dd-4850-965f-bcb7088c5438","meta":{"profile":["http://hl7.org/fhir/us/qicore/StructureDefinition/qicore-encounter"]},"status":"finished","class":{"system":"http://terminology.hl7.org/CodeSystem/v3-ActCode","code":"IMP","display":"inpatient encounter"},"type":[{"coding":[{"system":"http://snomed.info/sct","code":"183452005"}]}],"subject":{"reference":"Patient/156d9664-00ca-4f3d-92a0-7fe0e4df33c4"},"period":{"start":"2025-02-01T08:00:00.000Z","end":"2025-02-05T08:15:00.000Z"},"diagnosis":[{"extension":[{"url":"http://hl7.org/fhir/us/qicore/StructureDefinition/qicore-encounter-diagnosisPresentOnAdmission","valueCodeableConcept":{"coding":[{"system":"https://www.cms.gov/Medicare/Medicare-Fee-for-Service-Payment/HospitalAcqCond/Coding","code":"N"}]}}],"condition":{"reference":"Condition/22e91857-05a1-445b-8381-78c16a26ad2f"}}]},"request":{"method":"PUT","url":"Encounter/83d968a9-c1dd-4850-965f-bcb7088c5438"}},{"fullUrl":"https://madie.cms.gov/Procedure/47a0c308-d051-4efd-997d-0412fbf8f972","resource":{"resourceType":"Procedure","id":"47a0c308-d051-4efd-997d-0412fbf8f972","meta":{"profile":["http://hl7.org/fhir/us/qicore/StructureDefinition/qicore-procedure"]},"extension":[{"url":"http://hl7.org/fhir/us/qicore/StructureDefinition/qicore-recorded","valueDateTime":"2013-04-05T09:35:00-04:00"}],"status":"completed","code":{"coding":[{"system":"http://snomed.info/sct","code":"10745001"}]},"subject":{"reference":"Patient/156d9664-00ca-4f3d-92a0-7fe0e4df33c4"},"performedPeriod":{"start":"2025-02-01T08:00:00.000Z","end":"2025-02-05T08:15:00.000Z"}},"request":{"method":"PUT","url":"Procedure/47a0c308-d051-4efd-997d-0412fbf8f972"}},{"fullUrl":"https://madie.cms.gov/Condition/22e91857-05a1-445b-8381-78c16a26ad2f","resource":{"resourceType":"Condition","id":"22e91857-05a1-445b-8381-78c16a26ad2f","meta":{"profile":["http://hl7.org/fhir/us/qicore/StructureDefinition/qicore-condition"]},"category":[{"coding":[{"system":"http://terminology.hl7.org/CodeSystem/condition-category","code":"encounter-diagnosis","display":"Encounter Diagnosis"}]}],"code":{"coding":[{"system":"http://hl7.org/fhir/sid/icd-10-cm","version":"2023","code":"A32.7","display":"Listerial sepsis","userSelected":true}]},"subject":{"reference":"Patient/156d9664-00ca-4f3d-92a0-7fe0e4df33c4"},"recordedDate":"2025-10-26T08:00:00.000+00:00"},"request":{"method":"PUT","url":"Condition/22e91857-05a1-445b-8381-78c16a26ad2f"}},{"fullUrl":"https://madie.cms.gov/Coverage/66873e21-3c1e-4566-acea-c723d31d2c6f","resource":{"resourceType":"Coverage","id":"66873e21-3c1e-4566-acea-c723d31d2c6f","meta":{"profile":["http://hl7.org/fhir/us/qicore/StructureDefinition/qicore-coverage"]},"status":"active","beneficiary":{"reference":"Patient/156d9664-00ca-4f3d-92a0-7fe0e4df33c4"},"payor":[{"reference":"Organization/e75793c9-fdf6-463a-8c1d-4ee44320dc25"}]},"request":{"method":"PUT","url":"Coverage/66873e21-3c1e-4566-acea-c723d31d2c6f"}},{"fullUrl":"https://madie.cms.gov/Organization/dcf2d959-7e34-45af-818f-65231b0ef94d","resource":{"resourceType":"Organization","id":"e75793c9-fdf6-463a-8c1d-4ee44320dc25","meta":{"profile":["http://hl7.org/fhir/us/qicore/StructureDefinition/qicore-organization"]},"identifier":[{"use":"temp","system":"urn:oid:2.16.840.1.113883.4.4","value":"21-3259825"}],"active":true,"type":[{"coding":[{"system":"http://terminology.hl7.org/CodeSystem/organization-type","code":"pay","display":"Payer"}]}],"name":"Blue Cross Blue Shield of Texas","telecom":[{"system":"phone","value":"(+1) 972-766-6900"}],"address":[{"use":"billing","type":"postal","line":["P.O. Box 660044"],"city":"Dallas","state":"TX","postalCode":"75266-0044","country":"USA"}]},"request":{"method":"PUT","url":"Organization/e75793c9-fdf6-463a-8c1d-4ee44320dc25"}},{"fullUrl":"https://madie.cms.gov/Practitioner/d09a959e-b8d3-4b20-9b33-59d0c8d27f65","resource":{"resourceType":"Practitioner","id":"d09a959e-b8d3-4b20-9b33-59d0c8d27f65","identifier":[{"system":"http://hl7.org/fhir/sid/us-npi","value":"123456"}],"name":[{"family":"Evil","prefix":["Dr"]}]},"request":{"method":"PUT","url":"Practitioner/d09a959e-b8d3-4b20-9b33-59d0c8d27f65"}},{"fullUrl":"https://madie.cms.gov/MeasureReport/813210f6-77b6-44b0-ab9f-964d27a9e2ce","resource":{"resourceType":"MeasureReport","id":"813210f6-77b6-44b0-ab9f-964d27a9e2ce","meta":{"profile":["http://hl7.org/fhir/us/cqfmeasures/StructureDefinition/test-case-cqfm"]},"contained":[{"resourceType":"Parameters","id":"ec74f167-35e0-4d4b-914d-497eeb29e44b-parameters","parameter":[{"name":"subject","valueString":"156d9664-00ca-4f3d-92a0-7fe0e4df33c4"}]}],"extension":[{"url":"http://hl7.org/fhir/us/cqfmeasures/StructureDefinition/cqfm-inputParameters","valueReference":{"reference":"#ec74f167-35e0-4d4b-914d-497eeb29e44b-parameters"}},{"url":"http://hl7.org/fhir/us/cqfmeasures/StructureDefinition/cqfm-testCaseDescription","valueMarkdown":"Patient's SMM = sepsis.  No blood transfusion.\n"}],"modifierExtension":[{"url":"http://hl7.org/fhir/us/cqfmeasures/StructureDefinition/cqfm-isTestCase","valueBoolean":true}],"status":"complete","type":"individual","measure":"https://madie.cms.gov/Measure/CMS1028FHIRPCSevereOBComps","period":{"start":"2025-01-01","end":"2025-12-31"},"group":[{"population":[{"code":{"coding":[{"system":"http://terminology.hl7.org/CodeSystem/measure-population","code":"initial-population","display":"Initial Population"}]},"count":1},{"code":{"coding":[{"system":"http://terminology.hl7.org/CodeSystem/measure-population","code":"denominator","display":"Denominator"}]},"count":1},{"code":{"coding":[{"system":"http://terminology.hl7.org/CodeSystem/measure-population","code":"numerator","display":"Numerator"}]},"count":1},{"code":{"coding":[{"system":"http://terminology.hl7.org/CodeSystem/measure-population","code":"numerator-exclusion","display":"Numerator Exclusion"}]},"count":0}]},{"population":[{"code":{"coding":[{"system":"http://terminology.hl7.org/CodeSystem/measure-population","code":"initial-population","display":"Initial Population"}]},"count":1},{"code":{"coding":[{"system":"http://terminology.hl7.org/CodeSystem/measure-population","code":"denominator","display":"Denominator"}]},"count":1},{"code":{"coding":[{"system":"http://terminology.hl7.org/CodeSystem/measure-population","code":"numerator","display":"Numerator"}]},"count":1},{"code":{"coding":[{"system":"http://terminology.hl7.org/CodeSystem/measure-population","code":"numerator-exclusion","display":"Numerator Exclusion"}]},"count":0}]}]},"request":{"method":"PUT","url":"MeasureReport/813210f6-77b6-44b0-ab9f-964d27a9e2ce"}}]}