{"resourceType":"Bundle","id":"tests-85df5030-f3f8-46d5-a3d3-9461e90ebc0c-bundle","type":"transaction","entry":[{"fullUrl":"https://madie.cms.gov/Patient/85df5030-f3f8-46d5-a3d3-9461e90ebc0c","resource":{"resourceType":"Patient","id":"85df5030-f3f8-46d5-a3d3-9461e90ebc0c","meta":{"profile":["http://hl7.org/fhir/us/qicore/StructureDefinition/qicore-patient"]},"text":{"status":"generated","div":"<div xmlns=\"http://www.w3.org/1999/xhtml\"><div class=\"hapiHeaderText\">EncEnd=MPEndPlus1Minute <b>IPFAIL </b></div><table class=\"hapiPropertyTable\"><tbody><tr><td>Date of birth</td><td><span>31 January 2004</span></td></tr></tbody></table></div>"},"extension":[{"url":"http://hl7.org/fhir/us/core/StructureDefinition/us-core-race","extension":[{"url":"ombCategory","valueCoding":{"system":"urn:oid:2.16.840.1.113883.6.238","code":"1002-5","display":"American Indian or Alaska Native","userSelected":true}},{"url":"text","valueString":"American Indian or Alaska Native"}]},{"url":"http://hl7.org/fhir/us/core/StructureDefinition/us-core-ethnicity","extension":[{"url":"ombCategory","valueCoding":{"system":"urn:oid:2.16.840.1.113883.6.238","code":"2135-2","display":"Hispanic or Latino","userSelected":true}},{"url":"text","valueString":"Hispanic or Latino"}]}],"identifier":[{"type":{"coding":[{"system":"http://terminology.hl7.org/CodeSystem/v2-0203","code":"MR"}]},"system":"https://bonnie-fhir.healthit.gov/","value":"633b3f9e0968f80122503cc1"}],"active":true,"name":[{"use":"usual","family":"IPFail","given":["EncEnd_MPEndPlus1Minute"]}],"gender":"female","birthDate":"2004-01-31"},"request":{"method":"PUT","url":"Patient/85df5030-f3f8-46d5-a3d3-9461e90ebc0c"}},{"fullUrl":"https://madie.cms.gov/Encounter/b2cf4a53-e1ad-4972-90ac-69413eb7cbb6","resource":{"resourceType":"Encounter","id":"b2cf4a53-e1ad-4972-90ac-69413eb7cbb6","meta":{"profile":["http://hl7.org/fhir/us/qicore/StructureDefinition/qicore-encounter"]},"status":"finished","class":{"system":"http://terminology.hl7.org/CodeSystem/v3-ActCode","code":"IMP","display":"inpatient encounter"},"type":[{"coding":[{"system":"http://snomed.info/sct","code":"183452005"}]}],"subject":{"reference":"Patient/85df5030-f3f8-46d5-a3d3-9461e90ebc0c"},"period":{"start":"2025-02-01T08:00:00.000+00:00","end":"2026-01-01T00:00:00.000+00:00"}},"request":{"method":"PUT","url":"Encounter/b2cf4a53-e1ad-4972-90ac-69413eb7cbb6"}},{"fullUrl":"https://madie.cms.gov/Procedure/6a344601-a184-457f-a154-5733fc51ebfe","resource":{"resourceType":"Procedure","id":"6a344601-a184-457f-a154-5733fc51ebfe","meta":{"profile":["http://hl7.org/fhir/us/qicore/StructureDefinition/qicore-procedure"]},"extension":[{"url":"http://hl7.org/fhir/us/qicore/StructureDefinition/qicore-recorded","valueDateTime":"2013-04-05T09:35:00-04:00"}],"status":"completed","code":{"coding":[{"system":"http://snomed.info/sct","code":"10745001"}]},"subject":{"reference":"Patient/85df5030-f3f8-46d5-a3d3-9461e90ebc0c"},"performedPeriod":{"start":"2025-02-01T08:00:00.000Z","end":"2025-02-05T08:15:00.000Z"}},"request":{"method":"PUT","url":"Procedure/6a344601-a184-457f-a154-5733fc51ebfe"}},{"fullUrl":"https://madie.cms.gov/Coverage/6a764f1d-ea58-44ab-a664-4a9d59d9df00","resource":{"resourceType":"Coverage","id":"6a764f1d-ea58-44ab-a664-4a9d59d9df00","meta":{"profile":["http://hl7.org/fhir/us/qicore/StructureDefinition/qicore-coverage"]},"status":"active","beneficiary":{"reference":"Patient/85df5030-f3f8-46d5-a3d3-9461e90ebc0c"},"payor":[{"reference":"Organization/5ad6ea38-07e9-4482-9e1b-c09eee595be9"}]},"request":{"method":"PUT","url":"Coverage/6a764f1d-ea58-44ab-a664-4a9d59d9df00"}},{"fullUrl":"https://madie.cms.gov/Organization/e776338f-d740-4136-a7d8-98b5d8233b90","resource":{"resourceType":"Organization","id":"5ad6ea38-07e9-4482-9e1b-c09eee595be9","meta":{"profile":["http://hl7.org/fhir/us/qicore/StructureDefinition/qicore-organization"]},"identifier":[{"use":"temp","system":"urn:oid:2.16.840.1.113883.4.4","value":"21-3259825"}],"active":true,"type":[{"coding":[{"system":"http://terminology.hl7.org/CodeSystem/organization-type","code":"pay","display":"Payer"}]}],"name":"Blue Cross Blue Shield of Texas","telecom":[{"system":"phone","value":"(+1) 972-766-6900"}],"address":[{"use":"billing","type":"postal","line":["P.O. Box 660044"],"city":"Dallas","state":"TX","postalCode":"75266-0044","country":"USA"}]},"request":{"method":"PUT","url":"Organization/5ad6ea38-07e9-4482-9e1b-c09eee595be9"}},{"fullUrl":"https://madie.cms.gov/Practitioner/1ce35277-30e3-447a-9086-c8751d57e4c0","resource":{"resourceType":"Practitioner","id":"1ce35277-30e3-447a-9086-c8751d57e4c0","identifier":[{"system":"http://hl7.org/fhir/sid/us-npi","value":"123456"}],"name":[{"family":"Evil","prefix":["Dr"]}]},"request":{"method":"PUT","url":"Practitioner/1ce35277-30e3-447a-9086-c8751d57e4c0"}},{"fullUrl":"https://madie.cms.gov/MeasureReport/efb3ddae-95bd-49e1-a9a6-7803c5096a7b","resource":{"resourceType":"MeasureReport","id":"efb3ddae-95bd-49e1-a9a6-7803c5096a7b","meta":{"profile":["http://hl7.org/fhir/us/cqfmeasures/StructureDefinition/test-case-cqfm"]},"contained":[{"resourceType":"Parameters","id":"c25ed218-2ae2-4ab5-b8b4-743d598dd3f3-parameters","parameter":[{"name":"subject","valueString":"85df5030-f3f8-46d5-a3d3-9461e90ebc0c"}]}],"extension":[{"url":"http://hl7.org/fhir/us/cqfmeasures/StructureDefinition/cqfm-inputParameters","valueReference":{"reference":"#c25ed218-2ae2-4ab5-b8b4-743d598dd3f3-parameters"}},{"url":"http://hl7.org/fhir/us/cqfmeasures/StructureDefinition/cqfm-testCaseDescription","valueMarkdown":"Encounter end equals  measurement period end plus one minute.\n"}],"modifierExtension":[{"url":"http://hl7.org/fhir/us/cqfmeasures/StructureDefinition/cqfm-isTestCase","valueBoolean":true}],"status":"complete","type":"individual","measure":"https://madie.cms.gov/Measure/CMS1028FHIRPCSevereOBComps","period":{"start":"2025-01-01","end":"2025-12-31"},"group":[{"population":[{"code":{"coding":[{"system":"http://terminology.hl7.org/CodeSystem/measure-population","code":"initial-population","display":"Initial Population"}]},"count":0},{"code":{"coding":[{"system":"http://terminology.hl7.org/CodeSystem/measure-population","code":"denominator","display":"Denominator"}]},"count":0},{"code":{"coding":[{"system":"http://terminology.hl7.org/CodeSystem/measure-population","code":"numerator","display":"Numerator"}]},"count":0},{"code":{"coding":[{"system":"http://terminology.hl7.org/CodeSystem/measure-population","code":"numerator-exclusion","display":"Numerator Exclusion"}]},"count":0}]}]},"request":{"method":"PUT","url":"MeasureReport/efb3ddae-95bd-49e1-a9a6-7803c5096a7b"}}]}