{"resourceType":"Bundle","id":"tests-34f7d577-183d-4a6b-905d-22f6751c3940-bundle","type":"transaction","entry":[{"fullUrl":"https://madie.cms.gov/Patient/34f7d577-183d-4a6b-905d-22f6751c3940","resource":{"resourceType":"Patient","id":"34f7d577-183d-4a6b-905d-22f6751c3940","meta":{"profile":["http://hl7.org/fhir/us/qicore/StructureDefinition/qicore-patient"]},"text":{"status":"generated","div":"<div xmlns=\"http://www.w3.org/1999/xhtml\"><div class=\"hapiHeaderText\">EncStartsBeforeMP <b>IPFAIL </b></div><table class=\"hapiPropertyTable\"><tbody><tr><td>Identifier</td><td>5357cf1fa2383d9a0e8f3ff5d42eaa9911ad131ad62a639f75e98789c2c8866b</td></tr><tr><td>Date of birth</td><td><span>15 June 1956</span></td></tr></tbody></table></div>"},"extension":[{"url":"http://hl7.org/fhir/us/core/StructureDefinition/us-core-race","extension":[{"url":"ombCategory","valueCoding":{"system":"urn:oid:2.16.840.1.113883.6.238","code":"1002-5","display":"American Indian or Alaska Native","userSelected":true}},{"url":"text","valueString":"American Indian or Alaska Native"}]},{"url":"http://hl7.org/fhir/us/core/StructureDefinition/us-core-ethnicity","extension":[{"url":"ombCategory","valueCoding":{"system":"urn:oid:2.16.840.1.113883.6.238","code":"2186-5","display":"Not Hispanic or Latino","userSelected":true}},{"url":"text","valueString":"Not Hispanic or Latino"}]}],"identifier":[{"type":{"coding":[{"system":"http://terminology.hl7.org/CodeSystem/v2-0203","code":"MR"}]},"system":"https://bonnie-fhir.healthit.gov/","value":"63ec096eccb3770120fea3a7"}],"active":true,"name":[{"use":"usual","family":"IPFail","given":["EncounterEndsB4StartofMP"]}],"gender":"male","birthDate":"1957-06-15"},"request":{"method":"PUT","url":"Patient/34f7d577-183d-4a6b-905d-22f6751c3940"}},{"fullUrl":"https://madie.cms.gov/Encounter/0211fad9-23bf-4f87-93f5-a6734a0751bc","resource":{"resourceType":"Encounter","id":"0211fad9-23bf-4f87-93f5-a6734a0751bc","meta":{"profile":["http://hl7.org/fhir/us/qicore/StructureDefinition/qicore-encounter"]},"status":"finished","class":{"system":"http://terminology.hl7.org/CodeSystem/v3-ActCode","code":"IMP","display":"inpatient encounter"},"type":[{"coding":[{"system":"http://snomed.info/sct","code":"183452005"}]}],"subject":{"reference":"Patient/34f7d577-183d-4a6b-905d-22f6751c3940"},"period":{"start":"2026-06-26T08:00:00.000+00:00","end":"2026-06-30T11:59:00.000+00:00"},"length":{"value":5,"unit":"days"}},"request":{"method":"PUT","url":"Encounter/0211fad9-23bf-4f87-93f5-a6734a0751bc"}},{"fullUrl":"https://madie.cms.gov/Coverage/a0841c85-8bec-4d9e-bd56-6d4b83cd2a6a","resource":{"resourceType":"Coverage","id":"a0841c85-8bec-4d9e-bd56-6d4b83cd2a6a","meta":{"profile":["http://hl7.org/fhir/us/qicore/StructureDefinition/qicore-coverage"]},"status":"active","type":{"coding":[{"system":"https://nahdo.org/sopt","version":"9.2","code":"1","display":"MEDICARE","userSelected":true}]},"beneficiary":{"reference":"Patient/34f7d577-183d-4a6b-905d-22f6751c3940"},"period":{"start":"2025-12-01T00:00:00+00:00"},"payor":[{"reference":"Organization/f4907415-83c5-4eae-ab0b-cb63a840880d"}]},"request":{"method":"PUT","url":"Coverage/a0841c85-8bec-4d9e-bd56-6d4b83cd2a6a"}},{"fullUrl":"https://madie.cms.gov/Organization/7550cb07-070d-469c-a982-9edde3284cf7","resource":{"resourceType":"Organization","id":"f4907415-83c5-4eae-ab0b-cb63a840880d","meta":{"profile":["http://hl7.org/fhir/us/qicore/StructureDefinition/qicore-organization"]},"identifier":[{"use":"temp","system":"urn:oid:2.16.840.1.113883.4.4","value":"21-3259825"}],"active":true,"type":[{"coding":[{"system":"http://terminology.hl7.org/CodeSystem/organization-type","code":"pay","display":"Payer"}]}],"name":"Blue Cross Blue Shield of Texas","telecom":[{"system":"phone","value":"(+1) 972-766-6900"}],"address":[{"use":"billing","type":"postal","line":["P.O. Box 660044"],"city":"Dallas","state":"TX","postalCode":"75266-0044","country":"USA"}]},"request":{"method":"PUT","url":"Organization/f4907415-83c5-4eae-ab0b-cb63a840880d"}},{"fullUrl":"https://madie.cms.gov/Practitioner/9443472e-0748-4d4f-8616-64db3792dfca","resource":{"resourceType":"Practitioner","id":"9443472e-0748-4d4f-8616-64db3792dfca","meta":{"profile":["http://hl7.org/fhir/us/qicore/StructureDefinition/qicore-practitioner"]},"identifier":[{"system":"http://hl7.org/fhir/sid/us-npi","value":"123456"}],"name":[{"family":"Evil","prefix":["Dr"]}]},"request":{"method":"PUT","url":"Practitioner/9443472e-0748-4d4f-8616-64db3792dfca"}},{"fullUrl":"https://madie.cms.gov/MeasureReport/f85e8359-2027-4c5d-9246-d28a80486179","resource":{"resourceType":"MeasureReport","id":"f85e8359-2027-4c5d-9246-d28a80486179","meta":{"profile":["http://hl7.org/fhir/us/cqfmeasures/StructureDefinition/test-case-cqfm"]},"contained":[{"resourceType":"Parameters","id":"25b6e6ee-e94c-4f48-865f-7527172917e1-parameters","parameter":[{"name":"subject","valueString":"34f7d577-183d-4a6b-905d-22f6751c3940"}]}],"extension":[{"url":"http://hl7.org/fhir/us/cqfmeasures/StructureDefinition/cqfm-inputParameters","valueReference":{"reference":"#25b6e6ee-e94c-4f48-865f-7527172917e1-parameters"}},{"url":"http://hl7.org/fhir/us/cqfmeasures/StructureDefinition/cqfm-testCaseDescription","valueMarkdown":"Encounter ends (6/30) before start of measurement period.\n "}],"modifierExtension":[{"url":"http://hl7.org/fhir/us/cqfmeasures/StructureDefinition/cqfm-isTestCase","valueBoolean":true}],"status":"complete","type":"individual","measure":"https://madie.cms.gov/Measure/CMSFHIR529HybridHospitalWideReadmission","period":{"start":"2026-07-01","end":"2027-06-30"},"group":[{"population":[{"code":{"coding":[{"system":"http://terminology.hl7.org/CodeSystem/measure-population","code":"initial-population","display":"Initial Population"}]},"count":0}]}]},"request":{"method":"PUT","url":"MeasureReport/f85e8359-2027-4c5d-9246-d28a80486179"}}]}