{"resourceType":"Bundle","id":"tests-e7c3ce5f-06e7-437f-a611-3df5d324eaf9-bundle","type":"transaction","entry":[{"fullUrl":"https://madie.cms.gov/Patient/e7c3ce5f-06e7-437f-a611-3df5d324eaf9","resource":{"resourceType":"Patient","id":"e7c3ce5f-06e7-437f-a611-3df5d324eaf9","meta":{"profile":["http://hl7.org/fhir/us/qicore/StructureDefinition/qicore-patient"]},"text":{"status":"generated","div":"<div xmlns=\"http://www.w3.org/1999/xhtml\"><div class=\"hapiHeaderText\">GT2after_relevantPeriod_startonly <b>TEMPFAIL </b></div><table class=\"hapiPropertyTable\"><tbody><tr><td>Identifier</td><td>cc92ca2d683777c37369f3543d9693f391ac5069002d71debd1939cd48bb2d8a</td></tr><tr><td>Date of birth</td><td><span>15 June 1956</span></td></tr></tbody></table></div>"},"extension":[{"url":"http://hl7.org/fhir/us/core/StructureDefinition/us-core-race","extension":[{"url":"ombCategory","valueCoding":{"system":"urn:oid:2.16.840.1.113883.6.238","code":"1002-5","display":"American Indian or Alaska Native","userSelected":true}},{"url":"text","valueString":"American Indian or Alaska Native"}]},{"url":"http://hl7.org/fhir/us/core/StructureDefinition/us-core-ethnicity","extension":[{"url":"ombCategory","valueCoding":{"system":"urn:oid:2.16.840.1.113883.6.238","code":"2186-5","display":"Not Hispanic or Latino","userSelected":true}},{"url":"text","valueString":"Not Hispanic or Latino"}]}],"identifier":[{"type":{"coding":[{"system":"http://terminology.hl7.org/CodeSystem/v2-0203","code":"MR"}]},"system":"https://bonnie-fhir.healthit.gov/","value":"63ec0968ccb3770120fe9dc6"}],"active":true,"name":[{"use":"usual","family":"TemperaturePass","given":["2HrsAfterStartOfEncounter"]}],"gender":"male","birthDate":"1957-06-15"},"request":{"method":"PUT","url":"Patient/e7c3ce5f-06e7-437f-a611-3df5d324eaf9"}},{"fullUrl":"https://madie.cms.gov/Encounter/02c51753-c59d-4f86-bbd6-48dc0f6c4755","resource":{"resourceType":"Encounter","id":"02c51753-c59d-4f86-bbd6-48dc0f6c4755","meta":{"profile":["http://hl7.org/fhir/us/qicore/StructureDefinition/qicore-encounter"]},"status":"finished","class":{"system":"http://terminology.hl7.org/CodeSystem/v3-ActCode","code":"NONAC","display":"Nonacute","userSelected":true},"type":[{"coding":[{"system":"http://snomed.info/sct","code":"183452005","display":"Emergency hospital admission (procedure)"}]}],"subject":{"reference":"Patient/e7c3ce5f-06e7-437f-a611-3df5d324eaf9"},"period":{"start":"2026-07-01T08:00:00.000+00:00","end":"2026-07-02T08:15:00.000+00:00"}},"request":{"method":"PUT","url":"Encounter/02c51753-c59d-4f86-bbd6-48dc0f6c4755"}},{"fullUrl":"https://madie.cms.gov/Coverage/bc14b1ff-9db2-4e47-9867-231529a737d8","resource":{"resourceType":"Coverage","id":"bc14b1ff-9db2-4e47-9867-231529a737d8","meta":{"profile":["http://hl7.org/fhir/us/qicore/StructureDefinition/qicore-coverage"]},"status":"active","type":{"coding":[{"system":"https://nahdo.org/sopt","version":"1.0.1","code":"1","display":"Medicare payer","userSelected":true}]},"beneficiary":{"reference":"Patient/e7c3ce5f-06e7-437f-a611-3df5d324eaf9"},"period":{"start":"2026-01-28T08:00:00.000+00:00","end":"2026-12-31T08:15:00.000+00:00"},"payor":[{"reference":"Organization/3778262e-e084-4bb5-9a47-1a144735f786"}]},"request":{"method":"PUT","url":"Coverage/bc14b1ff-9db2-4e47-9867-231529a737d8"}},{"fullUrl":"https://madie.cms.gov/Observation/22c74290-4ed2-4f4f-b74a-3e93ba25a440","resource":{"resourceType":"Observation","id":"22c74290-4ed2-4f4f-b74a-3e93ba25a440","meta":{"profile":["http://hl7.org/fhir/StructureDefinition/bodytemp"]},"status":"corrected","category":[{"coding":[{"system":"http://terminology.hl7.org/CodeSystem/observation-category","code":"vital-signs","display":"Vital Signs","userSelected":true}]}],"code":{"coding":[{"system":"http://loinc.org","code":"8310-5","display":"Body temperature"}]},"subject":{"reference":"Patient/e7c3ce5f-06e7-437f-a611-3df5d324eaf9"},"effectiveDateTime":"2026-07-01T10:00:00.000+00:00","valueQuantity":{"value":98.6,"unit":"[degF]","system":"http://unitsofmeasure.org","code":"[degF]"}},"request":{"method":"PUT","url":"Observation/22c74290-4ed2-4f4f-b74a-3e93ba25a440"}},{"fullUrl":"https://madie.cms.gov/Organization/66176056-2c27-401b-9632-cb9b6b1efef7","resource":{"resourceType":"Organization","id":"3778262e-e084-4bb5-9a47-1a144735f786","meta":{"profile":["http://hl7.org/fhir/us/qicore/StructureDefinition/qicore-organization"]},"identifier":[{"use":"temp","system":"urn:oid:2.16.840.1.113883.4.4","value":"21-3259825"}],"active":true,"type":[{"coding":[{"system":"http://terminology.hl7.org/CodeSystem/organization-type","code":"pay","display":"Payer"}]}],"name":"Blue Cross Blue Shield of Texas","telecom":[{"system":"phone","value":"(+1) 972-766-6900"}],"address":[{"use":"billing","type":"postal","line":["P.O. Box 660044"],"city":"Dallas","state":"TX","postalCode":"75266-0044","country":"USA"}]},"request":{"method":"PUT","url":"Organization/3778262e-e084-4bb5-9a47-1a144735f786"}},{"fullUrl":"https://madie.cms.gov/Practitioner/f8b28047-344e-417f-aea9-1998c4108f25","resource":{"resourceType":"Practitioner","id":"f8b28047-344e-417f-aea9-1998c4108f25","meta":{"profile":["http://hl7.org/fhir/us/qicore/StructureDefinition/qicore-practitioner"]},"identifier":[{"system":"http://hl7.org/fhir/sid/us-npi","value":"123456"}],"name":[{"family":"Evil","prefix":["Dr"]}]},"request":{"method":"PUT","url":"Practitioner/f8b28047-344e-417f-aea9-1998c4108f25"}},{"fullUrl":"https://madie.cms.gov/MeasureReport/5129c06d-29ad-45a3-bbd9-af62b3487f6d","resource":{"resourceType":"MeasureReport","id":"5129c06d-29ad-45a3-bbd9-af62b3487f6d","meta":{"profile":["http://hl7.org/fhir/us/cqfmeasures/StructureDefinition/test-case-cqfm"]},"contained":[{"resourceType":"Parameters","id":"f0926fb1-f78d-4bae-92ae-04bb32882ce2-parameters","parameter":[{"name":"subject","valueString":"e7c3ce5f-06e7-437f-a611-3df5d324eaf9"}]}],"extension":[{"url":"http://hl7.org/fhir/us/cqfmeasures/StructureDefinition/cqfm-inputParameters","valueReference":{"reference":"#f0926fb1-f78d-4bae-92ae-04bb32882ce2-parameters"}},{"url":"http://hl7.org/fhir/us/cqfmeasures/StructureDefinition/cqfm-testCaseDescription","valueMarkdown":"Enc first day of MP (7/1), has Medicare, Patient has temperature taken 2hrs after start of encounter"}],"modifierExtension":[{"url":"http://hl7.org/fhir/us/cqfmeasures/StructureDefinition/cqfm-isTestCase","valueBoolean":true}],"status":"complete","type":"individual","measure":"https://madie.cms.gov/Measure/CMSFHIR529HybridHospitalWideReadmission","period":{"start":"2026-07-01","end":"2027-06-30"},"group":[{"population":[{"code":{"coding":[{"system":"http://terminology.hl7.org/CodeSystem/measure-population","code":"initial-population","display":"Initial Population"}]},"count":1}]}]},"request":{"method":"PUT","url":"MeasureReport/5129c06d-29ad-45a3-bbd9-af62b3487f6d"}}]}