{"resourceType":"Bundle","id":"tests-5c8fd823-e0f2-4cce-ab1f-9ed73e175fd6-bundle","type":"transaction","entry":[{"fullUrl":"https://madie.cms.gov/Patient/5c8fd823-e0f2-4cce-ab1f-9ed73e175fd6","resource":{"resourceType":"Patient","id":"5c8fd823-e0f2-4cce-ab1f-9ed73e175fd6","meta":{"profile":["http://hl7.org/fhir/us/qicore/StructureDefinition/qicore-patient"]},"text":{"status":"generated","div":"<div xmlns=\"http://www.w3.org/1999/xhtml\"><div class=\"hapiHeaderText\">GT24beforeAndGT24after_RelevantPeriod <b>RRFAIL </b></div><table class=\"hapiPropertyTable\"><tbody><tr><td>Identifier</td><td>6b96c7322b6ea501cb069f5b5d0350be5b4be325a692598aba6b49af1cb369c3</td></tr><tr><td>Date of birth</td><td><span>15 June 1947</span></td></tr></tbody></table></div>"},"extension":[{"url":"http://hl7.org/fhir/us/core/StructureDefinition/us-core-race","extension":[{"url":"ombCategory","valueCoding":{"system":"urn:oid:2.16.840.1.113883.6.238","code":"2054-5","display":"Black or African American","userSelected":true}},{"url":"text","valueString":"Black or African American"}]},{"url":"http://hl7.org/fhir/us/core/StructureDefinition/us-core-ethnicity","extension":[{"url":"ombCategory","valueCoding":{"system":"urn:oid:2.16.840.1.113883.6.238","code":"2186-5","display":"Not Hispanic or Latino","userSelected":true}},{"url":"text","valueString":"Not Hispanic or Latino"}]}],"identifier":[{"type":{"coding":[{"system":"http://terminology.hl7.org/CodeSystem/v2-0203","code":"MR"}]},"system":"https://bonnie-fhir.healthit.gov/","value":"63ec09a9ccb3770120feae02"}],"active":true,"name":[{"use":"usual","family":"RespiratoryRateFail","given":["RespRateX3AllOutsideOfParameters"]}],"gender":"male","birthDate":"1948-06-15"},"request":{"method":"PUT","url":"Patient/5c8fd823-e0f2-4cce-ab1f-9ed73e175fd6"}},{"fullUrl":"https://madie.cms.gov/Encounter/f1fe232c-ce2b-43e5-b0fa-82f2ba34da16","resource":{"resourceType":"Encounter","id":"f1fe232c-ce2b-43e5-b0fa-82f2ba34da16","meta":{"profile":["http://hl7.org/fhir/us/qicore/StructureDefinition/qicore-encounter"]},"status":"finished","class":{"system":"http://terminology.hl7.org/CodeSystem/v3-ActCode","code":"IMP","display":"inpatient encounter","userSelected":true},"type":[{"coding":[{"system":"http://snomed.info/sct","code":"183452005"}]}],"subject":{"reference":"Patient/5c8fd823-e0f2-4cce-ab1f-9ed73e175fd6"},"period":{"start":"2026-08-21T08:00:00.000+00:00","end":"2026-08-22T08:15:00.000+00:00"}},"request":{"method":"PUT","url":"Encounter/f1fe232c-ce2b-43e5-b0fa-82f2ba34da16"}},{"fullUrl":"https://madie.cms.gov/Coverage/86fcc69c-8c44-4450-82d7-f5957cd07e3b","resource":{"resourceType":"Coverage","id":"86fcc69c-8c44-4450-82d7-f5957cd07e3b","meta":{"profile":["http://hl7.org/fhir/us/qicore/StructureDefinition/qicore-coverage"]},"status":"active","type":{"coding":[{"system":"https://nahdo.org/sopt","version":"1.0.1","code":"1","display":"Medicare payer","userSelected":true}]},"beneficiary":{"reference":"Patient/5c8fd823-e0f2-4cce-ab1f-9ed73e175fd6"},"payor":[{"reference":"Organization/e75793c9-fdf6-463a-8c1d-4ee44320dc25"}]},"request":{"method":"PUT","url":"Coverage/86fcc69c-8c44-4450-82d7-f5957cd07e3b"}},{"fullUrl":"https://madie.cms.gov/Observation/05db558f-8b42-4352-8624-cc40031172ea","resource":{"resourceType":"Observation","id":"05db558f-8b42-4352-8624-cc40031172ea","meta":{"profile":["http://hl7.org/fhir/StructureDefinition/resprate"]},"status":"final","category":[{"coding":[{"system":"http://terminology.hl7.org/CodeSystem/observation-category","code":"vital-signs","display":"Vital Signs","userSelected":true}]}],"code":{"coding":[{"system":"http://loinc.org","code":"9279-1","display":"Respiratory rate"}]},"subject":{"reference":"Patient/5c8fd823-e0f2-4cce-ab1f-9ed73e175fd6"},"effectiveDateTime":"2026-08-20T07:59:00.000+00:00","valueQuantity":{"value":16.0,"unit":"/min","system":"http://unitsofmeasure.org","code":"/min"}},"request":{"method":"PUT","url":"Observation/05db558f-8b42-4352-8624-cc40031172ea"}},{"fullUrl":"https://madie.cms.gov/Observation/da7b7e29-e654-4335-897f-7cc7b73ed0d7","resource":{"resourceType":"Observation","id":"da7b7e29-e654-4335-897f-7cc7b73ed0d7","meta":{"profile":["http://hl7.org/fhir/StructureDefinition/resprate"]},"status":"final","category":[{"coding":[{"system":"http://terminology.hl7.org/CodeSystem/observation-category","code":"vital-signs","display":"Vital Signs","userSelected":true}]}],"code":{"coding":[{"system":"http://loinc.org","code":"9279-1","display":"Respiratory rate"}]},"subject":{"reference":"Patient/5c8fd823-e0f2-4cce-ab1f-9ed73e175fd6"},"effectiveDateTime":"2026-08-21T10:01:00.000+00:00","valueQuantity":{"value":16.0,"unit":"/min","system":"http://unitsofmeasure.org","code":"/min"}},"request":{"method":"PUT","url":"Observation/da7b7e29-e654-4335-897f-7cc7b73ed0d7"}},{"fullUrl":"https://madie.cms.gov/Observation/c8ca57a8-79e0-4e1b-baaa-81a90b7674af","resource":{"resourceType":"Observation","id":"c8ca57a8-79e0-4e1b-baaa-81a90b7674af","meta":{"profile":["http://hl7.org/fhir/StructureDefinition/resprate"]},"status":"final","category":[{"coding":[{"system":"http://terminology.hl7.org/CodeSystem/observation-category","code":"vital-signs","display":"Vital Signs","userSelected":true}]}],"code":{"coding":[{"system":"http://loinc.org","code":"9279-1","display":"Respiratory rate"}]},"subject":{"reference":"Patient/5c8fd823-e0f2-4cce-ab1f-9ed73e175fd6"},"effectiveDateTime":"2026-08-22T08:16:00.000+00:00","valueQuantity":{"value":16.0,"unit":"/min","system":"http://unitsofmeasure.org","code":"/min"}},"request":{"method":"PUT","url":"Observation/c8ca57a8-79e0-4e1b-baaa-81a90b7674af"}},{"fullUrl":"https://madie.cms.gov/Organization/e0ad0e99-5a92-4f0e-af55-a5163ddcfd0f","resource":{"resourceType":"Organization","id":"e75793c9-fdf6-463a-8c1d-4ee44320dc25","meta":{"profile":["http://hl7.org/fhir/us/qicore/StructureDefinition/qicore-organization"]},"identifier":[{"use":"temp","system":"urn:oid:2.16.840.1.113883.4.4","value":"21-3259825"}],"active":true,"type":[{"coding":[{"system":"http://terminology.hl7.org/CodeSystem/organization-type","code":"pay","display":"Payer"}]}],"name":"Blue Cross Blue Shield of Texas","telecom":[{"system":"phone","value":"(+1) 972-766-6900"}],"address":[{"use":"billing","type":"postal","line":["P.O. Box 660044"],"city":"Dallas","state":"TX","postalCode":"75266-0044","country":"USA"}]},"request":{"method":"PUT","url":"Organization/e75793c9-fdf6-463a-8c1d-4ee44320dc25"}},{"fullUrl":"https://madie.cms.gov/Practitioner/cbf7587a-2cd3-4426-a2c7-f82c831a2e8a","resource":{"resourceType":"Practitioner","id":"cbf7587a-2cd3-4426-a2c7-f82c831a2e8a","meta":{"profile":["http://hl7.org/fhir/us/qicore/StructureDefinition/qicore-practitioner"]},"identifier":[{"system":"http://hl7.org/fhir/sid/us-npi","value":"123456"}],"name":[{"family":"Evil","prefix":["Dr"]}]},"request":{"method":"PUT","url":"Practitioner/cbf7587a-2cd3-4426-a2c7-f82c831a2e8a"}},{"fullUrl":"https://madie.cms.gov/MeasureReport/72578f17-2581-4003-99b1-ddc095ee2651","resource":{"resourceType":"MeasureReport","id":"72578f17-2581-4003-99b1-ddc095ee2651","meta":{"profile":["http://hl7.org/fhir/us/cqfmeasures/StructureDefinition/test-case-cqfm"]},"contained":[{"resourceType":"Parameters","id":"99a2d2af-3d7b-416e-b45a-07f4c750d989-parameters","parameter":[{"name":"subject","valueString":"5c8fd823-e0f2-4cce-ab1f-9ed73e175fd6"}]}],"extension":[{"url":"http://hl7.org/fhir/us/cqfmeasures/StructureDefinition/cqfm-inputParameters","valueReference":{"reference":"#99a2d2af-3d7b-416e-b45a-07f4c750d989-parameters"}},{"url":"http://hl7.org/fhir/us/cqfmeasures/StructureDefinition/cqfm-testCaseDescription","valueMarkdown":"Patient had 3 respiratory rate exams - 24 hours, 1 minute before start of encounter, 2 hours, 1 minute after start of encounter, and after end of encounter. \n"}],"modifierExtension":[{"url":"http://hl7.org/fhir/us/cqfmeasures/StructureDefinition/cqfm-isTestCase","valueBoolean":true}],"status":"complete","type":"individual","measure":"https://madie.cms.gov/Measure/CMSFHIR529HybridHospitalWideReadmission","period":{"start":"2026-07-01","end":"2027-06-30"},"group":[{"population":[{"code":{"coding":[{"system":"http://terminology.hl7.org/CodeSystem/measure-population","code":"initial-population","display":"Initial Population"}]},"count":1}]}]},"request":{"method":"PUT","url":"MeasureReport/72578f17-2581-4003-99b1-ddc095ee2651"}}]}