{"resourceType":"Bundle","id":"tests-62be7d89-b3ac-4686-a1bc-64997e523d66-bundle","type":"transaction","entry":[{"fullUrl":"https://madie.cms.gov/Patient/62be7d89-b3ac-4686-a1bc-64997e523d66","resource":{"resourceType":"Patient","id":"62be7d89-b3ac-4686-a1bc-64997e523d66","meta":{"profile":["http://hl7.org/fhir/us/qicore/StructureDefinition/qicore-patient"]},"text":{"status":"generated","div":"<div xmlns=\"http://www.w3.org/1999/xhtml\"><div class=\"hapiHeaderText\">GT2after_relevantDT <b>TEMPFAIL </b></div><table class=\"hapiPropertyTable\"><tbody><tr><td>Identifier</td><td>cf7574e0b0359d44c480900ab191162d228d27f86315407c0dffcae5d072e7d9</td></tr><tr><td>Date of birth</td><td><span>15 June 1956</span></td></tr></tbody></table></div>"},"extension":[{"url":"http://hl7.org/fhir/us/core/StructureDefinition/us-core-race","extension":[{"url":"ombCategory","valueCoding":{"system":"urn:oid:2.16.840.1.113883.6.238","code":"1002-5","display":"American Indian or Alaska Native","userSelected":true}},{"url":"text","valueString":"American Indian or Alaska Native"}]},{"url":"http://hl7.org/fhir/us/core/StructureDefinition/us-core-ethnicity","extension":[{"url":"ombCategory","valueCoding":{"system":"urn:oid:2.16.840.1.113883.6.238","code":"2186-5","display":"Not Hispanic or Latino","userSelected":true}},{"url":"text","valueString":"Not Hispanic or Latino"}]}],"identifier":[{"type":{"coding":[{"system":"http://terminology.hl7.org/CodeSystem/v2-0203","code":"MR"}]},"system":"https://bonnie-fhir.healthit.gov/","value":"63ec096cccb3770120fea245"}],"active":true,"name":[{"use":"usual","family":"TemperatureFail","given":["2Hours1MinAfterStartOfInpatient"]}],"gender":"male","birthDate":"1961-07-01"},"request":{"method":"PUT","url":"Patient/62be7d89-b3ac-4686-a1bc-64997e523d66"}},{"fullUrl":"https://madie.cms.gov/Encounter/802e0541-340c-4208-a0cf-35baa4ae3596","resource":{"resourceType":"Encounter","id":"802e0541-340c-4208-a0cf-35baa4ae3596","meta":{"profile":["http://hl7.org/fhir/us/qicore/StructureDefinition/qicore-encounter"]},"status":"finished","class":{"system":"http://terminology.hl7.org/CodeSystem/v3-ActCode","code":"IMP","display":"inpatient encounter","userSelected":true},"type":[{"coding":[{"system":"http://snomed.info/sct","code":"183452005"}]}],"subject":{"reference":"Patient/62be7d89-b3ac-4686-a1bc-64997e523d66"},"period":{"start":"2026-07-01T08:00:00.000+00:00","end":"2026-07-06T15:15:00.000+00:00"},"length":{"value":1,"unit":"days"}},"request":{"method":"PUT","url":"Encounter/802e0541-340c-4208-a0cf-35baa4ae3596"}},{"fullUrl":"https://madie.cms.gov/Coverage/863a4e47-d9bf-43a5-b7fc-0dafcc813355","resource":{"resourceType":"Coverage","id":"863a4e47-d9bf-43a5-b7fc-0dafcc813355","meta":{"profile":["http://hl7.org/fhir/us/qicore/StructureDefinition/qicore-coverage"]},"status":"active","type":{"coding":[{"system":"https://nahdo.org/sopt","version":"1.0.1","code":"1","display":"Medicare payer","userSelected":true}]},"beneficiary":{"reference":"Patient/62be7d89-b3ac-4686-a1bc-64997e523d66"},"payor":[{"reference":"Organization/5ad6ea38-07e9-4482-9e1b-c09eee595be9"}]},"request":{"method":"PUT","url":"Coverage/863a4e47-d9bf-43a5-b7fc-0dafcc813355"}},{"fullUrl":"https://madie.cms.gov/Observation/c23cb7ea-9faa-4c13-9b22-0bd4a8d71d9c","resource":{"resourceType":"Observation","id":"c23cb7ea-9faa-4c13-9b22-0bd4a8d71d9c","meta":{"profile":["http://hl7.org/fhir/StructureDefinition/bodytemp"]},"status":"final","category":[{"coding":[{"system":"http://terminology.hl7.org/CodeSystem/observation-category","code":"vital-signs","display":"Vital Signs","userSelected":true}]}],"code":{"coding":[{"system":"http://loinc.org","code":"8310-5","display":"Body temperature"}]},"subject":{"reference":"Patient/62be7d89-b3ac-4686-a1bc-64997e523d66"},"effectiveDateTime":"2026-07-01T10:01:00.000+00:00","valueQuantity":{"value":99,"unit":"[degF]","system":"http://unitsofmeasure.org","code":"[degF]"}},"request":{"method":"PUT","url":"Observation/c23cb7ea-9faa-4c13-9b22-0bd4a8d71d9c"}},{"fullUrl":"https://madie.cms.gov/Organization/f066dc8d-23e1-4001-992e-8ed3ccdc6f70","resource":{"resourceType":"Organization","id":"5ad6ea38-07e9-4482-9e1b-c09eee595be9","meta":{"profile":["http://hl7.org/fhir/us/qicore/StructureDefinition/qicore-organization"]},"identifier":[{"use":"temp","system":"urn:oid:2.16.840.1.113883.4.4","value":"21-3259825"}],"active":true,"type":[{"coding":[{"system":"http://terminology.hl7.org/CodeSystem/organization-type","code":"pay","display":"Payer"}]}],"name":"Blue Cross Blue Shield of Texas","telecom":[{"system":"phone","value":"(+1) 972-766-6900"}],"address":[{"use":"billing","type":"postal","line":["P.O. Box 660044"],"city":"Dallas","state":"TX","postalCode":"75266-0044","country":"USA"}]},"request":{"method":"PUT","url":"Organization/5ad6ea38-07e9-4482-9e1b-c09eee595be9"}},{"fullUrl":"https://madie.cms.gov/Practitioner/e0e31022-9a6f-4eb9-9ee5-d4ff6dbb03c5","resource":{"resourceType":"Practitioner","id":"e0e31022-9a6f-4eb9-9ee5-d4ff6dbb03c5","meta":{"profile":["http://hl7.org/fhir/us/qicore/StructureDefinition/qicore-practitioner"]},"identifier":[{"system":"http://hl7.org/fhir/sid/us-npi","value":"123456"}],"name":[{"family":"Evil","prefix":["Dr"]}]},"request":{"method":"PUT","url":"Practitioner/e0e31022-9a6f-4eb9-9ee5-d4ff6dbb03c5"}},{"fullUrl":"https://madie.cms.gov/MeasureReport/3f320e37-6d1f-473a-b264-b766492a7532","resource":{"resourceType":"MeasureReport","id":"3f320e37-6d1f-473a-b264-b766492a7532","meta":{"profile":["http://hl7.org/fhir/us/cqfmeasures/StructureDefinition/test-case-cqfm"]},"contained":[{"resourceType":"Parameters","id":"27f017f5-418c-40dc-aa10-ba10f862debf-parameters","parameter":[{"name":"subject","valueString":"62be7d89-b3ac-4686-a1bc-64997e523d66"}]}],"extension":[{"url":"http://hl7.org/fhir/us/cqfmeasures/StructureDefinition/cqfm-inputParameters","valueReference":{"reference":"#27f017f5-418c-40dc-aa10-ba10f862debf-parameters"}},{"url":"http://hl7.org/fhir/us/cqfmeasures/StructureDefinition/cqfm-testCaseDescription","valueMarkdown":"Enc. first day of MP (7/1), age 65, had Medicare, temperature taken 2 hours 1 min after admission"}],"modifierExtension":[{"url":"http://hl7.org/fhir/us/cqfmeasures/StructureDefinition/cqfm-isTestCase","valueBoolean":true}],"status":"complete","type":"individual","measure":"https://madie.cms.gov/Measure/CMSFHIR529HybridHospitalWideReadmission","period":{"start":"2026-07-01","end":"2027-06-30"},"group":[{"population":[{"code":{"coding":[{"system":"http://terminology.hl7.org/CodeSystem/measure-population","code":"initial-population","display":"Initial Population"}]},"count":1}]}]},"request":{"method":"PUT","url":"MeasureReport/3f320e37-6d1f-473a-b264-b766492a7532"}}]}