{"resourceType":"Bundle","id":"tests-94cbf7ce-aead-45bc-85aa-17c70136787b-bundle","type":"transaction","entry":[{"fullUrl":"https://madie.cms.gov/Patient/94cbf7ce-aead-45bc-85aa-17c70136787b","resource":{"resourceType":"Patient","id":"94cbf7ce-aead-45bc-85aa-17c70136787b","meta":{"profile":["http://hl7.org/fhir/us/qicore/StructureDefinition/qicore-patient"]},"text":{"status":"generated","div":"<div xmlns=\"http://www.w3.org/1999/xhtml\"><div class=\"hapiHeaderText\">Enc365Days <b>IPFAIL </b></div><table class=\"hapiPropertyTable\"><tbody><tr><td>Identifier</td><td>b2ac2068f7257396cf52f5da8f4745c8dfa740356675ebf48da1df05c252eae1</td></tr><tr><td>Date of birth</td><td><span>15 June 1956</span></td></tr></tbody></table></div>"},"extension":[{"url":"http://hl7.org/fhir/us/core/StructureDefinition/us-core-race","extension":[{"url":"ombCategory","valueCoding":{"system":"urn:oid:2.16.840.1.113883.6.238","code":"1002-5","display":"American Indian or Alaska Native","userSelected":true}},{"url":"text","valueString":"American Indian or Alaska Native"},{"url":"detailed","valueCoding":{"system":"urn:oid:2.16.840.1.113883.6.238","code":"1653-5","display":"Tohono O'Odham"}}]},{"url":"http://hl7.org/fhir/us/core/StructureDefinition/us-core-ethnicity","extension":[{"url":"ombCategory","valueCoding":{"system":"urn:oid:2.16.840.1.113883.6.238","code":"2135-2","display":"Hispanic or Latino","userSelected":true}},{"url":"text","valueString":"Not Hispanic or Latino"},{"url":"detailed","valueCoding":{"system":"urn:oid:2.16.840.1.113883.6.238","code":"2153-5","display":"Mexican American Indian"}}]}],"identifier":[{"type":{"coding":[{"system":"http://terminology.hl7.org/CodeSystem/v2-0203","code":"MR"}]},"system":"https://bonnie-fhir.healthit.gov/","value":"63ec096dccb3770120fea31f"}],"active":true,"name":[{"use":"usual","family":"IPFail","given":["Encounter365Days"]}],"gender":"female","birthDate":"1957-06-15"},"request":{"method":"PUT","url":"Patient/94cbf7ce-aead-45bc-85aa-17c70136787b"}},{"fullUrl":"https://madie.cms.gov/Encounter/6030db06-7acc-499d-a56a-7c44fdd02240","resource":{"resourceType":"Encounter","id":"6030db06-7acc-499d-a56a-7c44fdd02240","meta":{"profile":["http://hl7.org/fhir/us/qicore/StructureDefinition/qicore-encounter"]},"status":"finished","class":{"system":"http://snomed.info/sct","code":"183452005","display":"Emergency hospital admission (procedure)","userSelected":true},"type":[{"coding":[{"system":"http://snomed.info/sct","code":"183452005"}]}],"subject":{"reference":"Patient/94cbf7ce-aead-45bc-85aa-17c70136787b"},"period":{"start":"2026-06-29T00:01:00+00:00","end":"2027-06-30T11:59:00+00:00"},"length":{"value":365,"unit":"days"}},"request":{"method":"PUT","url":"Encounter/6030db06-7acc-499d-a56a-7c44fdd02240"}},{"fullUrl":"https://madie.cms.gov/Coverage/a1481078-756e-4445-8283-4905a7f0f937","resource":{"resourceType":"Coverage","id":"a1481078-756e-4445-8283-4905a7f0f937","meta":{"profile":["http://hl7.org/fhir/us/qicore/StructureDefinition/qicore-coverage"]},"status":"active","type":{"coding":[{"system":"https://nahdo.org/sopt","version":"1.0.1","code":"1","display":"Medicare payer","userSelected":true}]},"beneficiary":{"reference":"Patient/94cbf7ce-aead-45bc-85aa-17c70136787b"},"payor":[{"reference":"Organization/3e899f33-84eb-4634-a770-a5a0bd7a80e7"}]},"request":{"method":"PUT","url":"Coverage/a1481078-756e-4445-8283-4905a7f0f937"}},{"fullUrl":"https://madie.cms.gov/Organization/a1c3b149-afac-42f0-8909-3528bf4335a5","resource":{"resourceType":"Organization","id":"3e899f33-84eb-4634-a770-a5a0bd7a80e7","meta":{"profile":["http://hl7.org/fhir/us/qicore/StructureDefinition/qicore-organization"]},"identifier":[{"use":"temp","system":"urn:oid:2.16.840.1.113883.4.4","value":"21-3259825"}],"active":true,"type":[{"coding":[{"system":"http://terminology.hl7.org/CodeSystem/organization-type","code":"pay","display":"Payer"}]}],"name":"Blue Cross Blue Shield of Texas","telecom":[{"system":"phone","value":"(+1) 972-766-6900"}],"address":[{"use":"billing","type":"postal","line":["P.O. Box 660044"],"city":"Dallas","state":"TX","postalCode":"75266-0044","country":"USA"}]},"request":{"method":"PUT","url":"Organization/3e899f33-84eb-4634-a770-a5a0bd7a80e7"}},{"fullUrl":"https://madie.cms.gov/Practitioner/839174f9-e948-476e-bbcd-57ef948ed7e7","resource":{"resourceType":"Practitioner","id":"839174f9-e948-476e-bbcd-57ef948ed7e7","meta":{"profile":["http://hl7.org/fhir/us/qicore/StructureDefinition/qicore-practitioner"]},"identifier":[{"system":"http://hl7.org/fhir/sid/us-npi","value":"123456"}],"name":[{"family":"Evil","prefix":["Dr"]}]},"request":{"method":"PUT","url":"Practitioner/839174f9-e948-476e-bbcd-57ef948ed7e7"}},{"fullUrl":"https://madie.cms.gov/MeasureReport/47d4fba1-e40e-4ea3-abfc-85774e87e1ad","resource":{"resourceType":"MeasureReport","id":"47d4fba1-e40e-4ea3-abfc-85774e87e1ad","meta":{"profile":["http://hl7.org/fhir/us/cqfmeasures/StructureDefinition/test-case-cqfm"]},"contained":[{"resourceType":"Parameters","id":"9959fade-9470-449d-bc9e-7e7aad2b51d6-parameters","parameter":[{"name":"subject","valueString":"94cbf7ce-aead-45bc-85aa-17c70136787b"}]}],"extension":[{"url":"http://hl7.org/fhir/us/cqfmeasures/StructureDefinition/cqfm-inputParameters","valueReference":{"reference":"#9959fade-9470-449d-bc9e-7e7aad2b51d6-parameters"}},{"url":"http://hl7.org/fhir/us/cqfmeasures/StructureDefinition/cqfm-testCaseDescription","valueMarkdown":"Enc is 365 days July 1 - July 1 following year"}],"modifierExtension":[{"url":"http://hl7.org/fhir/us/cqfmeasures/StructureDefinition/cqfm-isTestCase","valueBoolean":true}],"status":"complete","type":"individual","measure":"https://madie.cms.gov/Measure/CMSFHIR529HybridHospitalWideReadmission","period":{"start":"2026-07-01","end":"2027-06-30"},"group":[{"population":[{"code":{"coding":[{"system":"http://terminology.hl7.org/CodeSystem/measure-population","code":"initial-population","display":"Initial Population"}]},"count":0}]}]},"request":{"method":"PUT","url":"MeasureReport/47d4fba1-e40e-4ea3-abfc-85774e87e1ad"}}]}