{"resourceType":"Bundle","id":"tests-6e20f297-39e7-4043-b1ae-c9226913b6f8-bundle","type":"transaction","entry":[{"fullUrl":"https://madie.cms.gov/Patient/6e20f297-39e7-4043-b1ae-c9226913b6f8","resource":{"resourceType":"Patient","id":"6e20f297-39e7-4043-b1ae-c9226913b6f8","meta":{"profile":["http://hl7.org/fhir/us/qicore/StructureDefinition/qicore-patient"]},"text":{"status":"generated","div":"<div xmlns=\"http://www.w3.org/1999/xhtml\"><div class=\"hapiHeaderText\">OnAdmit <b>POTASSPASS </b></div><table class=\"hapiPropertyTable\"><tbody><tr><td>Identifier</td><td>b8912d1880994d076d01ffeb8d822e9a94a15a8366278c89dc05c323ce4a468a</td></tr><tr><td>Date of birth</td><td><span>01 June 1947</span></td></tr></tbody></table></div>"},"extension":[{"url":"http://hl7.org/fhir/us/core/StructureDefinition/us-core-race","extension":[{"url":"ombCategory","valueCoding":{"system":"urn:oid:2.16.840.1.113883.6.238","code":"2106-3","display":"White","userSelected":true}},{"url":"text","valueString":"White"}]},{"url":"http://hl7.org/fhir/us/core/StructureDefinition/us-core-ethnicity","extension":[{"url":"ombCategory","valueCoding":{"system":"urn:oid:2.16.840.1.113883.6.238","code":"2186-5","display":"Not Hispanic or Latino","userSelected":true}},{"url":"text","valueString":"Not Hispanic or Latino"}]}],"identifier":[{"type":{"coding":[{"system":"http://terminology.hl7.org/CodeSystem/v2-0203","code":"MR"}]},"system":"https://bonnie-fhir.healthit.gov/","value":"63ec09abccb3770120feafc8"}],"active":true,"name":[{"use":"usual","family":"PotassPass","given":["Potassium2HrsBeforeEncStartandAtTimeofEncStart"]}],"gender":"female","birthDate":"1948-06-01"},"request":{"method":"PUT","url":"Patient/6e20f297-39e7-4043-b1ae-c9226913b6f8"}},{"fullUrl":"https://madie.cms.gov/Encounter/1e9dbf77-9377-433a-9706-5b3570676ad1","resource":{"resourceType":"Encounter","id":"1e9dbf77-9377-433a-9706-5b3570676ad1","meta":{"profile":["http://hl7.org/fhir/us/qicore/StructureDefinition/qicore-encounter"]},"status":"finished","class":{"system":"http://terminology.hl7.org/CodeSystem/v3-ActCode","code":"IMP","display":"inpatient encounter","userSelected":true},"type":[{"coding":[{"system":"http://snomed.info/sct","code":"183452005"}]}],"subject":{"reference":"Patient/6e20f297-39e7-4043-b1ae-c9226913b6f8"},"period":{"start":"2026-08-21T08:00:00.000+00:00","end":"2026-08-22T08:15:00.000+00:00"}},"request":{"method":"PUT","url":"Encounter/1e9dbf77-9377-433a-9706-5b3570676ad1"}},{"fullUrl":"https://madie.cms.gov/Coverage/a80a5acf-b0a6-4560-9555-78f384201d0a","resource":{"resourceType":"Coverage","id":"a80a5acf-b0a6-4560-9555-78f384201d0a","meta":{"profile":["http://hl7.org/fhir/us/qicore/StructureDefinition/qicore-coverage"]},"status":"active","type":{"coding":[{"system":"https://nahdo.org/sopt","version":"1.0.1","code":"1","display":"Medicare payer","userSelected":true}]},"beneficiary":{"reference":"Patient/6e20f297-39e7-4043-b1ae-c9226913b6f8"},"payor":[{"reference":"Organization/18ca435c-cae6-4c34-8033-af717477f9fc"}]},"request":{"method":"PUT","url":"Coverage/a80a5acf-b0a6-4560-9555-78f384201d0a"}},{"fullUrl":"https://madie.cms.gov/Observation/75763e25-aa05-42f9-bce9-da544d3cc71f","resource":{"resourceType":"Observation","id":"75763e25-aa05-42f9-bce9-da544d3cc71f","meta":{"profile":["http://hl7.org/fhir/us/core/StructureDefinition/us-core-observation-lab"]},"status":"final","category":[{"coding":[{"system":"http://terminology.hl7.org/CodeSystem/observation-category","code":"laboratory","display":"laboratory","userSelected":true}]}],"code":{"coding":[{"system":"http://loinc.org","code":"2823-3","display":"Potassium [Moles/volume] in Serum or Plasma"}]},"subject":{"reference":"Patient/6e20f297-39e7-4043-b1ae-c9226913b6f8"},"effectiveDateTime":"2026-08-21T06:00:00.000+00:00","issued":"2026-08-21T06:00:00.000+00:00","valueQuantity":{"value":5,"unit":"meq/L","system":"http://unitsofmeasure.org","code":"meq/L"}},"request":{"method":"PUT","url":"Observation/75763e25-aa05-42f9-bce9-da544d3cc71f"}},{"fullUrl":"https://madie.cms.gov/Observation/e6aafeb0-a0ca-4565-8eae-07774e2ff633","resource":{"resourceType":"Observation","id":"e6aafeb0-a0ca-4565-8eae-07774e2ff633","meta":{"profile":["http://hl7.org/fhir/us/core/StructureDefinition/us-core-observation-lab"]},"status":"final","category":[{"coding":[{"system":"http://terminology.hl7.org/CodeSystem/observation-category","code":"laboratory","display":"laboratory","userSelected":true}]}],"code":{"coding":[{"system":"http://loinc.org","code":"2823-3","display":"Potassium [Moles/volume] in Serum or Plasma"}]},"subject":{"reference":"Patient/6e20f297-39e7-4043-b1ae-c9226913b6f8"},"effectiveDateTime":"2026-08-21T08:00:00.000+00:00","issued":"2026-08-21T08:00:00.000+00:00","valueQuantity":{"value":3,"unit":"meq/L","system":"http://unitsofmeasure.org","code":"meq/L"}},"request":{"method":"PUT","url":"Observation/e6aafeb0-a0ca-4565-8eae-07774e2ff633"}},{"fullUrl":"https://madie.cms.gov/Organization/d6cbafec-d2d1-4bc7-8325-179f9ac311d2","resource":{"resourceType":"Organization","id":"18ca435c-cae6-4c34-8033-af717477f9fc","meta":{"profile":["http://hl7.org/fhir/us/qicore/StructureDefinition/qicore-organization"]},"identifier":[{"use":"temp","system":"urn:oid:2.16.840.1.113883.4.4","value":"21-3259825"}],"active":true,"type":[{"coding":[{"system":"http://terminology.hl7.org/CodeSystem/organization-type","code":"pay","display":"Payer"}]}],"name":"Blue Cross Blue Shield of Texas","telecom":[{"system":"phone","value":"(+1) 972-766-6900"}],"address":[{"use":"billing","type":"postal","line":["P.O. Box 660044"],"city":"Dallas","state":"TX","postalCode":"75266-0044","country":"USA"}]},"request":{"method":"PUT","url":"Organization/18ca435c-cae6-4c34-8033-af717477f9fc"}},{"fullUrl":"https://madie.cms.gov/Practitioner/dae17c8e-e020-422c-b42d-8c0fee315885","resource":{"resourceType":"Practitioner","id":"dae17c8e-e020-422c-b42d-8c0fee315885","meta":{"profile":["http://hl7.org/fhir/us/qicore/StructureDefinition/qicore-practitioner"]},"identifier":[{"system":"http://hl7.org/fhir/sid/us-npi","value":"123456"}],"name":[{"family":"Evil","prefix":["Dr"]}]},"request":{"method":"PUT","url":"Practitioner/dae17c8e-e020-422c-b42d-8c0fee315885"}},{"fullUrl":"https://madie.cms.gov/MeasureReport/a746222c-cf1d-47c8-8781-89360158bbc9","resource":{"resourceType":"MeasureReport","id":"a746222c-cf1d-47c8-8781-89360158bbc9","meta":{"profile":["http://hl7.org/fhir/us/cqfmeasures/StructureDefinition/test-case-cqfm"]},"contained":[{"resourceType":"Parameters","id":"15af648a-9e03-408e-b1bf-f82c55e0d352-parameters","parameter":[{"name":"subject","valueString":"6e20f297-39e7-4043-b1ae-c9226913b6f8"}]}],"extension":[{"url":"http://hl7.org/fhir/us/cqfmeasures/StructureDefinition/cqfm-inputParameters","valueReference":{"reference":"#15af648a-9e03-408e-b1bf-f82c55e0d352-parameters"}},{"url":"http://hl7.org/fhir/us/cqfmeasures/StructureDefinition/cqfm-testCaseDescription","valueMarkdown":"1 potassium 2hrs before encounter starts, 1 potassium at time of admission.\nThe lab test result that occurred earlier is in the measure results. "}],"modifierExtension":[{"url":"http://hl7.org/fhir/us/cqfmeasures/StructureDefinition/cqfm-isTestCase","valueBoolean":true}],"status":"complete","type":"individual","measure":"https://madie.cms.gov/Measure/CMSFHIR529HybridHospitalWideReadmission","period":{"start":"2026-07-01","end":"2027-06-30"},"group":[{"population":[{"code":{"coding":[{"system":"http://terminology.hl7.org/CodeSystem/measure-population","code":"initial-population","display":"Initial Population"}]},"count":1}]}]},"request":{"method":"PUT","url":"MeasureReport/a746222c-cf1d-47c8-8781-89360158bbc9"}}]}