{"resourceType":"Bundle","id":"tests-51a09eb7-d8df-4cda-9563-4ba302a62686-bundle","type":"transaction","entry":[{"fullUrl":"https://madie.cms.gov/Patient/51a09eb7-d8df-4cda-9563-4ba302a62686","resource":{"resourceType":"Patient","id":"51a09eb7-d8df-4cda-9563-4ba302a62686","meta":{"profile":["http://hl7.org/fhir/us/qicore/StructureDefinition/qicore-patient"]},"text":{"status":"generated","div":"<div xmlns=\"http://www.w3.org/1999/xhtml\"><div class=\"hapiHeaderText\">LTE24before <b>WEIGHTANDOXY </b></div><table class=\"hapiPropertyTable\"><tbody><tr><td>Identifier</td><td>d69abbc179641b9cd673a4a9152886e8e63bc2e0e7b27e1a51505ef2a774679e</td></tr><tr><td>Date of birth</td><td><span>15 June 1947</span></td></tr></tbody></table></div>"},"extension":[{"url":"http://hl7.org/fhir/us/core/StructureDefinition/us-core-race","extension":[{"url":"ombCategory","valueCoding":{"system":"urn:oid:2.16.840.1.113883.6.238","code":"1002-5","display":"American Indian or Alaska Native","userSelected":true}},{"url":"text","valueString":"American Indian or Alaska Native"}]},{"url":"http://hl7.org/fhir/us/core/StructureDefinition/us-core-ethnicity","extension":[{"url":"ombCategory","valueCoding":{"system":"urn:oid:2.16.840.1.113883.6.238","code":"2186-5","display":"Not Hispanic or Latino","userSelected":true}},{"url":"text","valueString":"Not Hispanic or Latino"}]}],"identifier":[{"type":{"coding":[{"system":"http://terminology.hl7.org/CodeSystem/v2-0203","code":"MR"}]},"system":"https://bonnie-fhir.healthit.gov/","value":"63ec09a7ccb3770120feac15"}],"active":true,"name":[{"use":"usual","family":"WeightandOxygenPass","given":["Weight1MinAfterEncStartOxy2HrsBeforeEncStart"]}],"gender":"male","birthDate":"1948-06-15"},"request":{"method":"PUT","url":"Patient/51a09eb7-d8df-4cda-9563-4ba302a62686"}},{"fullUrl":"https://madie.cms.gov/Encounter/fc9dab98-00dd-4fe5-b894-edf972594ad1","resource":{"resourceType":"Encounter","id":"fc9dab98-00dd-4fe5-b894-edf972594ad1","meta":{"profile":["http://hl7.org/fhir/us/qicore/StructureDefinition/qicore-encounter"]},"status":"finished","class":{"system":"http://terminology.hl7.org/CodeSystem/v3-ActCode","code":"IMP","display":"inpatient encounter","userSelected":true},"type":[{"coding":[{"system":"http://snomed.info/sct","code":"183452005"}]}],"subject":{"reference":"Patient/51a09eb7-d8df-4cda-9563-4ba302a62686"},"period":{"start":"2026-08-21T08:00:00.000+00:00","end":"2026-08-22T08:15:00.000+00:00"}},"request":{"method":"PUT","url":"Encounter/fc9dab98-00dd-4fe5-b894-edf972594ad1"}},{"fullUrl":"https://madie.cms.gov/Coverage/1d9a3bb0-3b9c-4983-a10e-514f75148c02","resource":{"resourceType":"Coverage","id":"1d9a3bb0-3b9c-4983-a10e-514f75148c02","meta":{"profile":["http://hl7.org/fhir/us/qicore/StructureDefinition/qicore-coverage"]},"status":"active","type":{"coding":[{"system":"https://nahdo.org/sopt","version":"1.0.1","code":"1","display":"Medicare payer","userSelected":true}]},"beneficiary":{"reference":"Patient/51a09eb7-d8df-4cda-9563-4ba302a62686"},"payor":[{"reference":"Organization/e75793c9-fdf6-463a-8c1d-4ee44320dc25"}]},"request":{"method":"PUT","url":"Coverage/1d9a3bb0-3b9c-4983-a10e-514f75148c02"}},{"fullUrl":"https://madie.cms.gov/Observation/e4a79b9d-007c-4bc4-a9f0-984ad5cc7405","resource":{"resourceType":"Observation","id":"e4a79b9d-007c-4bc4-a9f0-984ad5cc7405","meta":{"profile":["http://hl7.org/fhir/StructureDefinition/bodyweight"]},"status":"amended","category":[{"coding":[{"system":"http://terminology.hl7.org/CodeSystem/observation-category","code":"vital-signs","display":"Vital Signs","userSelected":true}]}],"code":{"coding":[{"system":"http://loinc.org","code":"29463-7","display":"Body weight"}]},"subject":{"reference":"Patient/51a09eb7-d8df-4cda-9563-4ba302a62686"},"effectiveDateTime":"2026-08-21T08:01:00.000+00:00","valueQuantity":{"value":150.0,"unit":"[lb_av]","system":"http://unitsofmeasure.org","code":"[lb_av]"}},"request":{"method":"PUT","url":"Observation/e4a79b9d-007c-4bc4-a9f0-984ad5cc7405"}},{"fullUrl":"https://madie.cms.gov/Observation/1ebdb2b9-cc02-4447-9900-364095380606","resource":{"resourceType":"Observation","id":"1ebdb2b9-cc02-4447-9900-364095380606","meta":{"profile":["http://hl7.org/fhir/us/qicore/StructureDefinition/qicore-observation"]},"status":"final","category":[{"coding":[{"system":"http://terminology.hl7.org/CodeSystem/observation-category","code":"vital-signs","display":"Vital Signs","userSelected":true}]}],"code":{"coding":[{"system":"http://loinc.org","code":"59408-5","display":"Oxygen saturation in Arterial blood by Pulse oximetry"}]},"subject":{"reference":"Patient/51a09eb7-d8df-4cda-9563-4ba302a62686"},"effectiveDateTime":"2026-08-21T06:00:00.000+00:00","valueQuantity":{"value":98,"unit":"%","system":"http://unitsofmeasure.org","code":"%"}},"request":{"method":"PUT","url":"Observation/1ebdb2b9-cc02-4447-9900-364095380606"}},{"fullUrl":"https://madie.cms.gov/Organization/b1f12006-4750-45c5-a919-255fdf024b0f","resource":{"resourceType":"Organization","id":"e75793c9-fdf6-463a-8c1d-4ee44320dc25","meta":{"profile":["http://hl7.org/fhir/us/qicore/StructureDefinition/qicore-organization"]},"identifier":[{"use":"temp","system":"urn:oid:2.16.840.1.113883.4.4","value":"21-3259825"}],"active":true,"type":[{"coding":[{"system":"http://terminology.hl7.org/CodeSystem/organization-type","code":"pay","display":"Payer"}]}],"name":"Blue Cross Blue Shield of Texas","telecom":[{"system":"phone","value":"(+1) 972-766-6900"}],"address":[{"use":"billing","type":"postal","line":["P.O. Box 660044"],"city":"Dallas","state":"TX","postalCode":"75266-0044","country":"USA"}]},"request":{"method":"PUT","url":"Organization/e75793c9-fdf6-463a-8c1d-4ee44320dc25"}},{"fullUrl":"https://madie.cms.gov/Practitioner/0828737c-c4d7-4bca-a7d6-e9a4e210023d","resource":{"resourceType":"Practitioner","id":"0828737c-c4d7-4bca-a7d6-e9a4e210023d","meta":{"profile":["http://hl7.org/fhir/us/qicore/StructureDefinition/qicore-practitioner"]},"identifier":[{"system":"http://hl7.org/fhir/sid/us-npi","value":"123456"}],"name":[{"family":"Evil","prefix":["Dr"]}]},"request":{"method":"PUT","url":"Practitioner/0828737c-c4d7-4bca-a7d6-e9a4e210023d"}},{"fullUrl":"https://madie.cms.gov/MeasureReport/9c6eeef2-89a0-4845-981a-87f977f4d4b0","resource":{"resourceType":"MeasureReport","id":"9c6eeef2-89a0-4845-981a-87f977f4d4b0","meta":{"profile":["http://hl7.org/fhir/us/cqfmeasures/StructureDefinition/test-case-cqfm"]},"contained":[{"resourceType":"Parameters","id":"fff3197c-931a-4b34-aafb-c8f275e3e3ac-parameters","parameter":[{"name":"subject","valueString":"51a09eb7-d8df-4cda-9563-4ba302a62686"}]}],"extension":[{"url":"http://hl7.org/fhir/us/cqfmeasures/StructureDefinition/cqfm-inputParameters","valueReference":{"reference":"#fff3197c-931a-4b34-aafb-c8f275e3e3ac-parameters"}},{"url":"http://hl7.org/fhir/us/cqfmeasures/StructureDefinition/cqfm-testCaseDescription","valueMarkdown":"Patient has weight physical exam and oxygen saturation.  Weight 1 minute after admission, oxygen 2 hours before admission.\n"}],"modifierExtension":[{"url":"http://hl7.org/fhir/us/cqfmeasures/StructureDefinition/cqfm-isTestCase","valueBoolean":true}],"status":"complete","type":"individual","measure":"https://madie.cms.gov/Measure/CMSFHIR529HybridHospitalWideReadmission","period":{"start":"2026-07-01","end":"2027-06-30"},"group":[{"population":[{"code":{"coding":[{"system":"http://terminology.hl7.org/CodeSystem/measure-population","code":"initial-population","display":"Initial Population"}]},"count":1}]}]},"request":{"method":"PUT","url":"MeasureReport/9c6eeef2-89a0-4845-981a-87f977f4d4b0"}}]}