{"resourceType":"Bundle","id":"tests-cac6a3c8-edb3-416d-a057-4c966d970902-bundle","type":"transaction","entry":[{"fullUrl":"https://madie.cms.gov/Patient/cac6a3c8-edb3-416d-a057-4c966d970902","resource":{"resourceType":"Patient","id":"cac6a3c8-edb3-416d-a057-4c966d970902","meta":{"profile":["http://hl7.org/fhir/us/qicore/StructureDefinition/qicore-patient"]},"text":{"status":"generated","div":"<div xmlns=\"http://www.w3.org/1999/xhtml\"><div class=\"hapiHeaderText\">EncStartsBeforeMP <b>IPFAIL </b></div><table class=\"hapiPropertyTable\"><tbody><tr><td>Identifier</td><td>5357cf1fa2383d9a0e8f3ff5d42eaa9911ad131ad62a639f75e98789c2c8866b</td></tr><tr><td>Date of birth</td><td><span>15 June 1956</span></td></tr></tbody></table></div>"},"extension":[{"url":"http://hl7.org/fhir/us/core/StructureDefinition/us-core-race","extension":[{"url":"ombCategory","valueCoding":{"system":"urn:oid:2.16.840.1.113883.6.238","code":"1002-5","display":"American Indian or Alaska Native","userSelected":true}},{"url":"text","valueString":"American Indian or Alaska Native"}]},{"url":"http://hl7.org/fhir/us/core/StructureDefinition/us-core-ethnicity","extension":[{"url":"ombCategory","valueCoding":{"system":"urn:oid:2.16.840.1.113883.6.238","code":"2186-5","display":"Not Hispanic or Latino","userSelected":true}},{"url":"text","valueString":"Not Hispanic or Latino"}]}],"identifier":[{"type":{"coding":[{"system":"http://terminology.hl7.org/CodeSystem/v2-0203","code":"MR"}]},"system":"https://bonnie-fhir.healthit.gov/","value":"63ec096eccb3770120fea3a7"}],"active":true,"name":[{"use":"usual","family":"IPFail","given":["EncounterEndsAfterMP"]}],"gender":"male","birthDate":"1957-06-15"},"request":{"method":"PUT","url":"Patient/cac6a3c8-edb3-416d-a057-4c966d970902"}},{"fullUrl":"https://madie.cms.gov/Encounter/d4774a1c-2831-49d4-a888-27c99774c5b3","resource":{"resourceType":"Encounter","id":"d4774a1c-2831-49d4-a888-27c99774c5b3","meta":{"profile":["http://hl7.org/fhir/us/qicore/StructureDefinition/qicore-encounter"]},"status":"finished","class":{"system":"http://terminology.hl7.org/CodeSystem/v3-ActCode","code":"IMP","display":"inpatient encounter","userSelected":true},"type":[{"coding":[{"system":"http://snomed.info/sct","code":"32485007","display":"Hospital admission (procedure)"}]}],"subject":{"reference":"Patient/cac6a3c8-edb3-416d-a057-4c966d970902"},"period":{"start":"2027-06-30T08:00:00.000Z","end":"2027-07-05T11:59:00.000Z"},"length":{"value":5,"unit":"days"}},"request":{"method":"PUT","url":"Encounter/d4774a1c-2831-49d4-a888-27c99774c5b3"}},{"fullUrl":"https://madie.cms.gov/Coverage/1c2b941b-1b8a-4c79-8428-a9c7c08aa2e5","resource":{"resourceType":"Coverage","id":"1c2b941b-1b8a-4c79-8428-a9c7c08aa2e5","meta":{"profile":["http://hl7.org/fhir/us/qicore/StructureDefinition/qicore-coverage"]},"status":"active","type":{"coding":[{"system":"https://nahdo.org/sopt","version":"1.0.1","code":"1","display":"Medicare payer","userSelected":true}]},"beneficiary":{"reference":"Patient/cac6a3c8-edb3-416d-a057-4c966d970902"},"period":{"start":"2026-01-01T06:00:00.000Z","end":"2027-12-31T11:06:01.000Z"},"payor":[{"reference":"Organization/f4907415-83c5-4eae-ab0b-cb63a840880d"}]},"request":{"method":"PUT","url":"Coverage/1c2b941b-1b8a-4c79-8428-a9c7c08aa2e5"}},{"fullUrl":"https://madie.cms.gov/Organization/c655549a-fe14-43c2-8d34-4571472cc215","resource":{"resourceType":"Organization","id":"f4907415-83c5-4eae-ab0b-cb63a840880d","meta":{"profile":["http://hl7.org/fhir/us/qicore/StructureDefinition/qicore-organization"]},"identifier":[{"use":"temp","system":"urn:oid:2.16.840.1.113883.4.4","value":"21-3259825"}],"active":true,"type":[{"coding":[{"system":"http://terminology.hl7.org/CodeSystem/organization-type","code":"pay","display":"Payer"}]}],"name":"Blue Cross Blue Shield of Texas","telecom":[{"system":"phone","value":"(+1) 972-766-6900"}],"address":[{"use":"billing","type":"postal","line":["P.O. Box 660044"],"city":"Dallas","state":"TX","postalCode":"75266-0044","country":"USA"}]},"request":{"method":"PUT","url":"Organization/f4907415-83c5-4eae-ab0b-cb63a840880d"}},{"fullUrl":"https://madie.cms.gov/Practitioner/4003dbe5-07f9-4c3a-abb8-425e45b31635","resource":{"resourceType":"Practitioner","id":"4003dbe5-07f9-4c3a-abb8-425e45b31635","meta":{"profile":["http://hl7.org/fhir/us/qicore/StructureDefinition/qicore-practitioner"]},"identifier":[{"system":"http://hl7.org/fhir/sid/us-npi","value":"123456"}],"name":[{"family":"Evil","prefix":["Dr"]}]},"request":{"method":"PUT","url":"Practitioner/4003dbe5-07f9-4c3a-abb8-425e45b31635"}},{"fullUrl":"https://madie.cms.gov/MeasureReport/962c69d7-76ee-453e-bcf3-369828f032b6","resource":{"resourceType":"MeasureReport","id":"962c69d7-76ee-453e-bcf3-369828f032b6","meta":{"profile":["http://hl7.org/fhir/us/cqfmeasures/StructureDefinition/test-case-cqfm"]},"contained":[{"resourceType":"Parameters","id":"36c34fc8-d3f2-40ff-a1d0-ed2c5879b4d8-parameters","parameter":[{"name":"subject","valueString":"cac6a3c8-edb3-416d-a057-4c966d970902"}]}],"extension":[{"url":"http://hl7.org/fhir/us/cqfmeasures/StructureDefinition/cqfm-inputParameters","valueReference":{"reference":"#36c34fc8-d3f2-40ff-a1d0-ed2c5879b4d8-parameters"}},{"url":"http://hl7.org/fhir/us/cqfmeasures/StructureDefinition/cqfm-testCaseDescription","valueMarkdown":"Encounter starts last day of MP (6/30) but does not end until next MP (7/5)"}],"modifierExtension":[{"url":"http://hl7.org/fhir/us/cqfmeasures/StructureDefinition/cqfm-isTestCase","valueBoolean":true}],"status":"complete","type":"individual","measure":"https://madie.cms.gov/Measure/CMSFHIR529HybridHospitalWideReadmission","period":{"start":"2026-07-01","end":"2027-06-30"},"group":[{"population":[{"code":{"coding":[{"system":"http://terminology.hl7.org/CodeSystem/measure-population","code":"initial-population","display":"Initial Population"}]},"count":0}]}]},"request":{"method":"PUT","url":"MeasureReport/962c69d7-76ee-453e-bcf3-369828f032b6"}}]}