{"resourceType":"Bundle","id":"tests-622490d4-d334-4bdb-aed9-f2ef421cfb39-bundle","type":"transaction","entry":[{"fullUrl":"https://madie.cms.gov/Patient/622490d4-d334-4bdb-aed9-f2ef421cfb39","resource":{"resourceType":"Patient","id":"622490d4-d334-4bdb-aed9-f2ef421cfb39","meta":{"profile":["http://hl7.org/fhir/us/qicore/StructureDefinition/qicore-patient"]},"text":{"status":"generated","div":"<div xmlns=\"http://www.w3.org/1999/xhtml\"><div class=\"hapiHeaderText\">PayerWrongCode <b>IPFAIL </b></div><table class=\"hapiPropertyTable\"><tbody><tr><td>Identifier</td><td>5c9ef8226b4209ed1a321756f1329ad627fbd072de2cf97046c3716c4dd20de3</td></tr><tr><td>Date of birth</td><td><span>15 June 1956</span></td></tr></tbody></table></div>"},"extension":[{"url":"http://hl7.org/fhir/us/core/StructureDefinition/us-core-race","extension":[{"url":"ombCategory","valueCoding":{"system":"urn:oid:2.16.840.1.113883.6.238","code":"1002-5","display":"American Indian or Alaska Native","userSelected":true}},{"url":"text","valueString":"American Indian or Alaska Native"}]},{"url":"http://hl7.org/fhir/us/core/StructureDefinition/us-core-ethnicity","extension":[{"url":"ombCategory","valueCoding":{"system":"urn:oid:2.16.840.1.113883.6.238","code":"2186-5","display":"Not Hispanic or Latino","userSelected":true}},{"url":"text","valueString":"Not Hispanic or Latino"}]}],"identifier":[{"type":{"coding":[{"system":"http://terminology.hl7.org/CodeSystem/v2-0203","code":"MR"}]},"system":"https://bonnie-fhir.healthit.gov/","value":"63ec0967ccb3770120fe9cd2"}],"active":true,"name":[{"use":"usual","family":"IPPFail","given":["PayerIsTricare"]}],"gender":"male","birthDate":"1932-06-01"},"request":{"method":"PUT","url":"Patient/622490d4-d334-4bdb-aed9-f2ef421cfb39"}},{"fullUrl":"https://madie.cms.gov/Encounter/42103fd3-47da-4283-ab39-d3f8070c9472","resource":{"resourceType":"Encounter","id":"42103fd3-47da-4283-ab39-d3f8070c9472","meta":{"profile":["http://hl7.org/fhir/us/qicore/StructureDefinition/qicore-encounter"]},"status":"finished","class":{"system":"http://terminology.hl7.org/CodeSystem/v3-ActCode","code":"IMP","display":"inpatient encounter","userSelected":true},"type":[{"coding":[{"system":"http://snomed.info/sct","code":"183452005"}]}],"subject":{"reference":"Patient/622490d4-d334-4bdb-aed9-f2ef421cfb39"},"period":{"start":"2027-06-29T08:00:00+00:00","end":"2027-06-30T18:00:00+00:00"},"length":{"value":1,"unit":"day"}},"request":{"method":"PUT","url":"Encounter/42103fd3-47da-4283-ab39-d3f8070c9472"}},{"fullUrl":"https://madie.cms.gov/Coverage/106187d8-b486-42b9-a583-aaa12ac6b34b","resource":{"resourceType":"Coverage","id":"106187d8-b486-42b9-a583-aaa12ac6b34b","meta":{"profile":["http://hl7.org/fhir/us/qicore/StructureDefinition/qicore-coverage"]},"status":"active","type":{"coding":[{"system":"https://nahdo.org/sopt","version":"1.0.1","code":"311","display":"Medicare Managed Care Other","userSelected":true}]},"beneficiary":{"reference":"Patient/622490d4-d334-4bdb-aed9-f2ef421cfb39"},"period":{"start":"2026-01-01T08:00:00.000+00:00","end":"2026-12-31T08:15:00.000+00:00"},"payor":[{"reference":"Organization/db141f66-a1cc-407b-9e95-adac27adee14"}]},"request":{"method":"PUT","url":"Coverage/106187d8-b486-42b9-a583-aaa12ac6b34b"}},{"fullUrl":"https://madie.cms.gov/Organization/887605a2-e8b2-48db-ba4b-b58338b6e674","resource":{"resourceType":"Organization","id":"db141f66-a1cc-407b-9e95-adac27adee14","meta":{"profile":["http://hl7.org/fhir/us/qicore/StructureDefinition/qicore-organization"]},"identifier":[{"use":"temp","system":"urn:oid:2.16.840.1.113883.4.4","value":"21-3259825"}],"active":true,"type":[{"coding":[{"system":"http://terminology.hl7.org/CodeSystem/organization-type","code":"pay","display":"Payer"}]}],"name":"Blue Cross Blue Shield of Texas","telecom":[{"system":"phone","value":"(+1) 972-766-6900"}],"address":[{"use":"billing","type":"postal","line":["P.O. Box 660044"],"city":"Dallas","state":"TX","postalCode":"75266-0044","country":"USA"}]},"request":{"method":"PUT","url":"Organization/db141f66-a1cc-407b-9e95-adac27adee14"}},{"fullUrl":"https://madie.cms.gov/Practitioner/5171dce2-3a65-4d45-896f-baee904bf3c0","resource":{"resourceType":"Practitioner","id":"5171dce2-3a65-4d45-896f-baee904bf3c0","meta":{"profile":["http://hl7.org/fhir/us/qicore/StructureDefinition/qicore-practitioner"]},"identifier":[{"system":"http://hl7.org/fhir/sid/us-npi","value":"123456"}],"name":[{"family":"Evil","prefix":["Dr"]}]},"request":{"method":"PUT","url":"Practitioner/5171dce2-3a65-4d45-896f-baee904bf3c0"}},{"fullUrl":"https://madie.cms.gov/MeasureReport/b75ba5f9-d492-48fc-bbd0-1cdcb93753be","resource":{"resourceType":"MeasureReport","id":"b75ba5f9-d492-48fc-bbd0-1cdcb93753be","meta":{"profile":["http://hl7.org/fhir/us/cqfmeasures/StructureDefinition/test-case-cqfm"]},"contained":[{"resourceType":"Parameters","id":"642028c9-cf74-4388-80d4-067ff3aa2b42-parameters","parameter":[{"name":"subject","valueString":"622490d4-d334-4bdb-aed9-f2ef421cfb39"}]}],"extension":[{"url":"http://hl7.org/fhir/us/cqfmeasures/StructureDefinition/cqfm-inputParameters","valueReference":{"reference":"#642028c9-cf74-4388-80d4-067ff3aa2b42-parameters"}},{"url":"http://hl7.org/fhir/us/cqfmeasures/StructureDefinition/cqfm-testCaseDescription","valueMarkdown":"Enc ends last day of MP (6/30), age 94, and has Tricare insurance, no Medicare."}],"modifierExtension":[{"url":"http://hl7.org/fhir/us/cqfmeasures/StructureDefinition/cqfm-isTestCase","valueBoolean":true}],"status":"complete","type":"individual","measure":"https://madie.cms.gov/Measure/CMSFHIR529HybridHospitalWideReadmission","period":{"start":"2026-07-01","end":"2027-06-30"},"group":[{"population":[{"code":{"coding":[{"system":"http://terminology.hl7.org/CodeSystem/measure-population","code":"initial-population","display":"Initial Population"}]},"count":0}]}]},"request":{"method":"PUT","url":"MeasureReport/b75ba5f9-d492-48fc-bbd0-1cdcb93753be"}}]}