{"resourceType":"Bundle","id":"tests-cf648ca2-7300-4d96-8a8e-d1f14460d730-bundle","type":"transaction","entry":[{"fullUrl":"https://madie.cms.gov/Patient/cf648ca2-7300-4d96-8a8e-d1f14460d730","resource":{"resourceType":"Patient","id":"cf648ca2-7300-4d96-8a8e-d1f14460d730","meta":{"profile":["http://hl7.org/fhir/us/qicore/StructureDefinition/qicore-patient"]},"text":{"status":"generated","div":"<div xmlns=\"http://www.w3.org/1999/xhtml\"><div class=\"hapiHeaderText\">NoPayer <b>IPFAIL </b></div><table class=\"hapiPropertyTable\"><tbody><tr><td>Identifier</td><td>17d0502e8974bc2b20ca9540d72f918fc65c02384674d88cd5e390e22bb1c810</td></tr><tr><td>Date of birth</td><td><span>15 June 1956</span></td></tr></tbody></table></div>"},"extension":[{"url":"http://hl7.org/fhir/us/core/StructureDefinition/us-core-race","extension":[{"url":"ombCategory","valueCoding":{"system":"urn:oid:2.16.840.1.113883.6.238","code":"1002-5","display":"American Indian or Alaska Native","userSelected":true}},{"url":"text","valueString":"American Indian or Alaska Native"}]},{"url":"http://hl7.org/fhir/us/core/StructureDefinition/us-core-ethnicity","extension":[{"url":"ombCategory","valueCoding":{"system":"urn:oid:2.16.840.1.113883.6.238","code":"2186-5","display":"Not Hispanic or Latino","userSelected":true}},{"url":"text","valueString":"Not Hispanic or Latino"}]}],"identifier":[{"type":{"coding":[{"system":"http://terminology.hl7.org/CodeSystem/v2-0203","code":"MR"}]},"system":"https://bonnie-fhir.healthit.gov/","value":"63ec096accb3770120fe9f44"}],"active":true,"name":[{"use":"usual","family":"IPFail","given":["NoInsuranceCoverage"]}],"gender":"male","birthDate":"1957-06-15"},"request":{"method":"PUT","url":"Patient/cf648ca2-7300-4d96-8a8e-d1f14460d730"}},{"fullUrl":"https://madie.cms.gov/Encounter/0fb0f44a-214b-4190-b9b9-aadac4ec8c76","resource":{"resourceType":"Encounter","id":"0fb0f44a-214b-4190-b9b9-aadac4ec8c76","meta":{"profile":["http://hl7.org/fhir/us/qicore/StructureDefinition/qicore-encounter"]},"status":"finished","class":{"system":"http://terminology.hl7.org/CodeSystem/v3-ActCode","code":"NONAC","display":"Nonacute","userSelected":true},"type":[{"coding":[{"system":"http://snomed.info/sct","code":"183452005"}]}],"subject":{"reference":"Patient/cf648ca2-7300-4d96-8a8e-d1f14460d730"},"period":{"start":"2027-06-30T03:00:00+00:00","end":"2027-06-30T22:15:00+00:00"},"length":{"value":1,"unit":"day"}},"request":{"method":"PUT","url":"Encounter/0fb0f44a-214b-4190-b9b9-aadac4ec8c76"}},{"fullUrl":"https://madie.cms.gov/Organization/e2a4aac1-a2ac-4c58-b585-6c322e115af3","resource":{"resourceType":"Organization","id":"890316dc-a4ad-43b4-ba6f-9fb9e6eca282","meta":{"profile":["http://hl7.org/fhir/us/qicore/StructureDefinition/qicore-organization"]},"identifier":[{"use":"temp","system":"urn:oid:2.16.840.1.113883.4.4","value":"21-3259825"}],"active":true,"type":[{"coding":[{"system":"http://terminology.hl7.org/CodeSystem/organization-type","code":"pay","display":"Payer"}]}],"name":"Blue Cross Blue Shield of Texas","telecom":[{"system":"phone","value":"(+1) 972-766-6900"}],"address":[{"use":"billing","type":"postal","line":["P.O. Box 660044"],"city":"Dallas","state":"TX","postalCode":"75266-0044","country":"USA"}]},"request":{"method":"PUT","url":"Organization/890316dc-a4ad-43b4-ba6f-9fb9e6eca282"}},{"fullUrl":"https://madie.cms.gov/Practitioner/07baa9ab-c801-4b4b-9db6-5a7c56c8b3ed","resource":{"resourceType":"Practitioner","id":"07baa9ab-c801-4b4b-9db6-5a7c56c8b3ed","meta":{"profile":["http://hl7.org/fhir/us/qicore/StructureDefinition/qicore-practitioner"]},"identifier":[{"system":"http://hl7.org/fhir/sid/us-npi","value":"123456"}],"name":[{"family":"Evil","prefix":["Dr"]}]},"request":{"method":"PUT","url":"Practitioner/07baa9ab-c801-4b4b-9db6-5a7c56c8b3ed"}},{"fullUrl":"https://madie.cms.gov/MeasureReport/b84348c1-c4f9-446f-b309-9614fe7cf097","resource":{"resourceType":"MeasureReport","id":"b84348c1-c4f9-446f-b309-9614fe7cf097","meta":{"profile":["http://hl7.org/fhir/us/cqfmeasures/StructureDefinition/test-case-cqfm"]},"contained":[{"resourceType":"Parameters","id":"5c30e2cc-5474-43e0-986c-f0ce10a8bbb2-parameters","parameter":[{"name":"subject","valueString":"cf648ca2-7300-4d96-8a8e-d1f14460d730"}]}],"extension":[{"url":"http://hl7.org/fhir/us/cqfmeasures/StructureDefinition/cqfm-inputParameters","valueReference":{"reference":"#5c30e2cc-5474-43e0-986c-f0ce10a8bbb2-parameters"}},{"url":"http://hl7.org/fhir/us/cqfmeasures/StructureDefinition/cqfm-testCaseDescription","valueMarkdown":"Enc. ends last day of MP (6/30), patient does not have Medicare  \n "}],"modifierExtension":[{"url":"http://hl7.org/fhir/us/cqfmeasures/StructureDefinition/cqfm-isTestCase","valueBoolean":true}],"status":"complete","type":"individual","measure":"https://madie.cms.gov/Measure/CMSFHIR529HybridHospitalWideReadmission","period":{"start":"2026-07-01","end":"2027-06-30"},"group":[{"population":[{"code":{"coding":[{"system":"http://terminology.hl7.org/CodeSystem/measure-population","code":"initial-population","display":"Initial Population"}]},"count":0}]}]},"request":{"method":"PUT","url":"MeasureReport/b84348c1-c4f9-446f-b309-9614fe7cf097"}}]}