{"resourceType":"Bundle","id":"tests-d22bb876-5ef3-4373-b19d-be9c256ec6ff-bundle","type":"transaction","entry":[{"fullUrl":"https://madie.cms.gov/Patient/d22bb876-5ef3-4373-b19d-be9c256ec6ff","resource":{"resourceType":"Patient","id":"d22bb876-5ef3-4373-b19d-be9c256ec6ff","meta":{"profile":["http://hl7.org/fhir/us/qicore/StructureDefinition/qicore-patient"]},"text":{"status":"generated","div":"<div xmlns=\"http://www.w3.org/1999/xhtml\"><div class=\"hapiHeaderText\">LT24after <b>GLUCPASS </b></div><table class=\"hapiPropertyTable\"><tbody><tr><td>Identifier</td><td>d41d39d967f0e01059a7fb71f0c56412779552491c949eb744578b16580c9adb</td></tr><tr><td>Date of birth</td><td><span>21 June 1947</span></td></tr></tbody></table></div>"},"extension":[{"url":"http://hl7.org/fhir/us/core/StructureDefinition/us-core-race","extension":[{"url":"ombCategory","valueCoding":{"system":"urn:oid:2.16.840.1.113883.6.238","code":"2054-5","display":"Black or African American","userSelected":true}},{"url":"text","valueString":"Black or African American"}]},{"url":"http://hl7.org/fhir/us/core/StructureDefinition/us-core-ethnicity","extension":[{"url":"ombCategory","valueCoding":{"system":"urn:oid:2.16.840.1.113883.6.238","code":"2186-5","display":"Not Hispanic or Latino","userSelected":true}},{"url":"text","valueString":"Not Hispanic or Latino"}]}],"identifier":[{"type":{"coding":[{"system":"http://terminology.hl7.org/CodeSystem/v2-0203","code":"MR"}]},"system":"https://bonnie-fhir.healthit.gov/","value":"63ec09a2ccb3770120fea7ad"}],"active":true,"name":[{"use":"usual","family":"GlucosePass","given":["Glucose23HoursAfterAdmission"]}],"gender":"male","birthDate":"1948-06-21"},"request":{"method":"PUT","url":"Patient/d22bb876-5ef3-4373-b19d-be9c256ec6ff"}},{"fullUrl":"https://madie.cms.gov/Encounter/732011b3-8546-42d1-83de-c6d32dae7bbe","resource":{"resourceType":"Encounter","id":"732011b3-8546-42d1-83de-c6d32dae7bbe","meta":{"profile":["http://hl7.org/fhir/us/qicore/StructureDefinition/qicore-encounter"]},"status":"finished","class":{"system":"http://terminology.hl7.org/CodeSystem/v3-ActCode","code":"OBSENC","display":"observation encounter","userSelected":true},"type":[{"coding":[{"system":"http://snomed.info/sct","code":"183452005"}]}],"subject":{"reference":"Patient/d22bb876-5ef3-4373-b19d-be9c256ec6ff"},"period":{"start":"2026-08-21T08:00:00.000+00:00","end":"2026-08-22T08:15:00.000+00:00"}},"request":{"method":"PUT","url":"Encounter/732011b3-8546-42d1-83de-c6d32dae7bbe"}},{"fullUrl":"https://madie.cms.gov/Coverage/c0c4d7f2-3ffa-4d2b-adbb-03eb7e2d10cd","resource":{"resourceType":"Coverage","id":"c0c4d7f2-3ffa-4d2b-adbb-03eb7e2d10cd","meta":{"profile":["http://hl7.org/fhir/us/qicore/StructureDefinition/qicore-coverage"]},"status":"active","type":{"coding":[{"system":"https://nahdo.org/sopt","version":"1.0.1","code":"1","display":"Medicare payer","userSelected":true}]},"beneficiary":{"reference":"Patient/d22bb876-5ef3-4373-b19d-be9c256ec6ff"},"payor":[{"reference":"Organization/aeb2c6be-6577-4bba-a6b6-6eab95111f1b"}]},"request":{"method":"PUT","url":"Coverage/c0c4d7f2-3ffa-4d2b-adbb-03eb7e2d10cd"}},{"fullUrl":"https://madie.cms.gov/Observation/2f80aeed-0dba-4976-b2f2-b7eabba3a3dd","resource":{"resourceType":"Observation","id":"2f80aeed-0dba-4976-b2f2-b7eabba3a3dd","meta":{"profile":["http://hl7.org/fhir/us/core/StructureDefinition/us-core-observation-lab"]},"status":"final","category":[{"coding":[{"system":"http://terminology.hl7.org/CodeSystem/observation-category","code":"laboratory","display":"laboratory","userSelected":true}]}],"code":{"coding":[{"system":"http://loinc.org","code":"15074-8","display":"Glucose [Moles/volume] in Blood"}]},"subject":{"reference":"Patient/d22bb876-5ef3-4373-b19d-be9c256ec6ff"},"effectiveDateTime":"2026-08-22T07:59:00.000+00:00","issued":"2026-08-22T07:59:00.000+00:00","valueQuantity":{"value":95.0,"unit":"mg/dL","system":"http://unitsofmeasure.org","code":"mg/dL"}},"request":{"method":"PUT","url":"Observation/2f80aeed-0dba-4976-b2f2-b7eabba3a3dd"}},{"fullUrl":"https://madie.cms.gov/Organization/544b7bb1-224e-4b01-a7fd-40fc315229aa","resource":{"resourceType":"Organization","id":"aeb2c6be-6577-4bba-a6b6-6eab95111f1b","meta":{"profile":["http://hl7.org/fhir/us/qicore/StructureDefinition/qicore-organization"]},"identifier":[{"use":"temp","system":"urn:oid:2.16.840.1.113883.4.4","value":"21-3259825"}],"active":true,"type":[{"coding":[{"system":"http://terminology.hl7.org/CodeSystem/organization-type","code":"pay","display":"Payer"}]}],"name":"Blue Cross Blue Shield of Texas","telecom":[{"system":"phone","value":"(+1) 972-766-6900"}],"address":[{"use":"billing","type":"postal","line":["P.O. Box 660044"],"city":"Dallas","state":"TX","postalCode":"75266-0044","country":"USA"}]},"request":{"method":"PUT","url":"Organization/aeb2c6be-6577-4bba-a6b6-6eab95111f1b"}},{"fullUrl":"https://madie.cms.gov/Practitioner/67166688-8175-4bbb-b512-65eaeb3efe56","resource":{"resourceType":"Practitioner","id":"67166688-8175-4bbb-b512-65eaeb3efe56","meta":{"profile":["http://hl7.org/fhir/us/qicore/StructureDefinition/qicore-practitioner"]},"identifier":[{"system":"http://hl7.org/fhir/sid/us-npi","value":"123456"}],"name":[{"family":"Evil","prefix":["Dr"]}]},"request":{"method":"PUT","url":"Practitioner/67166688-8175-4bbb-b512-65eaeb3efe56"}},{"fullUrl":"https://madie.cms.gov/MeasureReport/47a88725-f3d4-44a9-b2b9-53c7ad937130","resource":{"resourceType":"MeasureReport","id":"47a88725-f3d4-44a9-b2b9-53c7ad937130","meta":{"profile":["http://hl7.org/fhir/us/cqfmeasures/StructureDefinition/test-case-cqfm"]},"contained":[{"resourceType":"Parameters","id":"688873cc-a70d-4187-910b-ae6d24fa1261-parameters","parameter":[{"name":"subject","valueString":"d22bb876-5ef3-4373-b19d-be9c256ec6ff"}]}],"extension":[{"url":"http://hl7.org/fhir/us/cqfmeasures/StructureDefinition/cqfm-inputParameters","valueReference":{"reference":"#688873cc-a70d-4187-910b-ae6d24fa1261-parameters"}},{"url":"http://hl7.org/fhir/us/cqfmeasures/StructureDefinition/cqfm-testCaseDescription","valueMarkdown":"Glucose lab test results occurred 23hrs 59min after start of encounter period. \nLab test results included in measure results. "}],"modifierExtension":[{"url":"http://hl7.org/fhir/us/cqfmeasures/StructureDefinition/cqfm-isTestCase","valueBoolean":true}],"status":"complete","type":"individual","measure":"https://madie.cms.gov/Measure/CMSFHIR529HybridHospitalWideReadmission","period":{"start":"2026-07-01","end":"2027-06-30"},"group":[{"population":[{"code":{"coding":[{"system":"http://terminology.hl7.org/CodeSystem/measure-population","code":"initial-population","display":"Initial Population"}]},"count":1}]}]},"request":{"method":"PUT","url":"MeasureReport/47a88725-f3d4-44a9-b2b9-53c7ad937130"}}]}