{"resourceType":"Bundle","id":"tests-a08b6d26-8ef7-417e-9957-fcdfaf0913d8-bundle","type":"transaction","entry":[{"fullUrl":"https://madie.cms.gov/Patient/a08b6d26-8ef7-417e-9957-fcdfaf0913d8","resource":{"resourceType":"Patient","id":"a08b6d26-8ef7-417e-9957-fcdfaf0913d8","meta":{"profile":["http://hl7.org/fhir/us/qicore/StructureDefinition/qicore-patient"]},"text":{"status":"generated","div":"<div xmlns=\"http://www.w3.org/1999/xhtml\"><div class=\"hapiHeaderText\">OnAdmit_relevantPeriod <b>HRPASS </b></div><table class=\"hapiPropertyTable\"><tbody><tr><td>Identifier</td><td>849bc1d9a88035639bba704b9d791fc277243ded96eb819b2df3b340c5bc6669</td></tr><tr><td>Date of birth</td><td><span>15 June 1956</span></td></tr></tbody></table></div>"},"extension":[{"url":"http://hl7.org/fhir/us/core/StructureDefinition/us-core-race","extension":[{"url":"ombCategory","valueCoding":{"system":"urn:oid:2.16.840.1.113883.6.238","code":"2106-3","display":"White","userSelected":true}},{"url":"text","valueString":"White"}]},{"url":"http://hl7.org/fhir/us/core/StructureDefinition/us-core-ethnicity","extension":[{"url":"ombCategory","valueCoding":{"system":"urn:oid:2.16.840.1.113883.6.238","code":"2135-2","display":"Hispanic or Latino","userSelected":true}},{"url":"text","valueString":"Hispanic or Latino"}]}],"identifier":[{"type":{"coding":[{"system":"http://terminology.hl7.org/CodeSystem/v2-0203","code":"MR"}]},"system":"https://bonnie-fhir.healthit.gov/","value":"63ec0967ccb3770120fe9c8f"}],"active":true,"name":[{"use":"usual","family":"HeartRatePass","given":["HeartRateExamOnAdmit"]}],"gender":"male","birthDate":"1957-06-15"},"request":{"method":"PUT","url":"Patient/a08b6d26-8ef7-417e-9957-fcdfaf0913d8"}},{"fullUrl":"https://madie.cms.gov/Encounter/b94416f3-cb49-4223-b31b-2e585ca20c46","resource":{"resourceType":"Encounter","id":"b94416f3-cb49-4223-b31b-2e585ca20c46","meta":{"profile":["http://hl7.org/fhir/us/qicore/StructureDefinition/qicore-encounter"]},"status":"finished","class":{"system":"http://terminology.hl7.org/CodeSystem/v3-ActCode","code":"ACUTE","display":"acute","userSelected":true},"type":[{"coding":[{"system":"http://snomed.info/sct","code":"183452005"}]}],"subject":{"reference":"Patient/a08b6d26-8ef7-417e-9957-fcdfaf0913d8"},"period":{"start":"2026-07-21T08:15:00.000+00:00","end":"2026-07-22T08:20:00.000+00:00"},"length":{"value":1.0,"unit":"days"}},"request":{"method":"PUT","url":"Encounter/b94416f3-cb49-4223-b31b-2e585ca20c46"}},{"fullUrl":"https://madie.cms.gov/Coverage/6e1e287c-732b-42c0-9a71-bf47c3f6fdc1","resource":{"resourceType":"Coverage","id":"6e1e287c-732b-42c0-9a71-bf47c3f6fdc1","meta":{"profile":["http://hl7.org/fhir/us/qicore/StructureDefinition/qicore-coverage"]},"status":"active","type":{"coding":[{"system":"https://nahdo.org/sopt","version":"1.0.1","code":"1","display":"Medicare payer","userSelected":true}]},"beneficiary":{"reference":"Patient/a08b6d26-8ef7-417e-9957-fcdfaf0913d8"},"period":{"start":"2025-01-01T06:00:00.000Z","end":"2028-01-01T11:06:01.000Z"},"payor":[{"reference":"Organization/80e3e0d1-b2aa-43a6-b1d2-00bfa3164a0f"}]},"request":{"method":"PUT","url":"Coverage/6e1e287c-732b-42c0-9a71-bf47c3f6fdc1"}},{"fullUrl":"https://madie.cms.gov/Observation/ef85c609-93e2-4c75-960b-146aa3a88b4e","resource":{"resourceType":"Observation","id":"ef85c609-93e2-4c75-960b-146aa3a88b4e","meta":{"profile":["http://hl7.org/fhir/StructureDefinition/heartrate"]},"status":"final","category":[{"coding":[{"system":"http://terminology.hl7.org/CodeSystem/observation-category","code":"vital-signs","display":"Vital Signs","userSelected":true}]}],"code":{"coding":[{"system":"http://loinc.org","code":"8867-4","display":"Heart rate"}]},"subject":{"reference":"Patient/a08b6d26-8ef7-417e-9957-fcdfaf0913d8"},"effectiveDateTime":"2026-07-21T08:15:00.000Z","issued":"2026-07-21T08:15:00.000Z","valueQuantity":{"value":80.0,"unit":"/min","system":"http://unitsofmeasure.org","code":"/min"}},"request":{"method":"PUT","url":"Observation/ef85c609-93e2-4c75-960b-146aa3a88b4e"}},{"fullUrl":"https://madie.cms.gov/Organization/1ccf04c1-809b-4970-9559-9a692bbd6690","resource":{"resourceType":"Organization","id":"80e3e0d1-b2aa-43a6-b1d2-00bfa3164a0f","meta":{"profile":["http://hl7.org/fhir/us/qicore/StructureDefinition/qicore-organization"]},"identifier":[{"use":"temp","system":"urn:oid:2.16.840.1.113883.4.4","value":"21-3259825"}],"active":true,"type":[{"coding":[{"system":"http://terminology.hl7.org/CodeSystem/organization-type","code":"pay","display":"Payer"}]}],"name":"Blue Cross Blue Shield of Texas","telecom":[{"system":"phone","value":"(+1) 972-766-6900"}],"address":[{"use":"billing","type":"postal","line":["P.O. Box 660044"],"city":"Dallas","state":"TX","postalCode":"75266-0044","country":"USA"}]},"request":{"method":"PUT","url":"Organization/80e3e0d1-b2aa-43a6-b1d2-00bfa3164a0f"}},{"fullUrl":"https://madie.cms.gov/Practitioner/3aa432b7-6eb0-455f-9def-418d7b127840","resource":{"resourceType":"Practitioner","id":"3aa432b7-6eb0-455f-9def-418d7b127840","meta":{"profile":["http://hl7.org/fhir/us/qicore/StructureDefinition/qicore-practitioner"]},"identifier":[{"system":"http://hl7.org/fhir/sid/us-npi","value":"123456"}],"name":[{"family":"Evil","prefix":["Dr"]}]},"request":{"method":"PUT","url":"Practitioner/3aa432b7-6eb0-455f-9def-418d7b127840"}},{"fullUrl":"https://madie.cms.gov/MeasureReport/1e204320-7d88-446c-9175-2f4373a095e5","resource":{"resourceType":"MeasureReport","id":"1e204320-7d88-446c-9175-2f4373a095e5","meta":{"profile":["http://hl7.org/fhir/us/cqfmeasures/StructureDefinition/test-case-cqfm"]},"contained":[{"resourceType":"Parameters","id":"46e16fd4-580d-40cf-8ec3-c3472c0a1683-parameters","parameter":[{"name":"subject","valueString":"a08b6d26-8ef7-417e-9957-fcdfaf0913d8"}]}],"extension":[{"url":"http://hl7.org/fhir/us/cqfmeasures/StructureDefinition/cqfm-inputParameters","valueReference":{"reference":"#46e16fd4-580d-40cf-8ec3-c3472c0a1683-parameters"}},{"url":"http://hl7.org/fhir/us/cqfmeasures/StructureDefinition/cqfm-testCaseDescription","valueMarkdown":"Patient has heart rate exam on admittance. \n "}],"modifierExtension":[{"url":"http://hl7.org/fhir/us/cqfmeasures/StructureDefinition/cqfm-isTestCase","valueBoolean":true}],"status":"complete","type":"individual","measure":"https://madie.cms.gov/Measure/CMSFHIR529HybridHospitalWideReadmission","period":{"start":"2026-07-01","end":"2027-06-30"},"group":[{"population":[{"code":{"coding":[{"system":"http://terminology.hl7.org/CodeSystem/measure-population","code":"initial-population","display":"Initial Population"}]},"count":1}]}]},"request":{"method":"PUT","url":"MeasureReport/1e204320-7d88-446c-9175-2f4373a095e5"}}]}