{"resourceType":"Bundle","id":"tests-3313947e-6d6c-4900-9518-83b337bb3b06-bundle","type":"transaction","entry":[{"fullUrl":"https://madie.cms.gov/Patient/3313947e-6d6c-4900-9518-83b337bb3b06","resource":{"resourceType":"Patient","id":"3313947e-6d6c-4900-9518-83b337bb3b06","meta":{"profile":["http://hl7.org/fhir/us/qicore/StructureDefinition/qicore-patient"]},"text":{"status":"generated","div":"<div xmlns=\"http://www.w3.org/1999/xhtml\"><div class=\"hapiHeaderText\">NoResult <b>SODIUMFAIL </b></div><table class=\"hapiPropertyTable\"><tbody><tr><td>Identifier</td><td>eb360e3679224871964d5b3575a59ceb3c2f6260372fb1be3ea61ac84d2937cf</td></tr><tr><td>Date of birth</td><td><span>15 June 1956</span></td></tr></tbody></table></div>"},"extension":[{"url":"http://hl7.org/fhir/us/core/StructureDefinition/us-core-race","extension":[{"url":"ombCategory","valueCoding":{"system":"urn:oid:2.16.840.1.113883.6.238","code":"1002-5","display":"American Indian or Alaska Native","userSelected":true}},{"url":"text","valueString":"American Indian or Alaska Native"}]},{"url":"http://hl7.org/fhir/us/core/StructureDefinition/us-core-ethnicity","extension":[{"url":"ombCategory","valueCoding":{"system":"urn:oid:2.16.840.1.113883.6.238","code":"2186-5","display":"Not Hispanic or Latino","userSelected":true}},{"url":"text","valueString":"Not Hispanic or Latino"}]}],"identifier":[{"type":{"coding":[{"system":"http://terminology.hl7.org/CodeSystem/v2-0203","code":"MR"}]},"system":"https://bonnie-fhir.healthit.gov/","value":"63ec096bccb3770120fea0ad"}],"active":true,"name":[{"use":"usual","family":"24Hrs1MinuteBeforeEncounter","given":["OxygenSatFail"]}],"gender":"male","birthDate":"1941-07-01"},"request":{"method":"PUT","url":"Patient/3313947e-6d6c-4900-9518-83b337bb3b06"}},{"fullUrl":"https://madie.cms.gov/Encounter/36095fe4-d139-4719-b449-85443b05e23a","resource":{"resourceType":"Encounter","id":"36095fe4-d139-4719-b449-85443b05e23a","meta":{"profile":["http://hl7.org/fhir/us/qicore/StructureDefinition/qicore-encounter"]},"status":"finished","class":{"system":"http://terminology.hl7.org/CodeSystem/v3-ActCode","code":"IMP","display":"inpatient encounter","userSelected":true},"type":[{"coding":[{"system":"http://snomed.info/sct","code":"183452005"}]}],"subject":{"reference":"Patient/3313947e-6d6c-4900-9518-83b337bb3b06"},"period":{"start":"2026-07-01T12:01:00.000+00:00","end":"2026-07-04T08:15:00.000+00:00"}},"request":{"method":"PUT","url":"Encounter/36095fe4-d139-4719-b449-85443b05e23a"}},{"fullUrl":"https://madie.cms.gov/Encounter/36095fe4-d139-4719-b449-85443b05e23a1","resource":{"resourceType":"Encounter","id":"cb797386-add8-4700-938a-f13099563645","meta":{"profile":["http://hl7.org/fhir/us/qicore/StructureDefinition/qicore-encounter"]},"status":"finished","class":{"system":"http://terminology.hl7.org/CodeSystem/v3-ActCode","code":"IMP","display":"inpatient encounter","userSelected":true},"type":[{"coding":[{"system":"http://snomed.info/sct","code":"183452005","display":"Emergency hospital admission (procedure)"}]}],"subject":{"reference":"Patient/3313947e-6d6c-4900-9518-83b337bb3b06"},"period":{"start":"2026-12-31T12:01:00.000+00:00","end":"2027-01-03T10:00:00.000+00:00"}},"request":{"method":"PUT","url":"Encounter/cb797386-add8-4700-938a-f13099563645"}},{"fullUrl":"https://madie.cms.gov/Encounter/36095fe4-d139-4719-b449-85443b05e23a2","resource":{"resourceType":"Encounter","id":"a257e038-236b-4a21-87a8-294185be905c","meta":{"profile":["http://hl7.org/fhir/us/qicore/StructureDefinition/qicore-encounter"]},"status":"finished","class":{"system":"http://terminology.hl7.org/CodeSystem/v3-ActCode","code":"IMP","display":"inpatient encounter","userSelected":true},"type":[{"coding":[{"system":"http://snomed.info/sct","code":"32485007","display":"Hospital admission (procedure)"}]}],"subject":{"reference":"Patient/3313947e-6d6c-4900-9518-83b337bb3b06"},"period":{"start":"2027-01-04T08:00:00.000+00:00","end":"2027-01-08T08:15:00.000+00:00"}},"request":{"method":"PUT","url":"Encounter/a257e038-236b-4a21-87a8-294185be905c"}},{"fullUrl":"https://madie.cms.gov/Observation/c725b112-af6d-444a-80f2-4211e38918a2","resource":{"resourceType":"Observation","id":"c725b112-af6d-444a-80f2-4211e38918a2","meta":{"profile":["http://hl7.org/fhir/us/qicore/StructureDefinition/qicore-observation"]},"status":"final","category":[{"coding":[{"system":"http://terminology.hl7.org/CodeSystem/observation-category","code":"vital-signs","display":"Vital Signs","userSelected":true}]}],"code":{"coding":[{"system":"http://loinc.org","code":"59408-5","display":"Oxygen saturation in Arterial blood by Pulse oximetry"}]},"subject":{"reference":"Patient/3313947e-6d6c-4900-9518-83b337bb3b06"},"effectiveDateTime":"2026-06-30T11:59:00.000+00:00","valueQuantity":{"value":98,"unit":"%","system":"http://unitsofmeasure.org","code":"%"}},"request":{"method":"PUT","url":"Observation/c725b112-af6d-444a-80f2-4211e38918a2"}},{"fullUrl":"https://madie.cms.gov/Coverage/925407c6-6dad-4b23-b684-f86ab363eb34","resource":{"resourceType":"Coverage","id":"925407c6-6dad-4b23-b684-f86ab363eb34","meta":{"profile":["http://hl7.org/fhir/us/qicore/StructureDefinition/qicore-coverage"]},"status":"active","type":{"coding":[{"system":"https://nahdo.org/sopt","version":"1.0.1","code":"1","display":"Medicare payer","userSelected":true}]},"beneficiary":{"reference":"Patient/3313947e-6d6c-4900-9518-83b337bb3b06"},"payor":[{"reference":"Organization/3778262e-e084-4bb5-9a47-1a144735f786"}]},"request":{"method":"PUT","url":"Coverage/925407c6-6dad-4b23-b684-f86ab363eb34"}},{"fullUrl":"https://madie.cms.gov/Practitioner/4a5e2449-2717-4c06-a2e9-f291ff61d0e7","resource":{"resourceType":"Practitioner","id":"4a5e2449-2717-4c06-a2e9-f291ff61d0e7","meta":{"profile":["http://hl7.org/fhir/us/qicore/StructureDefinition/qicore-practitioner"]},"identifier":[{"system":"http://hl7.org/fhir/sid/us-npi","value":"123456"}],"name":[{"family":"Evil","prefix":["Dr"]}]},"request":{"method":"PUT","url":"Practitioner/4a5e2449-2717-4c06-a2e9-f291ff61d0e7"}},{"fullUrl":"https://madie.cms.gov/MeasureReport/4502aa22-f19e-44c8-a60c-6d463af6d2ba","resource":{"resourceType":"MeasureReport","id":"4502aa22-f19e-44c8-a60c-6d463af6d2ba","meta":{"profile":["http://hl7.org/fhir/us/cqfmeasures/StructureDefinition/test-case-cqfm"]},"contained":[{"resourceType":"Parameters","id":"57b802f6-4df1-44bd-abee-bb24bb9695d0-parameters","parameter":[{"name":"subject","valueString":"3313947e-6d6c-4900-9518-83b337bb3b06"}]}],"extension":[{"url":"http://hl7.org/fhir/us/cqfmeasures/StructureDefinition/cqfm-inputParameters","valueReference":{"reference":"#57b802f6-4df1-44bd-abee-bb24bb9695d0-parameters"}},{"url":"http://hl7.org/fhir/us/cqfmeasures/StructureDefinition/cqfm-testCaseDescription","valueMarkdown":"Multiple encs, enc 7/1 O2 sats evaluated"}],"modifierExtension":[{"url":"http://hl7.org/fhir/us/cqfmeasures/StructureDefinition/cqfm-isTestCase","valueBoolean":true}],"status":"complete","type":"individual","measure":"https://madie.cms.gov/Measure/CMSFHIR529HybridHospitalWideReadmission","period":{"start":"2026-07-01","end":"2027-06-30"},"group":[{"population":[{"code":{"coding":[{"system":"http://terminology.hl7.org/CodeSystem/measure-population","code":"initial-population","display":"Initial Population"}]},"count":3}]}]},"request":{"method":"PUT","url":"MeasureReport/4502aa22-f19e-44c8-a60c-6d463af6d2ba"}}]}