{"resourceType":"Bundle","id":"tests-1a527f21-582b-4e84-9c27-0515195a33d5-bundle","type":"transaction","entry":[{"fullUrl":"https://madie.cms.gov/Patient/1a527f21-582b-4e84-9c27-0515195a33d5","resource":{"resourceType":"Patient","id":"1a527f21-582b-4e84-9c27-0515195a33d5","meta":{"profile":["http://hl7.org/fhir/us/qicore/StructureDefinition/qicore-patient"]},"text":{"status":"generated","div":"<div xmlns=\"http://www.w3.org/1999/xhtml\"><div class=\"hapiHeaderText\">GT24beforeAndGT2after <b>SBPFAIL </b></div><table class=\"hapiPropertyTable\"><tbody><tr><td>Identifier</td><td>06325773a6790e23c9c87a5044d667ced8c93e3997128578dd7c39ff089cc6f3</td></tr><tr><td>Date of birth</td><td><span>15 June 1956</span></td></tr></tbody></table></div>"},"extension":[{"url":"http://hl7.org/fhir/us/core/StructureDefinition/us-core-race","extension":[{"url":"ombCategory","valueCoding":{"system":"urn:oid:2.16.840.1.113883.6.238","code":"1002-5","display":"American Indian or Alaska Native","userSelected":true}},{"url":"text","valueString":"American Indian or Alaska Native"}]},{"url":"http://hl7.org/fhir/us/core/StructureDefinition/us-core-ethnicity","extension":[{"url":"ombCategory","valueCoding":{"system":"urn:oid:2.16.840.1.113883.6.238","code":"2186-5","display":"Not Hispanic or Latino","userSelected":true}},{"url":"text","valueString":"Not Hispanic or Latino"}]}],"identifier":[{"type":{"coding":[{"system":"http://terminology.hl7.org/CodeSystem/v2-0203","code":"MR"}]},"system":"https://bonnie-fhir.healthit.gov/","value":"63ec096accb3770120fea003"}],"active":true,"name":[{"use":"usual","family":"SystolicBPPass","given":["FirstReadingNotInMPButLessThan24Hrs"]}],"gender":"male","birthDate":"1960-07-01"},"request":{"method":"PUT","url":"Patient/1a527f21-582b-4e84-9c27-0515195a33d5"}},{"fullUrl":"https://madie.cms.gov/Encounter/6fba474e-aa14-47c5-b436-606e39994b4d","resource":{"resourceType":"Encounter","id":"6fba474e-aa14-47c5-b436-606e39994b4d","meta":{"profile":["http://hl7.org/fhir/us/qicore/StructureDefinition/qicore-encounter"]},"status":"finished","class":{"system":"http://terminology.hl7.org/CodeSystem/v3-ActCode","code":"ACUTE","display":"Acute","userSelected":true},"type":[{"coding":[{"system":"http://snomed.info/sct","code":"183452005"}]}],"subject":{"reference":"Patient/1a527f21-582b-4e84-9c27-0515195a33d5"},"period":{"start":"2026-07-01T08:00:00.000+00:00","end":"2026-07-02T16:15:00.000+00:00"},"length":{"value":1,"unit":"days"}},"request":{"method":"PUT","url":"Encounter/6fba474e-aa14-47c5-b436-606e39994b4d"}},{"fullUrl":"https://madie.cms.gov/Coverage/13de8d19-587c-4565-bd8b-ae6b4936b107","resource":{"resourceType":"Coverage","id":"13de8d19-587c-4565-bd8b-ae6b4936b107","meta":{"profile":["http://hl7.org/fhir/us/qicore/StructureDefinition/qicore-coverage"]},"status":"active","type":{"coding":[{"system":"https://nahdo.org/sopt","version":"1.0.1","code":"1","display":"Medicare payer","userSelected":true}]},"beneficiary":{"reference":"Patient/1a527f21-582b-4e84-9c27-0515195a33d5"},"period":{"start":"2026-01-01T08:00:00.000+00:00"},"payor":[{"reference":"Organization/880a275e-1cf2-4fb9-869b-f1d2173fdc2b"}]},"request":{"method":"PUT","url":"Coverage/13de8d19-587c-4565-bd8b-ae6b4936b107"}},{"fullUrl":"https://madie.cms.gov/Observation/221a11d6-c51f-40eb-8a41-1afc65a5d521","resource":{"resourceType":"Observation","id":"221a11d6-c51f-40eb-8a41-1afc65a5d521","meta":{"profile":["http://hl7.org/fhir/StructureDefinition/bp"]},"status":"final","category":[{"coding":[{"system":"http://terminology.hl7.org/CodeSystem/observation-category","code":"vital-signs","display":"Vital Signs"}],"text":"Vital Signs"}],"code":{"coding":[{"system":"http://loinc.org","code":"85354-9","display":"Blood pressure panel"}]},"subject":{"reference":"Patient/1a527f21-582b-4e84-9c27-0515195a33d5"},"effectiveDateTime":"2026-06-30T13:00:00.000+00:00","component":[{"code":{"coding":[{"system":"http://loinc.org","code":"8480-6","display":"Systolic blood pressure"}]},"valueQuantity":{"value":131,"unit":"mmHg","system":"http://unitsofmeasure.org","code":"mm[Hg]"}},{"code":{"coding":[{"system":"http://loinc.org","code":"8462-4","display":"Diastolic blood pressure"}]},"valueQuantity":{"value":80,"unit":"mmHg","system":"http://unitsofmeasure.org","code":"mm[Hg]"}}]},"request":{"method":"PUT","url":"Observation/221a11d6-c51f-40eb-8a41-1afc65a5d521"}},{"fullUrl":"https://madie.cms.gov/Observation/a359e2ab-6231-4911-8409-3b4d3373b523","resource":{"resourceType":"Observation","id":"a359e2ab-6231-4911-8409-3b4d3373b523","meta":{"profile":["http://hl7.org/fhir/StructureDefinition/bp"]},"status":"final","category":[{"coding":[{"system":"http://terminology.hl7.org/CodeSystem/observation-category","code":"vital-signs","display":"Vital Signs"}],"text":"Vital Signs"}],"code":{"coding":[{"system":"http://loinc.org","code":"85354-9","display":"Blood pressure panel"}]},"subject":{"reference":"Patient/1a527f21-582b-4e84-9c27-0515195a33d5"},"effectiveDateTime":"2026-07-01T08:01:00.000+00:00","component":[{"code":{"coding":[{"system":"http://loinc.org","code":"8480-6","display":"Systolic blood pressure"}]},"valueQuantity":{"value":131,"unit":"mmHg","system":"http://unitsofmeasure.org","code":"mm[Hg]"}},{"code":{"coding":[{"system":"http://loinc.org","code":"8462-4","display":"Diastolic blood pressure"}]},"valueQuantity":{"value":80,"unit":"mmHg","system":"http://unitsofmeasure.org","code":"mm[Hg]"}}]},"request":{"method":"PUT","url":"Observation/a359e2ab-6231-4911-8409-3b4d3373b523"}},{"fullUrl":"https://madie.cms.gov/Organization/a6fe09dd-3c74-4213-9a63-bf1091925f6c","resource":{"resourceType":"Organization","id":"880a275e-1cf2-4fb9-869b-f1d2173fdc2b","meta":{"profile":["http://hl7.org/fhir/us/qicore/StructureDefinition/qicore-organization"]},"identifier":[{"use":"temp","system":"urn:oid:2.16.840.1.113883.4.4","value":"21-3259825"}],"active":true,"type":[{"coding":[{"system":"http://terminology.hl7.org/CodeSystem/organization-type","code":"pay","display":"Payer"}]}],"name":"Blue Cross Blue Shield of Texas","telecom":[{"system":"phone","value":"(+1) 972-766-6900"}],"address":[{"use":"billing","type":"postal","line":["P.O. Box 660044"],"city":"Dallas","state":"TX","postalCode":"75266-0044","country":"USA"}]},"request":{"method":"PUT","url":"Organization/880a275e-1cf2-4fb9-869b-f1d2173fdc2b"}},{"fullUrl":"https://madie.cms.gov/Practitioner/723d4bc0-3b78-4ff0-a14c-8a4f5c69ea74","resource":{"resourceType":"Practitioner","id":"723d4bc0-3b78-4ff0-a14c-8a4f5c69ea74","meta":{"profile":["http://hl7.org/fhir/us/qicore/StructureDefinition/qicore-practitioner"]},"identifier":[{"system":"http://hl7.org/fhir/sid/us-npi","value":"123456"}],"name":[{"family":"Evil","prefix":["Dr"]}]},"request":{"method":"PUT","url":"Practitioner/723d4bc0-3b78-4ff0-a14c-8a4f5c69ea74"}},{"fullUrl":"https://madie.cms.gov/MeasureReport/ad1fb33a-d279-447c-bbbd-dc9ee44e2fa7","resource":{"resourceType":"MeasureReport","id":"ad1fb33a-d279-447c-bbbd-dc9ee44e2fa7","meta":{"profile":["http://hl7.org/fhir/us/cqfmeasures/StructureDefinition/test-case-cqfm"]},"contained":[{"resourceType":"Parameters","id":"1c47bff4-d0fd-4479-bd47-33671f78b717-parameters","parameter":[{"name":"subject","valueString":"1a527f21-582b-4e84-9c27-0515195a33d5"}]}],"extension":[{"url":"http://hl7.org/fhir/us/cqfmeasures/StructureDefinition/cqfm-inputParameters","valueReference":{"reference":"#1c47bff4-d0fd-4479-bd47-33671f78b717-parameters"}},{"url":"http://hl7.org/fhir/us/cqfmeasures/StructureDefinition/cqfm-testCaseDescription","valueMarkdown":"Enc first day of MP (7/1) has Medicare, 19 hrs prior to inpatient admit, BP evaluated and is included since meets timeframe for 24 hours before admit. 2nd reading 1 min after admit \n"}],"modifierExtension":[{"url":"http://hl7.org/fhir/us/cqfmeasures/StructureDefinition/cqfm-isTestCase","valueBoolean":true}],"status":"complete","type":"individual","measure":"https://madie.cms.gov/Measure/CMSFHIR529HybridHospitalWideReadmission","period":{"start":"2026-07-01","end":"2027-06-30"},"group":[{"population":[{"code":{"coding":[{"system":"http://terminology.hl7.org/CodeSystem/measure-population","code":"initial-population","display":"Initial Population"}]},"count":1}]}]},"request":{"method":"PUT","url":"MeasureReport/ad1fb33a-d279-447c-bbbd-dc9ee44e2fa7"}}]}