{"resourceType":"Bundle","id":"tests-dbb82192-d268-4e50-be41-8e371d33bacd-bundle","type":"transaction","entry":[{"fullUrl":"https://madie.cms.gov/Patient/dbb82192-d268-4e50-be41-8e371d33bacd","resource":{"resourceType":"Patient","id":"dbb82192-d268-4e50-be41-8e371d33bacd","meta":{"profile":["http://hl7.org/fhir/us/qicore/StructureDefinition/qicore-patient"]},"text":{"status":"generated","div":"<div xmlns=\"http://www.w3.org/1999/xhtml\"><div class=\"hapiHeaderText\">LTE24before <b>CREATPASS </b></div><table class=\"hapiPropertyTable\"><tbody><tr><td>Identifier</td><td>f7053d5904ff43c96857e3f606716bbc2f99b5ab9c0c40826e6d339080f2947c</td></tr><tr><td>Date of birth</td><td><span>15 June 1956</span></td></tr></tbody></table></div>"},"extension":[{"url":"http://hl7.org/fhir/us/core/StructureDefinition/us-core-race","extension":[{"url":"ombCategory","valueCoding":{"system":"urn:oid:2.16.840.1.113883.6.238","code":"2076-8","display":"Native Hawaiian or Other Pacific Islander","userSelected":true}},{"url":"text","valueString":"Native Hawaiian or Other Pacific Islander"}]},{"url":"http://hl7.org/fhir/us/core/StructureDefinition/us-core-ethnicity","extension":[{"url":"ombCategory","valueCoding":{"system":"urn:oid:2.16.840.1.113883.6.238","code":"2186-5","display":"Not Hispanic or Latino","userSelected":true}},{"url":"text","valueString":"Not Hispanic or Latino"}]}],"identifier":[{"type":{"coding":[{"system":"http://terminology.hl7.org/CodeSystem/v2-0203","code":"MR"}]},"system":"https://bonnie-fhir.healthit.gov/","value":"63ec096cccb3770120fea178"}],"active":true,"name":[{"use":"usual","family":"CreatinineFail","given":["24Hrs1MinAfterStartOfInpatient"]}],"gender":"female","birthDate":"1961-07-01"},"request":{"method":"PUT","url":"Patient/dbb82192-d268-4e50-be41-8e371d33bacd"}},{"fullUrl":"https://madie.cms.gov/Encounter/ed69d010-7a39-4ea0-8a64-1fceb75685f4","resource":{"resourceType":"Encounter","id":"ed69d010-7a39-4ea0-8a64-1fceb75685f4","meta":{"profile":["http://hl7.org/fhir/us/qicore/StructureDefinition/qicore-encounter"]},"status":"finished","class":{"system":"http://terminology.hl7.org/CodeSystem/v3-ActCode","code":"ACUTE","display":"Acute","userSelected":true},"type":[{"coding":[{"system":"http://snomed.info/sct","code":"183452005"}]}],"subject":{"reference":"Patient/dbb82192-d268-4e50-be41-8e371d33bacd"},"period":{"start":"2026-07-01T08:00:00.000+00:00","end":"2026-07-05T08:15:00.000+00:00"},"length":{"value":4,"unit":"days"}},"request":{"method":"PUT","url":"Encounter/ed69d010-7a39-4ea0-8a64-1fceb75685f4"}},{"fullUrl":"https://madie.cms.gov/Coverage/02d57b04-c09e-4dc3-8f9f-61840f4a7287","resource":{"resourceType":"Coverage","id":"02d57b04-c09e-4dc3-8f9f-61840f4a7287","meta":{"profile":["http://hl7.org/fhir/us/qicore/StructureDefinition/qicore-coverage"]},"status":"active","type":{"coding":[{"system":"https://nahdo.org/sopt","version":"1.0.1","code":"1","display":"Medicare payer","userSelected":true}]},"beneficiary":{"reference":"Patient/dbb82192-d268-4e50-be41-8e371d33bacd"},"payor":[{"reference":"Organization/3778262e-e084-4bb5-9a47-1a144735f786"}]},"request":{"method":"PUT","url":"Coverage/02d57b04-c09e-4dc3-8f9f-61840f4a7287"}},{"fullUrl":"https://madie.cms.gov/Observation/5c5da158-8d18-4f23-aa61-f4a0f73e8321","resource":{"resourceType":"Observation","id":"5c5da158-8d18-4f23-aa61-f4a0f73e8321","meta":{"profile":["http://hl7.org/fhir/us/core/StructureDefinition/us-core-observation-lab"]},"status":"final","category":[{"coding":[{"system":"http://terminology.hl7.org/CodeSystem/observation-category","code":"laboratory","display":"laboratory","userSelected":true}]}],"code":{"coding":[{"system":"http://loinc.org","version":"2.69","code":"14682-9","display":"Creatinine [Moles/volume] in Serum or Plasma","userSelected":true}]},"subject":{"reference":"Patient/dbb82192-d268-4e50-be41-8e371d33bacd"},"issued":"2026-07-02T08:01:00.000+00:00","valueQuantity":{"value":1,"unit":"mg/dL","system":"http://unitsofmeasure.org","code":"mg/dL"}},"request":{"method":"PUT","url":"Observation/5c5da158-8d18-4f23-aa61-f4a0f73e8321"}},{"fullUrl":"https://madie.cms.gov/Observation/8dde590f-57a1-42be-88a1-e13da673c1d4","resource":{"resourceType":"Observation","id":"8dde590f-57a1-42be-88a1-e13da673c1d4","meta":{"profile":["http://hl7.org/fhir/us/core/StructureDefinition/us-core-observation-lab"]},"status":"final","category":[{"coding":[{"system":"http://terminology.hl7.org/CodeSystem/observation-category","code":"laboratory","display":"laboratory","userSelected":true}]}],"code":{"coding":[{"system":"http://loinc.org","version":"2.69","code":"14682-9","display":"Creatinine [Moles/volume] in Serum or Plasma","userSelected":true}]},"subject":{"reference":"Patient/dbb82192-d268-4e50-be41-8e371d33bacd"},"issued":"2026-07-03T08:00:00.000+00:00","valueQuantity":{"value":2,"unit":"mg/dL","system":"http://unitsofmeasure.org","code":"mg/dL"}},"request":{"method":"PUT","url":"Observation/8dde590f-57a1-42be-88a1-e13da673c1d4"}},{"fullUrl":"https://madie.cms.gov/Observation/20523daf-3918-419f-968a-87e5a8505d6b","resource":{"resourceType":"Observation","id":"20523daf-3918-419f-968a-87e5a8505d6b","meta":{"profile":["http://hl7.org/fhir/us/core/StructureDefinition/us-core-observation-lab"]},"status":"final","category":[{"coding":[{"system":"http://terminology.hl7.org/CodeSystem/observation-category","code":"laboratory","display":"laboratory","userSelected":true}]}],"code":{"coding":[{"system":"http://loinc.org","version":"2.69","code":"14682-9","display":"Creatinine [Moles/volume] in Serum or Plasma","userSelected":true}]},"subject":{"reference":"Patient/dbb82192-d268-4e50-be41-8e371d33bacd"},"issued":"2026-07-04T20:00:00.000+00:00","valueQuantity":{"value":3,"unit":"mg/dL","system":"http://unitsofmeasure.org","code":"mg/dL"}},"request":{"method":"PUT","url":"Observation/20523daf-3918-419f-968a-87e5a8505d6b"}},{"fullUrl":"https://madie.cms.gov/Observation/326d5a81-08c3-45cf-83d0-3af95001bf5e","resource":{"resourceType":"Observation","id":"326d5a81-08c3-45cf-83d0-3af95001bf5e","meta":{"profile":["http://hl7.org/fhir/us/core/StructureDefinition/us-core-observation-lab"]},"status":"final","category":[{"coding":[{"system":"http://terminology.hl7.org/CodeSystem/observation-category","code":"laboratory","display":"laboratory","userSelected":true}]}],"code":{"coding":[{"system":"http://loinc.org","version":"2.69","code":"14682-9","display":"Creatinine [Moles/volume] in Serum or Plasma","userSelected":true}]},"subject":{"reference":"Patient/dbb82192-d268-4e50-be41-8e371d33bacd"},"issued":"2026-07-05T08:00:00.000+00:00","valueQuantity":{"value":4,"unit":"mg/dL","system":"http://unitsofmeasure.org","code":"mg/dL"}},"request":{"method":"PUT","url":"Observation/326d5a81-08c3-45cf-83d0-3af95001bf5e"}},{"fullUrl":"https://madie.cms.gov/Organization/d0b1da76-d2d6-4054-bcee-e6c058cba8ca","resource":{"resourceType":"Organization","id":"3778262e-e084-4bb5-9a47-1a144735f786","meta":{"profile":["http://hl7.org/fhir/us/qicore/StructureDefinition/qicore-organization"]},"identifier":[{"use":"temp","system":"urn:oid:2.16.840.1.113883.4.4","value":"21-3259825"}],"active":true,"type":[{"coding":[{"system":"http://terminology.hl7.org/CodeSystem/organization-type","code":"pay","display":"Payer"}]}],"name":"Blue Cross Blue Shield of Texas","telecom":[{"system":"phone","value":"(+1) 972-766-6900"}],"address":[{"use":"billing","type":"postal","line":["P.O. Box 660044"],"city":"Dallas","state":"TX","postalCode":"75266-0044","country":"USA"}]},"request":{"method":"PUT","url":"Organization/3778262e-e084-4bb5-9a47-1a144735f786"}},{"fullUrl":"https://madie.cms.gov/Practitioner/ebd0d857-15bf-4c78-8449-c26f2b57ef64","resource":{"resourceType":"Practitioner","id":"ebd0d857-15bf-4c78-8449-c26f2b57ef64","meta":{"profile":["http://hl7.org/fhir/us/qicore/StructureDefinition/qicore-practitioner"]},"identifier":[{"system":"http://hl7.org/fhir/sid/us-npi","value":"123456"}],"name":[{"family":"Evil","prefix":["Dr"]}]},"request":{"method":"PUT","url":"Practitioner/ebd0d857-15bf-4c78-8449-c26f2b57ef64"}},{"fullUrl":"https://madie.cms.gov/MeasureReport/1523479e-ee2a-4871-82e1-6f17a2769df3","resource":{"resourceType":"MeasureReport","id":"1523479e-ee2a-4871-82e1-6f17a2769df3","meta":{"profile":["http://hl7.org/fhir/us/cqfmeasures/StructureDefinition/test-case-cqfm"]},"contained":[{"resourceType":"Parameters","id":"332dd6d3-ad07-44d3-a5e1-2b58c110b007-parameters","parameter":[{"name":"subject","valueString":"dbb82192-d268-4e50-be41-8e371d33bacd"}]}],"extension":[{"url":"http://hl7.org/fhir/us/cqfmeasures/StructureDefinition/cqfm-inputParameters","valueReference":{"reference":"#332dd6d3-ad07-44d3-a5e1-2b58c110b007-parameters"}},{"url":"http://hl7.org/fhir/us/cqfmeasures/StructureDefinition/cqfm-testCaseDescription","valueMarkdown":"Enc. started first day of MP (7/1), has Medicare, turned 65 today, Creatinine tests performed 24 hrs 1 min after start of inpatient enc; other creatinine  labs followed for days 2-4 but all were well after the 24 hr timeline. "}],"modifierExtension":[{"url":"http://hl7.org/fhir/us/cqfmeasures/StructureDefinition/cqfm-isTestCase","valueBoolean":true}],"status":"complete","type":"individual","measure":"https://madie.cms.gov/Measure/CMSFHIR529HybridHospitalWideReadmission","period":{"start":"2026-07-01","end":"2027-06-30"},"group":[{"population":[{"code":{"coding":[{"system":"http://terminology.hl7.org/CodeSystem/measure-population","code":"initial-population","display":"Initial Population"}]},"count":1}]}]},"request":{"method":"PUT","url":"MeasureReport/1523479e-ee2a-4871-82e1-6f17a2769df3"}}]}