{"resourceType":"Bundle","id":"tests-e189d3ab-c593-44f2-940d-50d7f08eb847-bundle","type":"transaction","entry":[{"fullUrl":"https://madie.cms.gov/Patient/e189d3ab-c593-44f2-940d-50d7f08eb847","resource":{"resourceType":"Patient","id":"e189d3ab-c593-44f2-940d-50d7f08eb847","meta":{"profile":["http://hl7.org/fhir/us/core/StructureDefinition/us-core-patient","http://hl7.org/fhir/us/qicore/StructureDefinition/qicore-patient"]},"extension":[{"url":"http://hl7.org/fhir/us/core/StructureDefinition/us-core-race","extension":[{"url":"ombCategory","valueCoding":{"system":"urn:oid:2.16.840.1.113883.6.238","code":"2028-9","display":"Asian"}},{"url":"text","valueString":"Asian"}]},{"url":"http://hl7.org/fhir/us/core/StructureDefinition/us-core-ethnicity","extension":[{"url":"ombCategory","valueCoding":{"system":"urn:oid:2.16.840.1.113883.6.238","code":"2135-2","display":"Hispanic or Latino"}},{"url":"text","valueString":"Hispanic or Latino"}]}],"identifier":[{"system":"http://hospital.smarthealthit.org","value":"999999995"}],"name":[{"family":"ScanOutsideMP","given":["IPPFail"]}],"gender":"male","birthDate":"1979-06-12"},"request":{"method":"PUT","url":"Patient/e189d3ab-c593-44f2-940d-50d7f08eb847"}},{"fullUrl":"https://madie.cms.gov/Encounter/775c44af-a70c-4b05-b139-9208e9a5c7d9","resource":{"resourceType":"Encounter","id":"775c44af-a70c-4b05-b139-9208e9a5c7d9","meta":{"profile":["http://hl7.org/fhir/us/qicore/StructureDefinition/qicore-encounter"]},"status":"finished","class":{"system":"http://terminology.hl7.org/CodeSystem/v3-ActCode","code":"IMP","display":"inpatient encounter"},"type":[{"coding":[{"system":"http://snomed.info/sct","code":"183452005","display":"Emergency hospital admission"}]}],"subject":{"reference":"Patient/e189d3ab-c593-44f2-940d-50d7f08eb847"},"period":{"start":"2026-12-30T00:00:00.000Z","end":"2027-01-03T01:00:00.000Z"}},"request":{"method":"PUT","url":"Encounter/775c44af-a70c-4b05-b139-9208e9a5c7d9"}},{"fullUrl":"https://madie.cms.gov/Observation/e4423658-9df4-4111-a698-5cfbc43c4e2e","resource":{"resourceType":"Observation","id":"e4423658-9df4-4111-a698-5cfbc43c4e2e","meta":{"profile":["http://hl7.org/fhir/us/qicore/StructureDefinition/qicore-observation"]},"status":"final","category":[{"coding":[{"system":"http://terminology.hl7.org/CodeSystem/observation-category","code":"imaging","display":"Imaging"}]}],"code":{"coding":[{"system":"http://loinc.org","code":"96914-7","display":"CT dose and image quality category"}],"text":"CT dose and image quality category"},"subject":{"reference":"Patient/e189d3ab-c593-44f2-940d-50d7f08eb847"},"encounter":{"reference":"Encounter/775c44af-a70c-4b05-b139-9208e9a5c7d9"},"effectiveDateTime":"2027-01-02T00:00:00.000Z","valueCodeableConcept":{"coding":[{"system":"http://loinc.org","code":"LA31753-9","display":"Abdomen and Pelvis Routine Dose"}]},"component":[{"code":{"coding":[{"system":"http://loinc.org","code":"96912-1","display":"Calculated CT global noise"}]},"valueQuantity":{"value":63,"unit":"[hnsf'U]","system":"http://unitsofmeasure.org","code":"[hnsf'U]"}},{"code":{"coding":[{"system":"http://loinc.org","code":"96913-9","display":"Calculated CT size-adjusted dose"}]},"valueQuantity":{"value":597,"unit":"mGy.cm","system":"http://unitsofmeasure.org","code":"mGy.cm"}}]},"request":{"method":"PUT","url":"Observation/e4423658-9df4-4111-a698-5cfbc43c4e2e"}},{"fullUrl":"https://madie.cms.gov/MeasureReport/4129e6f6-a87d-4079-b591-cd6754ea53bc","resource":{"resourceType":"MeasureReport","id":"4129e6f6-a87d-4079-b591-cd6754ea53bc","meta":{"profile":["http://hl7.org/fhir/us/cqfmeasures/StructureDefinition/test-case-cqfm"]},"contained":[{"resourceType":"Parameters","id":"78a141cd-123a-4fd3-9f1e-c4169450edb6-parameters","parameter":[{"name":"subject","valueString":"e189d3ab-c593-44f2-940d-50d7f08eb847"}]}],"extension":[{"url":"http://hl7.org/fhir/us/cqfmeasures/StructureDefinition/cqfm-inputParameters","valueReference":{"reference":"#78a141cd-123a-4fd3-9f1e-c4169450edb6-parameters"}},{"url":"http://hl7.org/fhir/us/cqfmeasures/StructureDefinition/cqfm-testCaseDescription","valueMarkdown":"Patient has encounter that started in MP but goes into next year and scan happens in next year so should not meet IPP"}],"modifierExtension":[{"url":"http://hl7.org/fhir/us/cqfmeasures/StructureDefinition/cqfm-isTestCase","valueBoolean":true}],"status":"complete","type":"individual","measure":"https://madie.cms.gov/Measure/AlaraCTIQRFHIR","period":{"start":"2026-01-01","end":"2026-12-31"},"group":[{"population":[{"code":{"coding":[{"system":"http://terminology.hl7.org/CodeSystem/measure-population","code":"initial-population","display":"Initial Population"}]},"count":0},{"code":{"coding":[{"system":"http://terminology.hl7.org/CodeSystem/measure-population","code":"denominator","display":"Denominator"}]},"count":0},{"code":{"coding":[{"system":"http://terminology.hl7.org/CodeSystem/measure-population","code":"denominator-exclusion","display":"Denominator Exclusion"}]},"count":0},{"code":{"coding":[{"system":"http://terminology.hl7.org/CodeSystem/measure-population","code":"numerator","display":"Numerator"}]},"count":0}]}]},"request":{"method":"PUT","url":"MeasureReport/4129e6f6-a87d-4079-b591-cd6754ea53bc"}}]}