{"resourceType":"Bundle","id":"tests-5bbcae94-bd60-4ac9-80f3-85e3f77d5575-bundle","type":"transaction","entry":[{"fullUrl":"https://madie.cms.gov/Patient/5bbcae94-bd60-4ac9-80f3-85e3f77d5575","resource":{"resourceType":"Patient","id":"5bbcae94-bd60-4ac9-80f3-85e3f77d5575","meta":{"profile":["http://hl7.org/fhir/us/core/StructureDefinition/us-core-patient","http://hl7.org/fhir/us/qicore/StructureDefinition/qicore-patient"]},"extension":[{"url":"http://hl7.org/fhir/us/core/StructureDefinition/us-core-race","extension":[{"url":"ombCategory","valueCoding":{"system":"urn:oid:2.16.840.1.113883.6.238","code":"2028-9","display":"Asian"}},{"url":"text","valueString":"Asian"}]},{"url":"http://hl7.org/fhir/us/core/StructureDefinition/us-core-ethnicity","extension":[{"url":"ombCategory","valueCoding":{"system":"urn:oid:2.16.840.1.113883.6.238","code":"2135-2","display":"Hispanic or Latino"}},{"url":"text","valueString":"Hispanic or Latino"}]}],"identifier":[{"system":"http://hospital.smarthealthit.org","value":"999999995"}],"name":[{"family":"Abdopelrt","given":["DENOMPass"]}],"gender":"female","birthDate":"1987-06-12"},"request":{"method":"PUT","url":"Patient/5bbcae94-bd60-4ac9-80f3-85e3f77d5575"}},{"fullUrl":"https://madie.cms.gov/Encounter/41bbbbfa-66cf-4a63-a2fd-5ef90c5f7191","resource":{"resourceType":"Encounter","id":"41bbbbfa-66cf-4a63-a2fd-5ef90c5f7191","meta":{"profile":["http://hl7.org/fhir/us/qicore/StructureDefinition/qicore-encounter"]},"status":"finished","class":{"system":"http://terminology.hl7.org/CodeSystem/v3-ActCode","code":"IMP","display":"inpatient encounter"},"type":[{"coding":[{"system":"http://snomed.info/sct","code":"183452005","display":"Emergency hospital admission"}]}],"subject":{"reference":"Patient/5bbcae94-bd60-4ac9-80f3-85e3f77d5575"},"period":{"start":"2026-03-01T00:00:00.000Z","end":"2026-03-03T01:00:00.000Z"}},"request":{"method":"PUT","url":"Encounter/41bbbbfa-66cf-4a63-a2fd-5ef90c5f7191"}},{"fullUrl":"https://madie.cms.gov/Observation/d8ab0123-094f-4f53-a38c-a3071e1ebaf9","resource":{"resourceType":"Observation","id":"d8ab0123-094f-4f53-a38c-a3071e1ebaf9","meta":{"profile":["http://hl7.org/fhir/us/qicore/StructureDefinition/qicore-observation"]},"status":"final","category":[{"coding":[{"system":"http://terminology.hl7.org/CodeSystem/observation-category","code":"imaging","display":"Imaging"}]}],"code":{"coding":[{"system":"http://loinc.org","code":"96914-7","display":"CT dose and image quality category"}],"text":"CT dose and image quality category"},"subject":{"reference":"Patient/5bbcae94-bd60-4ac9-80f3-85e3f77d5575"},"encounter":{"reference":"Encounter/41bbbbfa-66cf-4a63-a2fd-5ef90c5f7191"},"effectiveDateTime":"2026-03-02T00:00:00.000Z","valueCodeableConcept":{"coding":[{"system":"http://loinc.org","code":"LA31753-9","display":"Abdomen and Pelvis Routine Dose"}]},"component":[{"code":{"coding":[{"system":"http://loinc.org","code":"96912-1","display":"Calculated CT global noise"}]},"valueQuantity":{"value":28,"unit":"[hnsf'U]","system":"http://unitsofmeasure.org","code":"[hnsf'U]"}},{"code":{"coding":[{"system":"http://loinc.org","code":"96913-9","display":"Calculated CT size-adjusted dose"}]},"valueQuantity":{"value":597,"unit":"mGy.cm","system":"http://unitsofmeasure.org","code":"mGy.cm"}}]},"request":{"method":"PUT","url":"Observation/d8ab0123-094f-4f53-a38c-a3071e1ebaf9"}},{"fullUrl":"https://madie.cms.gov/MeasureReport/7398fb2b-962d-4dd9-9cf8-c934a485c8f4","resource":{"resourceType":"MeasureReport","id":"7398fb2b-962d-4dd9-9cf8-c934a485c8f4","meta":{"profile":["http://hl7.org/fhir/us/cqfmeasures/StructureDefinition/test-case-cqfm"]},"contained":[{"resourceType":"Parameters","id":"13a555db-7b7e-4b7a-970a-e11e05a99fa7-parameters","parameter":[{"name":"subject","valueString":"5bbcae94-bd60-4ac9-80f3-85e3f77d5575"}]}],"extension":[{"url":"http://hl7.org/fhir/us/cqfmeasures/StructureDefinition/cqfm-inputParameters","valueReference":{"reference":"#13a555db-7b7e-4b7a-970a-e11e05a99fa7-parameters"}},{"url":"http://hl7.org/fhir/us/cqfmeasures/StructureDefinition/cqfm-testCaseDescription","valueMarkdown":"ABDOPEL RT with good noise and good dose"}],"modifierExtension":[{"url":"http://hl7.org/fhir/us/cqfmeasures/StructureDefinition/cqfm-isTestCase","valueBoolean":true}],"status":"complete","type":"individual","measure":"https://madie.cms.gov/Measure/AlaraCTIQRFHIR","period":{"start":"2026-01-01","end":"2026-12-31"},"group":[{"population":[{"code":{"coding":[{"system":"http://terminology.hl7.org/CodeSystem/measure-population","code":"initial-population","display":"Initial Population"}]},"count":1},{"code":{"coding":[{"system":"http://terminology.hl7.org/CodeSystem/measure-population","code":"denominator","display":"Denominator"}]},"count":1},{"code":{"coding":[{"system":"http://terminology.hl7.org/CodeSystem/measure-population","code":"denominator-exclusion","display":"Denominator Exclusion"}]},"count":0},{"code":{"coding":[{"system":"http://terminology.hl7.org/CodeSystem/measure-population","code":"numerator","display":"Numerator"}]},"count":0}]}]},"request":{"method":"PUT","url":"MeasureReport/7398fb2b-962d-4dd9-9cf8-c934a485c8f4"}}]}