{
  "resourceType": "Bundle",
  "id": "6129134f02c62a011f2e7238",
  "type": "transaction",
  "entry": [ {
    "fullUrl": "https://madie.cms.gov/Patient/ea41e48d-7b6d-4c9e-a8a1-f9c4bcf30785",
    "resource": {
      "resourceType": "Patient",
      "id": "ea41e48d-7b6d-4c9e-a8a1-f9c4bcf30785",
      "meta": {
        "profile": [ "http://hl7.org/fhir/us/qicore/StructureDefinition/qicore-patient" ]
      },
      "text": {
        "status": "generated",
        "div": "<div xmlns=\"http://www.w3.org/1999/xhtml\"><div class=\"hapiHeaderText\">CMOdurED_ED&gt;1hrObs&gt;1hrBFEnc <b>DENEXFAIL </b></div><table class=\"hapiPropertyTable\"><tbody><tr><td>Identifier</td><td>e5df08ea2344cb20f6fa2d8f47afc61dfe83551ed3f95587fd02a84cb071d263</td></tr><tr><td>Date of birth</td><td><span>21 August 1994</span></td></tr></tbody></table></div>"
      },
      "extension": [ {
        "url": "http://hl7.org/fhir/us/core/StructureDefinition/us-core-race",
        "extension": [ {
          "url": "ombCategory",
          "valueCoding": {
            "system": "urn:oid:2.16.840.1.113883.6.238",
            "code": "1002-5",
            "display": "American Indian or Alaska Native",
            "userSelected": true
          }
        }, {
          "url": "detailed",
          "valueCoding": {
            "system": "urn:oid:2.16.840.1.113883.6.238",
            "code": "2036-2",
            "display": "Filipino"
          }
        }, {
          "url": "text",
          "valueString": "American Indian or Alaska Native"
        } ]
      }, {
        "url": "http://hl7.org/fhir/us/core/StructureDefinition/us-core-ethnicity",
        "extension": [ {
          "url": "ombCategory",
          "valueCoding": {
            "system": "urn:oid:2.16.840.1.113883.6.238",
            "code": "2135-2",
            "display": "Hispanic or Latino",
            "userSelected": true
          }
        }, {
          "url": "text",
          "valueString": "Hispanic or Latino"
        }, {
          "url": "detailed",
          "valueCoding": {
            "system": "urn:oid:2.16.840.1.113883.6.238",
            "code": "2153-5",
            "display": "Mexican American Indian"
          }
        } ]
      } ],
      "identifier": [ {
        "type": {
          "coding": [ {
            "system": "http://terminology.hl7.org/CodeSystem/v2-0203",
            "code": "MR"
          } ]
        },
        "system": "https://bonnie-fhir.healthit.gov/",
        "value": "6129134f02c62a011f2e7238"
      } ],
      "active": true,
      "name": [ {
        "use": "usual",
        "family": "DENEXFail",
        "given": [ "CMOdurED_ED>1hrObs>1hrBFEnc" ]
      } ],
      "gender": "male",
      "birthDate": "1995-08-21"
    },
    "request": {
      "method": "PUT",
      "url": "Patient/ea41e48d-7b6d-4c9e-a8a1-f9c4bcf30785"
    }
  }, {
    "fullUrl": "https://madie.cms.gov/Encounter/ff6709de-531a-40fa-8edd-8eeb2e53b73d",
    "resource": {
      "resourceType": "Encounter",
      "id": "ff6709de-531a-40fa-8edd-8eeb2e53b73d",
      "meta": {
        "profile": [ "http://hl7.org/fhir/us/qicore/StructureDefinition/qicore-encounter" ]
      },
      "status": "finished",
      "class": {
        "system": "http://terminology.hl7.org/CodeSystem/v3-ActCode",
        "code": "EMER",
        "display": "emergency",
        "userSelected": true
      },
      "type": [ {
        "coding": [ {
          "system": "http://snomed.info/sct",
          "code": "4525004"
        } ]
      } ],
      "subject": {
        "reference": "Patient/ea41e48d-7b6d-4c9e-a8a1-f9c4bcf30785"
      },
      "period": {
        "start": "2026-10-10T10:28:00.000+00:00",
        "end": "2026-10-10T10:30:00.000+00:00"
      },
      "length": {
        "value": 0,
        "unit": "days"
      }
    },
    "request": {
      "method": "PUT",
      "url": "Encounter/ff6709de-531a-40fa-8edd-8eeb2e53b73d"
    }
  }, {
    "fullUrl": "https://madie.cms.gov/Encounter/2546aa9e-31ca-479c-a1d0-3c0414a33fa1",
    "resource": {
      "resourceType": "Encounter",
      "id": "2546aa9e-31ca-479c-a1d0-3c0414a33fa1",
      "meta": {
        "profile": [ "http://hl7.org/fhir/us/qicore/StructureDefinition/qicore-encounter" ]
      },
      "status": "finished",
      "class": {
        "system": "http://terminology.hl7.org/CodeSystem/v3-ActCode",
        "code": "OBSENC",
        "display": "observation encounter",
        "userSelected": true
      },
      "type": [ {
        "coding": [ {
          "system": "http://snomed.info/sct",
          "code": "448851000124103"
        } ]
      } ],
      "subject": {
        "reference": "Patient/ea41e48d-7b6d-4c9e-a8a1-f9c4bcf30785"
      },
      "period": {
        "start": "2026-10-10T11:31:00.000+00:00",
        "end": "2026-10-10T11:35:00.000+00:00"
      },
      "length": {
        "value": 0,
        "unit": "days"
      }
    },
    "request": {
      "method": "PUT",
      "url": "Encounter/2546aa9e-31ca-479c-a1d0-3c0414a33fa1"
    }
  }, {
    "fullUrl": "https://madie.cms.gov/Encounter/837c229d-5084-46d0-aa02-b908fc63a5e9",
    "resource": {
      "resourceType": "Encounter",
      "id": "837c229d-5084-46d0-aa02-b908fc63a5e9",
      "meta": {
        "profile": [ "http://hl7.org/fhir/us/qicore/StructureDefinition/qicore-encounter" ]
      },
      "status": "finished",
      "class": {
        "system": "http://terminology.hl7.org/CodeSystem/v3-ActCode",
        "code": "IMP",
        "display": "inpatient encounter",
        "userSelected": true
      },
      "type": [ {
        "coding": [ {
          "system": "http://snomed.info/sct",
          "code": "32485007"
        } ]
      } ],
      "subject": {
        "reference": "Patient/ea41e48d-7b6d-4c9e-a8a1-f9c4bcf30785"
      },
      "period": {
        "start": "2026-10-10T12:36:00.000+00:00",
        "end": "2026-10-12T11:30:00.000+00:00"
      },
      "length": {
        "value": 2,
        "unit": "days"
      },
      "diagnosis": [ {
        "condition": {
          "reference": "Condition/4fada22f-273c-4452-bca5-fae480cb5206"
        },
        "use": {
          "coding": [ {
            "system": "http://terminology.hl7.org/CodeSystem/diagnosis-role",
            "code": "billing",
            "display": "Billing"
          } ]
        },
        "rank": 1
      } ]
    },
    "request": {
      "method": "PUT",
      "url": "Encounter/837c229d-5084-46d0-aa02-b908fc63a5e9"
    }
  }, {
    "fullUrl": "https://madie.cms.gov/ServiceRequest/6ed7b81f-0f6d-4d67-873e-2c5b0eaa0183",
    "resource": {
      "resourceType": "ServiceRequest",
      "id": "6ed7b81f-0f6d-4d67-873e-2c5b0eaa0183",
      "meta": {
        "profile": [ "http://hl7.org/fhir/us/qicore/StructureDefinition/qicore-servicerequest" ]
      },
      "status": "active",
      "intent": "order",
      "code": {
        "coding": [ {
          "system": "http://snomed.info/sct",
          "code": "133918004"
        } ]
      },
      "subject": {
        "reference": "Patient/ea41e48d-7b6d-4c9e-a8a1-f9c4bcf30785"
      },
      "authoredOn": "2026-10-10T10:30:00.000+00:00"
    },
    "request": {
      "method": "PUT",
      "url": "ServiceRequest/6ed7b81f-0f6d-4d67-873e-2c5b0eaa0183"
    }
  }, {
    "fullUrl": "https://madie.cms.gov/Condition/4fada22f-273c-4452-bca5-fae480cb5206",
    "resource": {
      "resourceType": "Condition",
      "id": "4fada22f-273c-4452-bca5-fae480cb5206",
      "meta": {
        "profile": [ "http://hl7.org/fhir/us/qicore/StructureDefinition/qicore-condition" ]
      },
      "clinicalStatus": {
        "coding": [ {
          "system": "http://terminology.hl7.org/CodeSystem/condition-clinical",
          "code": "active"
        } ]
      },
      "verificationStatus": {
        "coding": [ {
          "system": "http://terminology.hl7.org/CodeSystem/condition-ver-status",
          "code": "confirmed"
        } ]
      },
      "category": [ {
        "coding": [ {
          "system": "http://terminology.hl7.org/CodeSystem/condition-category",
          "code": "encounter-diagnosis",
          "display": "Encounter Diagnosis"
        } ]
      } ],
      "code": {
        "coding": [ {
          "system": "http://snomed.info/sct",
          "version": "2020-09",
          "code": "111297002",
          "display": "Nonparalytic stroke (disorder)",
          "userSelected": true
        } ]
      },
      "subject": {
        "reference": "Patient/ea41e48d-7b6d-4c9e-a8a1-f9c4bcf30785"
      },
      "recordedDate": "2026-07-14T08:00:00.000+00:00"
    },
    "request": {
      "method": "PUT",
      "url": "Condition/4fada22f-273c-4452-bca5-fae480cb5206"
    }
  }, {
    "fullUrl": "https://madie.cms.gov/Coverage/1e431ba6-f1e7-4982-ab54-5c351a8c4df7",
    "resource": {
      "resourceType": "Coverage",
      "id": "1e431ba6-f1e7-4982-ab54-5c351a8c4df7",
      "meta": {
        "profile": [ "http://hl7.org/fhir/us/qicore/StructureDefinition/qicore-coverage" ]
      },
      "status": "active",
      "beneficiary": {
        "reference": "Patient/ea41e48d-7b6d-4c9e-a8a1-f9c4bcf30785"
      },
      "payor": [ {
        "reference": "Organization/ec95565f-406f-4317-8b03-023766eb7fc2"
      } ]
    },
    "request": {
      "method": "PUT",
      "url": "Coverage/1e431ba6-f1e7-4982-ab54-5c351a8c4df7"
    }
  }, {
    "fullUrl": "https://madie.cms.gov/Organization/ec95565f-406f-4317-8b03-023766eb7fc2",
    "resource": {
      "resourceType": "Organization",
      "id": "ec95565f-406f-4317-8b03-023766eb7fc2",
      "meta": {
        "profile": [ "http://hl7.org/fhir/us/qicore/StructureDefinition/qicore-organization" ]
      },
      "identifier": [ {
        "use": "temp",
        "system": "urn:oid:2.16.840.1.113883.4.4",
        "value": "21-3259825"
      } ],
      "active": true,
      "type": [ {
        "coding": [ {
          "system": "http://terminology.hl7.org/CodeSystem/organization-type",
          "code": "pay",
          "display": "Payer"
        } ]
      } ],
      "name": "Blue Cross Blue Shield of Texas",
      "telecom": [ {
        "system": "phone",
        "value": "(+1) 972-766-6900"
      } ],
      "address": [ {
        "use": "billing",
        "type": "postal",
        "line": [ "P.O. Box 660044" ],
        "city": "Dallas",
        "state": "TX",
        "postalCode": "75266-0044",
        "country": "USA"
      } ]
    },
    "request": {
      "method": "PUT",
      "url": "Organization/ec95565f-406f-4317-8b03-023766eb7fc2"
    }
  }, {
    "fullUrl": "https://madie.cms.gov/MeasureReport/033c5fc6-f54e-4b9a-b664-55b4a52d8840",
    "resource": {
      "resourceType": "MeasureReport",
      "id": "033c5fc6-f54e-4b9a-b664-55b4a52d8840",
      "meta": {
        "profile": [ "http://hl7.org/fhir/us/cqfmeasures/StructureDefinition/test-case-cqfm" ]
      },
      "contained": [ {
        "resourceType": "Parameters",
        "id": "e906952b-52f2-4382-b4b9-6545cf85803c-parameters",
        "parameter": [ {
          "name": "subject",
          "valueString": "ea41e48d-7b6d-4c9e-a8a1-f9c4bcf30785"
        } ]
      } ],
      "extension": [ {
        "url": "http://hl7.org/fhir/us/cqfmeasures/StructureDefinition/cqfm-inputParameters",
        "valueReference": {
          "reference": "#e906952b-52f2-4382-b4b9-6545cf85803c-parameters"
        }
      }, {
        "url": "http://hl7.org/fhir/us/cqfmeasures/StructureDefinition/cqfm-testCaseDescription",
        "valueMarkdown": "Patient receives CMO during ED. ED ends 61 minute before Obs. Obs ends 61 min before inpatient encounter start. Testing day of operator with HospitalizationWithObservation function."
      } ],
      "modifierExtension": [ {
        "url": "http://hl7.org/fhir/us/cqfmeasures/StructureDefinition/cqfm-isTestCase",
        "valueBoolean": true
      } ],
      "status": "complete",
      "type": "individual",
      "measure": "https://madie.cms.gov/Measure/CMS104FHIRSTKDCAntithrombotic",
      "period": {
        "start": "2026-01-01",
        "end": "2026-12-31"
      },
      "group": [ {
        "population": [ {
          "code": {
            "coding": [ {
              "system": "http://terminology.hl7.org/CodeSystem/measure-population",
              "code": "initial-population",
              "display": "Initial Population"
            } ]
          },
          "count": 1
        }, {
          "code": {
            "coding": [ {
              "system": "http://terminology.hl7.org/CodeSystem/measure-population",
              "code": "denominator",
              "display": "Denominator"
            } ]
          },
          "count": 1
        }, {
          "code": {
            "coding": [ {
              "system": "http://terminology.hl7.org/CodeSystem/measure-population",
              "code": "denominator-exclusion",
              "display": "Denominator Exclusion"
            } ]
          },
          "count": 0
        }, {
          "code": {
            "coding": [ {
              "system": "http://terminology.hl7.org/CodeSystem/measure-population",
              "code": "numerator",
              "display": "Numerator"
            } ]
          },
          "count": 0
        }, {
          "code": {
            "coding": [ {
              "system": "http://terminology.hl7.org/CodeSystem/measure-population",
              "code": "denominator-exception",
              "display": "Denominator Exception"
            } ]
          },
          "count": 0
        } ]
      } ],
      "evaluatedResource": [ {
        "reference": "Patient/ea41e48d-7b6d-4c9e-a8a1-f9c4bcf30785"
      }, {
        "reference": "Encounter/ff6709de-531a-40fa-8edd-8eeb2e53b73d"
      }, {
        "reference": "Encounter/2546aa9e-31ca-479c-a1d0-3c0414a33fa1"
      }, {
        "reference": "Encounter/837c229d-5084-46d0-aa02-b908fc63a5e9"
      }, {
        "reference": "ServiceRequest/6ed7b81f-0f6d-4d67-873e-2c5b0eaa0183"
      }, {
        "reference": "Condition/4fada22f-273c-4452-bca5-fae480cb5206"
      }, {
        "reference": "Coverage/1e431ba6-f1e7-4982-ab54-5c351a8c4df7"
      }, {
        "reference": "Organization/ec95565f-406f-4317-8b03-023766eb7fc2"
      } ]
    },
    "request": {
      "method": "PUT",
      "url": "MeasureReport/033c5fc6-f54e-4b9a-b664-55b4a52d8840"
    }
  } ]
}