{"resourceType":"Bundle","id":"tests-40e0c576-25c4-41fc-854a-116db99f1a65-bundle","type":"transaction","entry":[{"fullUrl":"Patient/40e0c576-25c4-41fc-854a-116db99f1a65","resource":{"resourceType":"Patient","id":"40e0c576-25c4-41fc-854a-116db99f1a65","meta":{"profile":["http://hl7.org/fhir/us/qicore/StructureDefinition/qicore-patient"]},"extension":[{"url":"http://hl7.org/fhir/us/core/StructureDefinition/us-core-race","extension":[{"url":"ombCategory","valueCoding":{"system":"urn:oid:2.16.840.1.113883.6.238","code":"2106-3","display":"White","userSelected":true}},{"url":"text","valueString":"White"}]},{"url":"http://hl7.org/fhir/us/core/StructureDefinition/us-core-ethnicity","extension":[{"url":"ombCategory","valueCoding":{"system":"urn:oid:2.16.840.1.113883.6.238","code":"2135-2","display":"Hispanic or Latino","userSelected":true}},{"url":"text","valueString":"Hispanic or Latino"}]}],"identifier":[{"type":{"coding":[{"system":"http://terminology.hl7.org/CodeSystem/v2-0203","code":"MR"}]},"system":"https://bonnie-fhir.healthit.gov/","value":"64136dac4b11b147841ab8be"}],"name":[{"family":"DENEXPass","given":["OrderPalliativeHospCare"]}],"gender":"male","birthDate":"1953-10-21"},"request":{"method":"PUT","url":"Patient/40e0c576-25c4-41fc-854a-116db99f1a65"}},{"fullUrl":"Condition/diabetes-b8bf","resource":{"resourceType":"Condition","id":"diabetes-b8bf","meta":{"profile":["http://hl7.org/fhir/us/qicore/StructureDefinition/qicore-condition"]},"clinicalStatus":{"coding":[{"system":"http://terminology.hl7.org/CodeSystem/condition-clinical","code":"active","display":"active","userSelected":true}]},"category":[{"coding":[{"system":"http://terminology.hl7.org/CodeSystem/condition-category","code":"encounter-diagnosis","display":"Encounter Diagnosis","userSelected":true}]}],"code":{"coding":[{"system":"http://snomed.info/sct","version":"2021-09","code":"102781000119107","display":"Sensory neuropathy due to type 1 diabetes mellitus (disorder)","userSelected":true}]},"subject":{"reference":"Patient/40e0c576-25c4-41fc-854a-116db99f1a65"},"onsetDateTime":"2023-03-03T08:00:00.000+00:00"},"request":{"method":"PUT","url":"Condition/diabetes-b8bf"}},{"fullUrl":"Encounter/office-visit-b8c0","resource":{"resourceType":"Encounter","id":"office-visit-b8c0","meta":{"profile":["http://hl7.org/fhir/us/qicore/StructureDefinition/qicore-encounter"]},"status":"finished","class":{"system":"http://terminology.hl7.org/CodeSystem/v3-ActCode","code":"AMB","display":"ambulatory","userSelected":true},"type":[{"coding":[{"system":"http://snomed.info/sct","version":"2021-09","code":"185463005","display":"Visit out of hours (procedure)","userSelected":true}]}],"subject":{"reference":"Patient/40e0c576-25c4-41fc-854a-116db99f1a65"},"period":{"start":"2025-02-15T08:00:00.000+00:00","end":"2025-02-15T08:15:00.000+00:00"}},"request":{"method":"PUT","url":"Encounter/office-visit-b8c0"}},{"fullUrl":"Observation/estimated-glomerular-filtration-rate-b8c1","resource":{"resourceType":"Observation","id":"estimated-glomerular-filtration-rate-b8c1","meta":{"profile":["http://hl7.org/fhir/us/qicore/StructureDefinition/qicore-observation"]},"status":"final","category":[{"coding":[{"system":"http://terminology.hl7.org/CodeSystem/observation-category","code":"laboratory","display":"Laboratory","userSelected":true}]}],"code":{"coding":[{"system":"http://loinc.org","version":"2.71","code":"48642-3","display":"Glomerular filtration rate/1.73 sq M.predicted among non-blacks [Volume Rate/Area] in Serum, Plasma or Blood by Creatinine-based formula (MDRD)","userSelected":true}]},"subject":{"reference":"Patient/40e0c576-25c4-41fc-854a-116db99f1a65"},"issued":"2025-02-15T08:00:00.000+00:00"},"request":{"method":"PUT","url":"Observation/estimated-glomerular-filtration-rate-b8c1"}},{"fullUrl":"Observation/urine-albumin-creatinine-ratio-b8c2","resource":{"resourceType":"Observation","id":"urine-albumin-creatinine-ratio-b8c2","meta":{"profile":["http://hl7.org/fhir/us/qicore/StructureDefinition/qicore-observation"]},"status":"final","category":[{"coding":[{"system":"http://terminology.hl7.org/CodeSystem/observation-category","code":"laboratory","display":"Laboratory","userSelected":true}]}],"code":{"coding":[{"system":"http://loinc.org","version":"2.71","code":"13705-9","display":"Albumin/Creatinine [Mass Ratio] in 24 hour Urine","userSelected":true}]},"subject":{"reference":"Patient/40e0c576-25c4-41fc-854a-116db99f1a65"},"issued":"2025-02-15T08:00:00.000+00:00"},"request":{"method":"PUT","url":"Observation/urine-albumin-creatinine-ratio-b8c2"}},{"fullUrl":"Condition/chronic-kidney-disease-stage-5-b8c3","resource":{"resourceType":"Condition","id":"chronic-kidney-disease-stage-5-b8c3","meta":{"profile":["http://hl7.org/fhir/us/qicore/StructureDefinition/qicore-condition"]},"clinicalStatus":{"coding":[{"system":"http://terminology.hl7.org/CodeSystem/condition-clinical","code":"active","display":"active","userSelected":true}]},"category":[{"coding":[{"system":"http://terminology.hl7.org/CodeSystem/condition-category","code":"encounter-diagnosis","display":"Encounter Diagnosis","userSelected":true}]}],"code":{"coding":[{"system":"http://snomed.info/sct","version":"2021-09","code":"433146000","display":"Chronic kidney disease stage 5 (disorder)","userSelected":true}]},"subject":{"reference":"Patient/40e0c576-25c4-41fc-854a-116db99f1a65"},"onsetDateTime":"2025-03-06T08:00:00.000+00:00"},"request":{"method":"PUT","url":"Condition/chronic-kidney-disease-stage-5-b8c3"}},{"fullUrl":"Procedure/palliative-care-intervention-b8c4","resource":{"resourceType":"Procedure","id":"palliative-care-intervention-b8c4","meta":{"profile":["http://hl7.org/fhir/us/qicore/StructureDefinition/qicore-procedure"]},"extension":[{"url":"http://hl7.org/fhir/us/qicore/StructureDefinition/qicore-recorded","valueDateTime":"2023-03-01T08:00:00.000+00:00"}],"status":"completed","category":{"coding":[{"system":"http://snomed.info/sct","code":"103693007","display":"Diagnostic procedure","userSelected":true}]},"code":{"coding":[{"system":"http://snomed.info/sct","version":"2021-09","code":"103735009","display":"Palliative care (regime/therapy)","userSelected":true}]},"subject":{"reference":"Patient/40e0c576-25c4-41fc-854a-116db99f1a65"},"performedDateTime":"2025-03-01T08:00:00.000+00:00"},"request":{"method":"PUT","url":"Procedure/palliative-care-intervention-b8c4"}},{"fullUrl":"Procedure/hospice-care-ambulatory-b8c5","resource":{"resourceType":"Procedure","id":"hospice-care-ambulatory-b8c5","meta":{"profile":["http://hl7.org/fhir/us/qicore/StructureDefinition/qicore-procedure"]},"extension":[{"url":"http://hl7.org/fhir/us/qicore/StructureDefinition/qicore-recorded","valueDateTime":"2025-03-01T08:00:00.000+00:00"}],"status":"completed","category":{"coding":[{"system":"http://snomed.info/sct","code":"103693007","display":"Diagnostic procedure","userSelected":true}]},"code":{"coding":[{"system":"http://snomed.info/sct","version":"2021-09","code":"170935008","display":"Full care by hospice (finding)","userSelected":true}]},"subject":{"reference":"Patient/40e0c576-25c4-41fc-854a-116db99f1a65"},"performedDateTime":"2025-03-10T08:00:00.000+00:00"},"request":{"method":"PUT","url":"Procedure/hospice-care-ambulatory-b8c5"}},{"fullUrl":"MeasureReport/c3485aa9-5fed-475d-9d44-e029066f5ac7","resource":{"resourceType":"MeasureReport","id":"c3485aa9-5fed-475d-9d44-e029066f5ac7","meta":{"profile":["http://hl7.org/fhir/us/cqfmeasures/StructureDefinition/test-case-cqfm"]},"contained":[{"resourceType":"Parameters","id":"8adf4f40-afcd-4df2-b709-061ac5456a10-parameters","parameter":[{"name":"subject","valueString":"40e0c576-25c4-41fc-854a-116db99f1a65"}]}],"extension":[{"url":"http://hl7.org/fhir/us/cqfmeasures/StructureDefinition/cqfm-inputParameters","valueReference":{"reference":"#8adf4f40-afcd-4df2-b709-061ac5456a10-parameters"}},{"url":"http://hl7.org/fhir/us/cqfmeasures/StructureDefinition/cqfm-testCaseDescription","valueMarkdown":"This patient is 70 years old with a qualifying encounter and active diabetes diagnosis, two qualifying lab tests, as well as an order for palliative or hospice care. This case tests the denominator exclusion criteria."}],"modifierExtension":[{"url":"http://hl7.org/fhir/us/cqfmeasures/StructureDefinition/cqfm-isTestCase","valueBoolean":true}],"status":"complete","type":"individual","measure":"Measure/KidneyHealthEvaluationFHIR","period":{"start":"2025-01-01","end":"2025-12-31"},"group":[{"population":[{"code":{"coding":[{"system":"http://terminology.hl7.org/CodeSystem/measure-population","code":"initial-population","display":"Initial Population"}]},"count":1},{"code":{"coding":[{"system":"http://terminology.hl7.org/CodeSystem/measure-population","code":"denominator","display":"Denominator"}]},"count":1},{"code":{"coding":[{"system":"http://terminology.hl7.org/CodeSystem/measure-population","code":"denominator-exclusion","display":"Denominator Exclusion"}]},"count":1},{"code":{"coding":[{"system":"http://terminology.hl7.org/CodeSystem/measure-population","code":"numerator","display":"Numerator"}]},"count":0}]}],"evaluatedResource":[{"reference":"Patient/40e0c576-25c4-41fc-854a-116db99f1a65"},{"reference":"Condition/diabetes-b8bf"},{"reference":"Encounter/office-visit-b8c0"},{"reference":"Observation/estimated-glomerular-filtration-rate-b8c1"},{"reference":"Observation/urine-albumin-creatinine-ratio-b8c2"},{"reference":"Condition/chronic-kidney-disease-stage-5-b8c3"},{"reference":"Procedure/palliative-care-intervention-b8c4"},{"reference":"Procedure/hospice-care-ambulatory-b8c5"}]},"request":{"method":"PUT","url":"MeasureReport/c3485aa9-5fed-475d-9d44-e029066f5ac7"}}]}