{"resourceType":"Bundle","id":"tests-ff43a29d-e740-44ba-9452-63d1ba2b0709-bundle","type":"transaction","entry":[{"fullUrl":"https://madie.cms.gov/Patient/ff43a29d-e740-44ba-9452-63d1ba2b0709","resource":{"resourceType":"Patient","id":"ff43a29d-e740-44ba-9452-63d1ba2b0709","meta":{"profile":["http://hl7.org/fhir/us/qicore/StructureDefinition/qicore-patient"]},"extension":[{"url":"http://hl7.org/fhir/us/core/StructureDefinition/us-core-race","extension":[{"url":"ombCategory","valueCoding":{"system":"urn:oid:2.16.840.1.113883.6.238","code":"2106-3","display":"White","userSelected":true}},{"url":"text","valueString":"White"}]},{"url":"http://hl7.org/fhir/us/core/StructureDefinition/us-core-ethnicity","extension":[{"url":"ombCategory","valueCoding":{"system":"urn:oid:2.16.840.1.113883.6.238","code":"2186-5","display":"Not Hispanic or Latino","userSelected":true}},{"url":"text","valueString":"Not Hispanic or Latino"}]}],"identifier":[{"type":{"coding":[{"system":"http://terminology.hl7.org/CodeSystem/v2-0203","code":"MR"}]},"system":"https://bonnie-fhir.healthit.gov/","value":"62fa5823f4a8c3cd9f4553a0"}],"name":[{"family":"DenExPass","given":["EndStageRenalHospice"]}],"gender":"male","birthDate":"1989-12-01"},"request":{"method":"PUT","url":"Patient/ff43a29d-e740-44ba-9452-63d1ba2b0709"}},{"fullUrl":"https://madie.cms.gov/Condition/diabetes-e2ba","resource":{"resourceType":"Condition","id":"c6453f08-c10f-45b2-b28f-d5689f529880","meta":{"profile":["http://hl7.org/fhir/us/qicore/StructureDefinition/qicore-condition"]},"clinicalStatus":{"coding":[{"system":"http://terminology.hl7.org/CodeSystem/condition-clinical","code":"active","display":"Active","userSelected":true}]},"category":[{"coding":[{"system":"http://terminology.hl7.org/CodeSystem/condition-category","code":"problem-list-item","display":"Problem List Item","userSelected":true}]}],"code":{"coding":[{"system":"http://snomed.info/sct","version":"2021-09","code":"102781000119107","display":"Sensory neuropathy due to type 1 diabetes mellitus (disorder)","userSelected":true}]},"subject":{"reference":"Patient/ff43a29d-e740-44ba-9452-63d1ba2b0709"},"onsetDateTime":"2025-08-15T08:00:00.000+00:00"},"request":{"method":"PUT","url":"Condition/c6453f08-c10f-45b2-b28f-d5689f529880"}},{"fullUrl":"https://madie.cms.gov/Encounter/office-visit-e2bb","resource":{"resourceType":"Encounter","id":"3c5af16e-2e20-4047-a5dd-e90063310b5d","meta":{"profile":["http://hl7.org/fhir/us/qicore/StructureDefinition/qicore-encounter"]},"status":"finished","class":{"system":"http://terminology.hl7.org/CodeSystem/v3-ActCode","code":"AMB","display":"ambulatory","userSelected":true},"type":[{"coding":[{"system":"http://snomed.info/sct","version":"2021-09","code":"185463005","display":"Visit out of hours (procedure)","userSelected":true}]}],"subject":{"reference":"Patient/ff43a29d-e740-44ba-9452-63d1ba2b0709"},"period":{"start":"2025-08-15T08:00:00.000+00:00","end":"2025-08-15T08:15:00.000+00:00"}},"request":{"method":"PUT","url":"Encounter/3c5af16e-2e20-4047-a5dd-e90063310b5d"}},{"fullUrl":"https://madie.cms.gov/Observation/estimated-glomerular-filtration-rate-5397","resource":{"resourceType":"Observation","id":"7d025b19-82db-48da-b589-d3a5e1d84fad","meta":{"profile":["http://hl7.org/fhir/us/qicore/StructureDefinition/qicore-observation"]},"status":"final","category":[{"coding":[{"system":"http://terminology.hl7.org/CodeSystem/observation-category","code":"laboratory","display":"Laboratory","userSelected":true}]}],"code":{"coding":[{"system":"http://loinc.org","version":"2.71","code":"48642-3","display":"Glomerular filtration rate/1.73 sq M.predicted among non-blacks [Volume Rate/Area] in Serum, Plasma or Blood by Creatinine-based formula (MDRD)","userSelected":true}]},"subject":{"reference":"Patient/ff43a29d-e740-44ba-9452-63d1ba2b0709"},"effectiveDateTime":"2025-08-15T08:00:00.000+00:00","valueBoolean":true},"request":{"method":"PUT","url":"Observation/7d025b19-82db-48da-b589-d3a5e1d84fad"}},{"fullUrl":"https://madie.cms.gov/Observation/urine-albumin-creatinine-ratio-5398","resource":{"resourceType":"Observation","id":"fe7be2ce-40e8-4063-aeb6-4d4ad1b1fd08","meta":{"profile":["http://hl7.org/fhir/us/qicore/StructureDefinition/qicore-observation"]},"status":"amended","category":[{"coding":[{"system":"http://terminology.hl7.org/CodeSystem/observation-category","code":"laboratory","display":"Laboratory","userSelected":true}]}],"code":{"coding":[{"system":"http://loinc.org","version":"2.71","code":"13705-9","display":"Albumin/Creatinine [Mass Ratio] in 24 hour Urine","userSelected":true}]},"subject":{"reference":"Patient/ff43a29d-e740-44ba-9452-63d1ba2b0709"},"effectiveDateTime":"2025-08-15T08:00:00.000+00:00","valueBoolean":true},"request":{"method":"PUT","url":"Observation/fe7be2ce-40e8-4063-aeb6-4d4ad1b1fd08"}},{"fullUrl":"https://madie.cms.gov/Condition/end-stage-renal-disease-539d","resource":{"resourceType":"Condition","id":"51d4c913-e729-4c1b-b63e-651128a31604","meta":{"profile":["http://hl7.org/fhir/us/qicore/StructureDefinition/qicore-condition"]},"clinicalStatus":{"coding":[{"system":"http://terminology.hl7.org/CodeSystem/condition-clinical","code":"active","display":"Active","userSelected":true}]},"category":[{"coding":[{"system":"http://terminology.hl7.org/CodeSystem/condition-category","code":"encounter-diagnosis","display":"Encounter Diagnosis","userSelected":true}]}],"code":{"coding":[{"system":"http://snomed.info/sct","version":"2021-09","code":"236434000","display":"End stage renal failure untreated by renal replacement therapy (disorder)","userSelected":true}]},"subject":{"reference":"Patient/ff43a29d-e740-44ba-9452-63d1ba2b0709"},"onsetDateTime":"2025-08-15T08:00:00.000+00:00","recordedDate":"2025-08-15T08:00:00.000+00:00"},"request":{"method":"PUT","url":"Condition/51d4c913-e729-4c1b-b63e-651128a31604"}},{"fullUrl":"https://madie.cms.gov/Encounter/annual-wellness-visit-53a1","resource":{"resourceType":"Encounter","id":"3641ea37-414a-463c-8bf2-52e2466058b0","meta":{"profile":["http://hl7.org/fhir/us/qicore/StructureDefinition/qicore-encounter"]},"status":"finished","class":{"system":"http://terminology.hl7.org/CodeSystem/v3-ActCode","code":"AMB","display":"ambulatory","userSelected":true},"type":[{"coding":[{"system":"http://snomed.info/sct","version":"2021-09","code":"444971000124105","display":"Annual wellness visit (procedure)","userSelected":true}]}],"subject":{"reference":"Patient/ff43a29d-e740-44ba-9452-63d1ba2b0709"},"period":{"start":"2025-08-15T08:00:00.000+00:00","end":"2025-08-15T08:15:00.000+00:00"}},"request":{"method":"PUT","url":"Encounter/3641ea37-414a-463c-8bf2-52e2466058b0"}},{"fullUrl":"https://madie.cms.gov/Encounter/outpatient-consultation-53a2","resource":{"resourceType":"Encounter","id":"dad78727-73cf-4060-9c68-0cdc3aaf7928","meta":{"profile":["http://hl7.org/fhir/us/qicore/StructureDefinition/qicore-encounter"]},"status":"finished","class":{"system":"http://terminology.hl7.org/CodeSystem/v3-ActCode","code":"AMB","display":"ambulatory","userSelected":true},"type":[{"coding":[{"system":"http://snomed.info/sct","version":"2021-09","code":"281036007","display":"Follow-up consultation (procedure)","userSelected":true}]}],"subject":{"reference":"Patient/ff43a29d-e740-44ba-9452-63d1ba2b0709"},"period":{"end":"2025-08-15T08:15:00.000+00:00"}},"request":{"method":"PUT","url":"Encounter/dad78727-73cf-4060-9c68-0cdc3aaf7928"}},{"fullUrl":"https://madie.cms.gov/Encounter/hospice-encounter-53a3","resource":{"resourceType":"Encounter","id":"069df4b6-e8b5-4734-9919-e40c85d89e4b","meta":{"profile":["http://hl7.org/fhir/us/qicore/StructureDefinition/qicore-encounter"]},"status":"finished","class":{"system":"http://terminology.hl7.org/CodeSystem/v3-ActCode","code":"AMB","display":"ambulatory","userSelected":true},"type":[{"coding":[{"system":"http://snomed.info/sct","version":"2021-09","code":"183919006","display":"Urgent admission to hospice (procedure)","userSelected":true}]}],"subject":{"reference":"Patient/ff43a29d-e740-44ba-9452-63d1ba2b0709"},"period":{"start":"2025-08-15T08:00:00.000+00:00","end":"2025-08-15T08:15:00.000+00:00"}},"request":{"method":"PUT","url":"Encounter/069df4b6-e8b5-4734-9919-e40c85d89e4b"}},{"fullUrl":"https://madie.cms.gov/MeasureReport/2fe3958f-56e2-499d-a144-e721b4c1ed22","resource":{"resourceType":"MeasureReport","id":"2fe3958f-56e2-499d-a144-e721b4c1ed22","meta":{"profile":["http://hl7.org/fhir/us/cqfmeasures/StructureDefinition/test-case-cqfm"]},"contained":[{"resourceType":"Parameters","id":"c08dbc0c-0cac-4ca9-b35f-3f786db4782f-parameters","parameter":[{"name":"subject","valueString":"ff43a29d-e740-44ba-9452-63d1ba2b0709"}]}],"extension":[{"url":"http://hl7.org/fhir/us/cqfmeasures/StructureDefinition/cqfm-inputParameters","valueReference":{"reference":"#c08dbc0c-0cac-4ca9-b35f-3f786db4782f-parameters"}},{"url":"http://hl7.org/fhir/us/cqfmeasures/StructureDefinition/cqfm-testCaseDescription","valueMarkdown":"This patient has diabetes and a kidney health evaluation with both labs, plus end stage renal disease and a hospice encounter. This case tests the denominator exclusions."}],"modifierExtension":[{"url":"http://hl7.org/fhir/us/cqfmeasures/StructureDefinition/cqfm-isTestCase","valueBoolean":true}],"status":"complete","type":"individual","measure":"https://madie.cms.gov/Measure/KidneyHealthEvaluationFHIR","period":{"start":"2025-01-01","end":"2025-12-31"},"group":[{"population":[{"code":{"coding":[{"system":"http://terminology.hl7.org/CodeSystem/measure-population","code":"initial-population","display":"Initial Population"}]},"count":1},{"code":{"coding":[{"system":"http://terminology.hl7.org/CodeSystem/measure-population","code":"denominator","display":"Denominator"}]},"count":1},{"code":{"coding":[{"system":"http://terminology.hl7.org/CodeSystem/measure-population","code":"denominator-exclusion","display":"Denominator Exclusion"}]},"count":1},{"code":{"coding":[{"system":"http://terminology.hl7.org/CodeSystem/measure-population","code":"numerator","display":"Numerator"}]},"count":0}]}]},"request":{"method":"PUT","url":"MeasureReport/2fe3958f-56e2-499d-a144-e721b4c1ed22"}}]}