{"resourceType":"Bundle","id":"tests-3f860c8e-e5fc-4843-ac4e-acb8e63471f3-bundle","type":"transaction","entry":[{"fullUrl":"Patient/3f860c8e-e5fc-4843-ac4e-acb8e63471f3","resource":{"resourceType":"Patient","id":"3f860c8e-e5fc-4843-ac4e-acb8e63471f3","meta":{"profile":["http://hl7.org/fhir/us/qicore/StructureDefinition/qicore-patient"]},"extension":[{"url":"http://hl7.org/fhir/us/core/StructureDefinition/us-core-race","extension":[{"url":"ombCategory","valueCoding":{"system":"urn:oid:2.16.840.1.113883.6.238","code":"2054-5","display":"Black or African American","userSelected":true}},{"url":"text","valueString":"Black or African American"}]},{"url":"http://hl7.org/fhir/us/core/StructureDefinition/us-core-ethnicity","extension":[{"url":"ombCategory","valueCoding":{"system":"urn:oid:2.16.840.1.113883.6.238","code":"2186-5","display":"Not Hispanic or Latino","userSelected":true}},{"url":"text","valueString":"Not Hispanic or Latino"}]}],"identifier":[{"type":{"coding":[{"system":"http://terminology.hl7.org/CodeSystem/v2-0203","code":"MR"}]},"system":"https://bonnie-fhir.healthit.gov/","value":"641366f24b11b147841ab8a0"}],"name":[{"family":"DENEXPass","given":["DischargeFacilityHosp"]}],"gender":"male","birthDate":"1958-08-22"},"request":{"method":"PUT","url":"Patient/3f860c8e-e5fc-4843-ac4e-acb8e63471f3"}},{"fullUrl":"Condition/diabetes-b898","resource":{"resourceType":"Condition","id":"diabetes-b898","meta":{"profile":["http://hl7.org/fhir/us/qicore/StructureDefinition/qicore-condition"]},"clinicalStatus":{"coding":[{"system":"http://terminology.hl7.org/CodeSystem/condition-clinical","code":"active","display":"active","userSelected":true}]},"category":[{"coding":[{"system":"http://terminology.hl7.org/CodeSystem/condition-category","code":"encounter-diagnosis","display":"Encounter Diagnosis","userSelected":true}]}],"code":{"coding":[{"system":"http://snomed.info/sct","version":"2021-09","code":"102781000119107","display":"Sensory neuropathy due to type 1 diabetes mellitus (disorder)","userSelected":true}]},"subject":{"reference":"Patient/3f860c8e-e5fc-4843-ac4e-acb8e63471f3"},"onsetDateTime":"2025-03-01T08:00:00.000+00:00"},"request":{"method":"PUT","url":"Condition/diabetes-b898"}},{"fullUrl":"Encounter/encounter-inpatient-b899","resource":{"resourceType":"Encounter","id":"encounter-inpatient-b899","meta":{"profile":["http://hl7.org/fhir/us/qicore/StructureDefinition/qicore-encounter"]},"status":"finished","class":{"system":"http://terminology.hl7.org/CodeSystem/v3-ActCode","code":"AMB","display":"ambulatory","userSelected":true},"type":[{"coding":[{"system":"http://snomed.info/sct","version":"2021-09","code":"183452005","display":"Emergency hospital admission (procedure)","userSelected":true}]}],"subject":{"reference":"Patient/3f860c8e-e5fc-4843-ac4e-acb8e63471f3"},"period":{"start":"2025-01-13T08:00:00.000+00:00","end":"2025-01-13T08:15:00.000+00:00"},"hospitalization":{"dischargeDisposition":{"coding":[{"system":"http://snomed.info/sct","code":"428371000124100","display":"Discharge to healthcare facility for hospice care (procedure)","userSelected":true}]}}},"request":{"method":"PUT","url":"Encounter/encounter-inpatient-b899"}},{"fullUrl":"Encounter/annual-wellness-visit-b89a","resource":{"resourceType":"Encounter","id":"annual-wellness-visit-b89a","meta":{"profile":["http://hl7.org/fhir/us/qicore/StructureDefinition/qicore-encounter"]},"status":"finished","class":{"system":"http://terminology.hl7.org/CodeSystem/v3-ActCode","code":"AMB","display":"ambulatory","userSelected":true},"type":[{"coding":[{"system":"http://snomed.info/sct","version":"2021-09","code":"444971000124105","display":"Annual wellness visit (procedure)","userSelected":true}]}],"subject":{"reference":"Patient/3f860c8e-e5fc-4843-ac4e-acb8e63471f3"},"period":{"start":"2025-03-06T08:00:00.000+00:00","end":"2025-03-06T08:15:00.000+00:00"}},"request":{"method":"PUT","url":"Encounter/annual-wellness-visit-b89a"}},{"fullUrl":"MeasureReport/2f3dd2f2-c31b-44c4-9624-33dc246ed1a8","resource":{"resourceType":"MeasureReport","id":"2f3dd2f2-c31b-44c4-9624-33dc246ed1a8","meta":{"profile":["http://hl7.org/fhir/us/cqfmeasures/StructureDefinition/test-case-cqfm"]},"contained":[{"resourceType":"Parameters","id":"404c4bce-e963-4e28-96c5-74b6edcf629a-parameters","parameter":[{"name":"subject","valueString":"3f860c8e-e5fc-4843-ac4e-acb8e63471f3"}]}],"extension":[{"url":"http://hl7.org/fhir/us/cqfmeasures/StructureDefinition/cqfm-inputParameters","valueReference":{"reference":"#404c4bce-e963-4e28-96c5-74b6edcf629a-parameters"}},{"url":"http://hl7.org/fhir/us/cqfmeasures/StructureDefinition/cqfm-testCaseDescription","valueMarkdown":"This patient is 65 years old with a qualifying encounter and active diabetes diagnosis, with a discharge to a healthcare facility for hospice care. This case tests the denominator exclusion criteria."}],"modifierExtension":[{"url":"http://hl7.org/fhir/us/cqfmeasures/StructureDefinition/cqfm-isTestCase","valueBoolean":true}],"status":"complete","type":"individual","measure":"Measure/KidneyHealthEvaluationFHIR","period":{"start":"2025-01-01","end":"2025-12-31"},"group":[{"population":[{"code":{"coding":[{"system":"http://terminology.hl7.org/CodeSystem/measure-population","code":"initial-population","display":"Initial Population"}]},"count":1},{"code":{"coding":[{"system":"http://terminology.hl7.org/CodeSystem/measure-population","code":"denominator","display":"Denominator"}]},"count":1},{"code":{"coding":[{"system":"http://terminology.hl7.org/CodeSystem/measure-population","code":"denominator-exclusion","display":"Denominator Exclusion"}]},"count":1},{"code":{"coding":[{"system":"http://terminology.hl7.org/CodeSystem/measure-population","code":"numerator","display":"Numerator"}]},"count":0}]}],"evaluatedResource":[{"reference":"Patient/3f860c8e-e5fc-4843-ac4e-acb8e63471f3"},{"reference":"Condition/diabetes-b898"},{"reference":"Encounter/encounter-inpatient-b899"},{"reference":"Encounter/annual-wellness-visit-b89a"}]},"request":{"method":"PUT","url":"MeasureReport/2f3dd2f2-c31b-44c4-9624-33dc246ed1a8"}}]}