{"resourceType":"Bundle","id":"tests-40e0c576-25c4-41fc-854a-116db99f1a65-bundle","type":"transaction","entry":[{"fullUrl":"https://madie.cms.gov/Patient/40e0c576-25c4-41fc-854a-116db99f1a65","resource":{"resourceType":"Patient","id":"40e0c576-25c4-41fc-854a-116db99f1a65","meta":{"profile":["http://hl7.org/fhir/us/qicore/StructureDefinition/qicore-patient"]},"extension":[{"url":"http://hl7.org/fhir/us/core/StructureDefinition/us-core-race","extension":[{"url":"ombCategory","valueCoding":{"system":"urn:oid:2.16.840.1.113883.6.238","code":"2106-3","display":"White","userSelected":true}},{"url":"text","valueString":"White"}]},{"url":"http://hl7.org/fhir/us/core/StructureDefinition/us-core-ethnicity","extension":[{"url":"ombCategory","valueCoding":{"system":"urn:oid:2.16.840.1.113883.6.238","code":"2135-2","display":"Hispanic or Latino","userSelected":true}},{"url":"text","valueString":"Hispanic or Latino"}]}],"identifier":[{"type":{"coding":[{"system":"http://terminology.hl7.org/CodeSystem/v2-0203","code":"MR"}]},"system":"https://bonnie-fhir.healthit.gov/","value":"64136dac4b11b147841ab8be"}],"name":[{"family":"DENEXPass","given":["OrderPalliativeHospCare"]}],"gender":"male","birthDate":"1953-10-21"},"request":{"method":"PUT","url":"Patient/40e0c576-25c4-41fc-854a-116db99f1a65"}},{"fullUrl":"https://madie.cms.gov/Condition/diabetes-b8bf","resource":{"resourceType":"Condition","id":"81b3db78-f869-41ce-9ae5-ae4cf4a82939","meta":{"profile":["http://hl7.org/fhir/us/qicore/StructureDefinition/qicore-condition"]},"clinicalStatus":{"coding":[{"system":"http://terminology.hl7.org/CodeSystem/condition-clinical","code":"active","display":"active","userSelected":true}]},"category":[{"coding":[{"system":"http://terminology.hl7.org/CodeSystem/condition-category","code":"encounter-diagnosis","display":"Encounter Diagnosis","userSelected":true}]}],"code":{"coding":[{"system":"http://snomed.info/sct","version":"2021-09","code":"102781000119107","display":"Sensory neuropathy due to type 1 diabetes mellitus (disorder)","userSelected":true}]},"subject":{"reference":"Patient/40e0c576-25c4-41fc-854a-116db99f1a65"},"onsetDateTime":"2023-03-03T08:00:00.000+00:00"},"request":{"method":"PUT","url":"Condition/81b3db78-f869-41ce-9ae5-ae4cf4a82939"}},{"fullUrl":"https://madie.cms.gov/Encounter/office-visit-b8c0","resource":{"resourceType":"Encounter","id":"b3ecbcbe-3c3a-483a-bcc7-e53d1cd4857b","meta":{"profile":["http://hl7.org/fhir/us/qicore/StructureDefinition/qicore-encounter"]},"status":"finished","class":{"system":"http://terminology.hl7.org/CodeSystem/v3-ActCode","code":"AMB","display":"ambulatory","userSelected":true},"type":[{"coding":[{"system":"http://snomed.info/sct","version":"2021-09","code":"185463005","display":"Visit out of hours (procedure)","userSelected":true}]}],"subject":{"reference":"Patient/40e0c576-25c4-41fc-854a-116db99f1a65"},"period":{"start":"2025-02-15T08:00:00.000+00:00","end":"2025-02-15T08:15:00.000+00:00"}},"request":{"method":"PUT","url":"Encounter/b3ecbcbe-3c3a-483a-bcc7-e53d1cd4857b"}},{"fullUrl":"https://madie.cms.gov/Observation/estimated-glomerular-filtration-rate-b8c1","resource":{"resourceType":"Observation","id":"14f5fa33-b05f-414b-85fb-cba48482ec18","meta":{"profile":["http://hl7.org/fhir/us/qicore/StructureDefinition/qicore-observation"]},"status":"final","category":[{"coding":[{"system":"http://terminology.hl7.org/CodeSystem/observation-category","code":"laboratory","display":"Laboratory","userSelected":true}]}],"code":{"coding":[{"system":"http://loinc.org","version":"2.71","code":"48642-3","display":"Glomerular filtration rate/1.73 sq M.predicted among non-blacks [Volume Rate/Area] in Serum, Plasma or Blood by Creatinine-based formula (MDRD)","userSelected":true}]},"subject":{"reference":"Patient/40e0c576-25c4-41fc-854a-116db99f1a65"},"issued":"2025-02-15T08:00:00.000+00:00"},"request":{"method":"PUT","url":"Observation/14f5fa33-b05f-414b-85fb-cba48482ec18"}},{"fullUrl":"https://madie.cms.gov/Observation/urine-albumin-creatinine-ratio-b8c2","resource":{"resourceType":"Observation","id":"40bb3de7-7af6-4bca-b155-518e6dc66fc2","meta":{"profile":["http://hl7.org/fhir/us/qicore/StructureDefinition/qicore-observation"]},"status":"final","category":[{"coding":[{"system":"http://terminology.hl7.org/CodeSystem/observation-category","code":"laboratory","display":"Laboratory","userSelected":true}]}],"code":{"coding":[{"system":"http://loinc.org","version":"2.71","code":"13705-9","display":"Albumin/Creatinine [Mass Ratio] in 24 hour Urine","userSelected":true}]},"subject":{"reference":"Patient/40e0c576-25c4-41fc-854a-116db99f1a65"},"issued":"2025-02-15T08:00:00.000+00:00"},"request":{"method":"PUT","url":"Observation/40bb3de7-7af6-4bca-b155-518e6dc66fc2"}},{"fullUrl":"https://madie.cms.gov/Condition/chronic-kidney-disease-stage-5-b8c3","resource":{"resourceType":"Condition","id":"e580685c-324c-4029-9e3b-02a498ff35eb","meta":{"profile":["http://hl7.org/fhir/us/qicore/StructureDefinition/qicore-condition"]},"clinicalStatus":{"coding":[{"system":"http://terminology.hl7.org/CodeSystem/condition-clinical","code":"active","display":"active","userSelected":true}]},"category":[{"coding":[{"system":"http://terminology.hl7.org/CodeSystem/condition-category","code":"encounter-diagnosis","display":"Encounter Diagnosis","userSelected":true}]}],"code":{"coding":[{"system":"http://snomed.info/sct","version":"2021-09","code":"433146000","display":"Chronic kidney disease stage 5 (disorder)","userSelected":true}]},"subject":{"reference":"Patient/40e0c576-25c4-41fc-854a-116db99f1a65"},"onsetDateTime":"2025-03-06T08:00:00.000+00:00"},"request":{"method":"PUT","url":"Condition/e580685c-324c-4029-9e3b-02a498ff35eb"}},{"fullUrl":"https://madie.cms.gov/Procedure/palliative-care-intervention-b8c4","resource":{"resourceType":"Procedure","id":"86252dbc-bb11-4e5e-84cc-a0c2303b2fe6","meta":{"profile":["http://hl7.org/fhir/us/qicore/StructureDefinition/qicore-procedure"]},"extension":[{"url":"http://hl7.org/fhir/us/qicore/StructureDefinition/qicore-recorded","valueDateTime":"2023-03-01T08:00:00.000+00:00"}],"status":"completed","category":{"coding":[{"system":"http://snomed.info/sct","code":"103693007","display":"Diagnostic procedure","userSelected":true}]},"code":{"coding":[{"system":"http://snomed.info/sct","version":"2021-09","code":"103735009","display":"Palliative care (regime/therapy)","userSelected":true}]},"subject":{"reference":"Patient/40e0c576-25c4-41fc-854a-116db99f1a65"},"performedDateTime":"2025-03-01T08:00:00.000+00:00"},"request":{"method":"PUT","url":"Procedure/86252dbc-bb11-4e5e-84cc-a0c2303b2fe6"}},{"fullUrl":"https://madie.cms.gov/Procedure/hospice-care-ambulatory-b8c5","resource":{"resourceType":"Procedure","id":"dedbe6fa-51e3-4580-8162-cc81a526cf34","meta":{"profile":["http://hl7.org/fhir/us/qicore/StructureDefinition/qicore-procedure"]},"extension":[{"url":"http://hl7.org/fhir/us/qicore/StructureDefinition/qicore-recorded","valueDateTime":"2025-03-01T08:00:00.000+00:00"}],"status":"completed","category":{"coding":[{"system":"http://snomed.info/sct","code":"103693007","display":"Diagnostic procedure","userSelected":true}]},"code":{"coding":[{"system":"http://snomed.info/sct","version":"2021-09","code":"170935008","display":"Full care by hospice (finding)","userSelected":true}]},"subject":{"reference":"Patient/40e0c576-25c4-41fc-854a-116db99f1a65"},"performedDateTime":"2025-03-10T08:00:00.000+00:00"},"request":{"method":"PUT","url":"Procedure/dedbe6fa-51e3-4580-8162-cc81a526cf34"}},{"fullUrl":"https://madie.cms.gov/MeasureReport/6c503fbb-4a69-436b-889e-95cfa3dd5dd8","resource":{"resourceType":"MeasureReport","id":"6c503fbb-4a69-436b-889e-95cfa3dd5dd8","meta":{"profile":["http://hl7.org/fhir/us/cqfmeasures/StructureDefinition/test-case-cqfm"]},"contained":[{"resourceType":"Parameters","id":"7797f202-b088-4446-b558-e8a6376772b8-parameters","parameter":[{"name":"subject","valueString":"40e0c576-25c4-41fc-854a-116db99f1a65"}]}],"extension":[{"url":"http://hl7.org/fhir/us/cqfmeasures/StructureDefinition/cqfm-inputParameters","valueReference":{"reference":"#7797f202-b088-4446-b558-e8a6376772b8-parameters"}},{"url":"http://hl7.org/fhir/us/cqfmeasures/StructureDefinition/cqfm-testCaseDescription","valueMarkdown":"This patient is 70 years old with a qualifying encounter and active diabetes diagnosis, two qualifying lab tests, as well as an order for palliative or hospice care. This case tests the denominator exclusion criteria."}],"modifierExtension":[{"url":"http://hl7.org/fhir/us/cqfmeasures/StructureDefinition/cqfm-isTestCase","valueBoolean":true}],"status":"complete","type":"individual","measure":"https://madie.cms.gov/Measure/KidneyHealthEvaluationFHIR","period":{"start":"2025-01-01","end":"2025-12-31"},"group":[{"population":[{"code":{"coding":[{"system":"http://terminology.hl7.org/CodeSystem/measure-population","code":"initial-population","display":"Initial Population"}]},"count":1},{"code":{"coding":[{"system":"http://terminology.hl7.org/CodeSystem/measure-population","code":"denominator","display":"Denominator"}]},"count":1},{"code":{"coding":[{"system":"http://terminology.hl7.org/CodeSystem/measure-population","code":"denominator-exclusion","display":"Denominator Exclusion"}]},"count":1},{"code":{"coding":[{"system":"http://terminology.hl7.org/CodeSystem/measure-population","code":"numerator","display":"Numerator"}]},"count":0}]}]},"request":{"method":"PUT","url":"MeasureReport/6c503fbb-4a69-436b-889e-95cfa3dd5dd8"}}]}