{"resourceType":"Bundle","id":"tests-c5bfac21-0dbf-4cf5-bc92-d7eff1d0a6c6-bundle","type":"transaction","entry":[{"fullUrl":"https://madie.cms.gov/Patient/c5bfac21-0dbf-4cf5-bc92-d7eff1d0a6c6","resource":{"resourceType":"Patient","id":"c5bfac21-0dbf-4cf5-bc92-d7eff1d0a6c6","meta":{"profile":["http://hl7.org/fhir/us/qicore/StructureDefinition/qicore-patient"]},"extension":[{"url":"http://hl7.org/fhir/us/core/StructureDefinition/us-core-race","extension":[{"url":"ombCategory","valueCoding":{"system":"urn:oid:2.16.840.1.113883.6.238","code":"1002-5","display":"American Indian or Alaska Native","userSelected":true}},{"url":"text","valueString":"American Indian or Alaska Native"}]},{"url":"http://hl7.org/fhir/us/core/StructureDefinition/us-core-ethnicity","extension":[{"url":"ombCategory","valueCoding":{"system":"urn:oid:2.16.840.1.113883.6.238","code":"2135-2","display":"Hispanic or Latino","userSelected":true}},{"url":"text","valueString":"Hispanic or Latino"}]}],"identifier":[{"type":{"coding":[{"system":"http://terminology.hl7.org/CodeSystem/v2-0203","code":"MR"}]},"system":"https://bonnie-fhir.healthit.gov/","value":"62bc59a13e113102f8cedc61"}],"name":[{"family":"DENEXCEPPass","given":["NoDEXAOrderedDueToPatientRefusal"]}],"gender":"male","birthDate":"1960-06-14"},"request":{"method":"PUT","url":"Patient/c5bfac21-0dbf-4cf5-bc92-d7eff1d0a6c6"}},{"fullUrl":"https://madie.cms.gov/Encounter/6464641","resource":{"resourceType":"Encounter","id":"c25f40f2-3fd8-4a98-bafe-c2b79ac8c7a3","meta":{"profile":["http://hl7.org/fhir/us/qicore/StructureDefinition/qicore-encounter"]},"status":"finished","class":{"system":"http://terminology.hl7.org/CodeSystem/v3-ActCode","code":"AMB","display":"ambulatory"},"type":[{"coding":[{"system":"http://snomed.info/sct","version":"http://snomed.info/sct/731000124108/version/20240401","code":"185463005","display":"Visit out of hours (procedure)"}]}],"subject":{"reference":"Patient/c5bfac21-0dbf-4cf5-bc92-d7eff1d0a6c6"},"period":{"start":"2025-06-25T08:00:00.000+00:00","end":"2025-06-25T08:15:00.000+00:00"}},"request":{"method":"PUT","url":"Encounter/c25f40f2-3fd8-4a98-bafe-c2b79ac8c7a3"}},{"fullUrl":"https://madie.cms.gov/Condition/63464131","resource":{"resourceType":"Condition","id":"f048807a-d13c-469d-aec2-87506a3ac7da","meta":{"profile":["http://hl7.org/fhir/us/qicore/StructureDefinition/qicore-condition"]},"clinicalStatus":{"coding":[{"system":"http://terminology.hl7.org/CodeSystem/condition-clinical","code":"active","display":"Active"}]},"verificationStatus":{"coding":[{"system":"http://terminology.hl7.org/CodeSystem/condition-ver-status","code":"confirmed"}]},"category":[{"coding":[{"system":"http://terminology.hl7.org/CodeSystem/condition-category","code":"problem-list-item","display":"Problem List Item"}]}],"code":{"coding":[{"system":"http://snomed.info/sct","version":"http://snomed.info/sct/731000124108/version/20240401","code":"254900004","display":"Carcinoma of prostate (disorder)","userSelected":true}]},"subject":{"reference":"Patient/c5bfac21-0dbf-4cf5-bc92-d7eff1d0a6c6"},"onsetPeriod":{"start":"2025-06-25T08:00:00.000+00:00"}},"request":{"method":"PUT","url":"Condition/f048807a-d13c-469d-aec2-87506a3ac7da"}},{"fullUrl":"https://madie.cms.gov/ServiceRequest/3213463131","resource":{"resourceType":"ServiceRequest","id":"451a7860-c709-4c4e-8f24-a63b3361c7e3","meta":{"profile":["http://hl7.org/fhir/us/qicore/StructureDefinition/qicore-servicerequest"]},"status":"active","intent":"order","code":{"coding":[{"system":"http://snomed.info/sct","code":"456381000124102","display":"Injection of leuprolide acetate for twelve month period (regime/therapy)"}]},"subject":{"reference":"Patient/c5bfac21-0dbf-4cf5-bc92-d7eff1d0a6c6"},"authoredOn":"2025-06-25T08:00:00.000+00:00"},"request":{"method":"PUT","url":"ServiceRequest/451a7860-c709-4c4e-8f24-a63b3361c7e3"}},{"fullUrl":"https://madie.cms.gov/MedicationRequest/79764516354","resource":{"resourceType":"MedicationRequest","id":"cd589d5f-68bc-444d-a290-49e0bd67999e","meta":{"profile":["http://hl7.org/fhir/us/qicore/StructureDefinition/qicore-medicationrequest"]},"status":"active","intent":"order","medicationCodeableConcept":{"coding":[{"system":"http://www.nlm.nih.gov/research/umls/rxnorm","code":"1115257","display":"1.5 ML leuprolide acetate 30 MG/ML Prefilled Syringe","userSelected":true}]},"subject":{"reference":"Patient/c5bfac21-0dbf-4cf5-bc92-d7eff1d0a6c6"},"authoredOn":"2025-06-25T08:00:00.000+00:00","requester":{"reference":"http://myGoodHealthcare.com/fhir/Practitioner/646346"},"dosageInstruction":[{"timing":{"repeat":{"boundsPeriod":{"start":"2025-06-25T08:00:00.000+00:00","end":"2025-07-25T08:15:00.000+00:00"}}}}]},"request":{"method":"PUT","url":"MedicationRequest/cd589d5f-68bc-444d-a290-49e0bd67999e"}},{"fullUrl":"https://madie.cms.gov/Practitioner/646346","resource":{"resourceType":"Practitioner","id":"3435a106-db66-4b65-9f12-5be44b0eef84","meta":{"profile":["http://hl7.org/fhir/us/qicore/StructureDefinition/qicore-practitioner"]},"identifier":[{"use":"temp","system":"urn:oid:2.16.840.1.113883.4.336","value":"Practitioner-23"}],"active":true,"name":[{"family":"Careful","given":["Adam"],"prefix":["Dr"]}],"address":[{"use":"home","line":["534 Erewhon St"],"city":"PleasantVille","state":"UT","postalCode":"84414"}],"qualification":[{"identifier":[{"system":"http://example.org/UniversityIdentifier","value":"12345"}],"code":{"coding":[{"system":"http://terminology.hl7.org/CodeSystem/v2-0360|2.7","code":"BS","display":"Bachelor of Science"}],"text":"Bachelor of Science"},"period":{"start":"1995"},"issuer":{"display":"Example University"}}]},"request":{"method":"PUT","url":"Practitioner/3435a106-db66-4b65-9f12-5be44b0eef84"}},{"fullUrl":"https://madie.cms.gov/ServiceRequest/31313434","resource":{"resourceType":"ServiceRequest","id":"74c4bd08-8b36-454b-b9e0-769a41e26f01","meta":{"profile":["http://hl7.org/fhir/us/qicore/StructureDefinition/qicore-servicenotrequested"]},"extension":[{"url":"http://hl7.org/fhir/us/qicore/StructureDefinition/qicore-doNotPerformReason","valueCodeableConcept":{"coding":[{"system":"http://snomed.info/sct","code":"105480006","display":"Refusal of treatment by patient (situation)"}]}}],"status":"completed","intent":"order","doNotPerform":true,"code":{"coding":[{"system":"http://loinc.org","version":"2.71","code":"38265-5","display":"DXA Radius and Ulna [T-score] Bone density","userSelected":true}]},"subject":{"reference":"Patient/c5bfac21-0dbf-4cf5-bc92-d7eff1d0a6c6"},"authoredOn":"2025-07-25T08:00:00.000+00:00"},"request":{"method":"PUT","url":"ServiceRequest/74c4bd08-8b36-454b-b9e0-769a41e26f01"}},{"fullUrl":"https://madie.cms.gov/MeasureReport/11b3aaaa-e371-414c-8786-6fb753c347e1","resource":{"resourceType":"MeasureReport","id":"11b3aaaa-e371-414c-8786-6fb753c347e1","meta":{"profile":["http://hl7.org/fhir/us/cqfmeasures/StructureDefinition/test-case-cqfm"]},"contained":[{"resourceType":"Parameters","id":"b12f2d0a-e3fe-46d1-b400-ae5c6c1ed4ed-parameters","parameter":[{"name":"subject","valueString":"c5bfac21-0dbf-4cf5-bc92-d7eff1d0a6c6"}]}],"extension":[{"url":"http://hl7.org/fhir/us/cqfmeasures/StructureDefinition/cqfm-inputParameters","valueReference":{"reference":"#b12f2d0a-e3fe-46d1-b400-ae5c6c1ed4ed-parameters"}},{"url":"http://hl7.org/fhir/us/cqfmeasures/StructureDefinition/cqfm-testCaseDescription","valueMarkdown":"Prostate cancer and ADT given.  DEXA ordered but patient refused.  DENEXCEP pass   "}],"modifierExtension":[{"url":"http://hl7.org/fhir/us/cqfmeasures/StructureDefinition/cqfm-isTestCase","valueBoolean":true}],"status":"complete","type":"individual","measure":"https://madie.cms.gov/Measure/BoneDensityProstateCancerAndrogenDeprivationTherapyFHIR","period":{"start":"2025-01-01","end":"2025-12-31"},"group":[{"population":[{"code":{"coding":[{"system":"http://terminology.hl7.org/CodeSystem/measure-population","code":"initial-population","display":"Initial Population"}]},"count":1},{"code":{"coding":[{"system":"http://terminology.hl7.org/CodeSystem/measure-population","code":"denominator","display":"Denominator"}]},"count":1},{"code":{"coding":[{"system":"http://terminology.hl7.org/CodeSystem/measure-population","code":"numerator","display":"Numerator"}]},"count":0},{"code":{"coding":[{"system":"http://terminology.hl7.org/CodeSystem/measure-population","code":"denominator-exception","display":"Denominator Exception"}]},"count":0}]}]},"request":{"method":"PUT","url":"MeasureReport/11b3aaaa-e371-414c-8786-6fb753c347e1"}}]}