{"resourceType":"Bundle","id":"tests-a5307581-654f-415f-912f-cec5e9dc00dc-bundle","type":"transaction","entry":[{"fullUrl":"https://madie.cms.gov/Patient/a5307581-654f-415f-912f-cec5e9dc00dc","resource":{"resourceType":"Patient","id":"a5307581-654f-415f-912f-cec5e9dc00dc","meta":{"profile":["http://hl7.org/fhir/us/qicore/StructureDefinition/qicore-patient"]},"extension":[{"url":"http://hl7.org/fhir/us/core/StructureDefinition/us-core-race","extension":[{"url":"ombCategory","valueCoding":{"system":"urn:oid:2.16.840.1.113883.6.238","code":"1002-5","display":"American Indian or Alaska Native","userSelected":true}},{"url":"text","valueString":"American Indian or Alaska Native"}]},{"url":"http://hl7.org/fhir/us/core/StructureDefinition/us-core-ethnicity","extension":[{"url":"ombCategory","valueCoding":{"system":"urn:oid:2.16.840.1.113883.6.238","code":"2135-2","display":"Hispanic or Latino","userSelected":true}},{"url":"text","valueString":"Hispanic or Latino"}]}],"identifier":[{"type":{"coding":[{"system":"http://terminology.hl7.org/CodeSystem/v2-0203","code":"MR"}]},"system":"https://bonnie-fhir.healthit.gov","value":"62bc61713e113102f8cedc8b"}],"active":true,"name":[{"family":"DENOMPass","given":["MedReqBoundsEndofMP"]}],"gender":"male","birthDate":"1951-10-10"},"request":{"method":"PUT","url":"Patient/a5307581-654f-415f-912f-cec5e9dc00dc"}},{"fullUrl":"https://madie.cms.gov/Encounter/3adsf13adf13","resource":{"resourceType":"Encounter","id":"b6587027-be57-4e3e-be9e-459884d8903a","meta":{"profile":["http://hl7.org/fhir/us/qicore/StructureDefinition/qicore-encounter"]},"status":"finished","class":{"system":"http://terminology.hl7.org/CodeSystem/v3-ActCode","code":"AMB","display":"ambulatory"},"type":[{"coding":[{"system":"http://www.ama-assn.org/go/cpt","code":"99203"}]}],"subject":{"reference":"Patient/a5307581-654f-415f-912f-cec5e9dc00dc"},"period":{"start":"2025-08-01T08:00:00+00:00","end":"2025-08-01T08:15:00+00:00"}},"request":{"method":"PUT","url":"Encounter/b6587027-be57-4e3e-be9e-459884d8903a"}},{"fullUrl":"https://madie.cms.gov/Condition/3a213543211","resource":{"resourceType":"Condition","id":"f795e70d-7963-413b-9458-dd9c0244f626","meta":{"profile":["http://hl7.org/fhir/us/qicore/StructureDefinition/qicore-condition"]},"clinicalStatus":{"coding":[{"system":"http://terminology.hl7.org/CodeSystem/condition-clinical","code":"active"}]},"verificationStatus":{"coding":[{"system":"http://terminology.hl7.org/CodeSystem/condition-ver-status","code":"confirmed"}]},"category":[{"coding":[{"system":"http://terminology.hl7.org/CodeSystem/condition-category","code":"problem-list-item","display":"Problem List Item"}]}],"code":{"coding":[{"system":"http://snomed.info/sct","version":"http://snomed.info/sct/731000124108/version/20240401","code":"254900004","display":"Carcinoma of prostate (disorder)"}]},"subject":{"reference":"Patient/a5307581-654f-415f-912f-cec5e9dc00dc"},"onsetPeriod":{"start":"2025-03-15T08:00:00.000+00:00"}},"request":{"method":"PUT","url":"Condition/f795e70d-7963-413b-9458-dd9c0244f626"}},{"fullUrl":"https://madie.cms.gov/MedicationRequest/3216351asdf3","resource":{"resourceType":"MedicationRequest","id":"40494aa4-02c6-4a5f-9e39-3c4d139adf1b","meta":{"profile":["http://hl7.org/fhir/us/qicore/StructureDefinition/qicore-medicationrequest"]},"status":"active","intent":"order","medicationCodeableConcept":{"coding":[{"system":"http://www.nlm.nih.gov/research/umls/rxnorm","code":"1115257","display":"1.5 ML leuprolide acetate 30 MG/ML Prefilled Syringe"}]},"subject":{"reference":"Patient/a5307581-654f-415f-912f-cec5e9dc00dc"},"authoredOn":"2025-09-10T08:00:00.000+00:00","requester":{"reference":"http://myGoodHealthcare.com/fhir/Practitioner/646346"},"dosageInstruction":[{"timing":{"repeat":{"boundsPeriod":{"start":"2025-09-30T08:00:00.000+00:00","end":"2025-09-30T08:15:00.000+00:00"}}}}]},"request":{"method":"PUT","url":"MedicationRequest/40494aa4-02c6-4a5f-9e39-3c4d139adf1b"}},{"fullUrl":"https://madie.cms.gov/ServiceRequest/13213517454","resource":{"resourceType":"ServiceRequest","id":"76c18bf2-e4f8-41ad-bb7b-933e00d4048b","meta":{"profile":["http://hl7.org/fhir/us/qicore/StructureDefinition/qicore-servicerequest"]},"status":"active","intent":"order","code":{"coding":[{"system":"http://snomed.info/sct","code":"456381000124102","display":"Injection of leuprolide acetate for twelve month period (regime/therapy)"}]},"subject":{"reference":"Patient/a5307581-654f-415f-912f-cec5e9dc00dc"},"authoredOn":"2025-09-30T08:00:00.000+00:00"},"request":{"method":"PUT","url":"ServiceRequest/76c18bf2-e4f8-41ad-bb7b-933e00d4048b"}},{"fullUrl":"https://madie.cms.gov/Practitioner/646346","resource":{"resourceType":"Practitioner","id":"b7bc0492-a020-40b2-ae4a-de65c036cea1","meta":{"profile":["http://hl7.org/fhir/us/qicore/StructureDefinition/qicore-practitioner"]},"identifier":[{"use":"temp","system":"urn:oid:2.16.840.1.113883.4.336","value":"Practitioner-23"}],"active":true,"name":[{"family":"Careful","given":["Adam"],"prefix":["Dr"]}],"address":[{"use":"home","line":["534 Erewhon St"],"city":"PleasantVille","state":"UT","postalCode":"84414"}],"qualification":[{"identifier":[{"system":"http://example.org/UniversityIdentifier","value":"12345"}],"code":{"coding":[{"system":"http://terminology.hl7.org/CodeSystem/v2-0360|2.7","code":"BS","display":"Bachelor of Science"}],"text":"Bachelor of Science"},"period":{"start":"1995"},"issuer":{"display":"Example University"}}]},"request":{"method":"PUT","url":"Practitioner/b7bc0492-a020-40b2-ae4a-de65c036cea1"}},{"fullUrl":"https://madie.cms.gov/MeasureReport/c919e891-ae6b-4e8c-8779-a4538eccabe5","resource":{"resourceType":"MeasureReport","id":"c919e891-ae6b-4e8c-8779-a4538eccabe5","meta":{"profile":["http://hl7.org/fhir/us/cqfmeasures/StructureDefinition/test-case-cqfm"]},"contained":[{"resourceType":"Parameters","id":"ab02d2e8-5763-40e8-bd3a-39fc116c3a62-parameters","parameter":[{"name":"subject","valueString":"a5307581-654f-415f-912f-cec5e9dc00dc"}]}],"extension":[{"url":"http://hl7.org/fhir/us/cqfmeasures/StructureDefinition/cqfm-inputParameters","valueReference":{"reference":"#ab02d2e8-5763-40e8-bd3a-39fc116c3a62-parameters"}},{"url":"http://hl7.org/fhir/us/cqfmeasures/StructureDefinition/cqfm-testCaseDescription","valueMarkdown":"Test of FirstADT definition procedure order with order at end of measurement period and PCa with no end date. Performs as expected - passes IPP and DENOM"}],"modifierExtension":[{"url":"http://hl7.org/fhir/us/cqfmeasures/StructureDefinition/cqfm-isTestCase","valueBoolean":true}],"status":"complete","type":"individual","measure":"https://madie.cms.gov/Measure/BoneDensityProstateCancerAndrogenDeprivationTherapyFHIR","period":{"start":"2025-01-01","end":"2025-12-31"},"group":[{"population":[{"code":{"coding":[{"system":"http://terminology.hl7.org/CodeSystem/measure-population","code":"initial-population","display":"Initial Population"}]},"count":1},{"code":{"coding":[{"system":"http://terminology.hl7.org/CodeSystem/measure-population","code":"denominator","display":"Denominator"}]},"count":1},{"code":{"coding":[{"system":"http://terminology.hl7.org/CodeSystem/measure-population","code":"numerator","display":"Numerator"}]},"count":0},{"code":{"coding":[{"system":"http://terminology.hl7.org/CodeSystem/measure-population","code":"denominator-exception","display":"Denominator Exception"}]},"count":0}]}]},"request":{"method":"PUT","url":"MeasureReport/c919e891-ae6b-4e8c-8779-a4538eccabe5"}}]}