{"resourceType":"Bundle","id":"tests-326c4d57-1c4e-498e-8975-ceb9913c28f8-bundle","type":"transaction","entry":[{"fullUrl":"https://madie.cms.gov/Patient/326c4d57-1c4e-498e-8975-ceb9913c28f8","resource":{"resourceType":"Patient","id":"326c4d57-1c4e-498e-8975-ceb9913c28f8","meta":{"profile":["http://hl7.org/fhir/us/qicore/StructureDefinition/qicore-patient"]},"extension":[{"url":"http://hl7.org/fhir/us/core/StructureDefinition/us-core-race","extension":[{"url":"ombCategory","valueCoding":{"system":"urn:oid:2.16.840.1.113883.6.238","code":"2054-5","display":"Black or African American"}},{"url":"text","valueString":"Black or African American"}]},{"url":"http://hl7.org/fhir/us/core/StructureDefinition/us-core-ethnicity","extension":[{"url":"ombCategory","valueCoding":{"system":"urn:oid:2.16.840.1.113883.6.238","code":"2186-5","display":"Not Hispanic or Latino"}},{"url":"text","valueString":"Not Hispanic or Latino"}]}],"identifier":[{"type":{"coding":[{"system":"http://terminology.hl7.org/CodeSystem/v2-0203","code":"MR"}]},"system":"https://bonnie-fhir.healthit.gov/","value":"463131313187656"}],"name":[{"family":"NUMERFail","given":["DEXAorderLessThan4MonthsAfterADT"]}],"gender":"male","birthDate":"1929-06-15"},"request":{"method":"PUT","url":"Patient/326c4d57-1c4e-498e-8975-ceb9913c28f8"}},{"fullUrl":"https://madie.cms.gov/Encounter/98965313","resource":{"resourceType":"Encounter","id":"3f5ae87a-c2b5-4e54-a533-18927bec15ce","meta":{"profile":["http://hl7.org/fhir/us/qicore/StructureDefinition/qicore-encounter"]},"status":"finished","class":{"system":"http://terminology.hl7.org/CodeSystem/v3-ActCode","code":"AMB","display":"ambulatory"},"type":[{"coding":[{"system":"http://snomed.info/sct","version":"http://snomed.info/sct/731000124108/version/20240301","code":"185463005","display":"Visit out of hours (procedure)"}]}],"subject":{"reference":"Patient/326c4d57-1c4e-498e-8975-ceb9913c28f8"},"period":{"start":"2025-06-04T08:00:00.000+00:00","end":"2025-06-04T08:15:00.000+00:00"}},"request":{"method":"PUT","url":"Encounter/3f5ae87a-c2b5-4e54-a533-18927bec15ce"}},{"fullUrl":"https://madie.cms.gov/Condition/35463463113","resource":{"resourceType":"Condition","id":"6ecfb50a-4b69-400e-9492-cf7c38b9efaa","meta":{"profile":["http://hl7.org/fhir/us/qicore/StructureDefinition/qicore-condition"]},"clinicalStatus":{"coding":[{"system":"http://terminology.hl7.org/CodeSystem/condition-clinical","code":"active","display":"Active","userSelected":true}]},"verificationStatus":{"coding":[{"system":"http://terminology.hl7.org/CodeSystem/condition-ver-status","code":"confirmed"}]},"category":[{"coding":[{"system":"http://terminology.hl7.org/CodeSystem/condition-category","code":"problem-list-item","display":"Problem List Item"}]}],"code":{"coding":[{"system":"http://snomed.info/sct","version":"http://snomed.info/sct/731000124108/version/20240301","code":"254900004","display":"Carcinoma of prostate (disorder)"}]},"subject":{"reference":"Patient/326c4d57-1c4e-498e-8975-ceb9913c28f8"},"onsetPeriod":{"start":"2025-06-04T08:00:00.000+00:00"}},"request":{"method":"PUT","url":"Condition/6ecfb50a-4b69-400e-9492-cf7c38b9efaa"}},{"fullUrl":"https://madie.cms.gov/Observation/1313113","resource":{"resourceType":"Observation","id":"aefd737c-c8e5-46c0-8a6c-d87a77d14179","meta":{"profile":["http://hl7.org/fhir/us/qicore/StructureDefinition/qicore-observation"]},"status":"final","category":[{"coding":[{"system":"http://terminology.hl7.org/CodeSystem/observation-category","code":"imaging","display":"Imaging"}]}],"code":{"coding":[{"system":"http://loinc.org","version":"2.76","code":"38265-5","display":"DXA Radius and Ulna [T-score] Bone density"}]},"subject":{"reference":"Patient/326c4d57-1c4e-498e-8975-ceb9913c28f8"},"effectivePeriod":{"start":"2025-09-15T10:00:00.000+00:00"}},"request":{"method":"PUT","url":"Observation/aefd737c-c8e5-46c0-8a6c-d87a77d14179"}},{"fullUrl":"https://madie.cms.gov/Practitioner/646346","resource":{"resourceType":"Practitioner","id":"13d76b2e-f133-4fea-a73e-e45c50b23838","meta":{"profile":["http://hl7.org/fhir/us/qicore/StructureDefinition/qicore-practitioner"]},"identifier":[{"use":"temp","system":"urn:oid:2.16.840.1.113883.4.336","value":"Practitioner-23"}],"active":true,"name":[{"family":"Careful","given":["Adam"],"prefix":["Dr"]}],"address":[{"use":"home","line":["534 Erewhon St"],"city":"PleasantVille","state":"UT","postalCode":"84414"}],"qualification":[{"identifier":[{"system":"http://example.org/UniversityIdentifier","value":"12345"}],"code":{"coding":[{"system":"http://terminology.hl7.org/CodeSystem/v2-0360|2.7","code":"BS","display":"Bachelor of Science"}],"text":"Bachelor of Science"},"period":{"start":"1995"},"issuer":{"display":"Example University"}}]},"request":{"method":"PUT","url":"Practitioner/13d76b2e-f133-4fea-a73e-e45c50b23838"}},{"fullUrl":"https://madie.cms.gov/MedicationRequest/64564646","resource":{"resourceType":"MedicationRequest","id":"713d285b-553c-4436-a46a-74c0fca92e5c","meta":{"profile":["http://hl7.org/fhir/us/qicore/StructureDefinition/qicore-medicationrequest"]},"status":"active","intent":"order","medicationCodeableConcept":{"coding":[{"system":"http://www.nlm.nih.gov/research/umls/rxnorm","version":"04012024","code":"1115257","display":"1.5 ML leuprolide acetate 30 MG/ML Prefilled Syringe"}]},"subject":{"reference":"Patient/326c4d57-1c4e-498e-8975-ceb9913c28f8"},"authoredOn":"2025-06-04T08:00:00.000+00:00","requester":{"reference":"http://myGoodHealthcare.com/fhir/Practitioner/646346"},"dosageInstruction":[{"timing":{"repeat":{"boundsPeriod":{"start":"2025-06-04T08:00:00.000+00:00","end":"2025-07-04T08:00:00.000+00:00"}}}}]},"request":{"method":"PUT","url":"MedicationRequest/713d285b-553c-4436-a46a-74c0fca92e5c"}},{"fullUrl":"https://madie.cms.gov/ServiceRequest/764645645","resource":{"resourceType":"ServiceRequest","id":"becb0a8b-10dd-484e-b5f0-957424d5c9e5","meta":{"profile":["http://hl7.org/fhir/us/qicore/StructureDefinition/qicore-servicerequest"]},"status":"active","intent":"order","code":{"coding":[{"system":"http://snomed.info/sct","version":"http://snomed.info/sct/731000124108/version/20240301","code":"456381000124102","display":"Injection of leuprolide acetate for twelve month period (regime/therapy)"}]},"subject":{"reference":"Patient/326c4d57-1c4e-498e-8975-ceb9913c28f8"},"authoredOn":"2025-06-04T08:00:00.000+00:00"},"request":{"method":"PUT","url":"ServiceRequest/becb0a8b-10dd-484e-b5f0-957424d5c9e5"}},{"fullUrl":"https://madie.cms.gov/MeasureReport/008046c1-88e5-4d05-8bb7-5a245d8e3bdd","resource":{"resourceType":"MeasureReport","id":"008046c1-88e5-4d05-8bb7-5a245d8e3bdd","meta":{"profile":["http://hl7.org/fhir/us/cqfmeasures/StructureDefinition/test-case-cqfm"]},"contained":[{"resourceType":"Parameters","id":"974df804-2558-416e-8b02-e020e66c987d-parameters","parameter":[{"name":"subject","valueString":"326c4d57-1c4e-498e-8975-ceb9913c28f8"}]}],"extension":[{"url":"http://hl7.org/fhir/us/cqfmeasures/StructureDefinition/cqfm-inputParameters","valueReference":{"reference":"#974df804-2558-416e-8b02-e020e66c987d-parameters"}},{"url":"http://hl7.org/fhir/us/cqfmeasures/StructureDefinition/cqfm-testCaseDescription","valueMarkdown":"Patient has diagnosis of Prostate Cancer.  DEXA ordered 4 mo after ADT start.  Fails NUMER criteria."}],"modifierExtension":[{"url":"http://hl7.org/fhir/us/cqfmeasures/StructureDefinition/cqfm-isTestCase","valueBoolean":true}],"status":"complete","type":"individual","measure":"https://madie.cms.gov/Measure/BoneDensityProstateCancerAndrogenDeprivationTherapyFHIR","period":{"start":"2025-01-01","end":"2025-12-31"},"group":[{"population":[{"code":{"coding":[{"system":"http://terminology.hl7.org/CodeSystem/measure-population","code":"initial-population","display":"Initial Population"}]},"count":1},{"code":{"coding":[{"system":"http://terminology.hl7.org/CodeSystem/measure-population","code":"denominator","display":"Denominator"}]},"count":1},{"code":{"coding":[{"system":"http://terminology.hl7.org/CodeSystem/measure-population","code":"numerator","display":"Numerator"}]},"count":0},{"code":{"coding":[{"system":"http://terminology.hl7.org/CodeSystem/measure-population","code":"denominator-exception","display":"Denominator Exception"}]},"count":0}]}]},"request":{"method":"PUT","url":"MeasureReport/008046c1-88e5-4d05-8bb7-5a245d8e3bdd"}}]}