{"resourceType":"Bundle","id":"tests-f67164ab-356d-4fb6-afcb-169aaa7fe3f4-bundle","type":"transaction","entry":[{"fullUrl":"https://madie.cms.gov/Patient/f67164ab-356d-4fb6-afcb-169aaa7fe3f4","resource":{"resourceType":"Patient","id":"f67164ab-356d-4fb6-afcb-169aaa7fe3f4","meta":{"profile":["http://hl7.org/fhir/us/qicore/StructureDefinition/qicore-patient"]},"extension":[{"url":"http://hl7.org/fhir/us/core/StructureDefinition/us-core-race","extension":[{"url":"ombCategory","valueCoding":{"system":"urn:oid:2.16.840.1.113883.6.238","code":"2054-5","display":"Black or African American"}},{"url":"text","valueString":"Black or African American"}]},{"url":"http://hl7.org/fhir/us/core/StructureDefinition/us-core-ethnicity","extension":[{"url":"ombCategory","valueCoding":{"system":"urn:oid:2.16.840.1.113883.6.238","code":"2186-5","display":"Not Hispanic or Latino"}},{"url":"text","valueString":"Not Hispanic or Latino"}]}],"identifier":[{"type":{"coding":[{"system":"http://terminology.hl7.org/CodeSystem/v2-0203","code":"MR"}]},"system":"https://bonnie-fhir.healthit.gov/","value":"463131313187656"}],"name":[{"family":"NUMERPass","given":["DEXA3MonthsAfterADTEdge"]}],"gender":"male","birthDate":"1929-06-15"},"request":{"method":"PUT","url":"Patient/f67164ab-356d-4fb6-afcb-169aaa7fe3f4"}},{"fullUrl":"https://madie.cms.gov/Encounter/98965313","resource":{"resourceType":"Encounter","id":"99baf3e4-0a05-44d7-8603-541e86df1e2d","meta":{"profile":["http://hl7.org/fhir/us/qicore/StructureDefinition/qicore-encounter"]},"status":"finished","class":{"system":"http://terminology.hl7.org/CodeSystem/v3-ActCode","code":"AMB","display":"ambulatory"},"type":[{"coding":[{"system":"http://snomed.info/sct","version":"http://snomed.info/sct/731000124108/version/20240301","code":"185463005","display":"Visit out of hours (procedure)"}]}],"subject":{"reference":"Patient/f67164ab-356d-4fb6-afcb-169aaa7fe3f4"},"period":{"start":"2025-02-04T08:00:00.000+00:00","end":"2025-02-04T08:15:00.000+00:00"}},"request":{"method":"PUT","url":"Encounter/99baf3e4-0a05-44d7-8603-541e86df1e2d"}},{"fullUrl":"https://madie.cms.gov/Condition/35463463113","resource":{"resourceType":"Condition","id":"7cfc763d-749e-4ffc-bc9c-8ba3f7bf6e60","meta":{"profile":["http://hl7.org/fhir/us/qicore/StructureDefinition/qicore-condition"]},"clinicalStatus":{"coding":[{"system":"http://terminology.hl7.org/CodeSystem/condition-clinical","code":"active","display":"Active","userSelected":true}]},"verificationStatus":{"coding":[{"system":"http://terminology.hl7.org/CodeSystem/condition-ver-status","code":"confirmed"}]},"category":[{"coding":[{"system":"http://terminology.hl7.org/CodeSystem/condition-category","code":"problem-list-item","display":"Problem List Item"}]}],"code":{"coding":[{"system":"http://snomed.info/sct","version":"http://snomed.info/sct/731000124108/version/20240301","code":"254900004","display":"Carcinoma of prostate (disorder)"}]},"subject":{"reference":"Patient/f67164ab-356d-4fb6-afcb-169aaa7fe3f4"},"onsetDateTime":"2025-02-04T08:00:00.000+00:00"},"request":{"method":"PUT","url":"Condition/7cfc763d-749e-4ffc-bc9c-8ba3f7bf6e60"}},{"fullUrl":"https://madie.cms.gov/Observation/1313113","resource":{"resourceType":"Observation","id":"471b9a82-4c6e-490d-a077-872e82ba7816","meta":{"profile":["http://hl7.org/fhir/us/qicore/StructureDefinition/qicore-observation"]},"status":"final","category":[{"coding":[{"system":"http://terminology.hl7.org/CodeSystem/observation-category","code":"imaging","display":"Imaging"}]}],"code":{"coding":[{"system":"http://loinc.org","version":"2.76","code":"38265-5","display":"DXA Radius and Ulna [T-score] Bone density"}]},"subject":{"reference":"Patient/f67164ab-356d-4fb6-afcb-169aaa7fe3f4"},"effectivePeriod":{"start":"2025-05-01T10:00:00.000+00:00"}},"request":{"method":"PUT","url":"Observation/471b9a82-4c6e-490d-a077-872e82ba7816"}},{"fullUrl":"https://madie.cms.gov/Practitioner/646346","resource":{"resourceType":"Practitioner","id":"275042a9-a4ca-46a3-9f42-0e73667df93b","meta":{"profile":["http://hl7.org/fhir/us/qicore/StructureDefinition/qicore-practitioner"]},"identifier":[{"use":"temp","system":"urn:oid:2.16.840.1.113883.4.336","value":"Practitioner-23"}],"active":true,"name":[{"family":"Careful","given":["Adam"],"prefix":["Dr"]}],"address":[{"use":"home","line":["534 Erewhon St"],"city":"PleasantVille","state":"UT","postalCode":"84414"}],"qualification":[{"identifier":[{"system":"http://example.org/UniversityIdentifier","value":"12345"}],"code":{"coding":[{"system":"http://terminology.hl7.org/CodeSystem/v2-0360|2.7","code":"BS","display":"Bachelor of Science"}],"text":"Bachelor of Science"},"period":{"start":"1995"},"issuer":{"display":"Example University"}}]},"request":{"method":"PUT","url":"Practitioner/275042a9-a4ca-46a3-9f42-0e73667df93b"}},{"fullUrl":"https://madie.cms.gov/MedicationRequest/64564646","resource":{"resourceType":"MedicationRequest","id":"d626096c-3e13-497f-8652-9099f813e45e","meta":{"profile":["http://hl7.org/fhir/us/qicore/StructureDefinition/qicore-medicationrequest"]},"status":"active","intent":"order","medicationCodeableConcept":{"coding":[{"system":"http://www.nlm.nih.gov/research/umls/rxnorm","version":"04012024","code":"1115257","display":"1.5 ML leuprolide acetate 30 MG/ML Prefilled Syringe"}]},"subject":{"reference":"Patient/f67164ab-356d-4fb6-afcb-169aaa7fe3f4"},"authoredOn":"2025-02-04T08:00:00.000+00:00","requester":{"reference":"http://myGoodHealthcare.com/fhir/Practitioner/646346"},"dosageInstruction":[{"timing":{"repeat":{"boundsPeriod":{"start":"2025-02-04T08:00:00.000+00:00","end":"2025-03-04T08:00:00.000+00:00"}}}}]},"request":{"method":"PUT","url":"MedicationRequest/d626096c-3e13-497f-8652-9099f813e45e"}},{"fullUrl":"https://madie.cms.gov/ServiceRequest/764645645","resource":{"resourceType":"ServiceRequest","id":"c6703f17-5528-451e-997b-63f15522c8d7","meta":{"profile":["http://hl7.org/fhir/us/qicore/StructureDefinition/qicore-servicerequest"]},"status":"active","intent":"order","code":{"coding":[{"system":"http://snomed.info/sct","version":"http://snomed.info/sct/731000124108/version/20240301","code":"456381000124102","display":"Injection of leuprolide acetate for twelve month period (regime/therapy)"}]},"subject":{"reference":"Patient/f67164ab-356d-4fb6-afcb-169aaa7fe3f4"},"authoredOn":"2025-02-04T08:00:00.000+00:00"},"request":{"method":"PUT","url":"ServiceRequest/c6703f17-5528-451e-997b-63f15522c8d7"}},{"fullUrl":"https://madie.cms.gov/MeasureReport/7d79ca7a-9537-4c6a-a776-329ec89b4072","resource":{"resourceType":"MeasureReport","id":"7d79ca7a-9537-4c6a-a776-329ec89b4072","meta":{"profile":["http://hl7.org/fhir/us/cqfmeasures/StructureDefinition/test-case-cqfm"]},"contained":[{"resourceType":"Parameters","id":"eeda0034-9c57-4731-8275-3e6e88cb613f-parameters","parameter":[{"name":"subject","valueString":"f67164ab-356d-4fb6-afcb-169aaa7fe3f4"}]}],"extension":[{"url":"http://hl7.org/fhir/us/cqfmeasures/StructureDefinition/cqfm-inputParameters","valueReference":{"reference":"#eeda0034-9c57-4731-8275-3e6e88cb613f-parameters"}},{"url":"http://hl7.org/fhir/us/cqfmeasures/StructureDefinition/cqfm-testCaseDescription","valueMarkdown":"Encounter Office Visit in MP.  Dx Prostate Cancer in MP. Procedure \nOrder. Dexa 3 months after ADT.  Edge. Passes NUMER as expected."}],"modifierExtension":[{"url":"http://hl7.org/fhir/us/cqfmeasures/StructureDefinition/cqfm-isTestCase","valueBoolean":true}],"status":"complete","type":"individual","measure":"https://madie.cms.gov/Measure/BoneDensityProstateCancerAndrogenDeprivationTherapyFHIR","period":{"start":"2025-01-01","end":"2025-12-31"},"group":[{"population":[{"code":{"coding":[{"system":"http://terminology.hl7.org/CodeSystem/measure-population","code":"initial-population","display":"Initial Population"}]},"count":1},{"code":{"coding":[{"system":"http://terminology.hl7.org/CodeSystem/measure-population","code":"denominator","display":"Denominator"}]},"count":1},{"code":{"coding":[{"system":"http://terminology.hl7.org/CodeSystem/measure-population","code":"numerator","display":"Numerator"}]},"count":1},{"code":{"coding":[{"system":"http://terminology.hl7.org/CodeSystem/measure-population","code":"denominator-exception","display":"Denominator Exception"}]},"count":0}]}]},"request":{"method":"PUT","url":"MeasureReport/7d79ca7a-9537-4c6a-a776-329ec89b4072"}}]}