{
  "resourceType": "Bundle",
  "id": "tests-0a4436ba-31a5-464f-9061-255f767ed3d9-bundle",
  "type": "transaction",
  "entry": [
    {
      "fullUrl": "https://madie.cms.gov/Patient/0a4436ba-31a5-464f-9061-255f767ed3d9",
      "resource": {
        "resourceType": "Patient",
        "id": "0a4436ba-31a5-464f-9061-255f767ed3d9",
        "meta": {
          "profile": [
            "http://hl7.org/fhir/us/qicore/StructureDefinition/qicore-patient"
          ]
        },
        "extension": [
          {
            "url": "http://hl7.org/fhir/us/core/StructureDefinition/us-core-race",
            "extension": [
              {
                "url": "ombCategory",
                "valueCoding": {
                  "system": "urn:oid:2.16.840.1.113883.6.238",
                  "code": "1002-5",
                  "display": "American Indian or Alaska Native"
                }
              },
              {
                "url": "text",
                "valueString": "American Indian or Alaska Native"
              }
            ]
          },
          {
            "url": "http://hl7.org/fhir/us/core/StructureDefinition/us-core-ethnicity",
            "extension": [
              {
                "url": "ombCategory",
                "valueCoding": {
                  "system": "urn:oid:2.16.840.1.113883.6.238",
                  "code": "2135-2",
                  "display": "Hispanic or Latino"
                }
              },
              {
                "url": "text",
                "valueString": "Hispanic or Latino"
              }
            ]
          }
        ],
        "identifier": [
          {
            "type": {
              "coding": [
                {
                  "system": "http://terminology.hl7.org/CodeSystem/v2-0203",
                  "code": "MR"
                }
              ]
            },
            "system": "https://bonnie-fhir.healthit.gov/",
            "value": "60abcdebcd7f9706e4189cfc"
          }
        ],
        "name": [
          {
            "family": "IPFail",
            "given": [
              "OnlyDemographics"
            ]
          }
        ],
        "gender": "unknown",
        "birthDate": "1954-12-28"
      },
      "request": {
        "method": "PUT",
        "url": "Patient/0a4436ba-31a5-464f-9061-255f767ed3d9"
      }
    },
    {
      "fullUrl": "https://madie.cms.gov/MeasureReport/c2627f0b-8fd9-4a63-b8b0-268c97e26c54",
      "resource": {
        "resourceType": "MeasureReport",
        "id": "c2627f0b-8fd9-4a63-b8b0-268c97e26c54",
        "meta": {
          "profile": [
            "http://hl7.org/fhir/us/cqfmeasures/StructureDefinition/test-case-cqfm"
          ]
        },
        "contained": [
          {
            "resourceType": "Parameters",
            "id": "6eda96ca-046d-42d0-aac8-a32d635ed67d-parameters",
            "parameter": [
              {
                "name": "subject",
                "valueString": "0a4436ba-31a5-464f-9061-255f767ed3d9"
              }
            ]
          }
        ],
        "extension": [
          {
            "url": "http://hl7.org/fhir/us/cqfmeasures/StructureDefinition/cqfm-inputParameters",
            "valueReference": {
              "reference": "#6eda96ca-046d-42d0-aac8-a32d635ed67d-parameters"
            }
          },
          {
            "url": "http://hl7.org/fhir/us/cqfmeasures/StructureDefinition/cqfm-testCaseDescription",
            "valueMarkdown": "No qualifying encounter, ADT, or Dexa. Patient sex is 'unknown'"
          }
        ],
        "modifierExtension": [
          {
            "url": "http://hl7.org/fhir/us/cqfmeasures/StructureDefinition/cqfm-isTestCase",
            "valueBoolean": true
          }
        ],
        "status": "complete",
        "type": "individual",
        "measure": "https://madie.cms.gov/Measure/BoneDensityProstateCancerAndrogenDeprivationTherapyFHIR",
        "period": {
          "start": "2025-01-01",
          "end": "2025-12-31"
        },
        "group": [
          {
            "population": [
              {
                "code": {
                  "coding": [
                    {
                      "system": "http://terminology.hl7.org/CodeSystem/measure-population",
                      "code": "initial-population",
                      "display": "Initial Population"
                    }
                  ]
                },
                "count": 0
              },
              {
                "code": {
                  "coding": [
                    {
                      "system": "http://terminology.hl7.org/CodeSystem/measure-population",
                      "code": "denominator",
                      "display": "Denominator"
                    }
                  ]
                },
                "count": 0
              },
              {
                "code": {
                  "coding": [
                    {
                      "system": "http://terminology.hl7.org/CodeSystem/measure-population",
                      "code": "numerator",
                      "display": "Numerator"
                    }
                  ]
                },
                "count": 0
              },
              {
                "code": {
                  "coding": [
                    {
                      "system": "http://terminology.hl7.org/CodeSystem/measure-population",
                      "code": "denominator-exception",
                      "display": "Denominator Exception"
                    }
                  ]
                },
                "count": 0
              }
            ]
          }
        ],
        "evaluatedResource": [
          {
            "reference": "Patient/0a4436ba-31a5-464f-9061-255f767ed3d9"
          }
        ]
      },
      "request": {
        "method": "PUT",
        "url": "MeasureReport/c2627f0b-8fd9-4a63-b8b0-268c97e26c54"
      }
    }
  ]
}
