{"resourceType":"Bundle","id":"tests-449eb3e6-3c46-439c-95cd-125aadd27e82-bundle","type":"transaction","entry":[{"fullUrl":"https://madie.cms.gov/Patient/449eb3e6-3c46-439c-95cd-125aadd27e82","resource":{"resourceType":"Patient","id":"449eb3e6-3c46-439c-95cd-125aadd27e82","meta":{"profile":["http://hl7.org/fhir/us/qicore/StructureDefinition/qicore-patient"]},"extension":[{"url":"http://hl7.org/fhir/us/core/StructureDefinition/us-core-race","extension":[{"url":"ombCategory","valueCoding":{"system":"urn:oid:2.16.840.1.113883.6.238","code":"2054-5","display":"Black or African American","userSelected":true}},{"url":"text","valueString":"Black or African American"}]},{"url":"http://hl7.org/fhir/us/core/StructureDefinition/us-core-ethnicity","extension":[{"url":"ombCategory","valueCoding":{"system":"urn:oid:2.16.840.1.113883.6.238","code":"2186-5","display":"Not Hispanic or Latino","userSelected":true}},{"url":"text","valueString":"Not Hispanic or Latino"}]}],"identifier":[{"type":{"coding":[{"system":"http://terminology.hl7.org/CodeSystem/v2-0203","code":"MR"}]},"system":"https://bonnie-fhir.healthit.gov/","value":"60abda28bf0a01003e3f76bd"}],"name":[{"family":"NUMERPass","given":["DEXA1YearBeforeADT"]}],"gender":"male","birthDate":"1929-06-15"},"request":{"method":"PUT","url":"Patient/449eb3e6-3c46-439c-95cd-125aadd27e82"}},{"fullUrl":"https://madie.cms.gov/Encounter/98965313","resource":{"resourceType":"Encounter","id":"dd33328e-70df-4dc7-bd23-17956b3acd0f","meta":{"profile":["http://hl7.org/fhir/us/qicore/StructureDefinition/qicore-encounter"]},"status":"finished","class":{"system":"http://terminology.hl7.org/CodeSystem/v3-ActCode","code":"AMB","display":"ambulatory"},"type":[{"coding":[{"system":"http://snomed.info/sct","version":"2021-09","code":"185463005","display":"Visit out of hours (procedure)","userSelected":true}]}],"subject":{"reference":"Patient/449eb3e6-3c46-439c-95cd-125aadd27e82"},"period":{"start":"2025-08-04T08:00:00.000+00:00","end":"2025-08-04T08:15:00.000+00:00"}},"request":{"method":"PUT","url":"Encounter/dd33328e-70df-4dc7-bd23-17956b3acd0f"}},{"fullUrl":"https://madie.cms.gov/Condition/35463463113","resource":{"resourceType":"Condition","id":"d96faae6-96c7-4403-b525-7f0b69367943","meta":{"profile":["http://hl7.org/fhir/us/qicore/StructureDefinition/qicore-condition"]},"clinicalStatus":{"coding":[{"system":"http://terminology.hl7.org/CodeSystem/condition-clinical","code":"active","display":"Active","userSelected":true}]},"verificationStatus":{"coding":[{"system":"http://terminology.hl7.org/CodeSystem/condition-ver-status","code":"confirmed"}]},"category":[{"coding":[{"system":"http://terminology.hl7.org/CodeSystem/condition-category","code":"problem-list-item","display":"Problem List Item"}]}],"code":{"coding":[{"system":"http://snomed.info/sct","version":"2021-09","code":"254900004","display":"Carcinoma of prostate (disorder)","userSelected":true}]},"subject":{"reference":"Patient/449eb3e6-3c46-439c-95cd-125aadd27e82"},"onsetPeriod":{"start":"2025-08-04T08:00:00.000+00:00"}},"request":{"method":"PUT","url":"Condition/d96faae6-96c7-4403-b525-7f0b69367943"}},{"fullUrl":"https://madie.cms.gov/Observation/1313113","resource":{"resourceType":"Observation","id":"b0d64fe7-62a1-4862-9427-30950d6b2050","meta":{"profile":["http://hl7.org/fhir/us/qicore/StructureDefinition/qicore-observation"]},"status":"final","category":[{"coding":[{"system":"http://terminology.hl7.org/CodeSystem/observation-category","code":"imaging","display":"Imaging"}]}],"code":{"coding":[{"system":"http://loinc.org","version":"2.69","code":"38265-5","display":"DXA Radius and Ulna [T-score] Bone density","userSelected":true}]},"subject":{"reference":"Patient/449eb3e6-3c46-439c-95cd-125aadd27e82"},"effectivePeriod":{"start":"2024-09-01T10:00:00.000+00:00","end":"2024-09-01T11:00:00.000+00:00"}},"request":{"method":"PUT","url":"Observation/b0d64fe7-62a1-4862-9427-30950d6b2050"}},{"fullUrl":"https://madie.cms.gov/Practitioner/646346","resource":{"resourceType":"Practitioner","id":"9249114f-b26e-4ef5-9e26-91bafccb4c31","meta":{"profile":["http://hl7.org/fhir/us/qicore/StructureDefinition/qicore-practitioner"]},"identifier":[{"use":"temp","system":"urn:oid:2.16.840.1.113883.4.336","value":"Practitioner-23"}],"active":true,"name":[{"family":"Careful","given":["Adam"],"prefix":["Dr"]}],"address":[{"use":"home","line":["534 Erewhon St"],"city":"PleasantVille","state":"UT","postalCode":"84414"}],"qualification":[{"identifier":[{"system":"http://example.org/UniversityIdentifier","value":"12345"}],"code":{"coding":[{"system":"http://terminology.hl7.org/CodeSystem/v2-0360|2.7","code":"BS","display":"Bachelor of Science"}],"text":"Bachelor of Science"},"period":{"start":"1995"},"issuer":{"display":"Example University"}}]},"request":{"method":"PUT","url":"Practitioner/9249114f-b26e-4ef5-9e26-91bafccb4c31"}},{"fullUrl":"https://madie.cms.gov/MedicationRequest/64564646","resource":{"resourceType":"MedicationRequest","id":"92ddb519-f0ce-4d78-ab3b-0359a305d9d3","meta":{"profile":["http://hl7.org/fhir/us/qicore/StructureDefinition/qicore-medicationrequest"]},"status":"active","intent":"order","medicationCodeableConcept":{"coding":[{"system":"http://www.nlm.nih.gov/research/umls/rxnorm","code":"1115257","display":"1.5 ML leuprolide acetate 30 MG/ML Prefilled Syringe","userSelected":true}]},"subject":{"reference":"Patient/449eb3e6-3c46-439c-95cd-125aadd27e82"},"authoredOn":"2025-08-28T08:00:00.000+00:00","requester":{"reference":"http://myGoodHealthcare.com/fhir/Practitioner/646346"},"dosageInstruction":[{"timing":{"repeat":{"boundsPeriod":{"start":"2025-08-31T08:00:00.000+00:00"}}}}]},"request":{"method":"PUT","url":"MedicationRequest/92ddb519-f0ce-4d78-ab3b-0359a305d9d3"}},{"fullUrl":"https://madie.cms.gov/ServiceRequest/764645645","resource":{"resourceType":"ServiceRequest","id":"11c9dffe-6caf-4716-a57c-c1762c282b2b","meta":{"profile":["http://hl7.org/fhir/us/qicore/StructureDefinition/qicore-servicerequest"]},"status":"active","intent":"order","code":{"coding":[{"system":"http://snomed.info/sct","code":"456381000124102","display":"Injection of leuprolide acetate for twelve month period (regime/therapy)","userSelected":true}]},"subject":{"reference":"Patient/449eb3e6-3c46-439c-95cd-125aadd27e82"},"authoredOn":"2025-08-31T08:00:00.000+00:00"},"request":{"method":"PUT","url":"ServiceRequest/11c9dffe-6caf-4716-a57c-c1762c282b2b"}},{"fullUrl":"https://madie.cms.gov/MeasureReport/9ab05944-0df9-4648-8f04-46d9ebbf021c","resource":{"resourceType":"MeasureReport","id":"9ab05944-0df9-4648-8f04-46d9ebbf021c","meta":{"profile":["http://hl7.org/fhir/us/cqfmeasures/StructureDefinition/test-case-cqfm"]},"contained":[{"resourceType":"Parameters","id":"87be601f-6e64-4ed6-b1e4-52c020429276-parameters","parameter":[{"name":"subject","valueString":"449eb3e6-3c46-439c-95cd-125aadd27e82"}]}],"extension":[{"url":"http://hl7.org/fhir/us/cqfmeasures/StructureDefinition/cqfm-inputParameters","valueReference":{"reference":"#87be601f-6e64-4ed6-b1e4-52c020429276-parameters"}},{"url":"http://hl7.org/fhir/us/cqfmeasures/StructureDefinition/cqfm-testCaseDescription","valueMarkdown":"Dx of Prostate Cancer with qualifying encounter(s) in MP.  DEXA 1 year prior to Prostate cancer diagnosis and ADT.  Passes NUMER criteria"}],"modifierExtension":[{"url":"http://hl7.org/fhir/us/cqfmeasures/StructureDefinition/cqfm-isTestCase","valueBoolean":true}],"status":"complete","type":"individual","measure":"https://madie.cms.gov/Measure/BoneDensityProstateCancerAndrogenDeprivationTherapyFHIR","period":{"start":"2025-01-01","end":"2025-12-31"},"group":[{"population":[{"code":{"coding":[{"system":"http://terminology.hl7.org/CodeSystem/measure-population","code":"initial-population","display":"Initial Population"}]},"count":1},{"code":{"coding":[{"system":"http://terminology.hl7.org/CodeSystem/measure-population","code":"denominator","display":"Denominator"}]},"count":1},{"code":{"coding":[{"system":"http://terminology.hl7.org/CodeSystem/measure-population","code":"numerator","display":"Numerator"}]},"count":1},{"code":{"coding":[{"system":"http://terminology.hl7.org/CodeSystem/measure-population","code":"denominator-exception","display":"Denominator Exception"}]},"count":0}]}]},"request":{"method":"PUT","url":"MeasureReport/9ab05944-0df9-4648-8f04-46d9ebbf021c"}}]}