{"resourceType":"Bundle","id":"tests-4d648e0d-3d8c-4089-af65-ddcf3642b735-bundle","type":"transaction","entry":[{"fullUrl":"https://madie.cms.gov/Patient/4d648e0d-3d8c-4089-af65-ddcf3642b735","resource":{"resourceType":"Patient","id":"4d648e0d-3d8c-4089-af65-ddcf3642b735","meta":{"profile":["http://hl7.org/fhir/us/qicore/StructureDefinition/qicore-patient"]},"extension":[{"url":"http://hl7.org/fhir/us/core/StructureDefinition/us-core-race","extension":[{"url":"ombCategory","valueCoding":{"system":"urn:oid:2.16.840.1.113883.6.238","code":"1002-5","display":"American Indian or Alaska Native","userSelected":true}},{"url":"text","valueString":"American Indian or Alaska Native"}]},{"url":"http://hl7.org/fhir/us/core/StructureDefinition/us-core-ethnicity","extension":[{"url":"ombCategory","valueCoding":{"system":"urn:oid:2.16.840.1.113883.6.238","code":"2135-2","display":"Hispanic or Latino","userSelected":true}},{"url":"text","valueString":"Hispanic or Latino"}]}],"identifier":[{"type":{"coding":[{"system":"http://terminology.hl7.org/CodeSystem/v2-0203","code":"MR"}]},"system":"https://bonnie-fhir.healthit.gov/","value":"62bb3859e8081f5ef5e199f5"}],"name":[{"family":"IPPFail","given":["EncounterInMPNotDone"]}],"gender":"male","birthDate":"1961-07-19"},"request":{"method":"PUT","url":"Patient/4d648e0d-3d8c-4089-af65-ddcf3642b735"}},{"fullUrl":"https://madie.cms.gov/Encounter/464564","resource":{"resourceType":"Encounter","id":"d4eac572-bb1d-4760-ab9b-f12f6e057410","meta":{"profile":["http://hl7.org/fhir/us/qicore/StructureDefinition/qicore-encounter"]},"status":"finished","class":{"system":"http://terminology.hl7.org/CodeSystem/v3-ActCode","code":"AMB","display":"ambulatory"},"type":[{"coding":[{"system":"http://snomed.info/sct","version":"http://snomed.info/sct/731000124108/version/20240401","code":"185463005","display":"Visit out of hours (procedure)","userSelected":true}]}],"subject":{"reference":"Patient/4d648e0d-3d8c-4089-af65-ddcf3642b735"},"period":{"start":"2025-11-29T08:00:00.000+00:00","end":"2025-11-29T08:15:00.000+00:00"}},"request":{"method":"PUT","url":"Encounter/d4eac572-bb1d-4760-ab9b-f12f6e057410"}},{"fullUrl":"https://madie.cms.gov/Condition/16351465","resource":{"resourceType":"Condition","id":"ea99cca4-688e-45e2-b509-0404d9645566","meta":{"profile":["http://hl7.org/fhir/us/qicore/StructureDefinition/qicore-condition"]},"clinicalStatus":{"coding":[{"system":"http://terminology.hl7.org/CodeSystem/condition-clinical","code":"active","display":"Active","userSelected":true}]},"verificationStatus":{"coding":[{"system":"http://terminology.hl7.org/CodeSystem/condition-ver-status","code":"confirmed","display":"Confirmed","userSelected":true}]},"category":[{"coding":[{"system":"http://terminology.hl7.org/CodeSystem/condition-category","code":"problem-list-item","display":"Problem List Item"}]}],"code":{"coding":[{"system":"http://snomed.info/sct","version":"http://snomed.info/sct/731000124108/version/20240401","code":"254900004","display":"Carcinoma of prostate (disorder)","userSelected":true}]},"subject":{"reference":"Patient/4d648e0d-3d8c-4089-af65-ddcf3642b735"},"onsetPeriod":{"start":"2024-11-25T08:00:00.000+00:00"}},"request":{"method":"PUT","url":"Condition/ea99cca4-688e-45e2-b509-0404d9645566"}},{"fullUrl":"https://madie.cms.gov/Observation/1313113","resource":{"resourceType":"Observation","id":"83fb5570-8a56-4ab1-80d3-8a77f7795381","meta":{"profile":["http://hl7.org/fhir/us/qicore/StructureDefinition/qicore-observation"]},"status":"final","category":[{"coding":[{"system":"http://terminology.hl7.org/CodeSystem/observation-category","code":"imaging","display":"Imaging"}]}],"code":{"coding":[{"system":"http://loinc.org","version":"2.76","code":"38265-5","display":"DXA Radius and Ulna [T-score] Bone density"}]},"subject":{"reference":"http://GoodHealthcare.com/fhir/Patient/46464646"},"effectivePeriod":{"start":"2024-11-25T10:00:00.000+00:00"}},"request":{"method":"PUT","url":"Observation/83fb5570-8a56-4ab1-80d3-8a77f7795381"}},{"fullUrl":"https://madie.cms.gov/MedicationRequest/98948641","resource":{"resourceType":"MedicationRequest","id":"2dddffd5-ac8b-4583-acbd-ac6db26c1d90","meta":{"profile":["http://hl7.org/fhir/us/qicore/StructureDefinition/qicore-medicationrequest"]},"status":"active","intent":"order","medicationCodeableConcept":{"coding":[{"system":"http://www.nlm.nih.gov/research/umls/rxnorm","version":"2025-01","code":"752886","display":"0.375 ML leuprolide acetate 120 MG/ML Prefilled Syringe","userSelected":true}]},"subject":{"reference":"Patient/4d648e0d-3d8c-4089-af65-ddcf3642b735"},"authoredOn":"2024-11-25T08:00:00.000+00:00","requester":{"reference":"http://myGoodHealthcare.com/fhir/Practitioner/646346"},"dosageInstruction":[{"timing":{"repeat":{"boundsPeriod":{"start":"2024-11-25T08:00:00.000+00:00"}}}}]},"request":{"method":"PUT","url":"MedicationRequest/2dddffd5-ac8b-4583-acbd-ac6db26c1d90"}},{"fullUrl":"https://madie.cms.gov/ServiceRequest/587458","resource":{"resourceType":"ServiceRequest","id":"330806d0-5050-48ff-b9aa-83ae529d0cf1","meta":{"profile":["http://hl7.org/fhir/us/qicore/StructureDefinition/qicore-servicerequest"]},"status":"active","intent":"order","code":{"coding":[{"system":"http://snomed.info/sct","code":"456381000124102","display":"Injection of leuprolide acetate for twelve month period (regime/therapy)","userSelected":true}]},"subject":{"reference":"Patient/4d648e0d-3d8c-4089-af65-ddcf3642b735"},"authoredOn":"2026-11-25T08:00:00.000+00:00"},"request":{"method":"PUT","url":"ServiceRequest/330806d0-5050-48ff-b9aa-83ae529d0cf1"}},{"fullUrl":"https://madie.cms.gov/MeasureReport/0ae1e070-6888-4f45-b5c5-acc2757f7bfe","resource":{"resourceType":"MeasureReport","id":"0ae1e070-6888-4f45-b5c5-acc2757f7bfe","meta":{"profile":["http://hl7.org/fhir/us/cqfmeasures/StructureDefinition/test-case-cqfm"]},"contained":[{"resourceType":"Parameters","id":"eb6e20b0-304a-414e-8805-ae39e5967ecd-parameters","parameter":[{"name":"subject","valueString":"4d648e0d-3d8c-4089-af65-ddcf3642b735"}]}],"extension":[{"url":"http://hl7.org/fhir/us/cqfmeasures/StructureDefinition/cqfm-inputParameters","valueReference":{"reference":"#eb6e20b0-304a-414e-8805-ae39e5967ecd-parameters"}},{"url":"http://hl7.org/fhir/us/cqfmeasures/StructureDefinition/cqfm-testCaseDescription","valueMarkdown":"Dx of Prostate Cancer, ADT is not null, but qualifying encounter(s) was not done  in MP. Fails IPP Criteria"}],"modifierExtension":[{"url":"http://hl7.org/fhir/us/cqfmeasures/StructureDefinition/cqfm-isTestCase","valueBoolean":true}],"status":"complete","type":"individual","measure":"https://madie.cms.gov/Measure/BoneDensityProstateCancerAndrogenDeprivationTherapyFHIR","period":{"start":"2025-01-01","end":"2025-12-31"},"group":[{"population":[{"code":{"coding":[{"system":"http://terminology.hl7.org/CodeSystem/measure-population","code":"initial-population","display":"Initial Population"}]},"count":0},{"code":{"coding":[{"system":"http://terminology.hl7.org/CodeSystem/measure-population","code":"denominator","display":"Denominator"}]},"count":0},{"code":{"coding":[{"system":"http://terminology.hl7.org/CodeSystem/measure-population","code":"numerator","display":"Numerator"}]},"count":0},{"code":{"coding":[{"system":"http://terminology.hl7.org/CodeSystem/measure-population","code":"denominator-exception","display":"Denominator Exception"}]},"count":0}]}]},"request":{"method":"PUT","url":"MeasureReport/0ae1e070-6888-4f45-b5c5-acc2757f7bfe"}}]}