{"resourceType":"Bundle","id":"tests-7d6436cb-995e-4672-b5bb-04cb996b2949-bundle","type":"transaction","entry":[{"fullUrl":"https://madie.cms.gov/Patient/7d6436cb-995e-4672-b5bb-04cb996b2949","resource":{"resourceType":"Patient","id":"7d6436cb-995e-4672-b5bb-04cb996b2949","meta":{"profile":["http://hl7.org/fhir/us/qicore/StructureDefinition/qicore-patient"]},"extension":[{"url":"http://hl7.org/fhir/us/core/StructureDefinition/us-core-race","extension":[{"url":"ombCategory","valueCoding":{"system":"urn:oid:2.16.840.1.113883.6.238","code":"2054-5","display":"Black or African American"}},{"url":"text","valueString":"Black or African American"}]},{"url":"http://hl7.org/fhir/us/core/StructureDefinition/us-core-ethnicity","extension":[{"url":"ombCategory","valueCoding":{"system":"urn:oid:2.16.840.1.113883.6.238","code":"2186-5","display":"Not Hispanic or Latino"}},{"url":"text","valueString":"Not Hispanic or Latino"}]}],"identifier":[{"type":{"coding":[{"system":"http://terminology.hl7.org/CodeSystem/v2-0203","code":"MR"}]},"system":"https://bonnie-fhir.healthit.gov/","value":"60abda28bf0a01003e3f76bd"}],"name":[{"family":"NUMERFail","given":["DEXAGreaterThan2YearsBeforeADT"]}],"gender":"male","birthDate":"1929-06-15"},"request":{"method":"PUT","url":"Patient/7d6436cb-995e-4672-b5bb-04cb996b2949"}},{"fullUrl":"https://madie.cms.gov/Encounter/4313131321","resource":{"resourceType":"Encounter","id":"9092e71a-7e5f-4c56-807b-838a9cd210b4","meta":{"profile":["http://hl7.org/fhir/us/qicore/StructureDefinition/qicore-encounter"]},"status":"finished","class":{"system":"http://terminology.hl7.org/CodeSystem/v3-ActCode","code":"AMB","display":"ambulatory"},"type":[{"coding":[{"system":"http://snomed.info/sct","version":"http://snomed.info/sct/731000124108/version/20240301","code":"185463005","display":"Visit out of hours (procedure)"}]}],"subject":{"reference":"Patient/7d6436cb-995e-4672-b5bb-04cb996b2949"},"period":{"start":"2025-04-04T08:00:00.000+00:00","end":"2025-04-04T08:15:00.000+00:00"}},"request":{"method":"PUT","url":"Encounter/9092e71a-7e5f-4c56-807b-838a9cd210b4"}},{"fullUrl":"https://madie.cms.gov/Condition/7461314631","resource":{"resourceType":"Condition","id":"89c2859a-30c1-48c2-88af-0ee9c4168237","meta":{"profile":["http://hl7.org/fhir/us/qicore/StructureDefinition/qicore-condition"]},"clinicalStatus":{"coding":[{"system":"http://terminology.hl7.org/CodeSystem/condition-clinical","code":"active","display":"Active"}]},"verificationStatus":{"coding":[{"system":"http://terminology.hl7.org/CodeSystem/condition-ver-status","code":"confirmed"}]},"category":[{"coding":[{"system":"http://terminology.hl7.org/CodeSystem/condition-category","code":"problem-list-item","display":"Problem List Item"}]}],"code":{"coding":[{"system":"http://snomed.info/sct","version":"http://snomed.info/sct/731000124108/version/20240301","code":"254900004","display":"Carcinoma of prostate (disorder)"}]},"subject":{"reference":"Patient/7d6436cb-995e-4672-b5bb-04cb996b2949"},"onsetPeriod":{"start":"2025-04-04T08:00:00.000+00:00"}},"request":{"method":"PUT","url":"Condition/89c2859a-30c1-48c2-88af-0ee9c4168237"}},{"fullUrl":"https://madie.cms.gov/Observation/9684310313","resource":{"resourceType":"Observation","id":"788d2ff4-ee91-4861-8d5b-ae1b39bd9052","meta":{"profile":["http://hl7.org/fhir/us/qicore/StructureDefinition/qicore-observation"]},"status":"final","category":[{"coding":[{"system":"http://terminology.hl7.org/CodeSystem/observation-category","code":"imaging","display":"Imaging"}]}],"code":{"coding":[{"system":"http://loinc.org","version":"2.76","code":"38265-5","display":"DXA Radius and Ulna [T-score] Bone density"}]},"subject":{"reference":"Patient/7d6436cb-995e-4672-b5bb-04cb996b2949"},"effectivePeriod":{"start":"2022-02-04T10:00:00.000+00:00"}},"request":{"method":"PUT","url":"Observation/788d2ff4-ee91-4861-8d5b-ae1b39bd9052"}},{"fullUrl":"https://madie.cms.gov/Practitioner/876135131","resource":{"resourceType":"Practitioner","id":"db60707a-107b-4583-a6e1-ab77615a05bd","meta":{"profile":["http://hl7.org/fhir/us/qicore/StructureDefinition/qicore-practitioner"]},"identifier":[{"use":"temp","system":"urn:oid:2.16.840.1.113883.4.336","value":"Practitioner-23"}],"active":true,"name":[{"family":"Careful","given":["Adam"],"prefix":["Dr"]}],"address":[{"use":"home","line":["534 Erewhon St"],"city":"PleasantVille","state":"UT","postalCode":"84414"}],"qualification":[{"identifier":[{"system":"http://example.org/UniversityIdentifier","value":"12345"}],"code":{"coding":[{"system":"http://terminology.hl7.org/CodeSystem/v2-0360|2.7","code":"BS","display":"Bachelor of Science"}],"text":"Bachelor of Science"},"period":{"start":"1995"},"issuer":{"display":"Example University"}}]},"request":{"method":"PUT","url":"Practitioner/db60707a-107b-4583-a6e1-ab77615a05bd"}},{"fullUrl":"https://madie.cms.gov/MedicationRequest/343035130","resource":{"resourceType":"MedicationRequest","id":"9145a823-c47d-457d-a01f-f1b9e50d682d","meta":{"profile":["http://hl7.org/fhir/us/qicore/StructureDefinition/qicore-medicationrequest"]},"status":"active","intent":"order","medicationCodeableConcept":{"coding":[{"system":"http://www.nlm.nih.gov/research/umls/rxnorm","version":"04012024","code":"1115257","display":"1.5 ML leuprolide acetate 30 MG/ML Prefilled Syringe"}]},"subject":{"reference":"Patient/7d6436cb-995e-4672-b5bb-04cb996b2949"},"authoredOn":"2025-04-04T08:00:00.000+00:00","requester":{"reference":"http://myGoodHealthcare.com/fhir/Practitioner/876135131"},"dosageInstruction":[{"timing":{"repeat":{"boundsPeriod":{"start":"2025-04-04T08:00:00.000+00:00","end":"2025-05-04T08:00:00.000+00:00"}}}}]},"request":{"method":"PUT","url":"MedicationRequest/9145a823-c47d-457d-a01f-f1b9e50d682d"}},{"fullUrl":"https://madie.cms.gov/ServiceRequest/9431313213","resource":{"resourceType":"ServiceRequest","id":"b2fae0dd-084f-406a-84c4-525e93a8e6b5","meta":{"profile":["http://hl7.org/fhir/us/qicore/StructureDefinition/qicore-servicerequest"]},"status":"active","intent":"order","code":{"coding":[{"system":"http://snomed.info/sct","version":"http://snomed.info/sct/731000124108/version/20240301","code":"456381000124102","display":"Injection of leuprolide acetate for twelve month period (regime/therapy)"}]},"subject":{"reference":"Patient/7d6436cb-995e-4672-b5bb-04cb996b2949"},"authoredOn":"2025-04-04T08:00:00.000+00:00"},"request":{"method":"PUT","url":"ServiceRequest/b2fae0dd-084f-406a-84c4-525e93a8e6b5"}},{"fullUrl":"https://madie.cms.gov/MeasureReport/b7b2e26f-c1ef-48ba-9cc4-d8da45a08831","resource":{"resourceType":"MeasureReport","id":"b7b2e26f-c1ef-48ba-9cc4-d8da45a08831","meta":{"profile":["http://hl7.org/fhir/us/cqfmeasures/StructureDefinition/test-case-cqfm"]},"contained":[{"resourceType":"Parameters","id":"350e84e0-ddf5-4d3c-b649-5945db9cde4f-parameters","parameter":[{"name":"subject","valueString":"7d6436cb-995e-4672-b5bb-04cb996b2949"}]}],"extension":[{"url":"http://hl7.org/fhir/us/cqfmeasures/StructureDefinition/cqfm-inputParameters","valueReference":{"reference":"#350e84e0-ddf5-4d3c-b649-5945db9cde4f-parameters"}},{"url":"http://hl7.org/fhir/us/cqfmeasures/StructureDefinition/cqfm-testCaseDescription","valueMarkdown":"Patient DEXA performed greater than 2 years before ADT.  Failed NUMER criteria."}],"modifierExtension":[{"url":"http://hl7.org/fhir/us/cqfmeasures/StructureDefinition/cqfm-isTestCase","valueBoolean":true}],"status":"complete","type":"individual","measure":"https://madie.cms.gov/Measure/BoneDensityProstateCancerAndrogenDeprivationTherapyFHIR","period":{"start":"2025-01-01","end":"2025-12-31"},"group":[{"population":[{"code":{"coding":[{"system":"http://terminology.hl7.org/CodeSystem/measure-population","code":"initial-population","display":"Initial Population"}]},"count":1},{"code":{"coding":[{"system":"http://terminology.hl7.org/CodeSystem/measure-population","code":"denominator","display":"Denominator"}]},"count":1},{"code":{"coding":[{"system":"http://terminology.hl7.org/CodeSystem/measure-population","code":"numerator","display":"Numerator"}]},"count":0},{"code":{"coding":[{"system":"http://terminology.hl7.org/CodeSystem/measure-population","code":"denominator-exception","display":"Denominator Exception"}]},"count":0}]}]},"request":{"method":"PUT","url":"MeasureReport/b7b2e26f-c1ef-48ba-9cc4-d8da45a08831"}}]}