{"resourceType":"Bundle","id":"tests-97b72f42-08ae-4f6e-a7c9-1aa42f33ca90-bundle","type":"transaction","entry":[{"fullUrl":"https://madie.cms.gov/Patient/97b72f42-08ae-4f6e-a7c9-1aa42f33ca90","resource":{"resourceType":"Patient","id":"97b72f42-08ae-4f6e-a7c9-1aa42f33ca90","meta":{"profile":["http://hl7.org/fhir/us/qicore/StructureDefinition/qicore-patient"]},"extension":[{"url":"http://hl7.org/fhir/us/core/StructureDefinition/us-core-race","extension":[{"url":"ombCategory","valueCoding":{"system":"urn:oid:2.16.840.1.113883.6.238","code":"2054-5","display":"Black or African American","userSelected":true}},{"url":"text","valueString":"Black or African American"}]},{"url":"http://hl7.org/fhir/us/core/StructureDefinition/us-core-ethnicity","extension":[{"url":"ombCategory","valueCoding":{"system":"urn:oid:2.16.840.1.113883.6.238","code":"2135-2","display":"Hispanic or Latino","userSelected":true}},{"url":"text","valueString":"Hispanic or Latino"}]}],"identifier":[{"type":{"coding":[{"system":"http://terminology.hl7.org/CodeSystem/v2-0203","code":"MR"}]},"system":"https://bonnie-fhir.healthit.gov/","value":"6077319098086b6fb8f00ab2"}],"active":true,"name":[{"family":"DENEXCEPFail","given":["DEXAPerformedPtRefused4MonthsAfter"]}],"gender":"male","birthDate":"1943-12-15"},"request":{"method":"PUT","url":"Patient/97b72f42-08ae-4f6e-a7c9-1aa42f33ca90"}},{"fullUrl":"https://madie.cms.gov/Encounter/5c9c655db84846632d66dd44","resource":{"resourceType":"Encounter","id":"1c13fb74-64d0-4ebe-a242-cc67d40a4c35","meta":{"profile":["http://hl7.org/fhir/us/qicore/StructureDefinition/qicore-encounter"]},"status":"finished","class":{"system":"http://terminology.hl7.org/CodeSystem/v3-ActCode","code":"AMB","display":"ambulatory"},"type":[{"coding":[{"system":"http://www.ama-assn.org/go/cpt","code":"99203"}]}],"subject":{"reference":"Patient/97b72f42-08ae-4f6e-a7c9-1aa42f33ca90"},"period":{"start":"2025-04-04T08:00:00.000+00:00","end":"2025-04-04T08:15:00.000+00:00"}},"request":{"method":"PUT","url":"Encounter/1c13fb74-64d0-4ebe-a242-cc67d40a4c35"}},{"fullUrl":"https://madie.cms.gov/Condition/5c9c655db84846632d66dd43","resource":{"resourceType":"Condition","id":"5afc2e77-20f1-41bc-bfc4-29b706d5adcc","meta":{"profile":["http://hl7.org/fhir/us/qicore/StructureDefinition/qicore-condition"]},"clinicalStatus":{"coding":[{"system":"http://terminology.hl7.org/CodeSystem/condition-clinical","code":"active"}]},"verificationStatus":{"coding":[{"system":"http://terminology.hl7.org/CodeSystem/condition-ver-status","code":"confirmed"}]},"category":[{"coding":[{"system":"http://terminology.hl7.org/CodeSystem/condition-category","code":"problem-list-item","display":"Problem List Item"}]}],"code":{"coding":[{"system":"http://snomed.info/sct","version":"http://snomed.info/sct/731000124108/version/20240401","code":"254900004","display":"Carcinoma of prostate (disorder)"}]},"subject":{"reference":"Patient/97b72f42-08ae-4f6e-a7c9-1aa42f33ca90"},"onsetPeriod":{"start":"2025-04-04T08:00:00.000+00:00"}},"request":{"method":"PUT","url":"Condition/5afc2e77-20f1-41bc-bfc4-29b706d5adcc"}},{"fullUrl":"https://madie.cms.gov/MedicationRequest/5c9c655db84846632d66dd45","resource":{"resourceType":"MedicationRequest","id":"7ab275ed-1687-4633-806d-13f338f56deb","meta":{"profile":["http://hl7.org/fhir/us/qicore/StructureDefinition/qicore-medicationrequest"]},"status":"active","intent":"order","medicationCodeableConcept":{"coding":[{"system":"http://www.nlm.nih.gov/research/umls/rxnorm","code":"1115257","display":"1.5 ML leuprolide acetate 30 MG/ML Prefilled Syringe"}]},"subject":{"reference":"Patient/97b72f42-08ae-4f6e-a7c9-1aa42f33ca90"},"authoredOn":"2025-04-04T08:00:00.000+00:00","requester":{"reference":"http://myGoodHealthcare.com/fhir/Practitioner/646346"},"dosageInstruction":[{"timing":{"repeat":{"boundsPeriod":{"start":"2025-04-04T08:00:00.000+00:00"}}}}]},"request":{"method":"PUT","url":"MedicationRequest/7ab275ed-1687-4633-806d-13f338f56deb"}},{"fullUrl":"https://madie.cms.gov/Practitioner/646346","resource":{"resourceType":"Practitioner","id":"7c5122cf-d00e-4eff-8e8d-369d54e2158e","meta":{"profile":["http://hl7.org/fhir/us/qicore/StructureDefinition/qicore-practitioner"]},"identifier":[{"use":"temp","system":"urn:oid:2.16.840.1.113883.4.336","value":"Practitioner-23"}],"active":true,"name":[{"family":"Careful","given":["Adam"],"prefix":["Dr"]}],"address":[{"use":"home","line":["534 Erewhon St"],"city":"PleasantVille","state":"UT","postalCode":"84414"}],"qualification":[{"identifier":[{"system":"http://example.org/UniversityIdentifier","value":"12345"}],"code":{"coding":[{"system":"http://terminology.hl7.org/CodeSystem/v2-0360|2.7","code":"BS","display":"Bachelor of Science"}],"text":"Bachelor of Science"},"period":{"start":"1995"},"issuer":{"display":"Example University"}}]},"request":{"method":"PUT","url":"Practitioner/7c5122cf-d00e-4eff-8e8d-369d54e2158e"}},{"fullUrl":"https://madie.cms.gov/ServiceRequest/1321321321","resource":{"resourceType":"ServiceRequest","id":"4d91115f-ebf0-40de-92b2-336bcdc64f95","meta":{"profile":["http://hl7.org/fhir/us/qicore/StructureDefinition/qicore-servicerequest"]},"status":"active","intent":"order","code":{"coding":[{"system":"http://snomed.info/sct","code":"456381000124102","display":"Injection of leuprolide acetate for twelve month period (regime/therapy)"}]},"subject":{"reference":"Patient/97b72f42-08ae-4f6e-a7c9-1aa42f33ca90"},"authoredOn":"2025-08-04T08:00:00.000+00:00"},"request":{"method":"PUT","url":"ServiceRequest/4d91115f-ebf0-40de-92b2-336bcdc64f95"}},{"fullUrl":"https://madie.cms.gov/ServiceRequest/646543541","resource":{"resourceType":"ServiceRequest","id":"e9cf1878-cce6-4aff-bf1d-55ca9bdf533a","meta":{"profile":["http://hl7.org/fhir/us/qicore/StructureDefinition/qicore-servicerequest"]},"extension":[{"url":"http://hl7.org/fhir/us/qicore/StructureDefinition/qicore-doNotPerformReason","valueCodeableConcept":{"coding":[{"system":"http://snomed.info/sct","code":"105480006","display":"Refusal of treatment by patient (situation)","userSelected":true}]}}],"status":"completed","intent":"order","doNotPerform":false,"code":{"coding":[{"system":"http://loinc.org","version":"2.71","code":"38265-5","display":"DXA Radius and Ulna [T-score] Bone density","userSelected":true}]},"subject":{"reference":"Patient/97b72f42-08ae-4f6e-a7c9-1aa42f33ca90"},"authoredOn":"2025-08-04T08:00:00.000+00:00"},"request":{"method":"PUT","url":"ServiceRequest/e9cf1878-cce6-4aff-bf1d-55ca9bdf533a"}},{"fullUrl":"https://madie.cms.gov/MeasureReport/2545bd3b-4964-4ec6-bafd-86d6e7c17938","resource":{"resourceType":"MeasureReport","id":"2545bd3b-4964-4ec6-bafd-86d6e7c17938","meta":{"profile":["http://hl7.org/fhir/us/cqfmeasures/StructureDefinition/test-case-cqfm"]},"contained":[{"resourceType":"Parameters","id":"90be3fef-6a6e-4b65-93d5-320ba0c3e3d9-parameters","parameter":[{"name":"subject","valueString":"97b72f42-08ae-4f6e-a7c9-1aa42f33ca90"}]}],"extension":[{"url":"http://hl7.org/fhir/us/cqfmeasures/StructureDefinition/cqfm-inputParameters","valueReference":{"reference":"#90be3fef-6a6e-4b65-93d5-320ba0c3e3d9-parameters"}},{"url":"http://hl7.org/fhir/us/cqfmeasures/StructureDefinition/cqfm-testCaseDescription","valueMarkdown":"Dx of Prostate Cancer, and Androgen deprivation therapy for Urology Care is not null.  DEXA performed with patient refusal 4 mo after.  Fails DENEXCEP. .  "}],"modifierExtension":[{"url":"http://hl7.org/fhir/us/cqfmeasures/StructureDefinition/cqfm-isTestCase","valueBoolean":true}],"status":"complete","type":"individual","measure":"https://madie.cms.gov/Measure/BoneDensityProstateCancerAndrogenDeprivationTherapyFHIR","period":{"start":"2025-01-01","end":"2025-12-31"},"group":[{"population":[{"code":{"coding":[{"system":"http://terminology.hl7.org/CodeSystem/measure-population","code":"initial-population","display":"Initial Population"}]},"count":1},{"code":{"coding":[{"system":"http://terminology.hl7.org/CodeSystem/measure-population","code":"denominator","display":"Denominator"}]},"count":1},{"code":{"coding":[{"system":"http://terminology.hl7.org/CodeSystem/measure-population","code":"numerator","display":"Numerator"}]},"count":1},{"code":{"coding":[{"system":"http://terminology.hl7.org/CodeSystem/measure-population","code":"denominator-exception","display":"Denominator Exception"}]},"count":0}]}]},"request":{"method":"PUT","url":"MeasureReport/2545bd3b-4964-4ec6-bafd-86d6e7c17938"}}]}