{"resourceType":"Bundle","id":"tests-8068a81d-feca-4719-aa75-cb45df5428e7-bundle","type":"transaction","entry":[{"fullUrl":"https://madie.cms.gov/Patient/8068a81d-feca-4719-aa75-cb45df5428e7","resource":{"resourceType":"Patient","id":"8068a81d-feca-4719-aa75-cb45df5428e7","meta":{"profile":["http://hl7.org/fhir/us/qicore/StructureDefinition/qicore-patient"]},"extension":[{"url":"http://hl7.org/fhir/us/core/StructureDefinition/us-core-race","extension":[{"url":"ombCategory","valueCoding":{"system":"urn:oid:2.16.840.1.113883.6.238","code":"1002-5","display":"American Indian or Alaska Native","userSelected":true}},{"url":"text","valueString":"American Indian or Alaska Native"}]},{"url":"http://hl7.org/fhir/us/core/StructureDefinition/us-core-ethnicity","extension":[{"url":"ombCategory","valueCoding":{"system":"urn:oid:2.16.840.1.113883.6.238","code":"2135-2","display":"Hispanic or Latino","userSelected":true}},{"url":"text","valueString":"Hispanic or Latino"}]}],"identifier":[{"type":{"coding":[{"system":"http://terminology.hl7.org/CodeSystem/v2-0203","code":"MR"}]},"system":"https://bonnie-fhir.healthit.gov","value":"62bc61713e113102f8cedc8b"}],"active":true,"name":[{"family":"DENOMPass","given":["PCaDxBeforeMP"]}],"gender":"male","birthDate":"1951-10-10"},"request":{"method":"PUT","url":"Patient/8068a81d-feca-4719-aa75-cb45df5428e7"}},{"fullUrl":"https://madie.cms.gov/Encounter/enc-3adsf13adf13","resource":{"resourceType":"Encounter","id":"3adsf13adf13","meta":{"profile":["http://hl7.org/fhir/us/qicore/StructureDefinition/qicore-encounter"]},"status":"finished","class":{"system":"http://terminology.hl7.org/CodeSystem/v3-ActCode","code":"AMB","display":"ambulatory"},"type":[{"coding":[{"system":"http://www.ama-assn.org/go/cpt","code":"99203"}]}],"subject":{"reference":"Patient/8068a81d-feca-4719-aa75-cb45df5428e7"},"period":{"start":"2025-02-01T08:00:00+00:00","end":"2025-02-01T08:15:00+00:00"}},"request":{"method":"PUT","url":"Encounter/3adsf13adf13"}},{"fullUrl":"https://madie.cms.gov/Condition/con-3a213543211","resource":{"resourceType":"Condition","id":"3a213543211","meta":{"profile":["http://hl7.org/fhir/us/qicore/StructureDefinition/qicore-condition"]},"clinicalStatus":{"coding":[{"system":"http://terminology.hl7.org/CodeSystem/condition-clinical","code":"active"}]},"verificationStatus":{"coding":[{"system":"http://terminology.hl7.org/CodeSystem/condition-ver-status","code":"confirmed"}]},"category":[{"coding":[{"system":"http://terminology.hl7.org/CodeSystem/condition-category","code":"problem-list-item","display":"Problem List Item"}]}],"code":{"coding":[{"system":"http://snomed.info/sct","version":"2022-09","code":"254900004","display":"Carcinoma of prostate (disorder)"}]},"subject":{"reference":"Patient/8068a81d-feca-4719-aa75-cb45df5428e7"},"onsetPeriod":{"start":"2021-03-15T08:00:00.000+00:00"}},"request":{"method":"PUT","url":"Condition/3a213543211"}},{"fullUrl":"https://madie.cms.gov/MedicationRequest/3216351asdf3","resource":{"resourceType":"MedicationRequest","id":"3216351asdf3","meta":{"profile":["http://hl7.org/fhir/us/qicore/StructureDefinition/qicore-medicationrequest"]},"status":"active","intent":"order","medicationCodeableConcept":{"coding":[{"system":"http://www.nlm.nih.gov/research/umls/rxnorm","code":"1115257","display":"1.5 ML leuprolide acetate 30 MG/ML Prefilled Syringe"}]},"subject":{"reference":"Patient/8068a81d-feca-4719-aa75-cb45df5428e7"},"authoredOn":"2025-03-15T08:00:00.000+00:00","requester":{"reference":"http://myGoodHealthcare.com/fhir/Practitioner/prac-646346"},"dosageInstruction":[{"timing":{"repeat":{"boundsPeriod":{"start":"2025-03-15T08:00:00.000+00:00","end":"2025-04-15T08:15:00.000+00:00"}}}}]},"request":{"method":"PUT","url":"MedicationRequest/3216351asdf3"}},{"fullUrl":"https://madie.cms.gov/ServiceRequest/13213517454","resource":{"resourceType":"ServiceRequest","id":"13213517454","meta":{"profile":["http://hl7.org/fhir/us/qicore/StructureDefinition/qicore-servicerequest"]},"status":"active","intent":"order","code":{"coding":[{"system":"http://snomed.info/sct","code":"456381000124102","display":"Injection of leuprolide acetate for twelve month period (regime/therapy)"}]},"subject":{"reference":"Patient/8068a81d-feca-4719-aa75-cb45df5428e7"},"authoredOn":"2025-03-15T08:00:00.000+00:00"},"request":{"method":"PUT","url":"ServiceRequest/13213517454"}},{"fullUrl":"https://madie.cms.gov/Practitioner/prac-646346","resource":{"resourceType":"Practitioner","id":"646346","meta":{"profile":["http://hl7.org/fhir/us/qicore/StructureDefinition/qicore-practitioner"]},"identifier":[{"use":"temp","system":"urn:oid:2.16.840.1.113883.4.336","value":"Practitioner-23"}],"active":true,"name":[{"family":"Careful","given":["Adam"],"prefix":["Dr"]}],"address":[{"use":"home","line":["534 Erewhon St"],"city":"PleasantVille","state":"UT","postalCode":"84414"}],"qualification":[{"identifier":[{"system":"http://example.org/UniversityIdentifier","value":"12345"}],"code":{"coding":[{"system":"http://terminology.hl7.org/CodeSystem/v2-0360|2.7","code":"BS","display":"Bachelor of Science"}],"text":"Bachelor of Science"},"period":{"start":"1995"},"issuer":{"display":"Example University"}}]},"request":{"method":"PUT","url":"Practitioner/646346"}},{"fullUrl":"https://madie.cms.gov/MeasureReport/dfc9e626-62a8-418e-8d5b-e6be1b790413","resource":{"resourceType":"MeasureReport","id":"dfc9e626-62a8-418e-8d5b-e6be1b790413","meta":{"profile":["http://hl7.org/fhir/us/cqfmeasures/StructureDefinition/test-case-cqfm"]},"contained":[{"resourceType":"Parameters","id":"fc7bc1d6-6eb8-465a-b16e-e3663f7119fc-parameters","parameter":[{"name":"subject","valueString":"8068a81d-feca-4719-aa75-cb45df5428e7"}]}],"extension":[{"url":"http://hl7.org/fhir/us/cqfmeasures/StructureDefinition/cqfm-inputParameters","valueReference":{"reference":"#fc7bc1d6-6eb8-465a-b16e-e3663f7119fc-parameters"}},{"url":"http://hl7.org/fhir/us/cqfmeasures/StructureDefinition/cqfm-testCaseDescription","valueMarkdown":"Dx of Prostate Cancer 3 years before measurement period begins.  OV, ADT and procedure order in MP.  Typical situation.  Passes IPP and Denom as expected."}],"modifierExtension":[{"url":"http://hl7.org/fhir/us/cqfmeasures/StructureDefinition/cqfm-isTestCase","valueBoolean":true}],"status":"complete","type":"individual","measure":"https://madie.cms.gov/Measure/BoneDensityProstateCancerAndrogenDeprivationTherapyFHIR","period":{"start":"2025-01-01","end":"2025-12-31"},"group":[{"population":[{"code":{"coding":[{"system":"http://terminology.hl7.org/CodeSystem/measure-population","code":"initial-population","display":"Initial Population"}]},"count":1},{"code":{"coding":[{"system":"http://terminology.hl7.org/CodeSystem/measure-population","code":"denominator","display":"Denominator"}]},"count":1},{"code":{"coding":[{"system":"http://terminology.hl7.org/CodeSystem/measure-population","code":"numerator","display":"Numerator"}]},"count":0},{"code":{"coding":[{"system":"http://terminology.hl7.org/CodeSystem/measure-population","code":"denominator-exception","display":"Denominator Exception"}]},"count":0}]}],"evaluatedResource":[{"reference":"Patient/8068a81d-feca-4719-aa75-cb45df5428e7"},{"reference":"Encounter/enc-3adsf13adf13"},{"reference":"Condition/con-3a213543211"},{"reference":"MedicationRequest/3216351asdf3"},{"reference":"ServiceRequest/13213517454"},{"reference":"Practitioner/prac-646346"}]},"request":{"method":"PUT","url":"MeasureReport/dfc9e626-62a8-418e-8d5b-e6be1b790413"}}]}