{"resourceType":"Bundle","id":"tests-2e85a096-f00c-48ce-8911-1691a916ab42-bundle","type":"transaction","entry":[{"fullUrl":"https://madie.cms.gov/Patient/2e85a096-f00c-48ce-8911-1691a916ab42","resource":{"resourceType":"Patient","id":"2e85a096-f00c-48ce-8911-1691a916ab42","meta":{"profile":["http://hl7.org/fhir/us/qicore/StructureDefinition/qicore-patient"]},"extension":[{"url":"http://hl7.org/fhir/us/core/StructureDefinition/us-core-race","extension":[{"url":"ombCategory","valueCoding":{"system":"urn:oid:2.16.840.1.113883.6.238","code":"1002-5","display":"American Indian or Alaska Native","userSelected":true}},{"url":"text","valueString":"American Indian or Alaska Native"}]},{"url":"http://hl7.org/fhir/us/core/StructureDefinition/us-core-ethnicity","extension":[{"url":"ombCategory","valueCoding":{"system":"urn:oid:2.16.840.1.113883.6.238","code":"2135-2","display":"Hispanic or Latino","userSelected":true}},{"url":"text","valueString":"Hispanic or Latino"}]}],"identifier":[{"type":{"coding":[{"system":"http://terminology.hl7.org/CodeSystem/v2-0203","code":"MR"}]},"system":"https://bonnie-fhir.healthit.gov/","value":"62bb3859e8081f5ef5e199f5"}],"name":[{"family":"IPPFail","given":["NoADTInMP"]}],"gender":"male","birthDate":"1961-07-19"},"request":{"method":"PUT","url":"Patient/2e85a096-f00c-48ce-8911-1691a916ab42"}},{"fullUrl":"https://madie.cms.gov/Encounter/enc-464564","resource":{"resourceType":"Encounter","id":"enc-464564","meta":{"profile":["http://hl7.org/fhir/us/qicore/StructureDefinition/qicore-encounter"]},"status":"finished","class":{"system":"http://terminology.hl7.org/CodeSystem/v3-ActCode","code":"AMB","display":"ambulatory"},"type":[{"coding":[{"system":"http://snomed.info/sct","version":"2022-09","code":"185463005","display":"Visit out of hours (procedure)","userSelected":true}]}],"subject":{"reference":"Patient/2e85a096-f00c-48ce-8911-1691a916ab42"},"period":{"start":"2025-09-29T08:00:00.000+00:00","end":"2025-09-29T08:15:00.000+00:00"}},"request":{"method":"PUT","url":"Encounter/enc-464564"}},{"fullUrl":"https://madie.cms.gov/Condition/con-16351465","resource":{"resourceType":"Condition","id":"con-16351465","meta":{"profile":["http://hl7.org/fhir/us/qicore/StructureDefinition/qicore-condition"]},"clinicalStatus":{"coding":[{"system":"http://terminology.hl7.org/CodeSystem/condition-clinical","code":"active","display":"Active","userSelected":true}]},"verificationStatus":{"coding":[{"system":"http://terminology.hl7.org/CodeSystem/condition-ver-status","code":"confirmed","display":"Confirmed","userSelected":true}]},"category":[{"coding":[{"system":"http://terminology.hl7.org/CodeSystem/condition-category","code":"problem-list-item","display":"Problem List Item"}]}],"code":{"coding":[{"system":"http://snomed.info/sct","version":"2022-09","code":"254900004","display":"Carcinoma of prostate (disorder)","userSelected":true}]},"subject":{"reference":"Patient/2e85a096-f00c-48ce-8911-1691a916ab42"},"onsetPeriod":{"start":"2025-07-25T08:00:00.000+00:00"}},"request":{"method":"PUT","url":"Condition/con-16351465"}},{"fullUrl":"https://madie.cms.gov/ServiceRequest/sreq-587458","resource":{"resourceType":"ServiceRequest","id":"sreq-587458","meta":{"profile":["http://hl7.org/fhir/us/qicore/StructureDefinition/qicore-servicerequest"]},"status":"active","intent":"order","code":{"coding":[{"system":"http://snomed.info/sct","code":"456381000124102","display":"Injection of leuprolide acetate for twelve month period (regime/therapy)","userSelected":true}]},"subject":{"reference":"Patient/2e85a096-f00c-48ce-8911-1691a916ab42"},"authoredOn":"2025-09-25T08:00:00.000+00:00"},"request":{"method":"PUT","url":"ServiceRequest/sreq-587458"}},{"fullUrl":"https://madie.cms.gov/MeasureReport/2ef92cc2-164b-423d-9b2a-1b8c7b0a7f1a","resource":{"resourceType":"MeasureReport","id":"2ef92cc2-164b-423d-9b2a-1b8c7b0a7f1a","meta":{"profile":["http://hl7.org/fhir/us/cqfmeasures/StructureDefinition/test-case-cqfm"]},"contained":[{"resourceType":"Parameters","id":"42f8522a-b4d8-4a52-9c52-a76f7d5a80b1-parameters","parameter":[{"name":"subject","valueString":"2e85a096-f00c-48ce-8911-1691a916ab42"}]}],"extension":[{"url":"http://hl7.org/fhir/us/cqfmeasures/StructureDefinition/cqfm-inputParameters","valueReference":{"reference":"#42f8522a-b4d8-4a52-9c52-a76f7d5a80b1-parameters"}},{"url":"http://hl7.org/fhir/us/cqfmeasures/StructureDefinition/cqfm-testCaseDescription","valueMarkdown":"Dx of Prostate Cancer with qualifying encounter(s) in MP, but no ADT during MP"}],"modifierExtension":[{"url":"http://hl7.org/fhir/us/cqfmeasures/StructureDefinition/cqfm-isTestCase","valueBoolean":true}],"status":"complete","type":"individual","measure":"https://madie.cms.gov/Measure/BoneDensityProstateCancerAndrogenDeprivationTherapyFHIR","period":{"start":"2025-01-01","end":"2025-12-31"},"group":[{"population":[{"code":{"coding":[{"system":"http://terminology.hl7.org/CodeSystem/measure-population","code":"initial-population","display":"Initial Population"}]},"count":0},{"code":{"coding":[{"system":"http://terminology.hl7.org/CodeSystem/measure-population","code":"denominator","display":"Denominator"}]},"count":0},{"code":{"coding":[{"system":"http://terminology.hl7.org/CodeSystem/measure-population","code":"numerator","display":"Numerator"}]},"count":0},{"code":{"coding":[{"system":"http://terminology.hl7.org/CodeSystem/measure-population","code":"denominator-exception","display":"Denominator Exception"}]},"count":0}]}],"evaluatedResource":[{"reference":"Patient/2e85a096-f00c-48ce-8911-1691a916ab42"},{"reference":"Encounter/enc-464564"},{"reference":"Condition/con-16351465"},{"reference":"ServiceRequest/sreq-587458"}]},"request":{"method":"PUT","url":"MeasureReport/2ef92cc2-164b-423d-9b2a-1b8c7b0a7f1a"}}]}