{"resourceType":"Bundle","id":"tests-d07cf359-d46c-4adf-b2d4-e02a2f43b78e-bundle","type":"transaction","entry":[{"fullUrl":"https://madie.cms.gov/Patient/d07cf359-d46c-4adf-b2d4-e02a2f43b78e","resource":{"resourceType":"Patient","id":"d07cf359-d46c-4adf-b2d4-e02a2f43b78e","meta":{"profile":["http://hl7.org/fhir/us/qicore/StructureDefinition/qicore-patient"]},"extension":[{"url":"http://hl7.org/fhir/us/core/StructureDefinition/us-core-race","extension":[{"url":"ombCategory","valueCoding":{"system":"urn:oid:2.16.840.1.113883.6.238","code":"2028-9","display":"Asian","userSelected":true}},{"url":"text","valueString":"Asian"}]},{"url":"http://hl7.org/fhir/us/core/StructureDefinition/us-core-ethnicity","extension":[{"url":"ombCategory","valueCoding":{"system":"urn:oid:2.16.840.1.113883.6.238","code":"2186-5","display":"Not Hispanic or Latino","userSelected":true}},{"url":"text","valueString":"Not Hispanic or Latino"}]}],"identifier":[{"type":{"coding":[{"system":"http://terminology.hl7.org/CodeSystem/v2-0203","code":"MR"}]},"system":"https://bonnie-fhir.healthit.gov/","value":"60d4d72c410233651461d7bd"}],"name":[{"family":"DENEXCEPPass","given":["DEXANotPerformedPtRefused"]}],"gender":"male","birthDate":"1933-12-15"},"request":{"method":"PUT","url":"Patient/d07cf359-d46c-4adf-b2d4-e02a2f43b78e"}},{"fullUrl":"https://madie.cms.gov/Encounter/3543541","resource":{"resourceType":"Encounter","id":"d59b654e-0e9d-4ae2-af0d-479f8152a42b","meta":{"profile":["http://hl7.org/fhir/us/qicore/StructureDefinition/qicore-encounter"]},"status":"finished","class":{"system":"http://terminology.hl7.org/CodeSystem/v3-ActCode","code":"AMB","display":"ambulatory"},"type":[{"coding":[{"system":"http://snomed.info/sct","version":"2021-09","code":"185463005","display":"Visit out of hours (procedure)","userSelected":true}]}],"subject":{"reference":"Patient/d07cf359-d46c-4adf-b2d4-e02a2f43b78e"},"period":{"start":"2025-04-04T08:00:00.000+00:00","end":"2025-04-04T08:15:00.000+00:00"}},"request":{"method":"PUT","url":"Encounter/d59b654e-0e9d-4ae2-af0d-479f8152a42b"}},{"fullUrl":"https://madie.cms.gov/Condition/prostate-cancer-d7bf","resource":{"resourceType":"Condition","id":"d8862d3a-f307-4dea-8bfc-77ce79cd9367","meta":{"profile":["http://hl7.org/fhir/us/qicore/StructureDefinition/qicore-condition"]},"clinicalStatus":{"coding":[{"system":"http://terminology.hl7.org/CodeSystem/condition-clinical","code":"active"}]},"verificationStatus":{"coding":[{"system":"http://terminology.hl7.org/CodeSystem/condition-ver-status","code":"confirmed"}]},"category":[{"coding":[{"system":"http://terminology.hl7.org/CodeSystem/condition-category","code":"problem-list-item","display":"Problem List Item"}]}],"code":{"coding":[{"system":"http://snomed.info/sct","version":"2021-09","code":"254900004","display":"Carcinoma of prostate (disorder)","userSelected":true}]},"subject":{"reference":"Patient/d07cf359-d46c-4adf-b2d4-e02a2f43b78e"},"onsetPeriod":{"start":"2025-04-04T08:00:00.000+00:00"}},"request":{"method":"PUT","url":"Condition/d8862d3a-f307-4dea-8bfc-77ce79cd9367"}},{"fullUrl":"https://madie.cms.gov/MedicationRequest/635468774","resource":{"resourceType":"MedicationRequest","id":"e3a58f15-981f-4436-9834-8dbbf1fb6026","meta":{"profile":["http://hl7.org/fhir/us/qicore/StructureDefinition/qicore-medicationrequest"]},"status":"active","intent":"order","medicationCodeableConcept":{"coding":[{"system":"http://www.nlm.nih.gov/research/umls/rxnorm","code":"1115257","display":"1.5 ML leuprolide acetate 30 MG/ML Prefilled Syringe","userSelected":true}]},"subject":{"reference":"Patient/d07cf359-d46c-4adf-b2d4-e02a2f43b78e"},"authoredOn":"2025-04-04T08:00:00.000+00:00","requester":{"reference":"http://myGoodHealthcare.com/fhir/Practitioner/313151"},"dosageInstruction":[{"timing":{"repeat":{"boundsPeriod":{"start":"2025-04-04T08:00:00.000+00:00","end":"2025-05-04T08:00:00.000+00:00"}}}}]},"request":{"method":"PUT","url":"MedicationRequest/e3a58f15-981f-4436-9834-8dbbf1fb6026"}},{"fullUrl":"https://madie.cms.gov/ServiceRequest/431344131","resource":{"resourceType":"ServiceRequest","id":"4a7b42fc-b370-4208-a18c-93e50170ed22","meta":{"profile":["http://hl7.org/fhir/us/qicore/StructureDefinition/qicore-servicerequest"]},"status":"active","intent":"order","code":{"coding":[{"system":"http://snomed.info/sct","code":"456381000124102","display":"Injection of leuprolide acetate for twelve month period (regime/therapy)","userSelected":true}]},"subject":{"reference":"Patient/d07cf359-d46c-4adf-b2d4-e02a2f43b78e"},"authoredOn":"2025-04-04T08:00:00.000+00:00"},"request":{"method":"PUT","url":"ServiceRequest/4a7b42fc-b370-4208-a18c-93e50170ed22"}},{"fullUrl":"https://madie.cms.gov/ServiceRequest/496413241","resource":{"resourceType":"ServiceRequest","id":"1ed24f78-b154-4c68-909b-4a599c60d227","meta":{"profile":["http://hl7.org/fhir/us/qicore/StructureDefinition/qicore-servicenotrequested"]},"extension":[{"url":"http://hl7.org/fhir/us/qicore/StructureDefinition/qicore-doNotPerformReason","valueCodeableConcept":{"coding":[{"system":"http://snomed.info/sct","code":"105480006","display":"Refusal of treatment by patient (situation)","userSelected":true}]}}],"status":"completed","intent":"order","doNotPerform":true,"code":{"coding":[{"system":"http://loinc.org","version":"2.71","code":"38265-5","display":"DXA Radius and Ulna [T-score] Bone density","userSelected":true}]},"subject":{"reference":"Patient/d07cf359-d46c-4adf-b2d4-e02a2f43b78e"},"authoredOn":"2025-04-06T08:00:00.000+00:00"},"request":{"method":"PUT","url":"ServiceRequest/1ed24f78-b154-4c68-909b-4a599c60d227"}},{"fullUrl":"https://madie.cms.gov/Practitioner/313151","resource":{"resourceType":"Practitioner","id":"3f63e2c3-7f44-45c0-97a6-1043f5d47b96","meta":{"profile":["http://hl7.org/fhir/us/qicore/StructureDefinition/qicore-practitioner"]},"identifier":[{"use":"temp","system":"urn:oid:2.16.840.1.113883.4.336","value":"Practitioner-23"}],"active":true,"name":[{"family":"Careful","given":["Adam"],"prefix":["Dr"]}],"address":[{"use":"home","line":["534 Erewhon St"],"city":"PleasantVille","state":"UT","postalCode":"84414"}],"qualification":[{"identifier":[{"system":"http://example.org/UniversityIdentifier","value":"12345"}],"code":{"coding":[{"system":"http://terminology.hl7.org/CodeSystem/v2-0360|2.7","code":"BS","display":"Bachelor of Science"}],"text":"Bachelor of Science"},"period":{"start":"1995"},"issuer":{"display":"Example University"}}]},"request":{"method":"PUT","url":"Practitioner/3f63e2c3-7f44-45c0-97a6-1043f5d47b96"}},{"fullUrl":"https://madie.cms.gov/MeasureReport/93351001-f824-4118-9372-156cdd640ece","resource":{"resourceType":"MeasureReport","id":"93351001-f824-4118-9372-156cdd640ece","meta":{"profile":["http://hl7.org/fhir/us/cqfmeasures/StructureDefinition/test-case-cqfm"]},"contained":[{"resourceType":"Parameters","id":"3ee788d3-a4ca-42c5-8dff-4b7f6250729f-parameters","parameter":[{"name":"subject","valueString":"d07cf359-d46c-4adf-b2d4-e02a2f43b78e"}]}],"extension":[{"url":"http://hl7.org/fhir/us/cqfmeasures/StructureDefinition/cqfm-inputParameters","valueReference":{"reference":"#3ee788d3-a4ca-42c5-8dff-4b7f6250729f-parameters"}},{"url":"http://hl7.org/fhir/us/cqfmeasures/StructureDefinition/cqfm-testCaseDescription","valueMarkdown":"Dx of Prostate Cancer, DEXA not performed due to patient refused. DENEXCEP passes as expected."}],"modifierExtension":[{"url":"http://hl7.org/fhir/us/cqfmeasures/StructureDefinition/cqfm-isTestCase","valueBoolean":true}],"status":"complete","type":"individual","measure":"https://madie.cms.gov/Measure/BoneDensityProstateCancerAndrogenDeprivationTherapyFHIR","period":{"start":"2025-01-01","end":"2025-12-31"},"group":[{"population":[{"code":{"coding":[{"system":"http://terminology.hl7.org/CodeSystem/measure-population","code":"initial-population","display":"Initial Population"}]},"count":1},{"code":{"coding":[{"system":"http://terminology.hl7.org/CodeSystem/measure-population","code":"denominator","display":"Denominator"}]},"count":1},{"code":{"coding":[{"system":"http://terminology.hl7.org/CodeSystem/measure-population","code":"numerator","display":"Numerator"}]},"count":0},{"code":{"coding":[{"system":"http://terminology.hl7.org/CodeSystem/measure-population","code":"denominator-exception","display":"Denominator Exception"}]},"count":0}]}]},"request":{"method":"PUT","url":"MeasureReport/93351001-f824-4118-9372-156cdd640ece"}}]}