{"resourceType":"Bundle","id":"tests-3bbbeb07-97d4-4f25-936f-a0c1e81303e0-bundle","type":"transaction","entry":[{"fullUrl":"https://madie.cms.gov/Patient/3bbbeb07-97d4-4f25-936f-a0c1e81303e0","resource":{"resourceType":"Patient","id":"3bbbeb07-97d4-4f25-936f-a0c1e81303e0","meta":{"profile":["http://hl7.org/fhir/us/qicore/StructureDefinition/qicore-patient"]},"extension":[{"url":"http://hl7.org/fhir/us/core/StructureDefinition/us-core-race","extension":[{"url":"ombCategory","valueCoding":{"system":"urn:oid:2.16.840.1.113883.6.238","code":"1002-5","display":"American Indian or Alaska Native","userSelected":true}},{"url":"detailed","valueCoding":{"system":"urn:oid:2.16.840.1.113883.6.238","code":"1004-1","display":"American Indian","userSelected":true}},{"url":"text","valueString":"American Indian"}]},{"url":"http://hl7.org/fhir/us/core/StructureDefinition/us-core-ethnicity","extension":[{"url":"ombCategory","valueCoding":{"system":"urn:oid:2.16.840.1.113883.6.238","code":"2135-2","display":"Hispanic or Latino","userSelected":true}},{"url":"detailed","valueCoding":{"system":"urn:oid:2.16.840.1.113883.6.238","code":"2153-5","display":"Mexican American Indian","userSelected":true}},{"url":"text","valueString":"Hispanic or Latino: Mexican American Indian"}]}],"identifier":[{"type":{"coding":[{"system":"http://terminology.hl7.org/CodeSystem/v2-0203","code":"MR"}]},"system":"https://bonnie-fhir.healthit.gov/","value":"62bb3859e8081f5ef5e199f5"}],"name":[{"family":"DENOMPass","given":["MedReqBoundsADTDate"]}],"gender":"male","birthDate":"1961-07-19"},"request":{"method":"PUT","url":"Patient/3bbbeb07-97d4-4f25-936f-a0c1e81303e0"}},{"fullUrl":"https://madie.cms.gov/Encounter/464564","resource":{"resourceType":"Encounter","id":"bcfcc737-f816-4dd9-8db1-8822b97e4de0","meta":{"profile":["http://hl7.org/fhir/us/qicore/StructureDefinition/qicore-encounter"]},"status":"finished","class":{"system":"http://terminology.hl7.org/CodeSystem/v3-ActCode","code":"AMB","display":"ambulatory"},"type":[{"coding":[{"system":"http://snomed.info/sct","version":"http://snomed.info/sct/731000124108/version/20240401","code":"185463005","display":"Visit out of hours (procedure)","userSelected":true}]}],"subject":{"reference":"Patient/3bbbeb07-97d4-4f25-936f-a0c1e81303e0"},"period":{"start":"2025-03-03T08:00:00.000+00:00","end":"2025-03-03T08:15:00.000+00:00"}},"request":{"method":"PUT","url":"Encounter/bcfcc737-f816-4dd9-8db1-8822b97e4de0"}},{"fullUrl":"https://madie.cms.gov/Condition/16351465","resource":{"resourceType":"Condition","id":"26eb4b1e-f782-4075-96ea-f5470459942d","meta":{"profile":["http://hl7.org/fhir/us/qicore/StructureDefinition/qicore-condition"]},"clinicalStatus":{"coding":[{"system":"http://terminology.hl7.org/CodeSystem/condition-clinical","code":"active","display":"Active","userSelected":true}]},"verificationStatus":{"coding":[{"system":"http://terminology.hl7.org/CodeSystem/condition-ver-status","code":"confirmed","display":"Confirmed","userSelected":true}]},"category":[{"coding":[{"system":"http://terminology.hl7.org/CodeSystem/condition-category","code":"problem-list-item","display":"Problem List Item"}]}],"code":{"coding":[{"system":"http://snomed.info/sct","version":"http://snomed.info/sct/731000124108/version/20240401","code":"254900004","display":"Carcinoma of prostate (disorder)","userSelected":true}]},"subject":{"reference":"Patient/3bbbeb07-97d4-4f25-936f-a0c1e81303e0"},"onsetPeriod":{"start":"2025-03-03T08:00:00.000+00:00"}},"request":{"method":"PUT","url":"Condition/26eb4b1e-f782-4075-96ea-f5470459942d"}},{"fullUrl":"https://madie.cms.gov/MedicationRequest/98948641","resource":{"resourceType":"MedicationRequest","id":"05d35c45-4d41-4e76-9a48-9f6fca7575de","meta":{"profile":["http://hl7.org/fhir/us/qicore/StructureDefinition/qicore-medicationrequest"]},"status":"active","intent":"order","medicationCodeableConcept":{"coding":[{"system":"http://www.nlm.nih.gov/research/umls/rxnorm","version":"2025-01","code":"752884","display":"0.375 ML leuprolide acetate 120 MG/ML Prefilled Syringe","userSelected":true}]},"subject":{"reference":"Patient/3bbbeb07-97d4-4f25-936f-a0c1e81303e0"},"authoredOn":"2025-03-03T08:00:00.000+00:00","requester":{"reference":"http://myGoodHealthcare.com/fhir/Practitioner/646346"},"dosageInstruction":[{"timing":{"repeat":{"boundsPeriod":{"start":"2025-03-03T08:00:00.000+00:00","end":"2025-04-03T08:00:00.000+00:00"}}}}]},"request":{"method":"PUT","url":"MedicationRequest/05d35c45-4d41-4e76-9a48-9f6fca7575de"}},{"fullUrl":"https://madie.cms.gov/ServiceRequest/587458","resource":{"resourceType":"ServiceRequest","id":"77bd323d-6be9-409d-9a5c-167920bd09aa","meta":{"profile":["http://hl7.org/fhir/us/qicore/StructureDefinition/qicore-servicerequest"]},"status":"active","intent":"order","code":{"coding":[{"system":"http://snomed.info/sct","code":"456381000124102","display":"Injection of leuprolide acetate for twelve month period (regime/therapy)","userSelected":true}]},"subject":{"reference":"Patient/3bbbeb07-97d4-4f25-936f-a0c1e81303e0"},"authoredOn":"2025-03-03T08:00:00.000+00:00"},"request":{"method":"PUT","url":"ServiceRequest/77bd323d-6be9-409d-9a5c-167920bd09aa"}},{"fullUrl":"https://madie.cms.gov/Coverage/651651646818","resource":{"resourceType":"Coverage","id":"4de5a525-97c7-4aca-8f94-b02e0ac4fadf","meta":{"profile":["http://hl7.org/fhir/us/qicore/StructureDefinition/qicore-coverage"]},"identifier":[{"system":"http://benefitsinc.com/certificate","value":"12345"}],"status":"active","type":{"coding":[{"system":"https://nahdo.org/sopt","version":"9.2","code":"6","display":"BLUE CROSS/BLUE SHIELD"}]},"beneficiary":{"reference":"Patient/3bbbeb07-97d4-4f25-936f-a0c1e81303e0"},"period":{"start":"2011-05-23"},"payor":[{"reference":"Organization/ec8cac12-7dd8-4c6e-8c44-d6c645085c80"}]},"request":{"method":"PUT","url":"Coverage/4de5a525-97c7-4aca-8f94-b02e0ac4fadf"}},{"fullUrl":"https://madie.cms.gov/Organization/6446561684616121253","resource":{"resourceType":"Organization","id":"ec8cac12-7dd8-4c6e-8c44-d6c645085c80","meta":{"profile":["http://hl7.org/fhir/us/qicore/StructureDefinition/qicore-organization"]},"identifier":[{"use":"temp","system":"http://hl7.org/fhir/sid/us-npi","value":"BCBST-NPI"}],"active":true,"name":"Blue Cross Blue Shield Tennessee","telecom":[{"system":"phone","value":"(+1) 800-468-9698"}],"address":[{"line":["1 Cameron Hill Circle, Suite 0002"],"city":"Chattanooga","state":"TN","postalCode":"37402-0002","country":"USA"}]},"request":{"method":"PUT","url":"Organization/ec8cac12-7dd8-4c6e-8c44-d6c645085c80"}},{"fullUrl":"https://madie.cms.gov/MeasureReport/e82b48a5-2496-4c0d-b4fd-6936bf55aca9","resource":{"resourceType":"MeasureReport","id":"e82b48a5-2496-4c0d-b4fd-6936bf55aca9","meta":{"profile":["http://hl7.org/fhir/us/cqfmeasures/StructureDefinition/test-case-cqfm"]},"contained":[{"resourceType":"Parameters","id":"e97ee0ae-6584-4a87-b654-5bed42e68b9c-parameters","parameter":[{"name":"subject","valueString":"3bbbeb07-97d4-4f25-936f-a0c1e81303e0"}]}],"extension":[{"url":"http://hl7.org/fhir/us/cqfmeasures/StructureDefinition/cqfm-inputParameters","valueReference":{"reference":"#e97ee0ae-6584-4a87-b654-5bed42e68b9c-parameters"}},{"url":"http://hl7.org/fhir/us/cqfmeasures/StructureDefinition/cqfm-testCaseDescription","valueMarkdown":"Testing for Medication Request which is intent to continue ADT therapy for 12 months or greater.  Passes IPP criteria"}],"modifierExtension":[{"url":"http://hl7.org/fhir/us/cqfmeasures/StructureDefinition/cqfm-isTestCase","valueBoolean":true}],"status":"complete","type":"individual","measure":"https://madie.cms.gov/Measure/BoneDensityProstateCancerAndrogenDeprivationTherapyFHIR","period":{"start":"2025-01-01","end":"2025-12-31"},"group":[{"population":[{"code":{"coding":[{"system":"http://terminology.hl7.org/CodeSystem/measure-population","code":"initial-population","display":"Initial Population"}]},"count":1},{"code":{"coding":[{"system":"http://terminology.hl7.org/CodeSystem/measure-population","code":"denominator","display":"Denominator"}]},"count":1},{"code":{"coding":[{"system":"http://terminology.hl7.org/CodeSystem/measure-population","code":"numerator","display":"Numerator"}]},"count":0},{"code":{"coding":[{"system":"http://terminology.hl7.org/CodeSystem/measure-population","code":"denominator-exception","display":"Denominator Exception"}]},"count":0}]}]},"request":{"method":"PUT","url":"MeasureReport/e82b48a5-2496-4c0d-b4fd-6936bf55aca9"}}]}