{"resourceType":"Bundle","id":"tests-ee053d16-adcb-4760-9305-6a553d789d9a-bundle","type":"transaction","entry":[{"fullUrl":"https://madie.cms.gov/Patient/ee053d16-adcb-4760-9305-6a553d789d9a","resource":{"resourceType":"Patient","id":"ee053d16-adcb-4760-9305-6a553d789d9a","meta":{"profile":["http://hl7.org/fhir/us/qicore/StructureDefinition/qicore-patient"]},"extension":[{"url":"http://hl7.org/fhir/us/core/StructureDefinition/us-core-race","extension":[{"url":"ombCategory","valueCoding":{"system":"urn:oid:2.16.840.1.113883.6.238","code":"2076-8","display":"Native Hawaiian or Other Pacific Islander"}},{"url":"text","valueString":"Other Race"}]},{"url":"http://hl7.org/fhir/us/core/StructureDefinition/us-core-ethnicity","extension":[{"url":"ombCategory","valueCoding":{"system":"urn:oid:2.16.840.1.113883.6.238","code":"2135-2","display":"Hispanic or Latino","userSelected":true}},{"url":"text","valueString":"Hispanic or Latino"}]}],"identifier":[{"type":{"coding":[{"system":"http://terminology.hl7.org/CodeSystem/v2-0203","code":"MR"}]},"system":"https://bonnie-fhir.healthit.gov/","value":"60abce8bcd7f9706e4189cfd"}],"name":[{"family":"DENOMPass","given":["MedReqBoundsPriorToPCa"]}],"gender":"male","birthDate":"1949-07-09"},"request":{"method":"PUT","url":"Patient/ee053d16-adcb-4760-9305-6a553d789d9a"}},{"fullUrl":"https://madie.cms.gov/Encounter/zd6313d21312","resource":{"resourceType":"Encounter","id":"8db01045-a6b5-4d6b-b6a1-a185fdd9ace9","meta":{"profile":["http://hl7.org/fhir/us/qicore/StructureDefinition/qicore-encounter"]},"status":"finished","class":{"system":"http://terminology.hl7.org/CodeSystem/v3-ActCode","code":"AMB","display":"ambulatory"},"type":[{"coding":[{"system":"http://snomed.info/sct","version":"2022-09","code":"185463005","display":"Visit out of hours (procedure)"}]}],"subject":{"reference":"Patient/ee053d16-adcb-4760-9305-6a553d789d9a"},"period":{"start":"2025-02-03T08:00:00+00:00","end":"2025-02-03T08:45:00+00:00"}},"request":{"method":"PUT","url":"Encounter/8db01045-a6b5-4d6b-b6a1-a185fdd9ace9"}},{"fullUrl":"https://madie.cms.gov/MedicationRequest/54112322","resource":{"resourceType":"MedicationRequest","id":"8d08f03e-b822-4c75-81a0-1371f91597a2","meta":{"profile":["http://hl7.org/fhir/us/qicore/StructureDefinition/qicore-medicationrequest"]},"status":"active","intent":"order","doNotPerform":false,"medicationCodeableConcept":{"coding":[{"system":"http://www.nlm.nih.gov/research/umls/rxnorm","version":"2025-01","code":"314008","display":"goserelin 10.8 MG Drug Implant"}]},"subject":{"reference":"Patient/ee053d16-adcb-4760-9305-6a553d789d9a"},"authoredOn":"2024-11-01T08:00:00.000+00:00","requester":{"reference":"http://myGoodHealthcare.com/fhir/Practitioner/646346"},"dosageInstruction":[{"timing":{"repeat":{"boundsPeriod":{"start":"2024-11-03T08:00:00.000+00:00","end":"2024-11-03T09:00:00.000+00:00"}}}}]},"request":{"method":"PUT","url":"MedicationRequest/8d08f03e-b822-4c75-81a0-1371f91597a2"}},{"fullUrl":"https://madie.cms.gov/Condition/321321215","resource":{"resourceType":"Condition","id":"e38797ea-8686-4f9b-b959-e729dc1e11f4","meta":{"profile":["http://hl7.org/fhir/us/qicore/StructureDefinition/qicore-condition"]},"clinicalStatus":{"coding":[{"system":"http://terminology.hl7.org/CodeSystem/condition-clinical","code":"active"}]},"verificationStatus":{"coding":[{"system":"http://terminology.hl7.org/CodeSystem/condition-ver-status","code":"confirmed"}]},"category":[{"coding":[{"system":"http://terminology.hl7.org/CodeSystem/condition-category","code":"problem-list-item","display":"Problem List Item"}]}],"code":{"coding":[{"system":"http://snomed.info/sct","version":"2022-09","code":"254900004","display":"Carcinoma of prostate (disorder)"}]},"subject":{"reference":"Patient/ee053d16-adcb-4760-9305-6a553d789d9a"},"onsetPeriod":{"start":"2025-01-03T08:00:00.000+00:00"}},"request":{"method":"PUT","url":"Condition/e38797ea-8686-4f9b-b959-e729dc1e11f4"}},{"fullUrl":"https://madie.cms.gov/MedicationRequest/54112321","resource":{"resourceType":"MedicationRequest","id":"7bc99ac4-e51a-475d-a572-e27c01797297","meta":{"profile":["http://hl7.org/fhir/us/qicore/StructureDefinition/qicore-medicationrequest"]},"status":"active","intent":"order","medicationCodeableConcept":{"coding":[{"system":"http://www.nlm.nih.gov/research/umls/rxnorm","version":"2025-01","code":"314008","display":"goserelin 10.8 MG Drug Implant"}]},"subject":{"reference":"Patient/ee053d16-adcb-4760-9305-6a553d789d9a"},"authoredOn":"2025-02-01T08:00:00.000+00:00","requester":{"reference":"http://myGoodHealthcare.com/fhir/Practitioner/646346"},"dosageInstruction":[{"timing":{"repeat":{"boundsPeriod":{"start":"2025-02-03T08:00:00.000+00:00","end":"2025-03-03T09:00:00.000+00:00"}}}}]},"request":{"method":"PUT","url":"MedicationRequest/7bc99ac4-e51a-475d-a572-e27c01797297"}},{"fullUrl":"https://madie.cms.gov/Practitioner/646346","resource":{"resourceType":"Practitioner","id":"cf677b1a-736f-4c84-8d22-06b4a002da1c","meta":{"profile":["http://hl7.org/fhir/us/qicore/StructureDefinition/qicore-practitioner"]},"identifier":[{"use":"temp","system":"urn:oid:2.16.840.1.113883.4.336","value":"Practitioner-23"}],"active":true,"name":[{"family":"Careful","given":["Adam"],"prefix":["Dr"]}],"address":[{"use":"home","line":["534 Erewhon St"],"city":"PleasantVille","state":"UT","postalCode":"84414"}],"qualification":[{"identifier":[{"system":"http://example.org/UniversityIdentifier","value":"12345"}],"code":{"coding":[{"system":"http://terminology.hl7.org/CodeSystem/v2-0360|2.7","code":"BS","display":"Bachelor of Science"}],"text":"Bachelor of Science"},"period":{"start":"1995"},"issuer":{"display":"Example University"}}]},"request":{"method":"PUT","url":"Practitioner/cf677b1a-736f-4c84-8d22-06b4a002da1c"}},{"fullUrl":"https://madie.cms.gov/ServiceRequest/3213214575","resource":{"resourceType":"ServiceRequest","id":"86183f22-1bcd-42e9-bdbe-d9a523d86754","meta":{"profile":["http://hl7.org/fhir/us/qicore/StructureDefinition/qicore-servicerequest"]},"status":"active","intent":"order","code":{"coding":[{"system":"http://snomed.info/sct","code":"456381000124102","display":"Injection of leuprolide acetate for twelve month period (regime/therapy)"}]},"subject":{"reference":"Patient/ee053d16-adcb-4760-9305-6a553d789d9a"},"authoredOn":"2025-02-03T08:00:00.000+00:00"},"request":{"method":"PUT","url":"ServiceRequest/86183f22-1bcd-42e9-bdbe-d9a523d86754"}},{"fullUrl":"https://madie.cms.gov/MeasureReport/a6c4b428-b9f5-4058-a3f6-076c651d8a39","resource":{"resourceType":"MeasureReport","id":"a6c4b428-b9f5-4058-a3f6-076c651d8a39","meta":{"profile":["http://hl7.org/fhir/us/cqfmeasures/StructureDefinition/test-case-cqfm"]},"contained":[{"resourceType":"Parameters","id":"44e22c8a-9328-46ec-8c7f-9caac621ff83-parameters","parameter":[{"name":"subject","valueString":"ee053d16-adcb-4760-9305-6a553d789d9a"}]}],"extension":[{"url":"http://hl7.org/fhir/us/cqfmeasures/StructureDefinition/cqfm-inputParameters","valueReference":{"reference":"#44e22c8a-9328-46ec-8c7f-9caac621ff83-parameters"}},{"url":"http://hl7.org/fhir/us/cqfmeasures/StructureDefinition/cqfm-testCaseDescription","valueMarkdown":"Patient has ADT for another reason, then develops prostate cancer. Passes with prior ADT, then PCa dx and intent for 12 months of therapy with ADT restarted. Pt should be included in IPP and DENOM."}],"modifierExtension":[{"url":"http://hl7.org/fhir/us/cqfmeasures/StructureDefinition/cqfm-isTestCase","valueBoolean":true}],"status":"complete","type":"individual","measure":"https://madie.cms.gov/Measure/BoneDensityProstateCancerAndrogenDeprivationTherapyFHIR","period":{"start":"2025-01-01","end":"2025-12-31"},"group":[{"population":[{"code":{"coding":[{"system":"http://terminology.hl7.org/CodeSystem/measure-population","code":"initial-population","display":"Initial Population"}]},"count":1},{"code":{"coding":[{"system":"http://terminology.hl7.org/CodeSystem/measure-population","code":"denominator","display":"Denominator"}]},"count":1},{"code":{"coding":[{"system":"http://terminology.hl7.org/CodeSystem/measure-population","code":"numerator","display":"Numerator"}]},"count":0},{"code":{"coding":[{"system":"http://terminology.hl7.org/CodeSystem/measure-population","code":"denominator-exception","display":"Denominator Exception"}]},"count":0}]}]},"request":{"method":"PUT","url":"MeasureReport/a6c4b428-b9f5-4058-a3f6-076c651d8a39"}}]}