{
  "resourceType": "Bundle",
  "id": "e1f044ef3e654daa9105",
  "type": "transaction",
  "entry": [ {
    "fullUrl": "https://madie.cms.gov/Patient/872dbe15-b15d-4baf-b202-874278bbb317",
    "resource": {
      "resourceType": "Patient",
      "id": "872dbe15-b15d-4baf-b202-874278bbb317",
      "meta": {
        "profile": [ "http://hl7.org/fhir/us/qicore/StructureDefinition/qicore-patient" ]
      },
      "extension": [ {
        "url": "http://hl7.org/fhir/us/core/StructureDefinition/us-core-race",
        "extension": [ {
          "url": "ombCategory",
          "valueCoding": {
            "system": "urn:oid:2.16.840.1.113883.6.238",
            "code": "1002-5",
            "display": "American Indian or Alaska Native",
            "userSelected": true
          }
        }, {
          "url": "text",
          "valueString": "American Indian or Alaska Native"
        } ]
      }, {
        "url": "http://hl7.org/fhir/us/core/StructureDefinition/us-core-ethnicity",
        "extension": [ {
          "url": "ombCategory",
          "valueCoding": {
            "system": "urn:oid:2.16.840.1.113883.6.238",
            "code": "2135-2",
            "display": "Hispanic or Latino",
            "userSelected": true
          }
        }, {
          "url": "text",
          "valueString": "Hispanic or Latino"
        } ]
      } ],
      "identifier": [ {
        "type": {
          "coding": [ {
            "system": "http://terminology.hl7.org/CodeSystem/v2-0203",
            "code": "MR"
          } ]
        },
        "system": "https://bonnie-fhir.healthit.gov/",
        "value": "ae55d327-23df-40b7-84e3-8de10cf2f478"
      } ],
      "name": [ {
        "family": "DENEXCL1PASS",
        "given": [ "TakotsuboSyndromeWithin24HoursBeforeED" ]
      } ],
      "gender": "female",
      "birthDate": "1990-03-14"
    },
    "request": {
      "method": "PUT",
      "url": "Patient/872dbe15-b15d-4baf-b202-874278bbb317"
    }
  }, {
    "fullUrl": "https://madie.cms.gov/Encounter/4934aa22-7cce-4bdc-88cd-148a15c77b7d",
    "resource": {
      "resourceType": "Encounter",
      "id": "4934aa22-7cce-4bdc-88cd-148a15c77b7d",
      "meta": {
        "profile": [ "http://hl7.org/fhir/us/qicore/StructureDefinition/qicore-encounter" ]
      },
      "status": "finished",
      "class": {
        "system": "http://terminology.hl7.org/CodeSystem/v3-ActCode",
        "code": "EMER",
        "display": "emergency",
        "userSelected": true
      },
      "type": [ {
        "coding": [ {
          "system": "http://snomed.info/sct",
          "version": "2020-09",
          "code": "4525004",
          "display": "Emergency department patient visit",
          "userSelected": true
        } ]
      } ],
      "subject": {
        "reference": "Patient/872dbe15-b15d-4baf-b202-874278bbb317"
      },
      "period": {
        "start": "2026-10-09T05:00:00.000+00:00",
        "end": "2026-10-13T17:00:00.000+00:00"
      },
      "reasonCode": [ {
        "coding": [ {
          "system": "http://hl7.org/fhir/sid/icd-10-cm",
          "code": "I21.21",
          "display": "ST elevation (STEMI) myocardial infarction involving left circumflex coronary artery",
          "userSelected": true
        } ]
      } ]
    },
    "request": {
      "method": "PUT",
      "url": "Encounter/4934aa22-7cce-4bdc-88cd-148a15c77b7d"
    }
  }, {
    "fullUrl": "https://madie.cms.gov/Condition/31655e45-d18b-4f47-ad10-99c7c9fc1ddc",
    "resource": {
      "resourceType": "Condition",
      "id": "31655e45-d18b-4f47-ad10-99c7c9fc1ddc",
      "meta": {
        "profile": [ "http://hl7.org/fhir/us/qicore/StructureDefinition/qicore-condition" ]
      },
      "clinicalStatus": {
        "coding": [ {
          "system": "http://terminology.hl7.org/CodeSystem/condition-clinical",
          "code": "active",
          "display": "Active",
          "userSelected": true
        } ]
      },
      "category": [ {
        "coding": [ {
          "system": "http://terminology.hl7.org/CodeSystem/condition-category",
          "code": "problem-list-item",
          "display": "Problem List Item",
          "userSelected": true
        } ]
      } ],
      "code": {
        "coding": [ {
          "system": "http://hl7.org/fhir/sid/icd-10-cm",
          "code": "I51.81",
          "display": "Takotsubo syndrome",
          "userSelected": true
        } ]
      },
      "subject": {
        "reference": "Patient/872dbe15-b15d-4baf-b202-874278bbb317"
      },
      "onsetDateTime": "2026-10-08T05:00:00.000+00:00"
    },
    "request": {
      "method": "PUT",
      "url": "Condition/31655e45-d18b-4f47-ad10-99c7c9fc1ddc"
    }
  }, {
    "fullUrl": "https://madie.cms.gov/MeasureReport/207dc186-74a5-451a-901a-dd86b92a2d11",
    "resource": {
      "resourceType": "MeasureReport",
      "id": "207dc186-74a5-451a-901a-dd86b92a2d11",
      "meta": {
        "profile": [ "http://hl7.org/fhir/us/cqfmeasures/StructureDefinition/test-case-cqfm" ]
      },
      "contained": [ {
        "resourceType": "Parameters",
        "id": "712483d8-0d26-4f43-9fcb-85ad557962b9-parameters",
        "parameter": [ {
          "name": "subject",
          "valueString": "872dbe15-b15d-4baf-b202-874278bbb317"
        } ]
      } ],
      "extension": [ {
        "url": "http://hl7.org/fhir/us/cqfmeasures/StructureDefinition/cqfm-inputParameters",
        "valueReference": {
          "reference": "#712483d8-0d26-4f43-9fcb-85ad557962b9-parameters"
        }
      }, {
        "url": "http://hl7.org/fhir/us/cqfmeasures/StructureDefinition/cqfm-testCaseDescription",
        "valueMarkdown": "Patient has Takotsubo syndrome that started within 24 hours before start of ED encounter"
      } ],
      "modifierExtension": [ {
        "url": "http://hl7.org/fhir/us/cqfmeasures/StructureDefinition/cqfm-isTestCase",
        "valueBoolean": true
      } ],
      "status": "complete",
      "type": "individual",
      "measure": "https://madie.cms.gov/Measure/CMS996FHIRAptTxforSTEMI",
      "period": {
        "start": "2026-01-01",
        "end": "2026-12-31"
      },
      "group": [ {
        "population": [ {
          "code": {
            "coding": [ {
              "system": "http://terminology.hl7.org/CodeSystem/measure-population",
              "code": "initial-population",
              "display": "Initial Population"
            } ]
          },
          "count": 1
        }, {
          "code": {
            "coding": [ {
              "system": "http://terminology.hl7.org/CodeSystem/measure-population",
              "code": "denominator",
              "display": "Denominator"
            } ]
          },
          "count": 1
        }, {
          "code": {
            "coding": [ {
              "system": "http://terminology.hl7.org/CodeSystem/measure-population",
              "code": "denominator-exclusion",
              "display": "Denominator Exclusion"
            } ]
          },
          "count": 1
        }, {
          "code": {
            "coding": [ {
              "system": "http://terminology.hl7.org/CodeSystem/measure-population",
              "code": "numerator",
              "display": "Numerator"
            } ]
          },
          "count": 0
        }, {
          "code": {
            "coding": [ {
              "system": "http://terminology.hl7.org/CodeSystem/measure-population",
              "code": "denominator-exception",
              "display": "Denominator Exception"
            } ]
          },
          "count": 0
        } ]
      } ],
      "evaluatedResource": [ {
        "reference": "Patient/872dbe15-b15d-4baf-b202-874278bbb317"
      }, {
        "reference": "Encounter/4934aa22-7cce-4bdc-88cd-148a15c77b7d"
      }, {
        "reference": "Condition/31655e45-d18b-4f47-ad10-99c7c9fc1ddc"
      } ]
    },
    "request": {
      "method": "PUT",
      "url": "MeasureReport/207dc186-74a5-451a-901a-dd86b92a2d11"
    }
  } ]
}