{
  "resourceType": "Bundle",
  "id": "63594c7a6aee9629c82981df",
  "type": "transaction",
  "entry": [ {
    "fullUrl": "https://madie.cms.gov/Patient/9dee0d1d-5a57-46b7-af6d-b5835ef7856f",
    "resource": {
      "resourceType": "Patient",
      "id": "9dee0d1d-5a57-46b7-af6d-b5835ef7856f",
      "meta": {
        "profile": [ "http://hl7.org/fhir/us/qicore/StructureDefinition/qicore-patient" ]
      },
      "text": {
        "status": "generated",
        "div": "<div xmlns=\"http://www.w3.org/1999/xhtml\"><div class=\"hapiHeaderText\">Risk_Thyrotoxicosis <b>RISKPass </b></div><table class=\"hapiPropertyTable\"><tbody><tr><td>Date of birth</td><td><span>01 February 2004</span></td></tr></tbody></table></div>"
      },
      "extension": [ {
        "url": "http://hl7.org/fhir/us/core/StructureDefinition/us-core-race",
        "extension": [ {
          "url": "ombCategory",
          "valueCoding": {
            "system": "urn:oid:2.16.840.1.113883.6.238",
            "code": "1002-5",
            "display": "American Indian or Alaska Native",
            "userSelected": true
          }
        }, {
          "url": "text",
          "valueString": "American Indian or Alaska Native"
        } ]
      }, {
        "url": "http://hl7.org/fhir/us/core/StructureDefinition/us-core-ethnicity",
        "extension": [ {
          "url": "ombCategory",
          "valueCoding": {
            "system": "urn:oid:2.16.840.1.113883.6.238",
            "code": "2135-2",
            "display": "Hispanic or Latino",
            "userSelected": true
          }
        }, {
          "url": "text",
          "valueString": "Hispanic or Latino"
        } ]
      } ],
      "identifier": [ {
        "type": {
          "coding": [ {
            "system": "http://terminology.hl7.org/CodeSystem/v2-0203",
            "code": "MR"
          } ]
        },
        "system": "https://bonnie-fhir.healthit.gov/",
        "value": "63594c7a6aee9629c82981df"
      } ],
      "active": true,
      "name": [ {
        "use": "usual",
        "family": "RiskPass",
        "given": [ "Risk_Thyrotoxicosis" ]
      } ],
      "gender": "female",
      "birthDate": "2004-02-01"
    },
    "request": {
      "method": "PUT",
      "url": "Patient/9dee0d1d-5a57-46b7-af6d-b5835ef7856f"
    }
  }, {
    "fullUrl": "https://madie.cms.gov/Observation/8fa9473f-2c1e-4fac-a62e-a04f1d13f355",
    "resource": {
      "resourceType": "Observation",
      "id": "8fa9473f-2c1e-4fac-a62e-a04f1d13f355",
      "meta": {
        "profile": [ "http://hl7.org/fhir/us/qicore/StructureDefinition/qicore-observation" ]
      },
      "status": "final",
      "category": [ {
        "coding": [ {
          "system": "http://terminology.hl7.org/CodeSystem/observation-category",
          "code": "exam",
          "display": "exam",
          "userSelected": true
        } ]
      } ],
      "code": {
        "coding": [ {
          "system": "http://loinc.org",
          "code": "93857-1"
        } ]
      },
      "subject": {
        "reference": "Patient/9dee0d1d-5a57-46b7-af6d-b5835ef7856f"
      },
      "effectiveDateTime": "2025-02-01T08:00:00.000+00:00",
      "valueDateTime": "2025-02-01T08:00:00+00:00"
    },
    "request": {
      "method": "PUT",
      "url": "Observation/8fa9473f-2c1e-4fac-a62e-a04f1d13f355"
    }
  }, {
    "fullUrl": "https://madie.cms.gov/Observation/77d12b6f-b2f6-44a5-8472-a33302fabace",
    "resource": {
      "resourceType": "Observation",
      "id": "77d12b6f-b2f6-44a5-8472-a33302fabace",
      "meta": {
        "profile": [ "http://hl7.org/fhir/us/qicore/StructureDefinition/qicore-observation" ]
      },
      "status": "final",
      "category": [ {
        "coding": [ {
          "system": "http://terminology.hl7.org/CodeSystem/observation-category",
          "code": "exam",
          "display": "exam",
          "userSelected": true
        } ]
      } ],
      "code": {
        "coding": [ {
          "system": "http://loinc.org",
          "code": "11778-8"
        } ]
      },
      "subject": {
        "reference": "Patient/9dee0d1d-5a57-46b7-af6d-b5835ef7856f"
      },
      "effectiveDateTime": "2025-02-01T08:00:00.000+00:00",
      "valueDateTime": "2025-02-01T00:00:00.000+00:00"
    },
    "request": {
      "method": "PUT",
      "url": "Observation/77d12b6f-b2f6-44a5-8472-a33302fabace"
    }
  }, {
    "fullUrl": "https://madie.cms.gov/Encounter/4f95235d-15ea-4e9f-8c30-a106788fd2e0",
    "resource": {
      "resourceType": "Encounter",
      "id": "4f95235d-15ea-4e9f-8c30-a106788fd2e0",
      "meta": {
        "profile": [ "http://hl7.org/fhir/us/qicore/StructureDefinition/qicore-encounter" ]
      },
      "status": "finished",
      "class": {
        "system": "http://terminology.hl7.org/CodeSystem/v3-ActCode",
        "code": "IMP",
        "display": "inpatient encounter"
      },
      "type": [ {
        "coding": [ {
          "system": "http://snomed.info/sct",
          "code": "183452005"
        } ]
      } ],
      "subject": {
        "reference": "Patient/9dee0d1d-5a57-46b7-af6d-b5835ef7856f"
      },
      "period": {
        "start": "2025-02-01T08:00:00.000Z",
        "end": "2025-02-05T08:15:00.000Z"
      },
      "diagnosis": [ {
        "extension": [ {
          "url": "http://hl7.org/fhir/us/qicore/StructureDefinition/qicore-encounter-diagnosisPresentOnAdmission",
          "valueCodeableConcept": {
            "coding": [ {
              "system": "https://www.cms.gov/Medicare/Medicare-Fee-for-Service-Payment/HospitalAcqCond/Coding",
              "code": "Y"
            } ]
          }
        } ],
        "condition": {
          "reference": "Condition/37ccf1a3-eeb6-4647-a92c-294be6e650c4"
        }
      }, {
        "extension": [ {
          "url": "http://hl7.org/fhir/us/qicore/StructureDefinition/qicore-encounter-diagnosisPresentOnAdmission",
          "valueCodeableConcept": {
            "coding": [ {
              "system": "https://www.cms.gov/Medicare/Medicare-Fee-for-Service-Payment/HospitalAcqCond/Coding",
              "code": "N"
            } ]
          }
        } ],
        "condition": {
          "reference": "Condition/5d24823e-912f-48be-8355-6173f8f49741"
        }
      } ]
    },
    "request": {
      "method": "PUT",
      "url": "Encounter/4f95235d-15ea-4e9f-8c30-a106788fd2e0"
    }
  }, {
    "fullUrl": "https://madie.cms.gov/Procedure/38affae7-1a07-4bda-b038-2bac6a9c8787",
    "resource": {
      "resourceType": "Procedure",
      "id": "38affae7-1a07-4bda-b038-2bac6a9c8787",
      "meta": {
        "profile": [ "http://hl7.org/fhir/us/qicore/StructureDefinition/qicore-procedure" ]
      },
      "extension": [ {
        "url": "http://hl7.org/fhir/us/qicore/StructureDefinition/qicore-recorded",
        "valueDateTime": "2013-04-05T09:35:00-04:00"
      } ],
      "status": "completed",
      "code": {
        "coding": [ {
          "system": "http://snomed.info/sct",
          "code": "10745001"
        } ]
      },
      "subject": {
        "reference": "Patient/9dee0d1d-5a57-46b7-af6d-b5835ef7856f"
      },
      "performedDateTime": "2025-02-01T08:00:00.000+00:00"
    },
    "request": {
      "method": "PUT",
      "url": "Procedure/38affae7-1a07-4bda-b038-2bac6a9c8787"
    }
  }, {
    "fullUrl": "https://madie.cms.gov/Condition/5d24823e-912f-48be-8355-6173f8f49741",
    "resource": {
      "resourceType": "Condition",
      "id": "5d24823e-912f-48be-8355-6173f8f49741",
      "meta": {
        "profile": [ "http://hl7.org/fhir/us/qicore/StructureDefinition/qicore-condition" ]
      },
      "category": [ {
        "coding": [ {
          "system": "http://terminology.hl7.org/CodeSystem/condition-category",
          "code": "encounter-diagnosis",
          "display": "Encounter Diagnosis"
        } ]
      } ],
      "code": {
        "coding": [ {
          "system": "http://hl7.org/fhir/sid/icd-10-cm",
          "version": "2023",
          "code": "A32.7",
          "display": "Listerial sepsis",
          "userSelected": true
        } ]
      },
      "subject": {
        "reference": "Patient/9dee0d1d-5a57-46b7-af6d-b5835ef7856f"
      },
      "recordedDate": "2025-10-26T08:00:00.000+00:00"
    },
    "request": {
      "method": "PUT",
      "url": "Condition/5d24823e-912f-48be-8355-6173f8f49741"
    }
  }, {
    "fullUrl": "https://madie.cms.gov/Condition/37ccf1a3-eeb6-4647-a92c-294be6e650c4",
    "resource": {
      "resourceType": "Condition",
      "id": "37ccf1a3-eeb6-4647-a92c-294be6e650c4",
      "meta": {
        "profile": [ "http://hl7.org/fhir/us/qicore/StructureDefinition/qicore-condition" ]
      },
      "category": [ {
        "coding": [ {
          "system": "http://terminology.hl7.org/CodeSystem/condition-category",
          "code": "encounter-diagnosis",
          "display": "Encounter Diagnosis"
        } ]
      } ],
      "code": {
        "coding": [ {
          "system": "http://hl7.org/fhir/sid/icd-10-cm",
          "version": "2023",
          "code": "E05.00",
          "display": "Thyrotoxicosis",
          "userSelected": true
        } ]
      },
      "subject": {
        "reference": "Patient/9dee0d1d-5a57-46b7-af6d-b5835ef7856f"
      },
      "recordedDate": "2025-10-26T08:00:00.000+00:00"
    },
    "request": {
      "method": "PUT",
      "url": "Condition/37ccf1a3-eeb6-4647-a92c-294be6e650c4"
    }
  }, {
    "fullUrl": "https://madie.cms.gov/MeasureReport/71e3d9fe-3229-4883-b71a-717008f0a8a2",
    "resource": {
      "resourceType": "MeasureReport",
      "id": "71e3d9fe-3229-4883-b71a-717008f0a8a2",
      "meta": {
        "profile": [ "http://hl7.org/fhir/us/cqfmeasures/StructureDefinition/test-case-cqfm" ]
      },
      "contained": [ {
        "resourceType": "Parameters",
        "id": "e86f7717-e310-4c39-a1ce-57564db7fa08-parameters",
        "parameter": [ {
          "name": "subject",
          "valueString": "9dee0d1d-5a57-46b7-af6d-b5835ef7856f"
        } ]
      } ],
      "extension": [ {
        "url": "http://hl7.org/fhir/us/cqfmeasures/StructureDefinition/cqfm-inputParameters",
        "valueReference": {
          "reference": "#e86f7717-e310-4c39-a1ce-57564db7fa08-parameters"
        }
      }, {
        "url": "http://hl7.org/fhir/us/cqfmeasures/StructureDefinition/cqfm-testCaseDescription",
        "valueMarkdown": " Risk variable of thyrotoxicosis.\n\n"
      } ],
      "modifierExtension": [ {
        "url": "http://hl7.org/fhir/us/cqfmeasures/StructureDefinition/cqfm-isTestCase",
        "valueBoolean": true
      } ],
      "status": "complete",
      "type": "individual",
      "measure": "https://madie.cms.gov/Measure/CMS1028FHIRPCSevereOBComps",
      "period": {
        "start": "2025-01-01",
        "end": "2025-12-31"
      },
      "group": [ {
        "population": [ {
          "code": {
            "coding": [ {
              "system": "http://terminology.hl7.org/CodeSystem/measure-population",
              "code": "initial-population",
              "display": "Initial Population"
            } ]
          },
          "count": 1
        }, {
          "code": {
            "coding": [ {
              "system": "http://terminology.hl7.org/CodeSystem/measure-population",
              "code": "denominator",
              "display": "Denominator"
            } ]
          },
          "count": 1
        }, {
          "code": {
            "coding": [ {
              "system": "http://terminology.hl7.org/CodeSystem/measure-population",
              "code": "numerator",
              "display": "Numerator"
            } ]
          },
          "count": 1
        }, {
          "code": {
            "coding": [ {
              "system": "http://terminology.hl7.org/CodeSystem/measure-population",
              "code": "numerator-exclusion",
              "display": "Numerator Exclusion"
            } ]
          },
          "count": 0
        } ]
      }, {
        "population": [ {
          "code": {
            "coding": [ {
              "system": "http://terminology.hl7.org/CodeSystem/measure-population",
              "code": "initial-population",
              "display": "Initial Population"
            } ]
          },
          "count": 1
        }, {
          "code": {
            "coding": [ {
              "system": "http://terminology.hl7.org/CodeSystem/measure-population",
              "code": "denominator",
              "display": "Denominator"
            } ]
          },
          "count": 1
        }, {
          "code": {
            "coding": [ {
              "system": "http://terminology.hl7.org/CodeSystem/measure-population",
              "code": "numerator",
              "display": "Numerator"
            } ]
          },
          "count": 1
        }, {
          "code": {
            "coding": [ {
              "system": "http://terminology.hl7.org/CodeSystem/measure-population",
              "code": "numerator-exclusion",
              "display": "Numerator Exclusion"
            } ]
          },
          "count": 0
        } ]
      } ],
      "evaluatedResource": [ {
        "reference": "Patient/9dee0d1d-5a57-46b7-af6d-b5835ef7856f"
      }, {
        "reference": "Observation/8fa9473f-2c1e-4fac-a62e-a04f1d13f355"
      }, {
        "reference": "Observation/77d12b6f-b2f6-44a5-8472-a33302fabace"
      }, {
        "reference": "Encounter/4f95235d-15ea-4e9f-8c30-a106788fd2e0"
      }, {
        "reference": "Procedure/38affae7-1a07-4bda-b038-2bac6a9c8787"
      }, {
        "reference": "Condition/5d24823e-912f-48be-8355-6173f8f49741"
      }, {
        "reference": "Condition/37ccf1a3-eeb6-4647-a92c-294be6e650c4"
      } ]
    },
    "request": {
      "method": "PUT",
      "url": "MeasureReport/71e3d9fe-3229-4883-b71a-717008f0a8a2"
    }
  } ]
}