{
  "resourceType": "Bundle",
  "id": "612e6ab802c62a011f2eb11c",
  "type": "transaction",
  "entry": [ {
    "fullUrl": "https://madie.cms.gov/Patient/e3ec8d52-9b22-4b4d-8dad-a411a1053e83",
    "resource": {
      "resourceType": "Patient",
      "id": "e3ec8d52-9b22-4b4d-8dad-a411a1053e83",
      "meta": {
        "profile": [ "http://hl7.org/fhir/us/qicore/StructureDefinition/qicore-patient" ]
      },
      "text": {
        "status": "generated",
        "div": "<div xmlns=\"http://www.w3.org/1999/xhtml\"><div class=\"hapiHeaderText\">EncDx=VTE <b>IPPFAIL </b></div><table class=\"hapiPropertyTable\"><tbody><tr><td>Identifier</td><td>da1a5545aa68e1ac51ebdbfee0df4b4e</td></tr><tr><td>Date of birth</td><td><span>02 January 1974</span></td></tr></tbody></table></div>"
      },
      "extension": [ {
        "url": "http://hl7.org/fhir/us/core/StructureDefinition/us-core-race",
        "extension": [ {
          "url": "ombCategory",
          "valueCoding": {
            "system": "urn:oid:2.16.840.1.113883.6.238",
            "code": "1002-5",
            "display": "American Indian or Alaska Native",
            "userSelected": true
          }
        }, {
          "url": "text",
          "valueString": "American Indian or Alaska Native"
        } ]
      }, {
        "url": "http://hl7.org/fhir/us/core/StructureDefinition/us-core-ethnicity",
        "extension": [ {
          "url": "ombCategory",
          "valueCoding": {
            "system": "urn:oid:2.16.840.1.113883.6.238",
            "code": "2135-2",
            "display": "Hispanic or Latino",
            "userSelected": true
          }
        }, {
          "url": "text",
          "valueString": "Hispanic or Latino"
        } ]
      } ],
      "identifier": [ {
        "type": {
          "coding": [ {
            "system": "http://terminology.hl7.org/CodeSystem/v2-0203",
            "code": "MR"
          } ]
        },
        "system": "https://bonnie-fhir.healthit.gov/",
        "value": "612e6ab802c62a011f2eb11c"
      } ],
      "active": true,
      "name": [ {
        "use": "usual",
        "family": "IPPFail",
        "given": [ "EncDxVTE" ]
      } ],
      "gender": "male",
      "birthDate": "1975-01-02"
    },
    "request": {
      "method": "PUT",
      "url": "Patient/e3ec8d52-9b22-4b4d-8dad-a411a1053e83"
    }
  }, {
    "fullUrl": "https://madie.cms.gov/Encounter/0a9d11e5-8231-48ff-98df-93b0e80e5d3d",
    "resource": {
      "resourceType": "Encounter",
      "id": "0a9d11e5-8231-48ff-98df-93b0e80e5d3d",
      "meta": {
        "profile": [ "http://hl7.org/fhir/us/qicore/StructureDefinition/qicore-encounter" ]
      },
      "status": "finished",
      "class": {
        "system": "http://terminology.hl7.org/CodeSystem/v3-ActCode",
        "code": "IMP",
        "display": "inpatient encounter"
      },
      "type": [ {
        "coding": [ {
          "system": "http://snomed.info/sct",
          "code": "8715000"
        } ]
      } ],
      "subject": {
        "reference": "Patient/e3ec8d52-9b22-4b4d-8dad-a411a1053e83"
      },
      "period": {
        "start": "2026-11-01T08:00:00+00:00",
        "end": "2026-11-26T08:15:00+00:00"
      },
      "length": {
        "value": 25.0,
        "unit": "days"
      },
      "diagnosis": [ {
        "condition": {
          "reference": "Condition/3eef0493-7d56-4ceb-8b51-9a754a586506"
        },
        "use": {
          "coding": [ {
            "system": "http://snomed.info/sct",
            "code": "1001000119102",
            "display": "Venous Thromboembolism"
          } ]
        }
      } ]
    },
    "request": {
      "method": "PUT",
      "url": "Encounter/0a9d11e5-8231-48ff-98df-93b0e80e5d3d"
    }
  }, {
    "fullUrl": "https://madie.cms.gov/Coverage/55f3f004-a33b-41da-876c-13e6afc46d11",
    "resource": {
      "resourceType": "Coverage",
      "id": "55f3f004-a33b-41da-876c-13e6afc46d11",
      "status": "active",
      "beneficiary": {
        "reference": "Patient/e3ec8d52-9b22-4b4d-8dad-a411a1053e83"
      },
      "period": {
        "start": "1975-01-02T08:00:00+00:00"
      },
      "payor": [ {
        "reference": "Organization/afa1deea-694e-4452-ab22-9c3efbc63987"
      } ]
    },
    "request": {
      "method": "PUT",
      "url": "Coverage/55f3f004-a33b-41da-876c-13e6afc46d11"
    }
  }, {
    "fullUrl": "https://madie.cms.gov/MedicationAdministration/f2cedb15-7fc5-4b6e-901d-1f08fe545306",
    "resource": {
      "resourceType": "MedicationAdministration",
      "id": "f2cedb15-7fc5-4b6e-901d-1f08fe545306",
      "status": "unknown",
      "medicationCodeableConcept": {
        "coding": [ {
          "system": "http://www.nlm.nih.gov/research/umls/rxnorm",
          "code": "855288"
        } ]
      },
      "subject": {
        "reference": "Patient/e3ec8d52-9b22-4b4d-8dad-a411a1053e83"
      },
      "effectivePeriod": {
        "start": "2026-11-01T09:00:00+00:00",
        "end": "2026-11-01T09:15:00+00:00"
      }
    },
    "request": {
      "method": "PUT",
      "url": "MedicationAdministration/f2cedb15-7fc5-4b6e-901d-1f08fe545306"
    }
  }, {
    "fullUrl": "https://madie.cms.gov/Condition/3eef0493-7d56-4ceb-8b51-9a754a586506",
    "resource": {
      "resourceType": "Condition",
      "id": "3eef0493-7d56-4ceb-8b51-9a754a586506",
      "meta": {
        "profile": [ "http://hl7.org/fhir/us/qicore/StructureDefinition/qicore-condition" ]
      },
      "category": [ {
        "coding": [ {
          "system": "http://terminology.hl7.org/CodeSystem/condition-category",
          "code": "encounter-diagnosis",
          "display": "Encounter Diagnosis"
        } ]
      } ],
      "code": {
        "coding": [ {
          "system": "http://snomed.info/sct",
          "version": "2025-03",
          "code": "1001000119102",
          "display": "Pulmonary embolism with pulmonary infarction (disorder)",
          "userSelected": true
        } ]
      },
      "subject": {
        "reference": "Patient/e3ec8d52-9b22-4b4d-8dad-a411a1053e83"
      },
      "recordedDate": "2026-11-02T08:00:00.000+00:00"
    },
    "request": {
      "method": "PUT",
      "url": "Condition/3eef0493-7d56-4ceb-8b51-9a754a586506"
    }
  }, {
    "fullUrl": "https://madie.cms.gov/Organization/afa1deea-694e-4452-ab22-9c3efbc63987",
    "resource": {
      "resourceType": "Organization",
      "id": "afa1deea-694e-4452-ab22-9c3efbc63987",
      "meta": {
        "profile": [ "http://hl7.org/fhir/us/qicore/StructureDefinition/qicore-organization" ]
      },
      "identifier": [ {
        "use": "temp",
        "system": "urn:oid:2.16.840.1.113883.4.4",
        "value": "21-3259825"
      } ],
      "active": true,
      "type": [ {
        "coding": [ {
          "system": "http://terminology.hl7.org/CodeSystem/organization-type",
          "code": "pay",
          "display": "Payer"
        } ]
      } ],
      "name": "Blue Cross Blue Shield of Texas",
      "telecom": [ {
        "system": "phone",
        "value": "(+1) 972-766-6900"
      } ],
      "address": [ {
        "use": "billing",
        "type": "postal",
        "line": [ "P.O. Box 660044" ],
        "city": "Dallas",
        "state": "TX",
        "postalCode": "75266-0044",
        "country": "USA"
      } ]
    },
    "request": {
      "method": "PUT",
      "url": "Organization/afa1deea-694e-4452-ab22-9c3efbc63987"
    }
  }, {
    "fullUrl": "https://madie.cms.gov/Practitioner/2c23a12e-9f1c-438a-b742-cd6e90bb9b0f",
    "resource": {
      "resourceType": "Practitioner",
      "id": "2c23a12e-9f1c-438a-b742-cd6e90bb9b0f",
      "identifier": [ {
        "system": "http://hl7.org/fhir/sid/us-npi",
        "value": "123456"
      } ],
      "name": [ {
        "family": "Evil",
        "prefix": [ "Dr" ]
      } ]
    },
    "request": {
      "method": "PUT",
      "url": "Practitioner/2c23a12e-9f1c-438a-b742-cd6e90bb9b0f"
    }
  }, {
    "fullUrl": "https://madie.cms.gov/MeasureReport/9adb34d5-343f-4b8e-afcd-e30abd0d1793",
    "resource": {
      "resourceType": "MeasureReport",
      "id": "9adb34d5-343f-4b8e-afcd-e30abd0d1793",
      "meta": {
        "profile": [ "http://hl7.org/fhir/us/cqfmeasures/StructureDefinition/test-case-cqfm" ]
      },
      "contained": [ {
        "resourceType": "Parameters",
        "id": "b79034ec-a63d-49f8-9dde-9e998681ad02-parameters",
        "parameter": [ {
          "name": "subject",
          "valueString": "e3ec8d52-9b22-4b4d-8dad-a411a1053e83"
        } ]
      } ],
      "extension": [ {
        "url": "http://hl7.org/fhir/us/cqfmeasures/StructureDefinition/cqfm-inputParameters",
        "valueReference": {
          "reference": "#b79034ec-a63d-49f8-9dde-9e998681ad02-parameters"
        }
      }, {
        "url": "http://hl7.org/fhir/us/cqfmeasures/StructureDefinition/cqfm-testCaseDescription",
        "valueMarkdown": "patient is > 18 years, LOS < 120 days during MP with dx of VTE and warfarin administered\n"
      } ],
      "modifierExtension": [ {
        "url": "http://hl7.org/fhir/us/cqfmeasures/StructureDefinition/cqfm-isTestCase",
        "valueBoolean": true
      } ],
      "status": "complete",
      "type": "individual",
      "measure": "https://madie.cms.gov/Measure/CMS108VTEProphylaxisFHIR",
      "period": {
        "start": "2026-01-01",
        "end": "2026-12-31"
      },
      "group": [ {
        "population": [ {
          "code": {
            "coding": [ {
              "system": "http://terminology.hl7.org/CodeSystem/measure-population",
              "code": "initial-population",
              "display": "Initial Population"
            } ]
          },
          "count": 0
        }, {
          "code": {
            "coding": [ {
              "system": "http://terminology.hl7.org/CodeSystem/measure-population",
              "code": "denominator",
              "display": "Denominator"
            } ]
          },
          "count": 0
        }, {
          "code": {
            "coding": [ {
              "system": "http://terminology.hl7.org/CodeSystem/measure-population",
              "code": "denominator-exclusion",
              "display": "Denominator Exclusion"
            } ]
          },
          "count": 0
        }, {
          "code": {
            "coding": [ {
              "system": "http://terminology.hl7.org/CodeSystem/measure-population",
              "code": "numerator",
              "display": "Numerator"
            } ]
          },
          "count": 0
        } ]
      } ],
      "evaluatedResource": [ {
        "reference": "Patient/e3ec8d52-9b22-4b4d-8dad-a411a1053e83"
      }, {
        "reference": "Encounter/0a9d11e5-8231-48ff-98df-93b0e80e5d3d"
      }, {
        "reference": "Coverage/55f3f004-a33b-41da-876c-13e6afc46d11"
      }, {
        "reference": "MedicationAdministration/f2cedb15-7fc5-4b6e-901d-1f08fe545306"
      }, {
        "reference": "Condition/3eef0493-7d56-4ceb-8b51-9a754a586506"
      }, {
        "reference": "Organization/afa1deea-694e-4452-ab22-9c3efbc63987"
      }, {
        "reference": "Practitioner/2c23a12e-9f1c-438a-b742-cd6e90bb9b0f"
      } ]
    },
    "request": {
      "method": "PUT",
      "url": "MeasureReport/9adb34d5-343f-4b8e-afcd-e30abd0d1793"
    }
  } ]
}