{
  "resourceType": "Bundle",
  "id": "6359776b6aee9629c8298235",
  "type": "transaction",
  "entry": [ {
    "fullUrl": "https://madie.cms.gov/Patient/9345b7b7-6eb5-4586-b593-b893e0515291",
    "resource": {
      "resourceType": "Patient",
      "id": "9345b7b7-6eb5-4586-b593-b893e0515291",
      "meta": {
        "profile": [ "http://hl7.org/fhir/us/qicore/StructureDefinition/qicore-patient" ]
      },
      "text": {
        "status": "generated",
        "div": "<div xmlns=\"http://www.w3.org/1999/xhtml\"><div class=\"hapiHeaderText\">RISKWBC24hours1MinB4EDOTTriageEnc <b>RISKFail </b></div><table class=\"hapiPropertyTable\"><tbody><tr><td>Date of birth</td><td><span>01 February 2004</span></td></tr></tbody></table></div>"
      },
      "extension": [ {
        "url": "http://hl7.org/fhir/us/core/StructureDefinition/us-core-race",
        "extension": [ {
          "url": "ombCategory",
          "valueCoding": {
            "system": "urn:oid:2.16.840.1.113883.6.238",
            "code": "1002-5",
            "display": "American Indian or Alaska Native",
            "userSelected": true
          }
        }, {
          "url": "text",
          "valueString": "American Indian or Alaska Native"
        } ]
      }, {
        "url": "http://hl7.org/fhir/us/core/StructureDefinition/us-core-ethnicity",
        "extension": [ {
          "url": "ombCategory",
          "valueCoding": {
            "system": "urn:oid:2.16.840.1.113883.6.238",
            "code": "2135-2",
            "display": "Hispanic or Latino",
            "userSelected": true
          }
        }, {
          "url": "text",
          "valueString": "Hispanic or Latino"
        } ]
      } ],
      "identifier": [ {
        "type": {
          "coding": [ {
            "system": "http://terminology.hl7.org/CodeSystem/v2-0203",
            "code": "MR"
          } ]
        },
        "system": "https://bonnie-fhir.healthit.gov/",
        "value": "6359776b6aee9629c8298235"
      } ],
      "active": true,
      "name": [ {
        "use": "usual",
        "family": "RiskFail",
        "given": [ "RISKWBC24hours1MinB4EDOTTriageEnc" ]
      } ],
      "gender": "female",
      "birthDate": "2004-02-01"
    },
    "request": {
      "method": "PUT",
      "url": "Patient/9345b7b7-6eb5-4586-b593-b893e0515291"
    }
  }, {
    "fullUrl": "https://madie.cms.gov/Observation/5cfb24f0-18c3-44a3-a528-dc7f547465f7",
    "resource": {
      "resourceType": "Observation",
      "id": "5cfb24f0-18c3-44a3-a528-dc7f547465f7",
      "meta": {
        "profile": [ "http://hl7.org/fhir/us/qicore/StructureDefinition/qicore-observation" ]
      },
      "status": "final",
      "category": [ {
        "coding": [ {
          "system": "http://terminology.hl7.org/CodeSystem/observation-category",
          "code": "exam",
          "display": "exam",
          "userSelected": true
        } ]
      } ],
      "code": {
        "coding": [ {
          "system": "http://loinc.org",
          "code": "93857-1"
        } ]
      },
      "subject": {
        "reference": "Patient/9345b7b7-6eb5-4586-b593-b893e0515291"
      },
      "effectiveDateTime": "2025-02-01T08:00:00.000+00:00",
      "valueDateTime": "2025-02-01T08:00:00+00:00"
    },
    "request": {
      "method": "PUT",
      "url": "Observation/5cfb24f0-18c3-44a3-a528-dc7f547465f7"
    }
  }, {
    "fullUrl": "https://madie.cms.gov/Observation/c7615399-3ccf-4135-b5a2-41d1512eddc0",
    "resource": {
      "resourceType": "Observation",
      "id": "c7615399-3ccf-4135-b5a2-41d1512eddc0",
      "meta": {
        "profile": [ "http://hl7.org/fhir/us/qicore/StructureDefinition/qicore-observation" ]
      },
      "status": "final",
      "category": [ {
        "coding": [ {
          "system": "http://terminology.hl7.org/CodeSystem/observation-category",
          "code": "exam",
          "display": "exam",
          "userSelected": true
        } ]
      } ],
      "code": {
        "coding": [ {
          "system": "http://loinc.org",
          "code": "11884-4"
        } ]
      },
      "subject": {
        "reference": "Patient/9345b7b7-6eb5-4586-b593-b893e0515291"
      },
      "effectiveDateTime": "2025-02-01T08:00:00.000+00:00",
      "valueQuantity": {
        "value": 21,
        "system": "http://unitsofmeasure.org",
        "code": "wk"
      }
    },
    "request": {
      "method": "PUT",
      "url": "Observation/c7615399-3ccf-4135-b5a2-41d1512eddc0"
    }
  }, {
    "fullUrl": "https://madie.cms.gov/Encounter/358b8aac-d899-4a27-aa2b-07994deb7a3c",
    "resource": {
      "resourceType": "Encounter",
      "id": "358b8aac-d899-4a27-aa2b-07994deb7a3c",
      "meta": {
        "profile": [ "http://hl7.org/fhir/us/qicore/StructureDefinition/qicore-encounter" ]
      },
      "status": "finished",
      "class": {
        "system": "http://terminology.hl7.org/CodeSystem/v3-ActCode",
        "code": "IMP",
        "display": "inpatient encounter"
      },
      "type": [ {
        "coding": [ {
          "system": "http://snomed.info/sct",
          "code": "183452005"
        } ]
      } ],
      "subject": {
        "reference": "Patient/9345b7b7-6eb5-4586-b593-b893e0515291"
      },
      "period": {
        "start": "2025-02-01T08:00:00.000+00:00",
        "end": "2025-02-05T08:15:00.000+00:00"
      }
    },
    "request": {
      "method": "PUT",
      "url": "Encounter/358b8aac-d899-4a27-aa2b-07994deb7a3c"
    }
  }, {
    "fullUrl": "https://madie.cms.gov/Encounter/53ae0730-9a74-4ea9-9b24-c6005ddb2ecf",
    "resource": {
      "resourceType": "Encounter",
      "id": "53ae0730-9a74-4ea9-9b24-c6005ddb2ecf",
      "meta": {
        "profile": [ "http://hl7.org/fhir/us/qicore/StructureDefinition/qicore-encounter" ]
      },
      "status": "finished",
      "class": {
        "system": "http://terminology.hl7.org/CodeSystem/v3-ActCode",
        "code": "EMER",
        "display": "emergency"
      },
      "type": [ {
        "coding": [ {
          "system": "http://snomed.info/sct",
          "code": "4525004"
        } ]
      } ],
      "subject": {
        "reference": "Patient/9345b7b7-6eb5-4586-b593-b893e0515291"
      },
      "period": {
        "start": "2025-02-01T07:00:00.000+00:00",
        "end": "2025-02-01T07:59:00.000+00:00"
      }
    },
    "request": {
      "method": "PUT",
      "url": "Encounter/53ae0730-9a74-4ea9-9b24-c6005ddb2ecf"
    }
  }, {
    "fullUrl": "https://madie.cms.gov/Procedure/a33b1a44-1268-4da7-8b4c-de27602cff95",
    "resource": {
      "resourceType": "Procedure",
      "id": "a33b1a44-1268-4da7-8b4c-de27602cff95",
      "meta": {
        "profile": [ "http://hl7.org/fhir/us/qicore/StructureDefinition/qicore-procedure" ]
      },
      "extension": [ {
        "url": "http://hl7.org/fhir/us/qicore/StructureDefinition/qicore-recorded",
        "valueDateTime": "2025-02-04T09:35:00-04:00"
      } ],
      "status": "completed",
      "code": {
        "coding": [ {
          "system": "http://snomed.info/sct",
          "code": "10745001"
        } ]
      },
      "subject": {
        "reference": "Patient/9345b7b7-6eb5-4586-b593-b893e0515291"
      },
      "performedPeriod": {
        "start": "2025-02-01T08:00:00.000+00:00",
        "end": "2025-02-05T08:15:00.000+00:00"
      }
    },
    "request": {
      "method": "PUT",
      "url": "Procedure/a33b1a44-1268-4da7-8b4c-de27602cff95"
    }
  }, {
    "fullUrl": "https://madie.cms.gov/Observation/07f2d0ad-4029-4918-a766-c33a3a558ce8",
    "resource": {
      "resourceType": "Observation",
      "id": "07f2d0ad-4029-4918-a766-c33a3a558ce8",
      "meta": {
        "profile": [ "http://hl7.org/fhir/us/core/StructureDefinition/us-core-observation-lab" ]
      },
      "status": "final",
      "category": [ {
        "coding": [ {
          "system": "http://terminology.hl7.org/CodeSystem/observation-category",
          "code": "laboratory",
          "display": "laboratory",
          "userSelected": true
        } ]
      } ],
      "code": {
        "coding": [ {
          "system": "http://loinc.org",
          "version": "2.73",
          "code": "26464-8",
          "display": "Leukocytes [#/volume] in Blood",
          "userSelected": true
        } ]
      },
      "subject": {
        "reference": "Patient/9345b7b7-6eb5-4586-b593-b893e0515291"
      },
      "effectiveDateTime": "2025-01-31T06:59:00.000+00:00",
      "issued": "2025-01-31T06:59:00.000+00:00",
      "valueQuantity": {
        "value": 20,
        "unit": "10*3/u"
      }
    },
    "request": {
      "method": "PUT",
      "url": "Observation/07f2d0ad-4029-4918-a766-c33a3a558ce8"
    }
  }, {
    "fullUrl": "https://madie.cms.gov/MeasureReport/48cfb7b9-b6c8-4e26-ae37-f50972c1061b",
    "resource": {
      "resourceType": "MeasureReport",
      "id": "48cfb7b9-b6c8-4e26-ae37-f50972c1061b",
      "meta": {
        "profile": [ "http://hl7.org/fhir/us/cqfmeasures/StructureDefinition/test-case-cqfm" ]
      },
      "contained": [ {
        "resourceType": "Parameters",
        "id": "296529b8-aa5e-459a-8a58-ec5c7b73a65d-parameters",
        "parameter": [ {
          "name": "subject",
          "valueString": "9345b7b7-6eb5-4586-b593-b893e0515291"
        } ]
      } ],
      "extension": [ {
        "url": "http://hl7.org/fhir/us/cqfmeasures/StructureDefinition/cqfm-inputParameters",
        "valueReference": {
          "reference": "#296529b8-aa5e-459a-8a58-ec5c7b73a65d-parameters"
        }
      }, {
        "url": "http://hl7.org/fhir/us/cqfmeasures/StructureDefinition/cqfm-testCaseDescription",
        "valueMarkdown": "Patient with WBC that starts 24 hours and 1 minute before ED OB Triage encounter.  \n"
      } ],
      "modifierExtension": [ {
        "url": "http://hl7.org/fhir/us/cqfmeasures/StructureDefinition/cqfm-isTestCase",
        "valueBoolean": true
      } ],
      "status": "complete",
      "type": "individual",
      "measure": "https://madie.cms.gov/Measure/CMS1028FHIRPCSevereOBComps",
      "period": {
        "start": "2025-01-01",
        "end": "2025-12-31"
      },
      "group": [ {
        "population": [ {
          "code": {
            "coding": [ {
              "system": "http://terminology.hl7.org/CodeSystem/measure-population",
              "code": "initial-population",
              "display": "Initial Population"
            } ]
          },
          "count": 1
        }, {
          "code": {
            "coding": [ {
              "system": "http://terminology.hl7.org/CodeSystem/measure-population",
              "code": "denominator",
              "display": "Denominator"
            } ]
          },
          "count": 1
        }, {
          "code": {
            "coding": [ {
              "system": "http://terminology.hl7.org/CodeSystem/measure-population",
              "code": "numerator",
              "display": "Numerator"
            } ]
          },
          "count": 0
        }, {
          "code": {
            "coding": [ {
              "system": "http://terminology.hl7.org/CodeSystem/measure-population",
              "code": "numerator-exclusion",
              "display": "Numerator Exclusion"
            } ]
          },
          "count": 0
        } ]
      }, {
        "population": [ {
          "code": {
            "coding": [ {
              "system": "http://terminology.hl7.org/CodeSystem/measure-population",
              "code": "initial-population",
              "display": "Initial Population"
            } ]
          },
          "count": 1
        }, {
          "code": {
            "coding": [ {
              "system": "http://terminology.hl7.org/CodeSystem/measure-population",
              "code": "denominator",
              "display": "Denominator"
            } ]
          },
          "count": 1
        }, {
          "code": {
            "coding": [ {
              "system": "http://terminology.hl7.org/CodeSystem/measure-population",
              "code": "numerator",
              "display": "Numerator"
            } ]
          },
          "count": 0
        }, {
          "code": {
            "coding": [ {
              "system": "http://terminology.hl7.org/CodeSystem/measure-population",
              "code": "numerator-exclusion",
              "display": "Numerator Exclusion"
            } ]
          },
          "count": 0
        } ]
      } ],
      "evaluatedResource": [ {
        "reference": "Patient/9345b7b7-6eb5-4586-b593-b893e0515291"
      }, {
        "reference": "Observation/5cfb24f0-18c3-44a3-a528-dc7f547465f7"
      }, {
        "reference": "Observation/c7615399-3ccf-4135-b5a2-41d1512eddc0"
      }, {
        "reference": "Encounter/358b8aac-d899-4a27-aa2b-07994deb7a3c"
      }, {
        "reference": "Encounter/53ae0730-9a74-4ea9-9b24-c6005ddb2ecf"
      }, {
        "reference": "Procedure/a33b1a44-1268-4da7-8b4c-de27602cff95"
      }, {
        "reference": "Observation/07f2d0ad-4029-4918-a766-c33a3a558ce8"
      } ]
    },
    "request": {
      "method": "PUT",
      "url": "MeasureReport/48cfb7b9-b6c8-4e26-ae37-f50972c1061b"
    }
  } ]
}