{
  "resourceType": "Bundle",
  "id": "6179ec1dad1a790b7af75256",
  "type": "transaction",
  "entry": [ {
    "fullUrl": "https://madie.cms.gov/Patient/92180acb-2860-4d67-b97a-62e84fcb7c2d",
    "resource": {
      "resourceType": "Patient",
      "id": "92180acb-2860-4d67-b97a-62e84fcb7c2d",
      "meta": {
        "profile": [ "http://hl7.org/fhir/us/qicore/StructureDefinition/qicore-patient" ]
      },
      "extension": [ {
        "url": "http://hl7.org/fhir/us/core/StructureDefinition/us-core-race",
        "extension": [ {
          "url": "ombCategory",
          "valueCoding": {
            "system": "urn:oid:2.16.840.1.113883.6.238",
            "code": "2028-9",
            "display": "Asian",
            "userSelected": true
          }
        }, {
          "url": "text",
          "valueString": "Asian"
        } ]
      }, {
        "url": "http://hl7.org/fhir/us/core/StructureDefinition/us-core-ethnicity",
        "extension": [ {
          "url": "ombCategory",
          "valueCoding": {
            "system": "urn:oid:2.16.840.1.113883.6.238",
            "code": "2135-2",
            "display": "Hispanic or Latino",
            "userSelected": true
          }
        }, {
          "url": "text",
          "valueString": "Hispanic or Latino"
        } ]
      } ],
      "identifier": [ {
        "type": {
          "coding": [ {
            "system": "http://terminology.hl7.org/CodeSystem/v2-0203",
            "code": "MR"
          } ]
        },
        "system": "https://bonnie-fhir.healthit.gov/",
        "value": "6179ec1dad1a790b7af75256"
      } ],
      "name": [ {
        "family": "DenExcl2Pass",
        "given": [ "PxExclStartsDuringEndsDuringEDrelevantPeriod" ]
      } ],
      "gender": "female",
      "birthDate": "1985-12-02"
    },
    "request": {
      "method": "PUT",
      "url": "Patient/92180acb-2860-4d67-b97a-62e84fcb7c2d"
    }
  }, {
    "fullUrl": "https://madie.cms.gov/Encounter/e752c6c3-87c5-4b3f-abe9-8408ff0c57d3",
    "resource": {
      "resourceType": "Encounter",
      "id": "e752c6c3-87c5-4b3f-abe9-8408ff0c57d3",
      "meta": {
        "profile": [ "http://hl7.org/fhir/us/qicore/StructureDefinition/qicore-encounter" ]
      },
      "status": "finished",
      "class": {
        "system": "http://terminology.hl7.org/CodeSystem/v3-ActCode",
        "code": "EMER",
        "display": "emergency",
        "userSelected": true
      },
      "type": [ {
        "coding": [ {
          "system": "http://snomed.info/sct",
          "version": "2020-09",
          "code": "4525004",
          "display": "Emergency department patient visit (procedure)",
          "userSelected": true
        } ]
      } ],
      "subject": {
        "reference": "Patient/92180acb-2860-4d67-b97a-62e84fcb7c2d"
      },
      "period": {
        "start": "2026-10-09T08:05:00.000+00:00",
        "end": "2026-10-10T07:15:00.000+00:00"
      }
    },
    "request": {
      "method": "PUT",
      "url": "Encounter/e752c6c3-87c5-4b3f-abe9-8408ff0c57d3"
    }
  }, {
    "fullUrl": "https://madie.cms.gov/Condition/9da9dc27-f12a-45ea-8415-43a9e961ae4b",
    "resource": {
      "resourceType": "Condition",
      "id": "9da9dc27-f12a-45ea-8415-43a9e961ae4b",
      "meta": {
        "profile": [ "http://hl7.org/fhir/us/qicore/StructureDefinition/qicore-condition" ]
      },
      "clinicalStatus": {
        "coding": [ {
          "system": "http://terminology.hl7.org/CodeSystem/condition-clinical",
          "code": "active",
          "display": "active",
          "userSelected": true
        } ]
      },
      "category": [ {
        "coding": [ {
          "system": "http://terminology.hl7.org/CodeSystem/condition-category",
          "code": "encounter-diagnosis",
          "display": "Encounter Diagnosis",
          "userSelected": true
        } ]
      } ],
      "code": {
        "coding": [ {
          "system": "http://snomed.info/sct",
          "version": "2020-09",
          "code": "401303003",
          "display": "Acute ST segment elevation myocardial infarction (disorder)",
          "userSelected": true
        } ]
      },
      "subject": {
        "reference": "Patient/92180acb-2860-4d67-b97a-62e84fcb7c2d"
      },
      "onsetDateTime": "2026-10-09T08:30:00.000+00:00"
    },
    "request": {
      "method": "PUT",
      "url": "Condition/9da9dc27-f12a-45ea-8415-43a9e961ae4b"
    }
  }, {
    "fullUrl": "https://madie.cms.gov/Procedure/2e0e9e3b-9731-4295-bd2c-b2e848b062dc",
    "resource": {
      "resourceType": "Procedure",
      "id": "2e0e9e3b-9731-4295-bd2c-b2e848b062dc",
      "meta": {
        "profile": [ "http://hl7.org/fhir/us/qicore/StructureDefinition/qicore-procedure" ]
      },
      "extension": [ {
        "url": "http://hl7.org/fhir/us/qicore/StructureDefinition/qicore-recorded",
        "valueDateTime": "2026-10-09T10:15:00.000+00:00"
      } ],
      "status": "completed",
      "category": {
        "coding": [ {
          "system": "http://snomed.info/sct",
          "code": "387713003",
          "display": "Surgical procedure",
          "userSelected": true
        } ]
      },
      "code": {
        "coding": [ {
          "system": "http://www.cms.gov/Medicare/Coding/ICD10",
          "code": "5A1935Z",
          "display": "Respiratory Ventilation, Less than 24 Consecutive Hours",
          "userSelected": true
        } ]
      },
      "subject": {
        "reference": "Patient/92180acb-2860-4d67-b97a-62e84fcb7c2d"
      },
      "encounter": {
        "reference": "Encounter/e752c6c3-87c5-4b3f-abe9-8408ff0c57d3"
      },
      "performedPeriod": {
        "start": "2026-10-09T12:00:00.000+00:00",
        "end": "2026-10-09T21:15:00.000+00:00"
      }
    },
    "request": {
      "method": "PUT",
      "url": "Procedure/2e0e9e3b-9731-4295-bd2c-b2e848b062dc"
    }
  }, {
    "fullUrl": "https://madie.cms.gov/MeasureReport/6eb0be2e-898b-447a-955c-4ecd03b161f6",
    "resource": {
      "resourceType": "MeasureReport",
      "id": "6eb0be2e-898b-447a-955c-4ecd03b161f6",
      "meta": {
        "profile": [ "http://hl7.org/fhir/us/cqfmeasures/StructureDefinition/test-case-cqfm" ]
      },
      "contained": [ {
        "resourceType": "Parameters",
        "id": "4ae0a592-5548-40a1-a18d-49c45b704995-parameters",
        "parameter": [ {
          "name": "subject",
          "valueString": "92180acb-2860-4d67-b97a-62e84fcb7c2d"
        } ]
      } ],
      "extension": [ {
        "url": "http://hl7.org/fhir/us/cqfmeasures/StructureDefinition/cqfm-inputParameters",
        "valueReference": {
          "reference": "#4ae0a592-5548-40a1-a18d-49c45b704995-parameters"
        }
      }, {
        "url": "http://hl7.org/fhir/us/cqfmeasures/StructureDefinition/cqfm-testCaseDescription",
        "valueMarkdown": "Patient has endotracheal intubation (exclusion procedure) that starts during and ends during the ED encounter - using relevantPeriod"
      } ],
      "modifierExtension": [ {
        "url": "http://hl7.org/fhir/us/cqfmeasures/StructureDefinition/cqfm-isTestCase",
        "valueBoolean": true
      } ],
      "status": "complete",
      "type": "individual",
      "measure": "https://madie.cms.gov/Measure/CMS996FHIRAptTxforSTEMI",
      "period": {
        "start": "2026-01-01",
        "end": "2026-12-31"
      },
      "group": [ {
        "population": [ {
          "code": {
            "coding": [ {
              "system": "http://terminology.hl7.org/CodeSystem/measure-population",
              "code": "initial-population",
              "display": "Initial Population"
            } ]
          },
          "count": 1
        }, {
          "code": {
            "coding": [ {
              "system": "http://terminology.hl7.org/CodeSystem/measure-population",
              "code": "denominator",
              "display": "Denominator"
            } ]
          },
          "count": 1
        }, {
          "code": {
            "coding": [ {
              "system": "http://terminology.hl7.org/CodeSystem/measure-population",
              "code": "denominator-exclusion",
              "display": "Denominator Exclusion"
            } ]
          },
          "count": 1
        }, {
          "code": {
            "coding": [ {
              "system": "http://terminology.hl7.org/CodeSystem/measure-population",
              "code": "numerator",
              "display": "Numerator"
            } ]
          },
          "count": 0
        }, {
          "code": {
            "coding": [ {
              "system": "http://terminology.hl7.org/CodeSystem/measure-population",
              "code": "denominator-exception",
              "display": "Denominator Exception"
            } ]
          },
          "count": 0
        } ]
      } ],
      "evaluatedResource": [ {
        "reference": "Patient/92180acb-2860-4d67-b97a-62e84fcb7c2d"
      }, {
        "reference": "Encounter/e752c6c3-87c5-4b3f-abe9-8408ff0c57d3"
      }, {
        "reference": "Condition/9da9dc27-f12a-45ea-8415-43a9e961ae4b"
      }, {
        "reference": "Procedure/2e0e9e3b-9731-4295-bd2c-b2e848b062dc"
      } ]
    },
    "request": {
      "method": "PUT",
      "url": "MeasureReport/6eb0be2e-898b-447a-955c-4ecd03b161f6"
    }
  } ]
}