{
  "resourceType": "Bundle",
  "id": "63487c2f0968f801225401ad",
  "type": "transaction",
  "entry": [ {
    "fullUrl": "https://madie.cms.gov/Patient/e9c9f925-0076-4762-8392-e4d964caaedf",
    "resource": {
      "resourceType": "Patient",
      "id": "e9c9f925-0076-4762-8392-e4d964caaedf",
      "meta": {
        "profile": [ "http://hl7.org/fhir/us/qicore/StructureDefinition/qicore-patient" ]
      },
      "text": {
        "status": "generated",
        "div": "<div xmlns=\"http://www.w3.org/1999/xhtml\"><div class=\"hapiHeaderText\">AssessEDDRelDtTimeB4TimeOfDelivAndEncStart <b>DENPASS </b></div><table class=\"hapiPropertyTable\"><tbody><tr><td>Identifier</td><td>b00b06f67015bda652373741cca10f65466d828e3a674df9528f73ec417ce0bb</td></tr><tr><td>Date of birth</td><td><span>14 February 1985</span></td></tr></tbody></table></div>"
      },
      "extension": [ {
        "url": "http://hl7.org/fhir/us/core/StructureDefinition/us-core-race",
        "extension": [ {
          "url": "ombCategory",
          "valueCoding": {
            "system": "urn:oid:2.16.840.1.113883.6.238",
            "code": "1002-5",
            "display": "American Indian or Alaska Native",
            "userSelected": true
          }
        }, {
          "url": "text",
          "valueString": "American Indian or Alaska Native"
        } ]
      }, {
        "url": "http://hl7.org/fhir/us/core/StructureDefinition/us-core-ethnicity",
        "extension": [ {
          "url": "ombCategory",
          "valueCoding": {
            "system": "urn:oid:2.16.840.1.113883.6.238",
            "code": "2135-2",
            "display": "Hispanic or Latino",
            "userSelected": true
          }
        }, {
          "url": "text",
          "valueString": "Hispanic or Latino"
        } ]
      } ],
      "identifier": [ {
        "type": {
          "coding": [ {
            "system": "http://terminology.hl7.org/CodeSystem/v2-0203",
            "code": "MR"
          } ]
        },
        "system": "https://bonnie-fhir.healthit.gov/",
        "value": "63487c2f0968f801225401ad"
      } ],
      "active": true,
      "name": [ {
        "use": "usual",
        "family": "DENPass",
        "given": [ "AssessEDDRelDtTimeB4TimeOfDelivAndEncStart" ]
      } ],
      "gender": "female",
      "birthDate": "1998-02-14"
    },
    "request": {
      "method": "PUT",
      "url": "Patient/e9c9f925-0076-4762-8392-e4d964caaedf"
    }
  }, {
    "fullUrl": "https://madie.cms.gov/Observation/892d7ea4-1576-411b-96e7-fd80e9fda0a7",
    "resource": {
      "resourceType": "Observation",
      "id": "892d7ea4-1576-411b-96e7-fd80e9fda0a7",
      "meta": {
        "profile": [ "http://hl7.org/fhir/us/qicore/StructureDefinition/qicore-observation" ]
      },
      "status": "final",
      "category": [ {
        "coding": [ {
          "system": "http://terminology.hl7.org/CodeSystem/observation-category",
          "code": "exam",
          "display": "exam",
          "userSelected": true
        } ]
      } ],
      "code": {
        "coding": [ {
          "system": "http://loinc.org",
          "code": "93857-1"
        } ]
      },
      "subject": {
        "reference": "Patient/e9c9f925-0076-4762-8392-e4d964caaedf"
      },
      "effectiveDateTime": "2026-01-15T08:00:00.000+00:00",
      "valueDateTime": "2026-01-15T08:00:00+00:00"
    },
    "request": {
      "method": "PUT",
      "url": "Observation/892d7ea4-1576-411b-96e7-fd80e9fda0a7"
    }
  }, {
    "fullUrl": "https://madie.cms.gov/Observation/675cb139-ec5d-47b7-a021-e5b86d9681de",
    "resource": {
      "resourceType": "Observation",
      "id": "675cb139-ec5d-47b7-a021-e5b86d9681de",
      "meta": {
        "profile": [ "http://hl7.org/fhir/us/qicore/StructureDefinition/qicore-observation" ]
      },
      "status": "final",
      "category": [ {
        "coding": [ {
          "system": "http://terminology.hl7.org/CodeSystem/observation-category",
          "code": "exam",
          "display": "exam",
          "userSelected": true
        } ]
      } ],
      "code": {
        "coding": [ {
          "system": "http://loinc.org",
          "code": "11778-8"
        } ]
      },
      "subject": {
        "reference": "Patient/e9c9f925-0076-4762-8392-e4d964caaedf"
      },
      "effectiveDateTime": "2026-01-14T07:59:00.000+00:00",
      "valueDateTime": "2026-02-04T08:00:00+00:00"
    },
    "request": {
      "method": "PUT",
      "url": "Observation/675cb139-ec5d-47b7-a021-e5b86d9681de"
    }
  }, {
    "fullUrl": "https://madie.cms.gov/Observation/479387b4-4961-4c41-8fdc-3225a6f1f676",
    "resource": {
      "resourceType": "Observation",
      "id": "479387b4-4961-4c41-8fdc-3225a6f1f676",
      "meta": {
        "profile": [ "http://hl7.org/fhir/us/qicore/StructureDefinition/qicore-observation" ]
      },
      "status": "final",
      "category": [ {
        "coding": [ {
          "system": "http://terminology.hl7.org/CodeSystem/observation-category",
          "code": "exam",
          "display": "exam",
          "userSelected": true
        } ]
      } ],
      "code": {
        "coding": [ {
          "system": "http://loinc.org",
          "code": "11996-6"
        } ]
      },
      "subject": {
        "reference": "Patient/e9c9f925-0076-4762-8392-e4d964caaedf"
      },
      "effectiveDateTime": "2026-01-15T07:59:00.000+00:00",
      "valueInteger": 1
    },
    "request": {
      "method": "PUT",
      "url": "Observation/479387b4-4961-4c41-8fdc-3225a6f1f676"
    }
  }, {
    "fullUrl": "https://madie.cms.gov/Encounter/f2001e7c-09dc-467f-b896-458714a53d4a",
    "resource": {
      "resourceType": "Encounter",
      "id": "f2001e7c-09dc-467f-b896-458714a53d4a",
      "meta": {
        "profile": [ "http://hl7.org/fhir/us/qicore/StructureDefinition/qicore-encounter" ]
      },
      "status": "finished",
      "class": {
        "system": "http://terminology.hl7.org/CodeSystem/v3-ActCode",
        "code": "IMP",
        "display": "inpatient encounter"
      },
      "type": [ {
        "coding": [ {
          "system": "http://snomed.info/sct",
          "code": "183452005"
        } ]
      } ],
      "subject": {
        "reference": "Patient/e9c9f925-0076-4762-8392-e4d964caaedf"
      },
      "period": {
        "start": "2026-01-15T08:00:00.000Z",
        "end": "2026-01-20T08:15:00.000Z"
      },
      "diagnosis": [ {
        "condition": {
          "reference": "Condition/delivery-of-singleton-f83c"
        },
        "use": {
          "coding": [ {
            "system": "http://snomed.info/sct",
            "code": "169826009",
            "display": "Delivery of Singleton"
          } ]
        }
      }, {
        "condition": {
          "reference": "Condition/241866fa-0b51-4dbf-947b-87cd225d2d88"
        }
      } ]
    },
    "request": {
      "method": "PUT",
      "url": "Encounter/f2001e7c-09dc-467f-b896-458714a53d4a"
    }
  }, {
    "fullUrl": "https://madie.cms.gov/Procedure/63afefc1-8346-4386-93e1-0a7d3d81081f",
    "resource": {
      "resourceType": "Procedure",
      "id": "63afefc1-8346-4386-93e1-0a7d3d81081f",
      "meta": {
        "profile": [ "http://hl7.org/fhir/us/qicore/StructureDefinition/qicore-procedure" ]
      },
      "extension": [ {
        "url": "http://hl7.org/fhir/us/qicore/StructureDefinition/qicore-recorded",
        "valueDateTime": "2014-04-05T09:35:00-04:00"
      } ],
      "status": "completed",
      "code": {
        "coding": [ {
          "system": "http://www.cms.gov/Medicare/Coding/ICD10",
          "code": "10D07Z3"
        }, {
          "system": "http://www.icd10data.com/icd10pcs",
          "code": "10D07Z3",
          "userSelected": true
        } ]
      },
      "subject": {
        "reference": "Patient/e9c9f925-0076-4762-8392-e4d964caaedf"
      },
      "performedPeriod": {
        "start": "2026-01-15T08:10:00.000Z",
        "end": "2026-01-15T09:14:00.000Z"
      }
    },
    "request": {
      "method": "PUT",
      "url": "Procedure/63afefc1-8346-4386-93e1-0a7d3d81081f"
    }
  }, {
    "fullUrl": "https://madie.cms.gov/Condition/241866fa-0b51-4dbf-947b-87cd225d2d88",
    "resource": {
      "resourceType": "Condition",
      "id": "241866fa-0b51-4dbf-947b-87cd225d2d88",
      "meta": {
        "profile": [ "http://hl7.org/fhir/us/qicore/StructureDefinition/qicore-condition" ]
      },
      "category": [ {
        "coding": [ {
          "system": "http://terminology.hl7.org/CodeSystem/condition-category",
          "code": "encounter-diagnosis",
          "display": "Encounter Diagnosis"
        } ]
      } ],
      "code": {
        "coding": [ {
          "system": "http://snomed.info/sct",
          "version": "2022-09",
          "code": "169826009",
          "display": "Single live birth (finding)",
          "userSelected": true
        } ]
      },
      "subject": {
        "reference": "Patient/e9c9f925-0076-4762-8392-e4d964caaedf"
      },
      "recordedDate": "2026-10-18T08:00:00.000+00:00"
    },
    "request": {
      "method": "PUT",
      "url": "Condition/241866fa-0b51-4dbf-947b-87cd225d2d88"
    }
  }, {
    "fullUrl": "https://madie.cms.gov/Coverage/2b119038-70f1-48dc-804d-62afa97a60f7",
    "resource": {
      "resourceType": "Coverage",
      "id": "2b119038-70f1-48dc-804d-62afa97a60f7",
      "meta": {
        "profile": [ "http://hl7.org/fhir/us/qicore/StructureDefinition/qicore-coverage" ]
      },
      "status": "active",
      "beneficiary": {
        "reference": "Patient/e9c9f925-0076-4762-8392-e4d964caaedf"
      },
      "payor": [ {
        "reference": "Organization/40ec7b8a-c170-4344-bbf0-99206397bf77"
      } ]
    },
    "request": {
      "method": "PUT",
      "url": "Coverage/2b119038-70f1-48dc-804d-62afa97a60f7"
    }
  }, {
    "fullUrl": "https://madie.cms.gov/Organization/40ec7b8a-c170-4344-bbf0-99206397bf77",
    "resource": {
      "resourceType": "Organization",
      "id": "40ec7b8a-c170-4344-bbf0-99206397bf77",
      "meta": {
        "profile": [ "http://hl7.org/fhir/us/qicore/StructureDefinition/qicore-organization" ]
      },
      "identifier": [ {
        "use": "temp",
        "system": "urn:oid:2.16.840.1.113883.4.4",
        "value": "21-3259825"
      } ],
      "active": true,
      "type": [ {
        "coding": [ {
          "system": "http://terminology.hl7.org/CodeSystem/organization-type",
          "code": "pay",
          "display": "Payer"
        } ]
      } ],
      "name": "Blue Cross Blue Shield of Texas",
      "telecom": [ {
        "system": "phone",
        "value": "(+1) 972-766-6900"
      } ],
      "address": [ {
        "use": "billing",
        "type": "postal",
        "line": [ "P.O. Box 660044" ],
        "city": "Dallas",
        "state": "TX",
        "postalCode": "75266-0044",
        "country": "USA"
      } ]
    },
    "request": {
      "method": "PUT",
      "url": "Organization/40ec7b8a-c170-4344-bbf0-99206397bf77"
    }
  }, {
    "fullUrl": "https://madie.cms.gov/Practitioner/90a3848d-9bb9-4341-a748-dc64dcc0bf26",
    "resource": {
      "resourceType": "Practitioner",
      "id": "90a3848d-9bb9-4341-a748-dc64dcc0bf26",
      "identifier": [ {
        "system": "http://hl7.org/fhir/sid/us-npi",
        "value": "123456"
      } ],
      "name": [ {
        "family": "Evil",
        "prefix": [ "Dr" ]
      } ]
    },
    "request": {
      "method": "PUT",
      "url": "Practitioner/90a3848d-9bb9-4341-a748-dc64dcc0bf26"
    }
  }, {
    "fullUrl": "https://madie.cms.gov/MeasureReport/aeefde8a-7cd2-49c2-b6c3-7273f7463b01",
    "resource": {
      "resourceType": "MeasureReport",
      "id": "aeefde8a-7cd2-49c2-b6c3-7273f7463b01",
      "meta": {
        "profile": [ "http://hl7.org/fhir/us/cqfmeasures/StructureDefinition/test-case-cqfm" ]
      },
      "contained": [ {
        "resourceType": "Parameters",
        "id": "319096e9-0f5d-48b0-bc5a-27daa9e6a0e1-parameters",
        "parameter": [ {
          "name": "subject",
          "valueString": "e9c9f925-0076-4762-8392-e4d964caaedf"
        } ]
      } ],
      "extension": [ {
        "url": "http://hl7.org/fhir/us/cqfmeasures/StructureDefinition/cqfm-inputParameters",
        "valueReference": {
          "reference": "#319096e9-0f5d-48b0-bc5a-27daa9e6a0e1-parameters"
        }
      }, {
        "url": "http://hl7.org/fhir/us/cqfmeasures/StructureDefinition/cqfm-testCaseDescription",
        "valueMarkdown": "Passes: IP, Pass DENOM, Pt is 27 years of age,  encounter dx delivery of singleton, gravida=1authored less than 42 weeks prior to delivery, Delivery date Estimated Relevant DateTime before the Time of Delivery and before Enc Start DT\n"
      } ],
      "modifierExtension": [ {
        "url": "http://hl7.org/fhir/us/cqfmeasures/StructureDefinition/cqfm-isTestCase",
        "valueBoolean": true
      } ],
      "status": "complete",
      "type": "individual",
      "measure": "https://madie.cms.gov/Measure/CMS334FHIRPCCesareanBirth",
      "period": {
        "start": "2026-01-01",
        "end": "2026-12-31"
      },
      "group": [ {
        "population": [ {
          "code": {
            "coding": [ {
              "system": "http://terminology.hl7.org/CodeSystem/measure-population",
              "code": "initial-population",
              "display": "Initial Population"
            } ]
          },
          "count": 1
        }, {
          "code": {
            "coding": [ {
              "system": "http://terminology.hl7.org/CodeSystem/measure-population",
              "code": "denominator",
              "display": "Denominator"
            } ]
          },
          "count": 1
        }, {
          "code": {
            "coding": [ {
              "system": "http://terminology.hl7.org/CodeSystem/measure-population",
              "code": "denominator-exclusion",
              "display": "Denominator Exclusion"
            } ]
          },
          "count": 0
        }, {
          "code": {
            "coding": [ {
              "system": "http://terminology.hl7.org/CodeSystem/measure-population",
              "code": "numerator",
              "display": "Numerator"
            } ]
          },
          "count": 0
        } ]
      } ],
      "evaluatedResource": [ {
        "reference": "Patient/e9c9f925-0076-4762-8392-e4d964caaedf"
      }, {
        "reference": "Observation/892d7ea4-1576-411b-96e7-fd80e9fda0a7"
      }, {
        "reference": "Observation/675cb139-ec5d-47b7-a021-e5b86d9681de"
      }, {
        "reference": "Observation/479387b4-4961-4c41-8fdc-3225a6f1f676"
      }, {
        "reference": "Encounter/f2001e7c-09dc-467f-b896-458714a53d4a"
      }, {
        "reference": "Procedure/63afefc1-8346-4386-93e1-0a7d3d81081f"
      }, {
        "reference": "Condition/241866fa-0b51-4dbf-947b-87cd225d2d88"
      }, {
        "reference": "Coverage/2b119038-70f1-48dc-804d-62afa97a60f7"
      }, {
        "reference": "Organization/40ec7b8a-c170-4344-bbf0-99206397bf77"
      }, {
        "reference": "Practitioner/90a3848d-9bb9-4341-a748-dc64dcc0bf26"
      } ]
    },
    "request": {
      "method": "PUT",
      "url": "MeasureReport/aeefde8a-7cd2-49c2-b6c3-7273f7463b01"
    }
  } ]
}