{
  "resourceType": "Bundle",
  "id": "63ec09a6ccb3770120feab23",
  "type": "transaction",
  "entry": [ {
    "fullUrl": "https://madie.cms.gov/Patient/cae21936-62ee-468a-abf4-18232d993576",
    "resource": {
      "resourceType": "Patient",
      "id": "cae21936-62ee-468a-abf4-18232d993576",
      "meta": {
        "profile": [ "http://hl7.org/fhir/us/qicore/StructureDefinition/qicore-patient" ]
      },
      "text": {
        "status": "generated",
        "div": "<div xmlns=\"http://www.w3.org/1999/xhtml\"><div class=\"hapiHeaderText\">WeightSBP_relevantDT <b>COMBO1 </b></div><table class=\"hapiPropertyTable\"><tbody><tr><td>Identifier</td><td>647b828a576e8c34eaa21fd1cdb85d1e5f291be13e6a5c34a9fc817d4466c0f5</td></tr><tr><td>Date of birth</td><td><span>15 June 1947</span></td></tr></tbody></table></div>"
      },
      "extension": [ {
        "url": "http://hl7.org/fhir/us/core/StructureDefinition/us-core-race",
        "extension": [ {
          "url": "ombCategory",
          "valueCoding": {
            "system": "urn:oid:2.16.840.1.113883.6.238",
            "code": "1002-5",
            "display": "American Indian or Alaska Native",
            "userSelected": true
          }
        }, {
          "url": "text",
          "valueString": "American Indian or Alaska Native"
        } ]
      }, {
        "url": "http://hl7.org/fhir/us/core/StructureDefinition/us-core-ethnicity",
        "extension": [ {
          "url": "ombCategory",
          "valueCoding": {
            "system": "urn:oid:2.16.840.1.113883.6.238",
            "code": "2186-5",
            "display": "Not Hispanic or Latino",
            "userSelected": true
          }
        }, {
          "url": "text",
          "valueString": "Not Hispanic or Latino"
        } ]
      } ],
      "identifier": [ {
        "type": {
          "coding": [ {
            "system": "http://terminology.hl7.org/CodeSystem/v2-0203",
            "code": "MR"
          } ]
        },
        "system": "https://bonnie-fhir.healthit.gov/",
        "value": "63ec09a6ccb3770120feab23"
      } ],
      "active": true,
      "name": [ {
        "use": "usual",
        "family": "WeightPassandSystolicBPFail",
        "given": [ "WeightInTimingIntervalSBPOutsideTimingInterval" ]
      } ],
      "gender": "male",
      "birthDate": "1948-06-15"
    },
    "request": {
      "method": "PUT",
      "url": "Patient/cae21936-62ee-468a-abf4-18232d993576"
    }
  }, {
    "fullUrl": "https://madie.cms.gov/Encounter/6057a40c-7b41-409e-92bc-ed14cf8edab4",
    "resource": {
      "resourceType": "Encounter",
      "id": "6057a40c-7b41-409e-92bc-ed14cf8edab4",
      "meta": {
        "profile": [ "http://hl7.org/fhir/us/qicore/StructureDefinition/qicore-encounter" ]
      },
      "status": "finished",
      "class": {
        "system": "http://terminology.hl7.org/CodeSystem/v3-ActCode",
        "code": "ACUTE",
        "display": "Acute",
        "userSelected": true
      },
      "type": [ {
        "coding": [ {
          "system": "http://snomed.info/sct",
          "code": "183452005"
        } ]
      } ],
      "subject": {
        "reference": "Patient/cae21936-62ee-468a-abf4-18232d993576"
      },
      "period": {
        "start": "2026-08-18T08:00:00.000+00:00",
        "end": "2026-08-23T08:15:00.000+00:00"
      }
    },
    "request": {
      "method": "PUT",
      "url": "Encounter/6057a40c-7b41-409e-92bc-ed14cf8edab4"
    }
  }, {
    "fullUrl": "https://madie.cms.gov/Observation/871656c3-dce6-4db2-acfc-227c3de0a252",
    "resource": {
      "resourceType": "Observation",
      "id": "871656c3-dce6-4db2-acfc-227c3de0a252",
      "meta": {
        "profile": [ "http://hl7.org/fhir/StructureDefinition/bodyweight" ]
      },
      "status": "amended",
      "category": [ {
        "coding": [ {
          "system": "http://terminology.hl7.org/CodeSystem/observation-category",
          "code": "vital-signs",
          "display": "Vital Signs",
          "userSelected": true
        } ]
      } ],
      "code": {
        "coding": [ {
          "system": "http://loinc.org",
          "code": "29463-7",
          "display": "Body weight"
        } ]
      },
      "subject": {
        "reference": "Patient/cae21936-62ee-468a-abf4-18232d993576"
      },
      "effectiveDateTime": "2026-08-20T07:59:00.000+00:00",
      "valueQuantity": {
        "value": 170.0,
        "unit": "[lb_av]",
        "system": "http://unitsofmeasure.org",
        "code": "[lb_av]"
      }
    },
    "request": {
      "method": "PUT",
      "url": "Observation/871656c3-dce6-4db2-acfc-227c3de0a252"
    }
  }, {
    "fullUrl": "https://madie.cms.gov/Observation/769f525e-6045-4d7e-9fec-a288c691bf72",
    "resource": {
      "resourceType": "Observation",
      "id": "769f525e-6045-4d7e-9fec-a288c691bf72",
      "meta": {
        "profile": [ "http://hl7.org/fhir/StructureDefinition/bp" ]
      },
      "status": "final",
      "category": [ {
        "coding": [ {
          "system": "http://terminology.hl7.org/CodeSystem/observation-category",
          "code": "vital-signs",
          "display": "Vital Signs"
        } ],
        "text": "Vital Signs"
      } ],
      "code": {
        "coding": [ {
          "system": "http://loinc.org",
          "code": "85354-9",
          "display": "Blood pressure panel"
        } ]
      },
      "subject": {
        "reference": "Patient/cae21936-62ee-468a-abf4-18232d993576"
      },
      "effectiveDateTime": "2026-08-21T10:10:00.000+00:00",
      "component": [ {
        "code": {
          "coding": [ {
            "system": "http://loinc.org",
            "code": "8480-6",
            "display": "Systolic blood pressure"
          } ]
        },
        "valueQuantity": {
          "value": 140,
          "unit": "mm[Hg]",
          "system": "http://unitsofmeasure.org",
          "code": "mm[Hg]"
        }
      }, {
        "code": {
          "coding": [ {
            "system": "http://loinc.org",
            "code": "8462-4",
            "display": "Diastolic blood pressure"
          } ]
        },
        "valueQuantity": {
          "value": 80,
          "unit": "mm[Hg]",
          "system": "http://unitsofmeasure.org",
          "code": "mm[Hg]"
        }
      } ]
    },
    "request": {
      "method": "PUT",
      "url": "Observation/769f525e-6045-4d7e-9fec-a288c691bf72"
    }
  }, {
    "fullUrl": "https://madie.cms.gov/Observation/4f7e8036-eb86-41f9-9390-d406757588fd",
    "resource": {
      "resourceType": "Observation",
      "id": "4f7e8036-eb86-41f9-9390-d406757588fd",
      "meta": {
        "profile": [ "http://hl7.org/fhir/StructureDefinition/bodyweight" ]
      },
      "status": "final",
      "category": [ {
        "coding": [ {
          "system": "http://terminology.hl7.org/CodeSystem/observation-category",
          "code": "vital-signs",
          "display": "Vital Signs",
          "userSelected": true
        } ]
      } ],
      "code": {
        "coding": [ {
          "system": "http://loinc.org",
          "code": "29463-7",
          "display": "Body weight"
        } ]
      },
      "subject": {
        "reference": "Patient/cae21936-62ee-468a-abf4-18232d993576"
      },
      "effectiveDateTime": "2026-08-22T07:59:00.000+00:00",
      "valueQuantity": {
        "value": 165.0,
        "unit": "[lb_av]",
        "system": "http://unitsofmeasure.org",
        "code": "[lb_av]"
      }
    },
    "request": {
      "method": "PUT",
      "url": "Observation/4f7e8036-eb86-41f9-9390-d406757588fd"
    }
  }, {
    "fullUrl": "https://madie.cms.gov/Coverage/da2cbf90-f264-45c7-93c4-d8c810f0864d",
    "resource": {
      "resourceType": "Coverage",
      "id": "da2cbf90-f264-45c7-93c4-d8c810f0864d",
      "meta": {
        "profile": [ "http://hl7.org/fhir/us/qicore/StructureDefinition/qicore-coverage" ]
      },
      "status": "active",
      "type": {
        "coding": [ {
          "system": "https://nahdo.org/sopt",
          "version": "1.0.1",
          "code": "1",
          "display": "Medicare payer",
          "userSelected": true
        } ]
      },
      "beneficiary": {
        "reference": "Patient/cae21936-62ee-468a-abf4-18232d993576"
      },
      "period": {
        "start": "2021-07-19T08:00:00.000+00:00"
      },
      "payor": [ {
        "reference": "Organization/8e31dd7e-44fe-4739-8db5-0e9b8f02ff5b"
      } ]
    },
    "request": {
      "method": "PUT",
      "url": "Coverage/da2cbf90-f264-45c7-93c4-d8c810f0864d"
    }
  }, {
    "fullUrl": "https://madie.cms.gov/Organization/8e31dd7e-44fe-4739-8db5-0e9b8f02ff5b",
    "resource": {
      "resourceType": "Organization",
      "id": "8e31dd7e-44fe-4739-8db5-0e9b8f02ff5b",
      "meta": {
        "profile": [ "http://hl7.org/fhir/us/qicore/StructureDefinition/qicore-organization" ]
      },
      "identifier": [ {
        "use": "temp",
        "system": "urn:oid:2.16.840.1.113883.4.4",
        "value": "21-3259825"
      } ],
      "active": true,
      "type": [ {
        "coding": [ {
          "system": "http://terminology.hl7.org/CodeSystem/organization-type",
          "code": "pay",
          "display": "Payer"
        } ]
      } ],
      "name": "Blue Cross Blue Shield of Texas",
      "telecom": [ {
        "system": "phone",
        "value": "(+1) 972-766-6900"
      } ],
      "address": [ {
        "use": "billing",
        "type": "postal",
        "line": [ "P.O. Box 660044" ],
        "city": "Dallas",
        "state": "TX",
        "postalCode": "75266-0044",
        "country": "USA"
      } ]
    },
    "request": {
      "method": "PUT",
      "url": "Organization/8e31dd7e-44fe-4739-8db5-0e9b8f02ff5b"
    }
  }, {
    "fullUrl": "https://madie.cms.gov/Practitioner/1f445e0f-4f28-46b4-a78f-dc4baeaee2f3",
    "resource": {
      "resourceType": "Practitioner",
      "id": "1f445e0f-4f28-46b4-a78f-dc4baeaee2f3",
      "meta": {
        "profile": [ "http://hl7.org/fhir/us/qicore/StructureDefinition/qicore-practitioner" ]
      },
      "identifier": [ {
        "system": "http://hl7.org/fhir/sid/us-npi",
        "value": "123456"
      } ],
      "name": [ {
        "family": "Evil",
        "prefix": [ "Dr" ]
      } ]
    },
    "request": {
      "method": "PUT",
      "url": "Practitioner/1f445e0f-4f28-46b4-a78f-dc4baeaee2f3"
    }
  }, {
    "fullUrl": "https://madie.cms.gov/MeasureReport/1f3e79f4-a25a-47dc-ba00-bb7e6c37d65d",
    "resource": {
      "resourceType": "MeasureReport",
      "id": "1f3e79f4-a25a-47dc-ba00-bb7e6c37d65d",
      "meta": {
        "profile": [ "http://hl7.org/fhir/us/cqfmeasures/StructureDefinition/test-case-cqfm" ]
      },
      "contained": [ {
        "resourceType": "Parameters",
        "id": "c90768c5-cfc0-4e3c-ae14-79cf838fb7fa-parameters",
        "parameter": [ {
          "name": "subject",
          "valueString": "cae21936-62ee-468a-abf4-18232d993576"
        } ]
      } ],
      "extension": [ {
        "url": "http://hl7.org/fhir/us/cqfmeasures/StructureDefinition/cqfm-inputParameters",
        "valueReference": {
          "reference": "#c90768c5-cfc0-4e3c-ae14-79cf838fb7fa-parameters"
        }
      }, {
        "url": "http://hl7.org/fhir/us/cqfmeasures/StructureDefinition/cqfm-testCaseDescription",
        "valueMarkdown": "Systolic blood pressure results not in encounter timing interval. \nSystolic blood pressure results not included in measure results.  \nBoth body weight exams occur within encounter timing interval.\nResults of first occurring exam in measure results. "
      } ],
      "modifierExtension": [ {
        "url": "http://hl7.org/fhir/us/cqfmeasures/StructureDefinition/cqfm-isTestCase",
        "valueBoolean": true
      } ],
      "status": "complete",
      "type": "individual",
      "measure": "https://madie.cms.gov/Measure/CMSFHIR529HybridHospitalWideReadmission",
      "period": {
        "start": "2026-07-01",
        "end": "2027-06-30"
      },
      "group": [ {
        "population": [ {
          "code": {
            "coding": [ {
              "system": "http://terminology.hl7.org/CodeSystem/measure-population",
              "code": "initial-population",
              "display": "Initial Population"
            } ]
          },
          "count": 1
        } ]
      } ],
      "evaluatedResource": [ {
        "reference": "Patient/cae21936-62ee-468a-abf4-18232d993576"
      }, {
        "reference": "Encounter/6057a40c-7b41-409e-92bc-ed14cf8edab4"
      }, {
        "reference": "Observation/871656c3-dce6-4db2-acfc-227c3de0a252"
      }, {
        "reference": "Observation/769f525e-6045-4d7e-9fec-a288c691bf72"
      }, {
        "reference": "Observation/4f7e8036-eb86-41f9-9390-d406757588fd"
      }, {
        "reference": "Coverage/da2cbf90-f264-45c7-93c4-d8c810f0864d"
      }, {
        "reference": "Organization/8e31dd7e-44fe-4739-8db5-0e9b8f02ff5b"
      }, {
        "reference": "Practitioner/1f445e0f-4f28-46b4-a78f-dc4baeaee2f3"
      } ]
    },
    "request": {
      "method": "PUT",
      "url": "MeasureReport/1f3e79f4-a25a-47dc-ba00-bb7e6c37d65d"
    }
  } ]
}