{"resourceType":"Bundle","id":"tests-7e22eabf-ac1f-4209-a8f6-dcc8b548b71c-bundle","type":"transaction","entry":[{"fullUrl":"https://madie.cms.gov/Patient/7e22eabf-ac1f-4209-a8f6-dcc8b548b71c","resource":{"resourceType":"Patient","id":"7e22eabf-ac1f-4209-a8f6-dcc8b548b71c","meta":{"profile":["http://hl7.org/fhir/us/qicore/StructureDefinition/qicore-patient"]},"text":{"status":"generated","div":"<div xmlns=\"http://www.w3.org/1999/xhtml\"><div class=\"hapiHeaderText\">PharmContraBeforeEncStart_NoEDNoObsBFEnc <b>DENEXCEPFAIL </b></div><table class=\"hapiPropertyTable\"><tbody><tr><td>Identifier</td><td>628c16cb856e01c2b8ceb8d682e71bf77cc3847841c023a61cc3ea0e750edfca</td></tr><tr><td>Date of birth</td><td><span>21 August 1994</span></td></tr></tbody></table></div>"},"extension":[{"url":"http://hl7.org/fhir/us/core/StructureDefinition/us-core-race","extension":[{"url":"ombCategory","valueCoding":{"system":"urn:oid:2.16.840.1.113883.6.238","code":"1002-5","display":"American Indian or Alaska Native","userSelected":true}},{"url":"text","valueString":"American Indian or Alaska Native"}]},{"url":"http://hl7.org/fhir/us/core/StructureDefinition/us-core-ethnicity","extension":[{"url":"ombCategory","valueCoding":{"system":"urn:oid:2.16.840.1.113883.6.238","code":"2135-2","display":"Hispanic or Latino","userSelected":true}},{"url":"text","valueString":"Hispanic or Latino"}]}],"identifier":[{"type":{"coding":[{"system":"http://terminology.hl7.org/CodeSystem/v2-0203","code":"MR"}]},"system":"https://bonnie-fhir.healthit.gov/","value":"6129131302c62a011f2e581f"}],"active":true,"name":[{"use":"usual","family":"DENEXCEPFail","given":["PharmContraBeforeEncStart_NoEDNoObsBFEnc"]}],"gender":"male","birthDate":"1995-08-21"},"request":{"method":"PUT","url":"Patient/7e22eabf-ac1f-4209-a8f6-dcc8b548b71c"}},{"fullUrl":"https://madie.cms.gov/Encounter/b7191c04-c92d-48e4-bf84-fa7b33762876","resource":{"resourceType":"Encounter","id":"b7191c04-c92d-48e4-bf84-fa7b33762876","meta":{"profile":["http://hl7.org/fhir/us/qicore/StructureDefinition/qicore-encounter"]},"status":"finished","class":{"system":"http://terminology.hl7.org/CodeSystem/v3-ActCode","code":"IMP","display":"inpatient encounter","userSelected":true},"type":[{"coding":[{"system":"http://snomed.info/sct","code":"32485007"}]}],"subject":{"reference":"Patient/7e22eabf-ac1f-4209-a8f6-dcc8b548b71c"},"period":{"start":"2026-10-10T09:30:00.000+00:00","end":"2026-10-12T10:30:00.000+00:00"},"length":{"value":2,"unit":"days"},"diagnosis":[{"condition":{"reference":"Condition/e4f230ef-e65e-4362-97de-b3bd32c3185b"},"use":{"coding":[{"system":"http://terminology.hl7.org/CodeSystem/diagnosis-role","code":"billing","display":"Billing"}]},"rank":1}]},"request":{"method":"PUT","url":"Encounter/b7191c04-c92d-48e4-bf84-fa7b33762876"}},{"fullUrl":"https://madie.cms.gov/MedicationRequest/c0a44541-7060-431e-b5d0-c398b28b1603","resource":{"resourceType":"MedicationRequest","id":"c0a44541-7060-431e-b5d0-c398b28b1603","meta":{"profile":["http://hl7.org/fhir/us/qicore/StructureDefinition/qicore-medicationrequest"]},"status":"active","intent":"filler-order","medicationCodeableConcept":{"coding":[{"system":"http://www.nlm.nih.gov/research/umls/rxnorm","code":"1116635"}]},"subject":{"reference":"Patient/7e22eabf-ac1f-4209-a8f6-dcc8b548b71c"},"authoredOn":"2026-10-10T09:29:00.000+00:00","requester":{"reference":"Practitioner/example"}},"request":{"method":"PUT","url":"MedicationRequest/c0a44541-7060-431e-b5d0-c398b28b1603"}},{"fullUrl":"https://madie.cms.gov/Condition/e4f230ef-e65e-4362-97de-b3bd32c3185b","resource":{"resourceType":"Condition","id":"e4f230ef-e65e-4362-97de-b3bd32c3185b","meta":{"profile":["http://hl7.org/fhir/us/qicore/StructureDefinition/qicore-condition"]},"clinicalStatus":{"coding":[{"system":"http://terminology.hl7.org/CodeSystem/condition-clinical","code":"active"}]},"verificationStatus":{"coding":[{"system":"http://terminology.hl7.org/CodeSystem/condition-ver-status","code":"confirmed"}]},"category":[{"coding":[{"system":"http://terminology.hl7.org/CodeSystem/condition-category","code":"encounter-diagnosis","display":"Encounter Diagnosis"}]}],"code":{"coding":[{"system":"http://snomed.info/sct","version":"2020-09","code":"111297002","display":"Nonparalytic stroke (disorder)","userSelected":true}]},"subject":{"reference":"Patient/7e22eabf-ac1f-4209-a8f6-dcc8b548b71c"},"recordedDate":"2026-07-13T08:00:00.000+00:00"},"request":{"method":"PUT","url":"Condition/e4f230ef-e65e-4362-97de-b3bd32c3185b"}},{"fullUrl":"https://madie.cms.gov/Coverage/80d615af-6d21-4f49-bacb-7d415c6df893","resource":{"resourceType":"Coverage","id":"80d615af-6d21-4f49-bacb-7d415c6df893","meta":{"profile":["http://hl7.org/fhir/us/qicore/StructureDefinition/qicore-coverage"]},"status":"active","beneficiary":{"reference":"Patient/7e22eabf-ac1f-4209-a8f6-dcc8b548b71c"},"payor":[{"reference":"Organization/607fdef9-3983-4cef-ab1a-95434d29b463"}]},"request":{"method":"PUT","url":"Coverage/80d615af-6d21-4f49-bacb-7d415c6df893"}},{"fullUrl":"https://madie.cms.gov/Organization/96174156-37f3-4bac-8dd7-0ee0c9f7aeee","resource":{"resourceType":"Organization","id":"607fdef9-3983-4cef-ab1a-95434d29b463","meta":{"profile":["http://hl7.org/fhir/us/qicore/StructureDefinition/qicore-organization"]},"identifier":[{"use":"temp","system":"urn:oid:2.16.840.1.113883.4.4","value":"21-3259825"}],"active":true,"type":[{"coding":[{"system":"http://terminology.hl7.org/CodeSystem/organization-type","code":"pay","display":"Payer"}]}],"name":"Blue Cross Blue Shield of Texas","telecom":[{"system":"phone","value":"(+1) 972-766-6900"}],"address":[{"use":"billing","type":"postal","line":["P.O. Box 660044"],"city":"Dallas","state":"TX","postalCode":"75266-0044","country":"USA"}]},"request":{"method":"PUT","url":"Organization/607fdef9-3983-4cef-ab1a-95434d29b463"}},{"fullUrl":"https://madie.cms.gov/MeasureReport/c8ffbac3-3b55-4079-a53d-a61e1c4b67b0","resource":{"resourceType":"MeasureReport","id":"c8ffbac3-3b55-4079-a53d-a61e1c4b67b0","meta":{"profile":["http://hl7.org/fhir/us/cqfmeasures/StructureDefinition/test-case-cqfm"]},"contained":[{"resourceType":"Parameters","id":"876a5d0b-8689-4a86-b495-bcb83702b08e-parameters","parameter":[{"name":"subject","valueString":"7e22eabf-ac1f-4209-a8f6-dcc8b548b71c"}]}],"extension":[{"url":"http://hl7.org/fhir/us/cqfmeasures/StructureDefinition/cqfm-inputParameters","valueReference":{"reference":"#876a5d0b-8689-4a86-b495-bcb83702b08e-parameters"}},{"url":"http://hl7.org/fhir/us/cqfmeasures/StructureDefinition/cqfm-testCaseDescription","valueMarkdown":"Patient receives Ticagrelor before inpatient encounter. No ED. No Observation. Testing medication data type for HospitalizationWithObservation function. See CMO test cases since timing is the same."}],"modifierExtension":[{"url":"http://hl7.org/fhir/us/cqfmeasures/StructureDefinition/cqfm-isTestCase","valueBoolean":true}],"status":"complete","type":"individual","measure":"https://madie.cms.gov/Measure/CMS104FHIRSTKDCAntithrombotic","period":{"start":"2026-01-01","end":"2026-12-31"},"group":[{"population":[{"code":{"coding":[{"system":"http://terminology.hl7.org/CodeSystem/measure-population","code":"initial-population","display":"Initial Population"}]},"count":1},{"code":{"coding":[{"system":"http://terminology.hl7.org/CodeSystem/measure-population","code":"denominator","display":"Denominator"}]},"count":1},{"code":{"coding":[{"system":"http://terminology.hl7.org/CodeSystem/measure-population","code":"denominator-exclusion","display":"Denominator Exclusion"}]},"count":0},{"code":{"coding":[{"system":"http://terminology.hl7.org/CodeSystem/measure-population","code":"numerator","display":"Numerator"}]},"count":0},{"code":{"coding":[{"system":"http://terminology.hl7.org/CodeSystem/measure-population","code":"denominator-exception","display":"Denominator Exception"}]},"count":0}]}]},"request":{"method":"PUT","url":"MeasureReport/c8ffbac3-3b55-4079-a53d-a61e1c4b67b0"}}]}