{"resourceType":"Bundle","id":"tests-264ec8d1-8e92-4b73-a6cb-e8856b22890d-bundle","type":"transaction","entry":[{"fullUrl":"https://madie.cms.gov/Patient/264ec8d1-8e92-4b73-a6cb-e8856b22890d","resource":{"resourceType":"Patient","id":"264ec8d1-8e92-4b73-a6cb-e8856b22890d","meta":{"profile":["http://hl7.org/fhir/us/qicore/StructureDefinition/qicore-patient"]},"text":{"status":"generated","div":"<div xmlns=\"http://www.w3.org/1999/xhtml\"><div class=\"hapiHeaderText\">CMOdurObs_ED&lt;1hrObs&lt;1hrBFEnc <b>DENEXPASS </b></div><table class=\"hapiPropertyTable\"><tbody><tr><td>Identifier</td><td>be1b0e9bc1417561cde46dac918ff4d2</td></tr><tr><td>Date of birth</td><td><span>21 August 1994</span></td></tr></tbody></table></div>"},"extension":[{"url":"http://hl7.org/fhir/us/core/StructureDefinition/us-core-race","extension":[{"url":"ombCategory","valueCoding":{"system":"urn:oid:2.16.840.1.113883.6.238","code":"1002-5","display":"American Indian or Alaska Native","userSelected":true}},{"url":"text","valueString":"American Indian or Alaska Native"}]},{"url":"http://hl7.org/fhir/us/core/StructureDefinition/us-core-ethnicity","extension":[{"url":"ombCategory","valueCoding":{"system":"urn:oid:2.16.840.1.113883.6.238","code":"2135-2","display":"Hispanic or Latino","userSelected":true}},{"url":"text","valueString":"Hispanic or Latino"}]}],"identifier":[{"type":{"coding":[{"system":"http://terminology.hl7.org/CodeSystem/v2-0203","code":"MR"}]},"system":"https://bonnie-fhir.healthit.gov/","value":"6129133e02c62a011f2e6a2c"}],"active":true,"name":[{"use":"usual","family":"DENEXPass","given":["CMOdurObs_ED<1hrObs<1hrBFEnc"]}],"gender":"male","birthDate":"1995-08-21"},"request":{"method":"PUT","url":"Patient/264ec8d1-8e92-4b73-a6cb-e8856b22890d"}},{"fullUrl":"https://madie.cms.gov/Encounter/891e605f-ba24-4a6d-ae55-af14afb00077","resource":{"resourceType":"Encounter","id":"891e605f-ba24-4a6d-ae55-af14afb00077","meta":{"profile":["http://hl7.org/fhir/us/qicore/StructureDefinition/qicore-encounter"]},"status":"finished","class":{"system":"http://terminology.hl7.org/CodeSystem/v3-ActCode","code":"EMER","display":"emergency","userSelected":true},"type":[{"coding":[{"system":"http://snomed.info/sct","code":"4525004"}]}],"subject":{"reference":"Patient/264ec8d1-8e92-4b73-a6cb-e8856b22890d"},"period":{"start":"2026-10-10T07:30:00.000+00:00","end":"2026-10-10T07:31:00.000+00:00"},"length":{"value":0,"unit":"days"}},"request":{"method":"PUT","url":"Encounter/891e605f-ba24-4a6d-ae55-af14afb00077"}},{"fullUrl":"https://madie.cms.gov/Encounter/f5b6fb4c-9b74-473e-908a-4b291fa4ada7","resource":{"resourceType":"Encounter","id":"f5b6fb4c-9b74-473e-908a-4b291fa4ada7","meta":{"profile":["http://hl7.org/fhir/us/qicore/StructureDefinition/qicore-encounter"]},"status":"finished","class":{"system":"http://terminology.hl7.org/CodeSystem/v3-ActCode","code":"OBSENC","display":"observation encounter","userSelected":true},"type":[{"coding":[{"system":"http://snomed.info/sct","code":"448851000124103"}]}],"subject":{"reference":"Patient/264ec8d1-8e92-4b73-a6cb-e8856b22890d"},"period":{"start":"2026-10-10T07:32:00.000+00:00","end":"2026-10-10T08:00:00.000+00:00"},"length":{"value":0,"unit":"days"}},"request":{"method":"PUT","url":"Encounter/f5b6fb4c-9b74-473e-908a-4b291fa4ada7"}},{"fullUrl":"https://madie.cms.gov/Encounter/7ee89384-3924-426d-becd-8bf0653a9ab7","resource":{"resourceType":"Encounter","id":"7ee89384-3924-426d-becd-8bf0653a9ab7","meta":{"profile":["http://hl7.org/fhir/us/qicore/StructureDefinition/qicore-encounter"]},"status":"finished","class":{"system":"http://terminology.hl7.org/CodeSystem/v3-ActCode","code":"IMP","display":"inpatient encounter","userSelected":true},"type":[{"coding":[{"system":"http://snomed.info/sct","code":"32485007"}]}],"subject":{"reference":"Patient/264ec8d1-8e92-4b73-a6cb-e8856b22890d"},"period":{"start":"2026-10-10T08:01:00.000+00:00","end":"2026-10-12T10:30:00.000+00:00"},"length":{"value":2,"unit":"days"},"diagnosis":[{"condition":{"reference":"Condition/c17e46a2-2ab2-43e9-b9e4-54d700f687fa"},"use":{"coding":[{"system":"http://terminology.hl7.org/CodeSystem/diagnosis-role","code":"billing","display":"Billing"}]},"rank":1}]},"request":{"method":"PUT","url":"Encounter/7ee89384-3924-426d-becd-8bf0653a9ab7"}},{"fullUrl":"https://madie.cms.gov/Procedure/d3d6ff31-2e67-4ebb-8fca-9c963e51ab3a","resource":{"resourceType":"Procedure","id":"d3d6ff31-2e67-4ebb-8fca-9c963e51ab3a","meta":{"profile":["http://hl7.org/fhir/us/qicore/StructureDefinition/qicore-procedure"]},"extension":[{"url":"http://hl7.org/fhir/us/qicore/StructureDefinition/qicore-recorded","valueDateTime":"2013-11-02T09:35:00-04:00"}],"status":"completed","code":{"coding":[{"system":"http://snomed.info/sct","code":"133918004","display":"Comfort measures (regime/therapy)"}]},"subject":{"reference":"Patient/264ec8d1-8e92-4b73-a6cb-e8856b22890d"},"performedPeriod":{"start":"2026-10-10T08:00:00.000+00:00"}},"request":{"method":"PUT","url":"Procedure/d3d6ff31-2e67-4ebb-8fca-9c963e51ab3a"}},{"fullUrl":"https://madie.cms.gov/Condition/c17e46a2-2ab2-43e9-b9e4-54d700f687fa","resource":{"resourceType":"Condition","id":"c17e46a2-2ab2-43e9-b9e4-54d700f687fa","meta":{"profile":["http://hl7.org/fhir/us/qicore/StructureDefinition/qicore-condition"]},"clinicalStatus":{"coding":[{"system":"http://terminology.hl7.org/CodeSystem/condition-clinical","code":"active"}]},"verificationStatus":{"coding":[{"system":"http://terminology.hl7.org/CodeSystem/condition-ver-status","code":"confirmed"}]},"category":[{"coding":[{"system":"http://terminology.hl7.org/CodeSystem/condition-category","code":"encounter-diagnosis","display":"Encounter Diagnosis"}]}],"code":{"coding":[{"system":"http://snomed.info/sct","version":"2020-09","code":"111297002","display":"Nonparalytic stroke (disorder)","userSelected":true}]},"subject":{"reference":"Patient/264ec8d1-8e92-4b73-a6cb-e8856b22890d"},"recordedDate":"2026-07-15T08:00:00.000+00:00"},"request":{"method":"PUT","url":"Condition/c17e46a2-2ab2-43e9-b9e4-54d700f687fa"}},{"fullUrl":"https://madie.cms.gov/Coverage/30b73ac9-93b2-414c-9a23-816efcddad86","resource":{"resourceType":"Coverage","id":"30b73ac9-93b2-414c-9a23-816efcddad86","meta":{"profile":["http://hl7.org/fhir/us/qicore/StructureDefinition/qicore-coverage"]},"status":"active","beneficiary":{"reference":"Patient/264ec8d1-8e92-4b73-a6cb-e8856b22890d"},"payor":[{"reference":"Organization/5ad6ea38-07e9-4482-9e1b-c09eee595be9"}]},"request":{"method":"PUT","url":"Coverage/30b73ac9-93b2-414c-9a23-816efcddad86"}},{"fullUrl":"https://madie.cms.gov/Organization/0c222f39-f7a8-426f-b8c8-8a1ad1074871","resource":{"resourceType":"Organization","id":"5ad6ea38-07e9-4482-9e1b-c09eee595be9","meta":{"profile":["http://hl7.org/fhir/us/qicore/StructureDefinition/qicore-organization"]},"identifier":[{"use":"temp","system":"urn:oid:2.16.840.1.113883.4.4","value":"21-3259825"}],"active":true,"type":[{"coding":[{"system":"http://terminology.hl7.org/CodeSystem/organization-type","code":"pay","display":"Payer"}]}],"name":"Blue Cross Blue Shield of Texas","telecom":[{"system":"phone","value":"(+1) 972-766-6900"}],"address":[{"use":"billing","type":"postal","line":["P.O. Box 660044"],"city":"Dallas","state":"TX","postalCode":"75266-0044","country":"USA"}]},"request":{"method":"PUT","url":"Organization/5ad6ea38-07e9-4482-9e1b-c09eee595be9"}},{"fullUrl":"https://madie.cms.gov/MeasureReport/90707c61-0773-4489-b76f-acf866551bd0","resource":{"resourceType":"MeasureReport","id":"90707c61-0773-4489-b76f-acf866551bd0","meta":{"profile":["http://hl7.org/fhir/us/cqfmeasures/StructureDefinition/test-case-cqfm"]},"contained":[{"resourceType":"Parameters","id":"2d3fed58-594d-42a7-bb87-442b11b3165d-parameters","parameter":[{"name":"subject","valueString":"264ec8d1-8e92-4b73-a6cb-e8856b22890d"}]}],"extension":[{"url":"http://hl7.org/fhir/us/cqfmeasures/StructureDefinition/cqfm-inputParameters","valueReference":{"reference":"#2d3fed58-594d-42a7-bb87-442b11b3165d-parameters"}},{"url":"http://hl7.org/fhir/us/cqfmeasures/StructureDefinition/cqfm-testCaseDescription","valueMarkdown":"Patient receives comfort measures as procedure during ED visit that ends <= 1 hour before IP Encounter"}],"modifierExtension":[{"url":"http://hl7.org/fhir/us/cqfmeasures/StructureDefinition/cqfm-isTestCase","valueBoolean":true}],"status":"complete","type":"individual","measure":"https://madie.cms.gov/Measure/CMS104FHIRSTKDCAntithrombotic","period":{"start":"2026-01-01","end":"2026-12-31"},"group":[{"population":[{"code":{"coding":[{"system":"http://terminology.hl7.org/CodeSystem/measure-population","code":"initial-population","display":"Initial Population"}]},"count":1},{"code":{"coding":[{"system":"http://terminology.hl7.org/CodeSystem/measure-population","code":"denominator","display":"Denominator"}]},"count":1},{"code":{"coding":[{"system":"http://terminology.hl7.org/CodeSystem/measure-population","code":"denominator-exclusion","display":"Denominator Exclusion"}]},"count":1},{"code":{"coding":[{"system":"http://terminology.hl7.org/CodeSystem/measure-population","code":"numerator","display":"Numerator"}]},"count":0},{"code":{"coding":[{"system":"http://terminology.hl7.org/CodeSystem/measure-population","code":"denominator-exception","display":"Denominator Exception"}]},"count":0}]}]},"request":{"method":"PUT","url":"MeasureReport/90707c61-0773-4489-b76f-acf866551bd0"}}]}