{"resourceType":"Bundle","id":"tests-b536acae-02c7-4c6e-914b-4ea199d98f79-bundle","type":"transaction","entry":[{"fullUrl":"https://madie.cms.gov/Patient/b536acae-02c7-4c6e-914b-4ea199d98f79","resource":{"resourceType":"Patient","id":"b536acae-02c7-4c6e-914b-4ea199d98f79","meta":{"profile":["http://hl7.org/fhir/us/qicore/StructureDefinition/qicore-patient"]},"text":{"status":"generated","div":"<div xmlns=\"http://www.w3.org/1999/xhtml\"><div class=\"hapiHeaderText\">CMOdurEncTM_EDEndTM=ObsTM_ObsEndTM=EncTM <b>DENEXPASS </b></div><table class=\"hapiPropertyTable\"><tbody><tr><td>Identifier</td><td>adf247755348532f73cb3b0d90981ec3</td></tr><tr><td>Date of birth</td><td><span>21 August 1994</span></td></tr></tbody></table></div>"},"extension":[{"url":"http://hl7.org/fhir/us/core/StructureDefinition/us-core-race","extension":[{"url":"ombCategory","valueCoding":{"system":"urn:oid:2.16.840.1.113883.6.238","code":"1002-5","display":"American Indian or Alaska Native","userSelected":true}},{"url":"text","valueString":"American Indian or Alaska Native"}]},{"url":"http://hl7.org/fhir/us/core/StructureDefinition/us-core-ethnicity","extension":[{"url":"ombCategory","valueCoding":{"system":"urn:oid:2.16.840.1.113883.6.238","code":"2135-2","display":"Hispanic or Latino","userSelected":true}},{"url":"text","valueString":"Hispanic or Latino"}]}],"identifier":[{"type":{"coding":[{"system":"http://terminology.hl7.org/CodeSystem/v2-0203","code":"MR"}]},"system":"https://bonnie-fhir.healthit.gov/","value":"6129132c02c62a011f2e628f"}],"active":true,"name":[{"use":"usual","family":"DENEXPass","given":["CMOdurEncTM_EDEndTM=ObsTM_ObsEndTM=EncTM"]}],"gender":"male","birthDate":"1995-08-21"},"request":{"method":"PUT","url":"Patient/b536acae-02c7-4c6e-914b-4ea199d98f79"}},{"fullUrl":"https://madie.cms.gov/Encounter/94047594-934a-4dfa-85be-9103d48c8f39","resource":{"resourceType":"Encounter","id":"94047594-934a-4dfa-85be-9103d48c8f39","meta":{"profile":["http://hl7.org/fhir/us/qicore/StructureDefinition/qicore-encounter"]},"status":"finished","class":{"system":"http://terminology.hl7.org/CodeSystem/v3-ActCode","code":"EMER","display":"emergency","userSelected":true},"type":[{"coding":[{"system":"http://snomed.info/sct","code":"4525004"}]}],"subject":{"reference":"Patient/b536acae-02c7-4c6e-914b-4ea199d98f79"},"period":{"start":"2026-10-10T08:30:00.000+00:00","end":"2026-10-10T09:30:00.000+00:00"},"length":{"value":0,"unit":"days"}},"request":{"method":"PUT","url":"Encounter/94047594-934a-4dfa-85be-9103d48c8f39"}},{"fullUrl":"https://madie.cms.gov/Encounter/80d06e46-9301-46c4-8d98-1f9283ec1fc3","resource":{"resourceType":"Encounter","id":"80d06e46-9301-46c4-8d98-1f9283ec1fc3","meta":{"profile":["http://hl7.org/fhir/us/qicore/StructureDefinition/qicore-encounter"]},"status":"finished","class":{"system":"http://terminology.hl7.org/CodeSystem/v3-ActCode","code":"OBSENC","display":"observation encounter","userSelected":true},"type":[{"coding":[{"system":"http://snomed.info/sct","code":"448851000124103"}]}],"subject":{"reference":"Patient/b536acae-02c7-4c6e-914b-4ea199d98f79"},"period":{"start":"2026-10-10T09:30:00.000+00:00","end":"2026-10-10T09:35:00.000+00:00"},"length":{"value":0,"unit":"days"}},"request":{"method":"PUT","url":"Encounter/80d06e46-9301-46c4-8d98-1f9283ec1fc3"}},{"fullUrl":"https://madie.cms.gov/Encounter/3faa4ebd-0737-4fce-a196-91ab296c5e34","resource":{"resourceType":"Encounter","id":"3faa4ebd-0737-4fce-a196-91ab296c5e34","meta":{"profile":["http://hl7.org/fhir/us/qicore/StructureDefinition/qicore-encounter"]},"status":"finished","class":{"system":"http://terminology.hl7.org/CodeSystem/v3-ActCode","code":"IMP","display":"inpatient encounter","userSelected":true},"type":[{"coding":[{"system":"http://snomed.info/sct","code":"32485007"}]}],"subject":{"reference":"Patient/b536acae-02c7-4c6e-914b-4ea199d98f79"},"period":{"start":"2026-10-10T09:35:00.000+00:00","end":"2026-10-12T10:30:00.000+00:00"},"length":{"value":2,"unit":"days"},"diagnosis":[{"condition":{"reference":"Condition/a6922816-cf16-49fd-8847-ddecac8f9526"},"use":{"coding":[{"system":"http://terminology.hl7.org/CodeSystem/diagnosis-role","code":"billing","display":"Billing"}]},"rank":1}]},"request":{"method":"PUT","url":"Encounter/3faa4ebd-0737-4fce-a196-91ab296c5e34"}},{"fullUrl":"https://madie.cms.gov/ServiceRequest/f7fd9cf8-a5a0-4946-ad8b-fd21b5c5633e","resource":{"resourceType":"ServiceRequest","id":"f7fd9cf8-a5a0-4946-ad8b-fd21b5c5633e","meta":{"profile":["http://hl7.org/fhir/us/qicore/StructureDefinition/qicore-servicerequest"]},"status":"active","intent":"order","code":{"coding":[{"system":"http://snomed.info/sct","code":"133918004"}]},"subject":{"reference":"Patient/b536acae-02c7-4c6e-914b-4ea199d98f79"},"authoredOn":"2026-10-10T09:35:00.000+00:00"},"request":{"method":"PUT","url":"ServiceRequest/f7fd9cf8-a5a0-4946-ad8b-fd21b5c5633e"}},{"fullUrl":"https://madie.cms.gov/Condition/a6922816-cf16-49fd-8847-ddecac8f9526","resource":{"resourceType":"Condition","id":"a6922816-cf16-49fd-8847-ddecac8f9526","meta":{"profile":["http://hl7.org/fhir/us/qicore/StructureDefinition/qicore-condition"]},"clinicalStatus":{"coding":[{"system":"http://terminology.hl7.org/CodeSystem/condition-clinical","code":"active"}]},"verificationStatus":{"coding":[{"system":"http://terminology.hl7.org/CodeSystem/condition-ver-status","code":"confirmed"}]},"category":[{"coding":[{"system":"http://terminology.hl7.org/CodeSystem/condition-category","code":"encounter-diagnosis","display":"Encounter Diagnosis"}]}],"code":{"coding":[{"system":"http://snomed.info/sct","version":"2020-09","code":"111297002","display":"Nonparalytic stroke (disorder)","userSelected":true}]},"subject":{"reference":"Patient/b536acae-02c7-4c6e-914b-4ea199d98f79"},"recordedDate":"2026-07-14T08:00:00.000+00:00"},"request":{"method":"PUT","url":"Condition/a6922816-cf16-49fd-8847-ddecac8f9526"}},{"fullUrl":"https://madie.cms.gov/Coverage/c475fab4-345a-4d8f-9039-e2c0a965b2df","resource":{"resourceType":"Coverage","id":"c475fab4-345a-4d8f-9039-e2c0a965b2df","meta":{"profile":["http://hl7.org/fhir/us/qicore/StructureDefinition/qicore-coverage"]},"status":"active","beneficiary":{"reference":"Patient/b536acae-02c7-4c6e-914b-4ea199d98f79"},"payor":[{"reference":"Organization/db141f66-a1cc-407b-9e95-adac27adee14"}]},"request":{"method":"PUT","url":"Coverage/c475fab4-345a-4d8f-9039-e2c0a965b2df"}},{"fullUrl":"https://madie.cms.gov/Organization/f35a6459-7553-47a2-bd9b-410c92b68a0a","resource":{"resourceType":"Organization","id":"db141f66-a1cc-407b-9e95-adac27adee14","meta":{"profile":["http://hl7.org/fhir/us/qicore/StructureDefinition/qicore-organization"]},"identifier":[{"use":"temp","system":"urn:oid:2.16.840.1.113883.4.4","value":"21-3259825"}],"active":true,"type":[{"coding":[{"system":"http://terminology.hl7.org/CodeSystem/organization-type","code":"pay","display":"Payer"}]}],"name":"Blue Cross Blue Shield of Texas","telecom":[{"system":"phone","value":"(+1) 972-766-6900"}],"address":[{"use":"billing","type":"postal","line":["P.O. Box 660044"],"city":"Dallas","state":"TX","postalCode":"75266-0044","country":"USA"}]},"request":{"method":"PUT","url":"Organization/db141f66-a1cc-407b-9e95-adac27adee14"}},{"fullUrl":"https://madie.cms.gov/MeasureReport/298eebc0-89a3-4f7d-9275-54b8f35c5419","resource":{"resourceType":"MeasureReport","id":"298eebc0-89a3-4f7d-9275-54b8f35c5419","meta":{"profile":["http://hl7.org/fhir/us/cqfmeasures/StructureDefinition/test-case-cqfm"]},"contained":[{"resourceType":"Parameters","id":"5c0afb09-1000-4557-aa37-7a45b1612092-parameters","parameter":[{"name":"subject","valueString":"b536acae-02c7-4c6e-914b-4ea199d98f79"}]}],"extension":[{"url":"http://hl7.org/fhir/us/cqfmeasures/StructureDefinition/cqfm-inputParameters","valueReference":{"reference":"#5c0afb09-1000-4557-aa37-7a45b1612092-parameters"}},{"url":"http://hl7.org/fhir/us/cqfmeasures/StructureDefinition/cqfm-testCaseDescription","valueMarkdown":"Patient receives CMO on IP start. ED ends on OBS start and OBS ends on IP start. Testing day of operator with HospitalizationWithObservation function.\n"}],"modifierExtension":[{"url":"http://hl7.org/fhir/us/cqfmeasures/StructureDefinition/cqfm-isTestCase","valueBoolean":true}],"status":"complete","type":"individual","measure":"https://madie.cms.gov/Measure/CMS104FHIRSTKDCAntithrombotic","period":{"start":"2026-01-01","end":"2026-12-31"},"group":[{"population":[{"code":{"coding":[{"system":"http://terminology.hl7.org/CodeSystem/measure-population","code":"initial-population","display":"Initial Population"}]},"count":1},{"code":{"coding":[{"system":"http://terminology.hl7.org/CodeSystem/measure-population","code":"denominator","display":"Denominator"}]},"count":1},{"code":{"coding":[{"system":"http://terminology.hl7.org/CodeSystem/measure-population","code":"denominator-exclusion","display":"Denominator Exclusion"}]},"count":1},{"code":{"coding":[{"system":"http://terminology.hl7.org/CodeSystem/measure-population","code":"numerator","display":"Numerator"}]},"count":0},{"code":{"coding":[{"system":"http://terminology.hl7.org/CodeSystem/measure-population","code":"denominator-exception","display":"Denominator Exception"}]},"count":0}]}]},"request":{"method":"PUT","url":"MeasureReport/298eebc0-89a3-4f7d-9275-54b8f35c5419"}}]}