{"resourceType":"Bundle","id":"tests-a7b90108-4f50-4164-87b9-73817e9fdac2-bundle","type":"transaction","entry":[{"fullUrl":"https://madie.cms.gov/Patient/a7b90108-4f50-4164-87b9-73817e9fdac2","resource":{"resourceType":"Patient","id":"a7b90108-4f50-4164-87b9-73817e9fdac2","meta":{"profile":["http://hl7.org/fhir/us/qicore/StructureDefinition/qicore-patient"]},"text":{"status":"generated","div":"<div xmlns=\"http://www.w3.org/1999/xhtml\"><div class=\"hapiHeaderText\"> CMOdurEnc_ED=1hrNoObsBFEnc <b>DENEXPASS </b></div><table class=\"hapiPropertyTable\"><tbody><tr><td>Identifier</td><td>4e1a5626cff3e4a56f143ab3c086f2d1</td></tr><tr><td>Date of birth</td><td><span>21 August 1994</span></td></tr></tbody></table></div>"},"extension":[{"url":"http://hl7.org/fhir/us/core/StructureDefinition/us-core-race","extension":[{"url":"ombCategory","valueCoding":{"system":"urn:oid:2.16.840.1.113883.6.238","code":"1002-5","display":"American Indian or Alaska Native","userSelected":true}},{"url":"text","valueString":"American Indian or Alaska Native"}]},{"url":"http://hl7.org/fhir/us/core/StructureDefinition/us-core-ethnicity","extension":[{"url":"ombCategory","valueCoding":{"system":"urn:oid:2.16.840.1.113883.6.238","code":"2135-2","display":"Hispanic or Latino","userSelected":true}},{"url":"text","valueString":"Hispanic or Latino"}]}],"identifier":[{"type":{"coding":[{"system":"http://terminology.hl7.org/CodeSystem/v2-0203","code":"MR"}]},"system":"https://bonnie-fhir.healthit.gov/","value":"6129132f02c62a011f2e63de"}],"active":true,"name":[{"use":"usual","family":"DENEXPass","given":["CMOdurEnc_ED=1hrNoObsBFEnc"]}],"gender":"male","birthDate":"1995-08-21"},"request":{"method":"PUT","url":"Patient/a7b90108-4f50-4164-87b9-73817e9fdac2"}},{"fullUrl":"https://madie.cms.gov/Encounter/b5e3193c-c458-4d78-b2f3-3d877b2a0e32","resource":{"resourceType":"Encounter","id":"b5e3193c-c458-4d78-b2f3-3d877b2a0e32","meta":{"profile":["http://hl7.org/fhir/us/qicore/StructureDefinition/qicore-encounter"]},"status":"finished","class":{"system":"http://terminology.hl7.org/CodeSystem/v3-ActCode","code":"EMER","display":"emergency","userSelected":true},"type":[{"coding":[{"system":"http://snomed.info/sct","code":"4525004"}]}],"subject":{"reference":"Patient/a7b90108-4f50-4164-87b9-73817e9fdac2"},"period":{"start":"2026-10-10T10:30:00.000+00:00","end":"2026-10-10T11:30:00.000+00:00"},"length":{"value":0,"unit":"days"}},"request":{"method":"PUT","url":"Encounter/b5e3193c-c458-4d78-b2f3-3d877b2a0e32"}},{"fullUrl":"https://madie.cms.gov/Encounter/31f0fbc3-7977-4b39-aa50-b15b57c96300","resource":{"resourceType":"Encounter","id":"31f0fbc3-7977-4b39-aa50-b15b57c96300","meta":{"profile":["http://hl7.org/fhir/us/qicore/StructureDefinition/qicore-encounter"]},"status":"finished","class":{"system":"http://terminology.hl7.org/CodeSystem/v3-ActCode","code":"IMP","display":"inpatient encounter","userSelected":true},"type":[{"coding":[{"system":"http://snomed.info/sct","code":"32485007"}]}],"subject":{"reference":"Patient/a7b90108-4f50-4164-87b9-73817e9fdac2"},"period":{"start":"2026-10-10T12:30:00.000+00:00","end":"2026-10-12T11:30:00.000+00:00"},"length":{"value":2,"unit":"days"},"diagnosis":[{"condition":{"reference":"Condition/3069065d-1cba-4212-8c72-aae6cfa13e1d"},"use":{"coding":[{"system":"http://terminology.hl7.org/CodeSystem/diagnosis-role","code":"billing","display":"Billing"}]},"rank":1}]},"request":{"method":"PUT","url":"Encounter/31f0fbc3-7977-4b39-aa50-b15b57c96300"}},{"fullUrl":"https://madie.cms.gov/ServiceRequest/a982ed37-3864-41b3-90bb-2b9976293f86","resource":{"resourceType":"ServiceRequest","id":"a982ed37-3864-41b3-90bb-2b9976293f86","meta":{"profile":["http://hl7.org/fhir/us/qicore/StructureDefinition/qicore-servicerequest"]},"status":"active","intent":"order","code":{"coding":[{"system":"http://snomed.info/sct","code":"133918004"}]},"subject":{"reference":"Patient/a7b90108-4f50-4164-87b9-73817e9fdac2"},"authoredOn":"2026-10-10T12:31:00.000+00:00"},"request":{"method":"PUT","url":"ServiceRequest/a982ed37-3864-41b3-90bb-2b9976293f86"}},{"fullUrl":"https://madie.cms.gov/Condition/3069065d-1cba-4212-8c72-aae6cfa13e1d","resource":{"resourceType":"Condition","id":"3069065d-1cba-4212-8c72-aae6cfa13e1d","meta":{"profile":["http://hl7.org/fhir/us/qicore/StructureDefinition/qicore-condition"]},"clinicalStatus":{"coding":[{"system":"http://terminology.hl7.org/CodeSystem/condition-clinical","code":"active"}]},"verificationStatus":{"coding":[{"system":"http://terminology.hl7.org/CodeSystem/condition-ver-status","code":"confirmed"}]},"category":[{"coding":[{"system":"http://terminology.hl7.org/CodeSystem/condition-category","code":"encounter-diagnosis","display":"Encounter Diagnosis"}]}],"code":{"coding":[{"system":"http://snomed.info/sct","version":"2020-09","code":"111297002","display":"Nonparalytic stroke (disorder)","userSelected":true}]},"subject":{"reference":"Patient/a7b90108-4f50-4164-87b9-73817e9fdac2"},"recordedDate":"2026-07-14T08:00:00.000+00:00"},"request":{"method":"PUT","url":"Condition/3069065d-1cba-4212-8c72-aae6cfa13e1d"}},{"fullUrl":"https://madie.cms.gov/Coverage/03f12746-2241-4835-b128-e78120802846","resource":{"resourceType":"Coverage","id":"03f12746-2241-4835-b128-e78120802846","meta":{"profile":["http://hl7.org/fhir/us/qicore/StructureDefinition/qicore-coverage"]},"status":"active","beneficiary":{"reference":"Patient/a7b90108-4f50-4164-87b9-73817e9fdac2"},"payor":[{"reference":"Organization/5ad6ea38-07e9-4482-9e1b-c09eee595be9"}]},"request":{"method":"PUT","url":"Coverage/03f12746-2241-4835-b128-e78120802846"}},{"fullUrl":"https://madie.cms.gov/Organization/1483c68d-ebfd-471c-88ba-8b7db0c4553a","resource":{"resourceType":"Organization","id":"5ad6ea38-07e9-4482-9e1b-c09eee595be9","meta":{"profile":["http://hl7.org/fhir/us/qicore/StructureDefinition/qicore-organization"]},"identifier":[{"use":"temp","system":"urn:oid:2.16.840.1.113883.4.4","value":"21-3259825"}],"active":true,"type":[{"coding":[{"system":"http://terminology.hl7.org/CodeSystem/organization-type","code":"pay","display":"Payer"}]}],"name":"Blue Cross Blue Shield of Texas","telecom":[{"system":"phone","value":"(+1) 972-766-6900"}],"address":[{"use":"billing","type":"postal","line":["P.O. Box 660044"],"city":"Dallas","state":"TX","postalCode":"75266-0044","country":"USA"}]},"request":{"method":"PUT","url":"Organization/5ad6ea38-07e9-4482-9e1b-c09eee595be9"}},{"fullUrl":"https://madie.cms.gov/MeasureReport/6aa679a3-8f1b-4b2b-8e25-c421d80de2f8","resource":{"resourceType":"MeasureReport","id":"6aa679a3-8f1b-4b2b-8e25-c421d80de2f8","meta":{"profile":["http://hl7.org/fhir/us/cqfmeasures/StructureDefinition/test-case-cqfm"]},"contained":[{"resourceType":"Parameters","id":"8273fb87-16bc-41cc-8384-f36944ca14c2-parameters","parameter":[{"name":"subject","valueString":"a7b90108-4f50-4164-87b9-73817e9fdac2"}]}],"extension":[{"url":"http://hl7.org/fhir/us/cqfmeasures/StructureDefinition/cqfm-inputParameters","valueReference":{"reference":"#8273fb87-16bc-41cc-8384-f36944ca14c2-parameters"}},{"url":"http://hl7.org/fhir/us/cqfmeasures/StructureDefinition/cqfm-testCaseDescription","valueMarkdown":"Patient receives CMO during inpatient encounter. ED ends 60 minutes before inpatient encounter start. No Observation. Testing HospitalizationWithObservation function."}],"modifierExtension":[{"url":"http://hl7.org/fhir/us/cqfmeasures/StructureDefinition/cqfm-isTestCase","valueBoolean":true}],"status":"complete","type":"individual","measure":"https://madie.cms.gov/Measure/CMS104FHIRSTKDCAntithrombotic","period":{"start":"2026-01-01","end":"2026-12-31"},"group":[{"population":[{"code":{"coding":[{"system":"http://terminology.hl7.org/CodeSystem/measure-population","code":"initial-population","display":"Initial Population"}]},"count":1},{"code":{"coding":[{"system":"http://terminology.hl7.org/CodeSystem/measure-population","code":"denominator","display":"Denominator"}]},"count":1},{"code":{"coding":[{"system":"http://terminology.hl7.org/CodeSystem/measure-population","code":"denominator-exclusion","display":"Denominator Exclusion"}]},"count":1},{"code":{"coding":[{"system":"http://terminology.hl7.org/CodeSystem/measure-population","code":"numerator","display":"Numerator"}]},"count":0},{"code":{"coding":[{"system":"http://terminology.hl7.org/CodeSystem/measure-population","code":"denominator-exception","display":"Denominator Exception"}]},"count":0}]}]},"request":{"method":"PUT","url":"MeasureReport/6aa679a3-8f1b-4b2b-8e25-c421d80de2f8"}}]}