{"resourceType":"Bundle","id":"tests-593382e8-4ad5-4300-b0ad-26c8954281c6-bundle","type":"transaction","entry":[{"fullUrl":"https://madie.cms.gov/Patient/593382e8-4ad5-4300-b0ad-26c8954281c6","resource":{"resourceType":"Patient","id":"593382e8-4ad5-4300-b0ad-26c8954281c6","meta":{"profile":["http://hl7.org/fhir/us/qicore/StructureDefinition/qicore-patient"]},"text":{"status":"generated","div":"<div xmlns=\"http://www.w3.org/1999/xhtml\"><div class=\"hapiHeaderText\">MedRsnDuringEncIp <b>DENEXCEPPASS </b></div><table class=\"hapiPropertyTable\"><tbody><tr><td>Identifier</td><td>3039af68ea0bbae6f907404de07760b3</td></tr><tr><td>Date of birth</td><td><span>21 August 1994</span></td></tr></tbody></table></div>"},"extension":[{"url":"http://hl7.org/fhir/us/core/StructureDefinition/us-core-race","extension":[{"url":"ombCategory","valueCoding":{"system":"urn:oid:2.16.840.1.113883.6.238","code":"1002-5","display":"American Indian or Alaska Native","userSelected":true}},{"url":"text","valueString":"American Indian or Alaska Native"}]},{"url":"http://hl7.org/fhir/us/core/StructureDefinition/us-core-ethnicity","extension":[{"url":"ombCategory","valueCoding":{"system":"urn:oid:2.16.840.1.113883.6.238","code":"2135-2","display":"Hispanic or Latino","userSelected":true}},{"url":"text","valueString":"Hispanic or Latino"}]}],"identifier":[{"type":{"coding":[{"system":"http://terminology.hl7.org/CodeSystem/v2-0203","code":"MR"}]},"system":"https://bonnie-fhir.healthit.gov/","value":"6129134502c62a011f2e6d07"}],"active":true,"name":[{"use":"usual","family":"DENEXCEPPass","given":["MedRsnDuringEncIp"]}],"gender":"male","birthDate":"1995-08-21"},"request":{"method":"PUT","url":"Patient/593382e8-4ad5-4300-b0ad-26c8954281c6"}},{"fullUrl":"https://madie.cms.gov/Encounter/dcbf072d-2b78-4135-b029-f7a6e362f453","resource":{"resourceType":"Encounter","id":"dcbf072d-2b78-4135-b029-f7a6e362f453","meta":{"profile":["http://hl7.org/fhir/us/qicore/StructureDefinition/qicore-encounter"]},"status":"finished","class":{"system":"http://terminology.hl7.org/CodeSystem/v3-ActCode","code":"IMP","display":"inpatient encounter","userSelected":true},"type":[{"coding":[{"system":"http://snomed.info/sct","code":"32485007"}]}],"subject":{"reference":"Patient/593382e8-4ad5-4300-b0ad-26c8954281c6"},"period":{"start":"2026-10-10T09:30:00.000+00:00","end":"2026-10-12T10:30:00.000+00:00"},"length":{"value":2,"unit":"days"},"diagnosis":[{"condition":{"reference":"Condition/4d0d9b6b-d8f8-40a9-a87a-f66d7ebbd66f"},"use":{"coding":[{"system":"http://terminology.hl7.org/CodeSystem/diagnosis-role","code":"billing","display":"Billing"}]},"rank":1}]},"request":{"method":"PUT","url":"Encounter/dcbf072d-2b78-4135-b029-f7a6e362f453"}},{"fullUrl":"https://madie.cms.gov/MedicationRequest/76bcc547-15cd-40e8-bda0-24e373019ca9","resource":{"resourceType":"MedicationRequest","id":"76bcc547-15cd-40e8-bda0-24e373019ca9","meta":{"profile":["http://hl7.org/fhir/us/qicore/StructureDefinition/qicore-mednotrequested"]},"status":"completed","intent":"order","category":[{"coding":[{"system":"http://terminology.hl7.org/CodeSystem/medicationrequest-category","code":"community"}]}],"doNotPerform":true,"medicationCodeableConcept":{"coding":[{"system":"http://www.nlm.nih.gov/research/umls/rxnorm","code":"1037045"}]},"subject":{"reference":"Patient/593382e8-4ad5-4300-b0ad-26c8954281c6"},"authoredOn":"2026-10-12T09:30:00.000+00:00","requester":{"reference":"Practitioner/example"},"reasonCode":[{"coding":[{"system":"http://snomed.info/sct","code":"183932001","display":"Procedure contraindicated (situation)","userSelected":true}]}]},"request":{"method":"PUT","url":"MedicationRequest/76bcc547-15cd-40e8-bda0-24e373019ca9"}},{"fullUrl":"https://madie.cms.gov/Condition/4d0d9b6b-d8f8-40a9-a87a-f66d7ebbd66f","resource":{"resourceType":"Condition","id":"4d0d9b6b-d8f8-40a9-a87a-f66d7ebbd66f","meta":{"profile":["http://hl7.org/fhir/us/qicore/StructureDefinition/qicore-condition"]},"clinicalStatus":{"coding":[{"system":"http://terminology.hl7.org/CodeSystem/condition-clinical","code":"active"}]},"verificationStatus":{"coding":[{"system":"http://terminology.hl7.org/CodeSystem/condition-ver-status","code":"confirmed"}]},"category":[{"coding":[{"system":"http://terminology.hl7.org/CodeSystem/condition-category","code":"encounter-diagnosis","display":"Encounter Diagnosis"}]}],"code":{"coding":[{"system":"http://snomed.info/sct","version":"2020-09","code":"111297002","display":"Nonparalytic stroke (disorder)","userSelected":true}]},"subject":{"reference":"Patient/593382e8-4ad5-4300-b0ad-26c8954281c6"},"recordedDate":"2026-07-14T08:00:00.000+00:00"},"request":{"method":"PUT","url":"Condition/4d0d9b6b-d8f8-40a9-a87a-f66d7ebbd66f"}},{"fullUrl":"https://madie.cms.gov/Coverage/b439dc7f-a24a-4b15-969b-38305f498fdb","resource":{"resourceType":"Coverage","id":"b439dc7f-a24a-4b15-969b-38305f498fdb","meta":{"profile":["http://hl7.org/fhir/us/qicore/StructureDefinition/qicore-coverage"]},"status":"active","beneficiary":{"reference":"Patient/593382e8-4ad5-4300-b0ad-26c8954281c6"},"payor":[{"reference":"Organization/5ad6ea38-07e9-4482-9e1b-c09eee595be9"}]},"request":{"method":"PUT","url":"Coverage/b439dc7f-a24a-4b15-969b-38305f498fdb"}},{"fullUrl":"https://madie.cms.gov/Organization/ef23d57f-17fe-4912-8952-5d9c2325fc89","resource":{"resourceType":"Organization","id":"5ad6ea38-07e9-4482-9e1b-c09eee595be9","meta":{"profile":["http://hl7.org/fhir/us/qicore/StructureDefinition/qicore-organization"]},"identifier":[{"use":"temp","system":"urn:oid:2.16.840.1.113883.4.4","value":"21-3259825"}],"active":true,"type":[{"coding":[{"system":"http://terminology.hl7.org/CodeSystem/organization-type","code":"pay","display":"Payer"}]}],"name":"Blue Cross Blue Shield of Texas","telecom":[{"system":"phone","value":"(+1) 972-766-6900"}],"address":[{"use":"billing","type":"postal","line":["P.O. Box 660044"],"city":"Dallas","state":"TX","postalCode":"75266-0044","country":"USA"}]},"request":{"method":"PUT","url":"Organization/5ad6ea38-07e9-4482-9e1b-c09eee595be9"}},{"fullUrl":"https://madie.cms.gov/MeasureReport/69d3de0b-9ef3-43e7-9c69-c5d92fa84223","resource":{"resourceType":"MeasureReport","id":"69d3de0b-9ef3-43e7-9c69-c5d92fa84223","meta":{"profile":["http://hl7.org/fhir/us/cqfmeasures/StructureDefinition/test-case-cqfm"]},"contained":[{"resourceType":"Parameters","id":"735967d5-feaf-4d23-84f5-de7c66f6b203-parameters","parameter":[{"name":"subject","valueString":"593382e8-4ad5-4300-b0ad-26c8954281c6"}]}],"extension":[{"url":"http://hl7.org/fhir/us/cqfmeasures/StructureDefinition/cqfm-inputParameters","valueReference":{"reference":"#735967d5-feaf-4d23-84f5-de7c66f6b203-parameters"}},{"url":"http://hl7.org/fhir/us/cqfmeasures/StructureDefinition/cqfm-testCaseDescription","valueMarkdown":"Patient does not get antithrombotic medication due to medical reasons after IP encounter. This case tests the timing boundary for den exception criteria."}],"modifierExtension":[{"url":"http://hl7.org/fhir/us/cqfmeasures/StructureDefinition/cqfm-isTestCase","valueBoolean":true}],"status":"complete","type":"individual","measure":"https://madie.cms.gov/Measure/CMS104FHIRSTKDCAntithrombotic","period":{"start":"2026-01-01","end":"2026-12-31"},"group":[{"population":[{"code":{"coding":[{"system":"http://terminology.hl7.org/CodeSystem/measure-population","code":"initial-population","display":"Initial Population"}]},"count":1},{"code":{"coding":[{"system":"http://terminology.hl7.org/CodeSystem/measure-population","code":"denominator","display":"Denominator"}]},"count":1},{"code":{"coding":[{"system":"http://terminology.hl7.org/CodeSystem/measure-population","code":"denominator-exclusion","display":"Denominator Exclusion"}]},"count":0},{"code":{"coding":[{"system":"http://terminology.hl7.org/CodeSystem/measure-population","code":"numerator","display":"Numerator"}]},"count":0},{"code":{"coding":[{"system":"http://terminology.hl7.org/CodeSystem/measure-population","code":"denominator-exception","display":"Denominator Exception"}]},"count":1}]}]},"request":{"method":"PUT","url":"MeasureReport/69d3de0b-9ef3-43e7-9c69-c5d92fa84223"}}]}