{"resourceType":"Bundle","id":"tests-964f8143-6ff7-4b80-ad76-4dc59de2af37-bundle","type":"transaction","entry":[{"fullUrl":"https://madie.cms.gov/Patient/964f8143-6ff7-4b80-ad76-4dc59de2af37","resource":{"resourceType":"Patient","id":"964f8143-6ff7-4b80-ad76-4dc59de2af37","meta":{"profile":["http://hl7.org/fhir/us/qicore/StructureDefinition/qicore-patient"]},"text":{"status":"generated","div":"<div xmlns=\"http://www.w3.org/1999/xhtml\"><div class=\"hapiHeaderText\">CMOdurObs_ED&lt;1hrObs&gt;1hrBFEnc <b>DENEXFAIL </b></div><table class=\"hapiPropertyTable\"><tbody><tr><td>Identifier</td><td>a36fb0cf3d8cc0c3f179425073d57183763e3626e600c0e967bbfec7a918cee5</td></tr><tr><td>Date of birth</td><td><span>21 August 1994</span></td></tr></tbody></table></div>"},"extension":[{"url":"http://hl7.org/fhir/us/core/StructureDefinition/us-core-race","extension":[{"url":"ombCategory","valueCoding":{"system":"urn:oid:2.16.840.1.113883.6.238","code":"1002-5","display":"American Indian or Alaska Native","userSelected":true}},{"url":"text","valueString":"American Indian or Alaska Native"}]},{"url":"http://hl7.org/fhir/us/core/StructureDefinition/us-core-ethnicity","extension":[{"url":"ombCategory","valueCoding":{"system":"urn:oid:2.16.840.1.113883.6.238","code":"2135-2","display":"Hispanic or Latino","userSelected":true}},{"url":"text","valueString":"Hispanic or Latino"}]}],"identifier":[{"type":{"coding":[{"system":"http://terminology.hl7.org/CodeSystem/v2-0203","code":"MR"}]},"system":"https://bonnie-fhir.healthit.gov/","value":"6129134902c62a011f2e6f51"}],"active":true,"name":[{"use":"usual","family":"DENEXFail","given":["CMOdurObs_ED<1hrObs>1hrBFEnc"]}],"gender":"male","birthDate":"1995-08-21"},"request":{"method":"PUT","url":"Patient/964f8143-6ff7-4b80-ad76-4dc59de2af37"}},{"fullUrl":"https://madie.cms.gov/Encounter/6cf2c0c3-430e-4dc6-be6c-4d353ec20363","resource":{"resourceType":"Encounter","id":"6cf2c0c3-430e-4dc6-be6c-4d353ec20363","meta":{"profile":["http://hl7.org/fhir/us/qicore/StructureDefinition/qicore-encounter"]},"status":"finished","class":{"system":"http://terminology.hl7.org/CodeSystem/v3-ActCode","code":"EMER","display":"emergency","userSelected":true},"type":[{"coding":[{"system":"http://snomed.info/sct","code":"4525004"}]}],"subject":{"reference":"Patient/964f8143-6ff7-4b80-ad76-4dc59de2af37"},"period":{"start":"2026-10-10T07:30:00.000+00:00","end":"2026-10-10T07:35:00.000+00:00"},"length":{"value":0,"unit":"days"}},"request":{"method":"PUT","url":"Encounter/6cf2c0c3-430e-4dc6-be6c-4d353ec20363"}},{"fullUrl":"https://madie.cms.gov/Encounter/642a8132-605e-456c-9966-c96b0b4f50da","resource":{"resourceType":"Encounter","id":"642a8132-605e-456c-9966-c96b0b4f50da","meta":{"profile":["http://hl7.org/fhir/us/qicore/StructureDefinition/qicore-encounter"]},"status":"finished","class":{"system":"http://terminology.hl7.org/CodeSystem/v3-ActCode","code":"OBSENC","display":"observation encounter","userSelected":true},"type":[{"coding":[{"system":"http://snomed.info/sct","code":"448851000124103"}]}],"subject":{"reference":"Patient/964f8143-6ff7-4b80-ad76-4dc59de2af37"},"period":{"start":"2026-10-10T07:36:00.000+00:00","end":"2026-10-10T09:00:00.000+00:00"},"length":{"value":0,"unit":"days"}},"request":{"method":"PUT","url":"Encounter/642a8132-605e-456c-9966-c96b0b4f50da"}},{"fullUrl":"https://madie.cms.gov/Encounter/b555fc39-cf86-4263-b53a-2ffbec81fdb5","resource":{"resourceType":"Encounter","id":"b555fc39-cf86-4263-b53a-2ffbec81fdb5","meta":{"profile":["http://hl7.org/fhir/us/qicore/StructureDefinition/qicore-encounter"]},"status":"finished","class":{"system":"http://terminology.hl7.org/CodeSystem/v3-ActCode","code":"IMP","display":"inpatient encounter","userSelected":true},"type":[{"coding":[{"system":"http://snomed.info/sct","code":"32485007"}]}],"subject":{"reference":"Patient/964f8143-6ff7-4b80-ad76-4dc59de2af37"},"period":{"start":"2026-10-10T10:01:00.000+00:00","end":"2026-10-12T10:30:00.000+00:00"},"length":{"value":2,"unit":"days"},"diagnosis":[{"condition":{"reference":"Condition/06b3b432-e080-4e5b-aa4e-daebd71ed76d"},"use":{"coding":[{"system":"http://terminology.hl7.org/CodeSystem/diagnosis-role","code":"billing","display":"Billing"}]},"rank":1}]},"request":{"method":"PUT","url":"Encounter/b555fc39-cf86-4263-b53a-2ffbec81fdb5"}},{"fullUrl":"https://madie.cms.gov/ServiceRequest/170d35f8-d910-4b4e-aef9-bd67dc5579d3","resource":{"resourceType":"ServiceRequest","id":"170d35f8-d910-4b4e-aef9-bd67dc5579d3","meta":{"profile":["http://hl7.org/fhir/us/qicore/StructureDefinition/qicore-servicerequest"]},"status":"active","intent":"order","code":{"coding":[{"system":"http://snomed.info/sct","code":"133918004"}]},"subject":{"reference":"Patient/964f8143-6ff7-4b80-ad76-4dc59de2af37"},"authoredOn":"2013-10-10T08:37:00+00:00"},"request":{"method":"PUT","url":"ServiceRequest/170d35f8-d910-4b4e-aef9-bd67dc5579d3"}},{"fullUrl":"https://madie.cms.gov/Condition/06b3b432-e080-4e5b-aa4e-daebd71ed76d","resource":{"resourceType":"Condition","id":"06b3b432-e080-4e5b-aa4e-daebd71ed76d","meta":{"profile":["http://hl7.org/fhir/us/qicore/StructureDefinition/qicore-condition"]},"clinicalStatus":{"coding":[{"system":"http://terminology.hl7.org/CodeSystem/condition-clinical","code":"active"}]},"verificationStatus":{"coding":[{"system":"http://terminology.hl7.org/CodeSystem/condition-ver-status","code":"confirmed"}]},"category":[{"coding":[{"system":"http://terminology.hl7.org/CodeSystem/condition-category","code":"encounter-diagnosis","display":"Encounter Diagnosis"}]}],"code":{"coding":[{"system":"http://snomed.info/sct","version":"2020-09","code":"111297002","display":"Nonparalytic stroke (disorder)","userSelected":true}]},"subject":{"reference":"Patient/964f8143-6ff7-4b80-ad76-4dc59de2af37"},"recordedDate":"2026-07-14T08:00:00.000+00:00"},"request":{"method":"PUT","url":"Condition/06b3b432-e080-4e5b-aa4e-daebd71ed76d"}},{"fullUrl":"https://madie.cms.gov/MeasureReport/21673351-c6a0-43ce-a8d0-48cba058ab4c","resource":{"resourceType":"MeasureReport","id":"21673351-c6a0-43ce-a8d0-48cba058ab4c","meta":{"profile":["http://hl7.org/fhir/us/cqfmeasures/StructureDefinition/test-case-cqfm"]},"contained":[{"resourceType":"Parameters","id":"75f3b006-acaf-4c0c-b3ff-e0b8532b8a21-parameters","parameter":[{"name":"subject","valueString":"964f8143-6ff7-4b80-ad76-4dc59de2af37"}]}],"extension":[{"url":"http://hl7.org/fhir/us/cqfmeasures/StructureDefinition/cqfm-inputParameters","valueReference":{"reference":"#75f3b006-acaf-4c0c-b3ff-e0b8532b8a21-parameters"}},{"url":"http://hl7.org/fhir/us/cqfmeasures/StructureDefinition/cqfm-testCaseDescription","valueMarkdown":"\"Patient receives CMO during observation. ED ends 1 minute before observation. Obs ends 61 min before inpatient encounter start. Testing day of operator with HospitalizationWithObservation function."}],"modifierExtension":[{"url":"http://hl7.org/fhir/us/cqfmeasures/StructureDefinition/cqfm-isTestCase","valueBoolean":true}],"status":"complete","type":"individual","measure":"https://madie.cms.gov/Measure/CMS104FHIRSTKDCAntithrombotic","period":{"start":"2026-01-01","end":"2026-12-31"},"group":[{"population":[{"code":{"coding":[{"system":"http://terminology.hl7.org/CodeSystem/measure-population","code":"initial-population","display":"Initial Population"}]},"count":1},{"code":{"coding":[{"system":"http://terminology.hl7.org/CodeSystem/measure-population","code":"denominator","display":"Denominator"}]},"count":1},{"code":{"coding":[{"system":"http://terminology.hl7.org/CodeSystem/measure-population","code":"denominator-exclusion","display":"Denominator Exclusion"}]},"count":0},{"code":{"coding":[{"system":"http://terminology.hl7.org/CodeSystem/measure-population","code":"numerator","display":"Numerator"}]},"count":0},{"code":{"coding":[{"system":"http://terminology.hl7.org/CodeSystem/measure-population","code":"denominator-exception","display":"Denominator Exception"}]},"count":0}]}]},"request":{"method":"PUT","url":"MeasureReport/21673351-c6a0-43ce-a8d0-48cba058ab4c"}}]}