{"resourceType":"Bundle","id":"tests-34d3361c-95b3-43bf-a2a8-380914e06acb-bundle","type":"transaction","entry":[{"fullUrl":"https://madie.cms.gov/Patient/34d3361c-95b3-43bf-a2a8-380914e06acb","resource":{"resourceType":"Patient","id":"34d3361c-95b3-43bf-a2a8-380914e06acb","meta":{"profile":["http://hl7.org/fhir/us/qicore/StructureDefinition/qicore-patient"]},"text":{"status":"generated","div":"<div xmlns=\"http://www.w3.org/1999/xhtml\"><div class=\"hapiHeaderText\">CMOdurObs_NoEDObs&lt;1hrBFEnc <b>DENEXPASS </b></div><table class=\"hapiPropertyTable\"><tbody><tr><td>Identifier</td><td>5a7e040e256dded60537a54bf9421da8</td></tr><tr><td>Date of birth</td><td><span>21 August 1994</span></td></tr></tbody></table></div>"},"extension":[{"url":"http://hl7.org/fhir/us/core/StructureDefinition/us-core-race","extension":[{"url":"ombCategory","valueCoding":{"system":"urn:oid:2.16.840.1.113883.6.238","code":"1002-5","display":"American Indian or Alaska Native","userSelected":true}},{"url":"text","valueString":"American Indian or Alaska Native"}]},{"url":"http://hl7.org/fhir/us/core/StructureDefinition/us-core-ethnicity","extension":[{"url":"ombCategory","valueCoding":{"system":"urn:oid:2.16.840.1.113883.6.238","code":"2135-2","display":"Hispanic or Latino","userSelected":true}},{"url":"text","valueString":"Hispanic or Latino"}]}],"identifier":[{"type":{"coding":[{"system":"http://terminology.hl7.org/CodeSystem/v2-0203","code":"MR"}]},"system":"https://bonnie-fhir.healthit.gov/","value":"6129133a02c62a011f2e6844"}],"active":true,"name":[{"use":"usual","family":"DENEXPass","given":["CMOdurObs_NoEDObs<1hrBFEnc"]}],"gender":"male","birthDate":"1995-08-21"},"request":{"method":"PUT","url":"Patient/34d3361c-95b3-43bf-a2a8-380914e06acb"}},{"fullUrl":"https://madie.cms.gov/Encounter/4dbf9574-cda7-45fc-8822-cf9d743dad66","resource":{"resourceType":"Encounter","id":"4dbf9574-cda7-45fc-8822-cf9d743dad66","meta":{"profile":["http://hl7.org/fhir/us/qicore/StructureDefinition/qicore-encounter"]},"status":"finished","class":{"system":"http://terminology.hl7.org/CodeSystem/v3-ActCode","code":"OBSENC","display":"observation encounter","userSelected":true},"type":[{"coding":[{"system":"http://snomed.info/sct","code":"448951000124107"}]}],"subject":{"reference":"Patient/34d3361c-95b3-43bf-a2a8-380914e06acb"},"period":{"start":"2026-10-10T07:30:00.000+00:00","end":"2026-10-10T08:00:00.000+00:00"},"length":{"value":0,"unit":"days"}},"request":{"method":"PUT","url":"Encounter/4dbf9574-cda7-45fc-8822-cf9d743dad66"}},{"fullUrl":"https://madie.cms.gov/Encounter/32454198-d8fa-471a-b64f-29cf9b189999","resource":{"resourceType":"Encounter","id":"32454198-d8fa-471a-b64f-29cf9b189999","meta":{"profile":["http://hl7.org/fhir/us/qicore/StructureDefinition/qicore-encounter"]},"status":"finished","class":{"system":"http://terminology.hl7.org/CodeSystem/v3-ActCode","code":"IMP","display":"inpatient encounter","userSelected":true},"type":[{"coding":[{"system":"http://snomed.info/sct","code":"32485007"}]}],"subject":{"reference":"Patient/34d3361c-95b3-43bf-a2a8-380914e06acb"},"period":{"start":"2026-10-10T08:01:00.000+00:00","end":"2026-10-12T10:30:00.000+00:00"},"length":{"value":2,"unit":"days"},"diagnosis":[{"condition":{"reference":"Condition/6f8eb17b-b1d9-4a0d-a226-397796c64b08"},"use":{"coding":[{"system":"http://terminology.hl7.org/CodeSystem/diagnosis-role","code":"billing","display":"Billing"}]},"rank":1}]},"request":{"method":"PUT","url":"Encounter/32454198-d8fa-471a-b64f-29cf9b189999"}},{"fullUrl":"https://madie.cms.gov/ServiceRequest/8fb3073d-aca9-49fa-bbb1-508626ded954","resource":{"resourceType":"ServiceRequest","id":"8fb3073d-aca9-49fa-bbb1-508626ded954","meta":{"profile":["http://hl7.org/fhir/us/qicore/StructureDefinition/qicore-servicerequest"]},"status":"active","intent":"order","code":{"coding":[{"system":"http://snomed.info/sct","code":"133918004"}]},"subject":{"reference":"Patient/34d3361c-95b3-43bf-a2a8-380914e06acb"},"authoredOn":"2026-10-10T07:30:00.000+00:00"},"request":{"method":"PUT","url":"ServiceRequest/8fb3073d-aca9-49fa-bbb1-508626ded954"}},{"fullUrl":"https://madie.cms.gov/Condition/6f8eb17b-b1d9-4a0d-a226-397796c64b08","resource":{"resourceType":"Condition","id":"6f8eb17b-b1d9-4a0d-a226-397796c64b08","meta":{"profile":["http://hl7.org/fhir/us/qicore/StructureDefinition/qicore-condition"]},"clinicalStatus":{"coding":[{"system":"http://terminology.hl7.org/CodeSystem/condition-clinical","code":"active"}]},"verificationStatus":{"coding":[{"system":"http://terminology.hl7.org/CodeSystem/condition-ver-status","code":"confirmed"}]},"category":[{"coding":[{"system":"http://terminology.hl7.org/CodeSystem/condition-category","code":"encounter-diagnosis","display":"Encounter Diagnosis"}]}],"code":{"coding":[{"system":"http://snomed.info/sct","version":"2020-09","code":"111297002","display":"Nonparalytic stroke (disorder)","userSelected":true}]},"subject":{"reference":"Patient/34d3361c-95b3-43bf-a2a8-380914e06acb"},"recordedDate":"2026-07-15T08:00:00.000+00:00"},"request":{"method":"PUT","url":"Condition/6f8eb17b-b1d9-4a0d-a226-397796c64b08"}},{"fullUrl":"https://madie.cms.gov/Coverage/168b5216-bd38-48b7-8502-38e532483873","resource":{"resourceType":"Coverage","id":"168b5216-bd38-48b7-8502-38e532483873","meta":{"profile":["http://hl7.org/fhir/us/qicore/StructureDefinition/qicore-coverage"]},"status":"active","beneficiary":{"reference":"Patient/34d3361c-95b3-43bf-a2a8-380914e06acb"},"payor":[{"reference":"Organization/5ad6ea38-07e9-4482-9e1b-c09eee595be9"}]},"request":{"method":"PUT","url":"Coverage/168b5216-bd38-48b7-8502-38e532483873"}},{"fullUrl":"https://madie.cms.gov/Organization/0e959901-aa40-4d1a-9617-cb4fa9b70e39","resource":{"resourceType":"Organization","id":"5ad6ea38-07e9-4482-9e1b-c09eee595be9","meta":{"profile":["http://hl7.org/fhir/us/qicore/StructureDefinition/qicore-organization"]},"identifier":[{"use":"temp","system":"urn:oid:2.16.840.1.113883.4.4","value":"21-3259825"}],"active":true,"type":[{"coding":[{"system":"http://terminology.hl7.org/CodeSystem/organization-type","code":"pay","display":"Payer"}]}],"name":"Blue Cross Blue Shield of Texas","telecom":[{"system":"phone","value":"(+1) 972-766-6900"}],"address":[{"use":"billing","type":"postal","line":["P.O. Box 660044"],"city":"Dallas","state":"TX","postalCode":"75266-0044","country":"USA"}]},"request":{"method":"PUT","url":"Organization/5ad6ea38-07e9-4482-9e1b-c09eee595be9"}},{"fullUrl":"https://madie.cms.gov/MeasureReport/be230d63-9ab4-4307-9241-d02371f39284","resource":{"resourceType":"MeasureReport","id":"be230d63-9ab4-4307-9241-d02371f39284","meta":{"profile":["http://hl7.org/fhir/us/cqfmeasures/StructureDefinition/test-case-cqfm"]},"contained":[{"resourceType":"Parameters","id":"a3f59974-fcad-4cf9-a861-492008330fe4-parameters","parameter":[{"name":"subject","valueString":"34d3361c-95b3-43bf-a2a8-380914e06acb"}]}],"extension":[{"url":"http://hl7.org/fhir/us/cqfmeasures/StructureDefinition/cqfm-inputParameters","valueReference":{"reference":"#a3f59974-fcad-4cf9-a861-492008330fe4-parameters"}},{"url":"http://hl7.org/fhir/us/cqfmeasures/StructureDefinition/cqfm-testCaseDescription","valueMarkdown":"Patient receives CMO during observation. No ED. Obs ends 1 min before inpatient encounter start. Testing day of operator with HospitalizationWithObservation function."}],"modifierExtension":[{"url":"http://hl7.org/fhir/us/cqfmeasures/StructureDefinition/cqfm-isTestCase","valueBoolean":true}],"status":"complete","type":"individual","measure":"https://madie.cms.gov/Measure/CMS104FHIRSTKDCAntithrombotic","period":{"start":"2026-01-01","end":"2026-12-31"},"group":[{"population":[{"code":{"coding":[{"system":"http://terminology.hl7.org/CodeSystem/measure-population","code":"initial-population","display":"Initial Population"}]},"count":1},{"code":{"coding":[{"system":"http://terminology.hl7.org/CodeSystem/measure-population","code":"denominator","display":"Denominator"}]},"count":1},{"code":{"coding":[{"system":"http://terminology.hl7.org/CodeSystem/measure-population","code":"denominator-exclusion","display":"Denominator Exclusion"}]},"count":1},{"code":{"coding":[{"system":"http://terminology.hl7.org/CodeSystem/measure-population","code":"numerator","display":"Numerator"}]},"count":0},{"code":{"coding":[{"system":"http://terminology.hl7.org/CodeSystem/measure-population","code":"denominator-exception","display":"Denominator Exception"}]},"count":0}]}]},"request":{"method":"PUT","url":"MeasureReport/be230d63-9ab4-4307-9241-d02371f39284"}}]}