{"resourceType":"Bundle","id":"tests-b9d52b97-7602-457d-a96d-a1950a01b42a-bundle","type":"transaction","entry":[{"fullUrl":"https://madie.cms.gov/Patient/b9d52b97-7602-457d-a96d-a1950a01b42a","resource":{"resourceType":"Patient","id":"b9d52b97-7602-457d-a96d-a1950a01b42a","meta":{"profile":["http://hl7.org/fhir/us/qicore/StructureDefinition/qicore-patient"]},"text":{"status":"generated","div":"<div xmlns=\"http://www.w3.org/1999/xhtml\"><div class=\"hapiHeaderText\">AntithromboticStartBeforeIPEnc <b>NUMERFAIL </b></div><table class=\"hapiPropertyTable\"><tbody><tr><td>Identifier</td><td>a70c66a1810e267b2b55f323c077c4e1</td></tr><tr><td>Date of birth</td><td><span>26 August 1990</span></td></tr></tbody></table></div>"},"extension":[{"url":"http://hl7.org/fhir/us/core/StructureDefinition/us-core-race","extension":[{"url":"ombCategory","valueCoding":{"system":"urn:oid:2.16.840.1.113883.6.238","code":"1002-5","display":"American Indian or Alaska Native","userSelected":true}},{"url":"text","valueString":"American Indian or Alaska Native"}]},{"url":"http://hl7.org/fhir/us/core/StructureDefinition/us-core-ethnicity","extension":[{"url":"ombCategory","valueCoding":{"system":"urn:oid:2.16.840.1.113883.6.238","code":"2135-2","display":"Hispanic or Latino","userSelected":true}},{"url":"text","valueString":"Hispanic or Latino"}]}],"identifier":[{"type":{"coding":[{"system":"http://terminology.hl7.org/CodeSystem/v2-0203","code":"MR"}]},"system":"https://bonnie-fhir.healthit.gov/","value":"6129132602c62a011f2e5ffc"}],"active":true,"name":[{"use":"usual","family":"NUMERFail","given":["AntithromboticStartBeforeIPEnc"]}],"gender":"male","birthDate":"2000-08-26"},"request":{"method":"PUT","url":"Patient/b9d52b97-7602-457d-a96d-a1950a01b42a"}},{"fullUrl":"https://madie.cms.gov/Encounter/6b972ffc-93c6-4b85-a279-ebce8d37b1b0","resource":{"resourceType":"Encounter","id":"6b972ffc-93c6-4b85-a279-ebce8d37b1b0","meta":{"profile":["http://hl7.org/fhir/us/qicore/StructureDefinition/qicore-encounter"]},"status":"finished","class":{"system":"http://terminology.hl7.org/CodeSystem/v3-ActCode","code":"IMP","display":"inpatient encounter","userSelected":true},"type":[{"coding":[{"system":"http://snomed.info/sct","code":"32485007"}]}],"subject":{"reference":"Patient/b9d52b97-7602-457d-a96d-a1950a01b42a"},"period":{"start":"2026-10-10T09:30:00.000+00:00","end":"2026-10-12T10:30:00.000+00:00"},"length":{"value":2,"unit":"days"},"diagnosis":[{"condition":{"reference":"Condition/2fe23134-b8f9-49a5-8bc1-b1e59dc367b5"},"use":{"coding":[{"system":"http://terminology.hl7.org/CodeSystem/diagnosis-role","code":"billing","display":"Billing"}]},"rank":1}]},"request":{"method":"PUT","url":"Encounter/6b972ffc-93c6-4b85-a279-ebce8d37b1b0"}},{"fullUrl":"https://madie.cms.gov/MedicationRequest/6f476578-bb1e-4b63-8a38-b0077d8e4960","resource":{"resourceType":"MedicationRequest","id":"6f476578-bb1e-4b63-8a38-b0077d8e4960","meta":{"profile":["http://hl7.org/fhir/us/qicore/StructureDefinition/qicore-medicationrequest"]},"status":"active","intent":"order","category":[{"coding":[{"system":"http://terminology.hl7.org/CodeSystem/medicationrequest-category","code":"discharge","display":"Discharge","userSelected":true}]}],"medicationCodeableConcept":{"coding":[{"system":"http://www.nlm.nih.gov/research/umls/rxnorm","code":"198466"}]},"subject":{"reference":"Patient/b9d52b97-7602-457d-a96d-a1950a01b42a"},"authoredOn":"2013-10-09T10:00:00+00:00","requester":{"reference":"Practitioner/example"}},"request":{"method":"PUT","url":"MedicationRequest/6f476578-bb1e-4b63-8a38-b0077d8e4960"}},{"fullUrl":"https://madie.cms.gov/Condition/2fe23134-b8f9-49a5-8bc1-b1e59dc367b5","resource":{"resourceType":"Condition","id":"2fe23134-b8f9-49a5-8bc1-b1e59dc367b5","meta":{"profile":["http://hl7.org/fhir/us/qicore/StructureDefinition/qicore-condition"]},"clinicalStatus":{"coding":[{"system":"http://terminology.hl7.org/CodeSystem/condition-clinical","code":"active"}]},"verificationStatus":{"coding":[{"system":"http://terminology.hl7.org/CodeSystem/condition-ver-status","code":"confirmed"}]},"category":[{"coding":[{"system":"http://terminology.hl7.org/CodeSystem/condition-category","code":"encounter-diagnosis","display":"Encounter Diagnosis"}]}],"code":{"coding":[{"system":"http://snomed.info/sct","version":"2020-09","code":"111297002","display":"Nonparalytic stroke (disorder)","userSelected":true}]},"subject":{"reference":"Patient/b9d52b97-7602-457d-a96d-a1950a01b42a"},"recordedDate":"2026-07-15T08:00:00.000+00:00"},"request":{"method":"PUT","url":"Condition/2fe23134-b8f9-49a5-8bc1-b1e59dc367b5"}},{"fullUrl":"https://madie.cms.gov/Coverage/62521042-5144-4db4-80ec-c8918e6eede5","resource":{"resourceType":"Coverage","id":"62521042-5144-4db4-80ec-c8918e6eede5","meta":{"profile":["http://hl7.org/fhir/us/qicore/StructureDefinition/qicore-coverage"]},"status":"active","beneficiary":{"reference":"Patient/b9d52b97-7602-457d-a96d-a1950a01b42a"},"payor":[{"reference":"Organization/db141f66-a1cc-407b-9e95-adac27adee14"}]},"request":{"method":"PUT","url":"Coverage/62521042-5144-4db4-80ec-c8918e6eede5"}},{"fullUrl":"https://madie.cms.gov/Organization/654779e3-f60d-44b0-853b-b9bbaa74343b","resource":{"resourceType":"Organization","id":"db141f66-a1cc-407b-9e95-adac27adee14","meta":{"profile":["http://hl7.org/fhir/us/qicore/StructureDefinition/qicore-organization"]},"identifier":[{"use":"temp","system":"urn:oid:2.16.840.1.113883.4.4","value":"21-3259825"}],"active":true,"type":[{"coding":[{"system":"http://terminology.hl7.org/CodeSystem/organization-type","code":"pay","display":"Payer"}]}],"name":"Blue Cross Blue Shield of Texas","telecom":[{"system":"phone","value":"(+1) 972-766-6900"}],"address":[{"use":"billing","type":"postal","line":["P.O. Box 660044"],"city":"Dallas","state":"TX","postalCode":"75266-0044","country":"USA"}]},"request":{"method":"PUT","url":"Organization/db141f66-a1cc-407b-9e95-adac27adee14"}},{"fullUrl":"https://madie.cms.gov/MeasureReport/2e27e84b-8b17-4cb7-a903-edc1fedb9f7e","resource":{"resourceType":"MeasureReport","id":"2e27e84b-8b17-4cb7-a903-edc1fedb9f7e","meta":{"profile":["http://hl7.org/fhir/us/cqfmeasures/StructureDefinition/test-case-cqfm"]},"contained":[{"resourceType":"Parameters","id":"d17ce383-fe47-4b97-b756-7cc572151c8c-parameters","parameter":[{"name":"subject","valueString":"b9d52b97-7602-457d-a96d-a1950a01b42a"}]}],"extension":[{"url":"http://hl7.org/fhir/us/cqfmeasures/StructureDefinition/cqfm-inputParameters","valueReference":{"reference":"#d17ce383-fe47-4b97-b756-7cc572151c8c-parameters"}},{"url":"http://hl7.org/fhir/us/cqfmeasures/StructureDefinition/cqfm-testCaseDescription","valueMarkdown":"Patient received anti thrombotic before and during encounter\n"}],"modifierExtension":[{"url":"http://hl7.org/fhir/us/cqfmeasures/StructureDefinition/cqfm-isTestCase","valueBoolean":true}],"status":"complete","type":"individual","measure":"https://madie.cms.gov/Measure/CMS104FHIRSTKDCAntithrombotic","period":{"start":"2026-01-01","end":"2026-12-31"},"group":[{"population":[{"code":{"coding":[{"system":"http://terminology.hl7.org/CodeSystem/measure-population","code":"initial-population","display":"Initial Population"}]},"count":1},{"code":{"coding":[{"system":"http://terminology.hl7.org/CodeSystem/measure-population","code":"denominator","display":"Denominator"}]},"count":1},{"code":{"coding":[{"system":"http://terminology.hl7.org/CodeSystem/measure-population","code":"denominator-exclusion","display":"Denominator Exclusion"}]},"count":0},{"code":{"coding":[{"system":"http://terminology.hl7.org/CodeSystem/measure-population","code":"numerator","display":"Numerator"}]},"count":0},{"code":{"coding":[{"system":"http://terminology.hl7.org/CodeSystem/measure-population","code":"denominator-exception","display":"Denominator Exception"}]},"count":0}]}]},"request":{"method":"PUT","url":"MeasureReport/2e27e84b-8b17-4cb7-a903-edc1fedb9f7e"}}]}