{"resourceType":"Bundle","id":"tests-6cf51e7c-99f4-4c6d-9b1c-6e371c96b742-bundle","type":"transaction","entry":[{"fullUrl":"https://madie.cms.gov/Patient/6cf51e7c-99f4-4c6d-9b1c-6e371c96b742","resource":{"resourceType":"Patient","id":"6cf51e7c-99f4-4c6d-9b1c-6e371c96b742","meta":{"profile":["http://hl7.org/fhir/us/qicore/StructureDefinition/qicore-patient"]},"text":{"status":"generated","div":"<div xmlns=\"http://www.w3.org/1999/xhtml\"><div class=\"hapiHeaderText\">CMOBFEnc_NoEDNoObsBFEnc <b>DENEXFAIL </b></div><table class=\"hapiPropertyTable\"><tbody><tr><td>Identifier</td><td>cce7eb78644dd7c9beed6d1cbc39871e</td></tr><tr><td>Date of birth</td><td><span>21 August 1994</span></td></tr></tbody></table></div>"},"extension":[{"url":"http://hl7.org/fhir/us/core/StructureDefinition/us-core-race","extension":[{"url":"ombCategory","valueCoding":{"system":"urn:oid:2.16.840.1.113883.6.238","code":"1002-5","display":"American Indian or Alaska Native","userSelected":true}},{"url":"text","valueString":"American Indian or Alaska Native"}]},{"url":"http://hl7.org/fhir/us/core/StructureDefinition/us-core-ethnicity","extension":[{"url":"ombCategory","valueCoding":{"system":"urn:oid:2.16.840.1.113883.6.238","code":"2135-2","display":"Hispanic or Latino","userSelected":true}},{"url":"text","valueString":"Hispanic or Latino"}]}],"identifier":[{"type":{"coding":[{"system":"http://terminology.hl7.org/CodeSystem/v2-0203","code":"MR"}]},"system":"https://bonnie-fhir.healthit.gov/","value":"6129133b02c62a011f2e68a0"}],"active":true,"name":[{"use":"usual","family":"DENEXFail","given":["CMOBFEnc_NoEDNoObsBFEnc"]}],"gender":"male","birthDate":"1995-08-21"},"request":{"method":"PUT","url":"Patient/6cf51e7c-99f4-4c6d-9b1c-6e371c96b742"}},{"fullUrl":"https://madie.cms.gov/Encounter/1749a390-8390-47ed-bdb4-5b53d6021bd6","resource":{"resourceType":"Encounter","id":"1749a390-8390-47ed-bdb4-5b53d6021bd6","meta":{"profile":["http://hl7.org/fhir/us/qicore/StructureDefinition/qicore-encounter"]},"status":"finished","class":{"system":"http://terminology.hl7.org/CodeSystem/v3-ActCode","code":"IMP","display":"inpatient encounter","userSelected":true},"type":[{"coding":[{"system":"http://snomed.info/sct","code":"32485007"}]}],"subject":{"reference":"Patient/6cf51e7c-99f4-4c6d-9b1c-6e371c96b742"},"period":{"start":"2026-10-10T09:30:00.000+00:00","end":"2026-10-12T10:30:00.000+00:00"},"length":{"value":2,"unit":"days"},"diagnosis":[{"condition":{"reference":"Condition/8d535e43-ce31-444a-80cd-1875af46a5a0"},"use":{"coding":[{"system":"http://terminology.hl7.org/CodeSystem/diagnosis-role","code":"billing","display":"Billing"}]},"rank":1}]},"request":{"method":"PUT","url":"Encounter/1749a390-8390-47ed-bdb4-5b53d6021bd6"}},{"fullUrl":"https://madie.cms.gov/ServiceRequest/fbe799ab-661b-4d89-883d-42256ffaefb7","resource":{"resourceType":"ServiceRequest","id":"fbe799ab-661b-4d89-883d-42256ffaefb7","meta":{"profile":["http://hl7.org/fhir/us/qicore/StructureDefinition/qicore-servicerequest"]},"status":"active","intent":"order","code":{"coding":[{"system":"http://snomed.info/sct","code":"133918004"}]},"subject":{"reference":"Patient/6cf51e7c-99f4-4c6d-9b1c-6e371c96b742"},"authoredOn":"2026-10-10T09:29:00.000+00:00"},"request":{"method":"PUT","url":"ServiceRequest/fbe799ab-661b-4d89-883d-42256ffaefb7"}},{"fullUrl":"https://madie.cms.gov/Condition/8d535e43-ce31-444a-80cd-1875af46a5a0","resource":{"resourceType":"Condition","id":"8d535e43-ce31-444a-80cd-1875af46a5a0","meta":{"profile":["http://hl7.org/fhir/us/qicore/StructureDefinition/qicore-condition"]},"clinicalStatus":{"coding":[{"system":"http://terminology.hl7.org/CodeSystem/condition-clinical","code":"active"}]},"verificationStatus":{"coding":[{"system":"http://terminology.hl7.org/CodeSystem/condition-ver-status","code":"confirmed"}]},"category":[{"coding":[{"system":"http://terminology.hl7.org/CodeSystem/condition-category","code":"encounter-diagnosis","display":"Encounter Diagnosis"}]}],"code":{"coding":[{"system":"http://snomed.info/sct","version":"2020-09","code":"111297002","display":"Nonparalytic stroke (disorder)","userSelected":true}]},"subject":{"reference":"Patient/6cf51e7c-99f4-4c6d-9b1c-6e371c96b742"},"recordedDate":"2026-07-14T08:00:00.000+00:00"},"request":{"method":"PUT","url":"Condition/8d535e43-ce31-444a-80cd-1875af46a5a0"}},{"fullUrl":"https://madie.cms.gov/Coverage/0bd01efb-f445-4821-9bf6-ea90b347b49c","resource":{"resourceType":"Coverage","id":"0bd01efb-f445-4821-9bf6-ea90b347b49c","meta":{"profile":["http://hl7.org/fhir/us/qicore/StructureDefinition/qicore-coverage"]},"status":"active","beneficiary":{"reference":"Patient/6cf51e7c-99f4-4c6d-9b1c-6e371c96b742"},"payor":[{"reference":"Organization/db141f66-a1cc-407b-9e95-adac27adee14"}]},"request":{"method":"PUT","url":"Coverage/0bd01efb-f445-4821-9bf6-ea90b347b49c"}},{"fullUrl":"https://madie.cms.gov/Organization/117b9002-1d5e-4ba2-99e0-d1685cea89e8","resource":{"resourceType":"Organization","id":"db141f66-a1cc-407b-9e95-adac27adee14","meta":{"profile":["http://hl7.org/fhir/us/qicore/StructureDefinition/qicore-organization"]},"identifier":[{"use":"temp","system":"urn:oid:2.16.840.1.113883.4.4","value":"21-3259825"}],"active":true,"type":[{"coding":[{"system":"http://terminology.hl7.org/CodeSystem/organization-type","code":"pay","display":"Payer"}]}],"name":"Blue Cross Blue Shield of Texas","telecom":[{"system":"phone","value":"(+1) 972-766-6900"}],"address":[{"use":"billing","type":"postal","line":["P.O. Box 660044"],"city":"Dallas","state":"TX","postalCode":"75266-0044","country":"USA"}]},"request":{"method":"PUT","url":"Organization/db141f66-a1cc-407b-9e95-adac27adee14"}},{"fullUrl":"https://madie.cms.gov/MeasureReport/de9e4122-7ace-4552-bc6a-81611aedd1be","resource":{"resourceType":"MeasureReport","id":"de9e4122-7ace-4552-bc6a-81611aedd1be","meta":{"profile":["http://hl7.org/fhir/us/cqfmeasures/StructureDefinition/test-case-cqfm"]},"contained":[{"resourceType":"Parameters","id":"639a1fe1-0f6c-43dc-ab21-0a45b69baa4b-parameters","parameter":[{"name":"subject","valueString":"6cf51e7c-99f4-4c6d-9b1c-6e371c96b742"}]}],"extension":[{"url":"http://hl7.org/fhir/us/cqfmeasures/StructureDefinition/cqfm-inputParameters","valueReference":{"reference":"#639a1fe1-0f6c-43dc-ab21-0a45b69baa4b-parameters"}},{"url":"http://hl7.org/fhir/us/cqfmeasures/StructureDefinition/cqfm-testCaseDescription","valueMarkdown":"Patient receives CMO before inpatient encounter. No ED. No Obs. Testing HospitalizationWithObservation Function.\n"}],"modifierExtension":[{"url":"http://hl7.org/fhir/us/cqfmeasures/StructureDefinition/cqfm-isTestCase","valueBoolean":true}],"status":"complete","type":"individual","measure":"https://madie.cms.gov/Measure/CMS104FHIRSTKDCAntithrombotic","period":{"start":"2026-01-01","end":"2026-12-31"},"group":[{"population":[{"code":{"coding":[{"system":"http://terminology.hl7.org/CodeSystem/measure-population","code":"initial-population","display":"Initial Population"}]},"count":1},{"code":{"coding":[{"system":"http://terminology.hl7.org/CodeSystem/measure-population","code":"denominator","display":"Denominator"}]},"count":1},{"code":{"coding":[{"system":"http://terminology.hl7.org/CodeSystem/measure-population","code":"denominator-exclusion","display":"Denominator Exclusion"}]},"count":0},{"code":{"coding":[{"system":"http://terminology.hl7.org/CodeSystem/measure-population","code":"numerator","display":"Numerator"}]},"count":0},{"code":{"coding":[{"system":"http://terminology.hl7.org/CodeSystem/measure-population","code":"denominator-exception","display":"Denominator Exception"}]},"count":0}]}]},"request":{"method":"PUT","url":"MeasureReport/de9e4122-7ace-4552-bc6a-81611aedd1be"}}]}