{"resourceType":"Bundle","id":"tests-48952352-d74c-491c-9420-6e999e60f52a-bundle","type":"transaction","entry":[{"fullUrl":"https://madie.cms.gov/Patient/48952352-d74c-491c-9420-6e999e60f52a","resource":{"resourceType":"Patient","id":"48952352-d74c-491c-9420-6e999e60f52a","meta":{"profile":["http://hl7.org/fhir/us/qicore/StructureDefinition/qicore-patient"]},"text":{"status":"generated","div":"<div xmlns=\"http://www.w3.org/1999/xhtml\"><div class=\"hapiHeaderText\">MedRsnDuringEncIpTestOccurr <b>DENEXCEPPASS </b></div><table class=\"hapiPropertyTable\"><tbody><tr><td>Identifier</td><td>8ca9552440b4ef3fc57cfe3ca8a6d18f77ae69125f1df01b31dc50e4d278f251</td></tr><tr><td>Date of birth</td><td><span>21 August 1994</span></td></tr></tbody></table></div>"},"extension":[{"url":"http://hl7.org/fhir/us/core/StructureDefinition/us-core-race","extension":[{"url":"ombCategory","valueCoding":{"system":"urn:oid:2.16.840.1.113883.6.238","code":"1002-5","display":"American Indian or Alaska Native","userSelected":true}},{"url":"text","valueString":"American Indian or Alaska Native"}]},{"url":"http://hl7.org/fhir/us/core/StructureDefinition/us-core-ethnicity","extension":[{"url":"ombCategory","valueCoding":{"system":"urn:oid:2.16.840.1.113883.6.238","code":"2135-2","display":"Hispanic or Latino","userSelected":true}},{"url":"text","valueString":"Hispanic or Latino"}]}],"identifier":[{"type":{"coding":[{"system":"http://terminology.hl7.org/CodeSystem/v2-0203","code":"MR"}]},"system":"https://bonnie-fhir.healthit.gov/","value":"6129135402c62a011f2e74a8"}],"active":true,"name":[{"use":"usual","family":"DENEXCEPPass","given":["MedRsnDuringEncIpTestOccurr"]}],"gender":"male","birthDate":"1995-08-21"},"request":{"method":"PUT","url":"Patient/48952352-d74c-491c-9420-6e999e60f52a"}},{"fullUrl":"https://madie.cms.gov/Encounter/42f9c997-133b-4cea-815f-41e85144de08","resource":{"resourceType":"Encounter","id":"42f9c997-133b-4cea-815f-41e85144de08","meta":{"profile":["http://hl7.org/fhir/us/qicore/StructureDefinition/qicore-encounter"]},"status":"finished","class":{"system":"http://terminology.hl7.org/CodeSystem/v3-ActCode","code":"IMP","display":"inpatient encounter","userSelected":true},"type":[{"coding":[{"system":"http://snomed.info/sct","code":"32485007"}]}],"subject":{"reference":"Patient/48952352-d74c-491c-9420-6e999e60f52a"},"period":{"start":"2026-10-10T09:30:00.000+00:00","end":"2026-10-12T10:30:00.000+00:00"},"length":{"value":2,"unit":"days"},"diagnosis":[{"condition":{"reference":"Condition/9cbe18ea-9993-46ef-8547-ebbe8c71b8cd"},"use":{"coding":[{"system":"http://terminology.hl7.org/CodeSystem/diagnosis-role","code":"billing","display":"Billing"}]},"rank":1}]},"request":{"method":"PUT","url":"Encounter/42f9c997-133b-4cea-815f-41e85144de08"}},{"fullUrl":"https://madie.cms.gov/Encounter/75f9d767-38d4-45ef-a5b1-f550cf8b07ae","resource":{"resourceType":"Encounter","id":"75f9d767-38d4-45ef-a5b1-f550cf8b07ae","meta":{"profile":["http://hl7.org/fhir/us/qicore/StructureDefinition/qicore-encounter"]},"status":"finished","class":{"system":"http://terminology.hl7.org/CodeSystem/v3-ActCode","code":"IMP","display":"inpatient encounter","userSelected":true},"type":[{"coding":[{"system":"http://snomed.info/sct","code":"183452005"}]}],"subject":{"reference":"Patient/48952352-d74c-491c-9420-6e999e60f52a"},"period":{"start":"2026-10-12T10:30:00.000+00:00","end":"2026-10-12T11:30:00.000+00:00"},"length":{"value":0,"unit":"days"}},"request":{"method":"PUT","url":"Encounter/75f9d767-38d4-45ef-a5b1-f550cf8b07ae"}},{"fullUrl":"https://madie.cms.gov/MedicationRequest/b65bffcf-aea4-465f-ad97-2b49a2e06a33","resource":{"resourceType":"MedicationRequest","id":"b65bffcf-aea4-465f-ad97-2b49a2e06a33","meta":{"profile":["http://hl7.org/fhir/us/qicore/StructureDefinition/qicore-mednotrequested"]},"status":"completed","intent":"order","category":[{"coding":[{"system":"http://terminology.hl7.org/CodeSystem/medicationrequest-category","code":"community"}]}],"doNotPerform":true,"medicationCodeableConcept":{"coding":[{"system":"http://www.nlm.nih.gov/research/umls/rxnorm","code":"1037045"}]},"subject":{"reference":"Patient/48952352-d74c-491c-9420-6e999e60f52a"},"authoredOn":"2026-10-12T09:30:00.000+00:00","requester":{"reference":"Practitioner/example"},"reasonCode":[{"coding":[{"system":"http://snomed.info/sct","code":"183932001","display":"Procedure contraindicated (situation)","userSelected":true}]}]},"request":{"method":"PUT","url":"MedicationRequest/b65bffcf-aea4-465f-ad97-2b49a2e06a33"}},{"fullUrl":"https://madie.cms.gov/Condition/ed225874-ea6f-4271-96d4-b02e024761f3","resource":{"resourceType":"Condition","id":"ed225874-ea6f-4271-96d4-b02e024761f3","meta":{"profile":["http://hl7.org/fhir/us/qicore/StructureDefinition/qicore-condition"]},"clinicalStatus":{"coding":[{"system":"http://terminology.hl7.org/CodeSystem/condition-clinical","code":"active"}]},"verificationStatus":{"coding":[{"system":"http://terminology.hl7.org/CodeSystem/condition-ver-status","code":"confirmed"}]},"category":[{"coding":[{"system":"http://terminology.hl7.org/CodeSystem/condition-category","code":"encounter-diagnosis","display":"Encounter Diagnosis"}]}],"code":{"coding":[{"system":"http://terminology.hl7.org/CodeSystem/medicationrequest-category","code":"discharge","display":"Discharge","userSelected":true}]},"subject":{"reference":"Patient/48952352-d74c-491c-9420-6e999e60f52a"},"recordedDate":"2026-07-14T08:00:00.000+00:00"},"request":{"method":"PUT","url":"Condition/ed225874-ea6f-4271-96d4-b02e024761f3"}},{"fullUrl":"https://madie.cms.gov/Condition/9cbe18ea-9993-46ef-8547-ebbe8c71b8cd","resource":{"resourceType":"Condition","id":"9cbe18ea-9993-46ef-8547-ebbe8c71b8cd","meta":{"profile":["http://hl7.org/fhir/us/qicore/StructureDefinition/qicore-condition"]},"clinicalStatus":{"coding":[{"system":"http://terminology.hl7.org/CodeSystem/condition-clinical","code":"active"}]},"verificationStatus":{"coding":[{"system":"http://terminology.hl7.org/CodeSystem/condition-ver-status","code":"confirmed"}]},"category":[{"coding":[{"system":"http://terminology.hl7.org/CodeSystem/condition-category","code":"encounter-diagnosis","display":"Encounter Diagnosis"}]}],"code":{"coding":[{"system":"http://snomed.info/sct","version":"2020-09","code":"111297002","display":"Nonparalytic stroke (disorder)","userSelected":true}]},"subject":{"reference":"Patient/48952352-d74c-491c-9420-6e999e60f52a"},"recordedDate":"2026-07-14T08:00:00.000+00:00"},"request":{"method":"PUT","url":"Condition/9cbe18ea-9993-46ef-8547-ebbe8c71b8cd"}},{"fullUrl":"https://madie.cms.gov/Coverage/98426b0b-15e7-4a63-8bcf-46dffa2d1681","resource":{"resourceType":"Coverage","id":"98426b0b-15e7-4a63-8bcf-46dffa2d1681","meta":{"profile":["http://hl7.org/fhir/us/qicore/StructureDefinition/qicore-coverage"]},"status":"active","beneficiary":{"reference":"Patient/48952352-d74c-491c-9420-6e999e60f52a"},"payor":[{"reference":"Organization/607fdef9-3983-4cef-ab1a-95434d29b463"}]},"request":{"method":"PUT","url":"Coverage/98426b0b-15e7-4a63-8bcf-46dffa2d1681"}},{"fullUrl":"https://madie.cms.gov/Organization/25c242e1-0cf9-4497-8136-912a221c086a","resource":{"resourceType":"Organization","id":"607fdef9-3983-4cef-ab1a-95434d29b463","meta":{"profile":["http://hl7.org/fhir/us/qicore/StructureDefinition/qicore-organization"]},"identifier":[{"use":"temp","system":"urn:oid:2.16.840.1.113883.4.4","value":"21-3259825"}],"active":true,"type":[{"coding":[{"system":"http://terminology.hl7.org/CodeSystem/organization-type","code":"pay","display":"Payer"}]}],"name":"Blue Cross Blue Shield of Texas","telecom":[{"system":"phone","value":"(+1) 972-766-6900"}],"address":[{"use":"billing","type":"postal","line":["P.O. Box 660044"],"city":"Dallas","state":"TX","postalCode":"75266-0044","country":"USA"}]},"request":{"method":"PUT","url":"Organization/607fdef9-3983-4cef-ab1a-95434d29b463"}},{"fullUrl":"https://madie.cms.gov/MeasureReport/0790186c-fc02-4cb7-9ec9-4f0e64cd6ef0","resource":{"resourceType":"MeasureReport","id":"0790186c-fc02-4cb7-9ec9-4f0e64cd6ef0","meta":{"profile":["http://hl7.org/fhir/us/cqfmeasures/StructureDefinition/test-case-cqfm"]},"contained":[{"resourceType":"Parameters","id":"3c2ab173-b337-4a37-acc9-2366396d37ff-parameters","parameter":[{"name":"subject","valueString":"48952352-d74c-491c-9420-6e999e60f52a"}]}],"extension":[{"url":"http://hl7.org/fhir/us/cqfmeasures/StructureDefinition/cqfm-inputParameters","valueReference":{"reference":"#3c2ab173-b337-4a37-acc9-2366396d37ff-parameters"}},{"url":"http://hl7.org/fhir/us/cqfmeasures/StructureDefinition/cqfm-testCaseDescription","valueMarkdown":"Patient does not get antithrombotic medication due to medical reasons after IP encounter. Testing multiple IP encounters."}],"modifierExtension":[{"url":"http://hl7.org/fhir/us/cqfmeasures/StructureDefinition/cqfm-isTestCase","valueBoolean":true}],"status":"complete","type":"individual","measure":"https://madie.cms.gov/Measure/CMS104FHIRSTKDCAntithrombotic","period":{"start":"2026-01-01","end":"2026-12-31"},"group":[{"population":[{"code":{"coding":[{"system":"http://terminology.hl7.org/CodeSystem/measure-population","code":"initial-population","display":"Initial Population"}]},"count":1},{"code":{"coding":[{"system":"http://terminology.hl7.org/CodeSystem/measure-population","code":"denominator","display":"Denominator"}]},"count":1},{"code":{"coding":[{"system":"http://terminology.hl7.org/CodeSystem/measure-population","code":"denominator-exclusion","display":"Denominator Exclusion"}]},"count":0},{"code":{"coding":[{"system":"http://terminology.hl7.org/CodeSystem/measure-population","code":"numerator","display":"Numerator"}]},"count":0},{"code":{"coding":[{"system":"http://terminology.hl7.org/CodeSystem/measure-population","code":"denominator-exception","display":"Denominator Exception"}]},"count":1}]}]},"request":{"method":"PUT","url":"MeasureReport/0790186c-fc02-4cb7-9ec9-4f0e64cd6ef0"}}]}