{"resourceType":"Bundle","id":"tests-999617b0-b41a-4a82-910d-f707ce1d7779-bundle","type":"transaction","entry":[{"fullUrl":"https://madie.cms.gov/Patient/999617b0-b41a-4a82-910d-f707ce1d7779","resource":{"resourceType":"Patient","id":"999617b0-b41a-4a82-910d-f707ce1d7779","meta":{"profile":["http://hl7.org/fhir/us/qicore/StructureDefinition/qicore-patient"]},"text":{"status":"generated","div":"<div xmlns=\"http://www.w3.org/1999/xhtml\"><div class=\"hapiHeaderText\">CMOdurEnc_NoEDNoObsBFEnc_RelePer <b>DENEXPASS </b></div><table class=\"hapiPropertyTable\"><tbody><tr><td>Identifier</td><td>270a4a50c739a1f77aad325117fa9566</td></tr><tr><td>Date of birth</td><td><span>21 August 1994</span></td></tr></tbody></table></div>"},"extension":[{"url":"http://hl7.org/fhir/us/core/StructureDefinition/us-core-race","extension":[{"url":"ombCategory","valueCoding":{"system":"urn:oid:2.16.840.1.113883.6.238","code":"1002-5","display":"American Indian or Alaska Native","userSelected":true}},{"url":"text","valueString":"American Indian or Alaska Native"}]},{"url":"http://hl7.org/fhir/us/core/StructureDefinition/us-core-ethnicity","extension":[{"url":"ombCategory","valueCoding":{"system":"urn:oid:2.16.840.1.113883.6.238","code":"2135-2","display":"Hispanic or Latino","userSelected":true}},{"url":"text","valueString":"Hispanic or Latino"}]}],"identifier":[{"type":{"coding":[{"system":"http://terminology.hl7.org/CodeSystem/v2-0203","code":"MR"}]},"system":"https://bonnie-fhir.healthit.gov/","value":"6129131c02c62a011f2e5ce4"}],"active":true,"name":[{"use":"usual","family":"DENEXPass","given":["CMOdurEnc_NoEDNoObsBFEnc_RelePer"]}],"gender":"male","birthDate":"1995-08-21"},"request":{"method":"PUT","url":"Patient/999617b0-b41a-4a82-910d-f707ce1d7779"}},{"fullUrl":"https://madie.cms.gov/Encounter/b9052177-e905-4813-a68a-95fdf0ec373b","resource":{"resourceType":"Encounter","id":"b9052177-e905-4813-a68a-95fdf0ec373b","meta":{"profile":["http://hl7.org/fhir/us/qicore/StructureDefinition/qicore-encounter"]},"status":"finished","class":{"system":"http://terminology.hl7.org/CodeSystem/v3-ActCode","code":"IMP","display":"inpatient encounter","userSelected":true},"type":[{"coding":[{"system":"http://snomed.info/sct","code":"32485007"}]}],"subject":{"reference":"Patient/999617b0-b41a-4a82-910d-f707ce1d7779"},"period":{"start":"2026-10-10T10:30:00.000+00:00","end":"2026-10-12T11:30:00.000+00:00"},"length":{"value":2,"unit":"days"},"diagnosis":[{"condition":{"reference":"Condition/d3e242f6-a2ce-4729-82c9-ab5055727460"},"use":{"coding":[{"system":"http://terminology.hl7.org/CodeSystem/diagnosis-role","code":"billing","display":"Billing"}]},"rank":1}]},"request":{"method":"PUT","url":"Encounter/b9052177-e905-4813-a68a-95fdf0ec373b"}},{"fullUrl":"https://madie.cms.gov/Procedure/e7be0a87-615a-4f44-9951-10d112e5724a","resource":{"resourceType":"Procedure","id":"e7be0a87-615a-4f44-9951-10d112e5724a","meta":{"profile":["http://hl7.org/fhir/us/qicore/StructureDefinition/qicore-procedure"]},"extension":[{"url":"http://hl7.org/fhir/us/qicore/StructureDefinition/qicore-recorded","valueDateTime":"2014-04-05T09:35:00-04:00"}],"status":"completed","code":{"coding":[{"system":"http://snomed.info/sct","code":"133918004"}]},"subject":{"reference":"Patient/999617b0-b41a-4a82-910d-f707ce1d7779"},"performedDateTime":"2026-10-10T10:30:00.000+00:00"},"request":{"method":"PUT","url":"Procedure/e7be0a87-615a-4f44-9951-10d112e5724a"}},{"fullUrl":"https://madie.cms.gov/Condition/d3e242f6-a2ce-4729-82c9-ab5055727460","resource":{"resourceType":"Condition","id":"d3e242f6-a2ce-4729-82c9-ab5055727460","meta":{"profile":["http://hl7.org/fhir/us/qicore/StructureDefinition/qicore-condition"]},"clinicalStatus":{"coding":[{"system":"http://terminology.hl7.org/CodeSystem/condition-clinical","code":"active"}]},"verificationStatus":{"coding":[{"system":"http://terminology.hl7.org/CodeSystem/condition-ver-status","code":"confirmed"}]},"category":[{"coding":[{"system":"http://terminology.hl7.org/CodeSystem/condition-category","code":"encounter-diagnosis","display":"Encounter Diagnosis"}]}],"code":{"coding":[{"system":"http://snomed.info/sct","version":"2020-09","code":"111297002","display":"Nonparalytic stroke (disorder)","userSelected":true}]},"subject":{"reference":"Patient/999617b0-b41a-4a82-910d-f707ce1d7779"},"recordedDate":"2026-07-14T08:00:00.000+00:00"},"request":{"method":"PUT","url":"Condition/d3e242f6-a2ce-4729-82c9-ab5055727460"}},{"fullUrl":"https://madie.cms.gov/Coverage/7fb1ebac-5f8d-44c0-b8c8-e6606c472537","resource":{"resourceType":"Coverage","id":"7fb1ebac-5f8d-44c0-b8c8-e6606c472537","meta":{"profile":["http://hl7.org/fhir/us/qicore/StructureDefinition/qicore-coverage"]},"status":"active","beneficiary":{"reference":"Patient/999617b0-b41a-4a82-910d-f707ce1d7779"},"payor":[{"reference":"Organization/607fdef9-3983-4cef-ab1a-95434d29b463"}]},"request":{"method":"PUT","url":"Coverage/7fb1ebac-5f8d-44c0-b8c8-e6606c472537"}},{"fullUrl":"https://madie.cms.gov/Organization/12cb19e9-f677-4e0e-a197-21f70bddf4f1","resource":{"resourceType":"Organization","id":"607fdef9-3983-4cef-ab1a-95434d29b463","meta":{"profile":["http://hl7.org/fhir/us/qicore/StructureDefinition/qicore-organization"]},"identifier":[{"use":"temp","system":"urn:oid:2.16.840.1.113883.4.4","value":"21-3259825"}],"active":true,"type":[{"coding":[{"system":"http://terminology.hl7.org/CodeSystem/organization-type","code":"pay","display":"Payer"}]}],"name":"Blue Cross Blue Shield of Texas","telecom":[{"system":"phone","value":"(+1) 972-766-6900"}],"address":[{"use":"billing","type":"postal","line":["P.O. Box 660044"],"city":"Dallas","state":"TX","postalCode":"75266-0044","country":"USA"}]},"request":{"method":"PUT","url":"Organization/607fdef9-3983-4cef-ab1a-95434d29b463"}},{"fullUrl":"https://madie.cms.gov/MeasureReport/dce8307a-c22b-42ff-a73b-14b5996f72ff","resource":{"resourceType":"MeasureReport","id":"dce8307a-c22b-42ff-a73b-14b5996f72ff","meta":{"profile":["http://hl7.org/fhir/us/cqfmeasures/StructureDefinition/test-case-cqfm"]},"contained":[{"resourceType":"Parameters","id":"0ee65f7d-6cfd-40ec-9d12-9af65ab89cd2-parameters","parameter":[{"name":"subject","valueString":"999617b0-b41a-4a82-910d-f707ce1d7779"}]}],"extension":[{"url":"http://hl7.org/fhir/us/cqfmeasures/StructureDefinition/cqfm-inputParameters","valueReference":{"reference":"#0ee65f7d-6cfd-40ec-9d12-9af65ab89cd2-parameters"}},{"url":"http://hl7.org/fhir/us/cqfmeasures/StructureDefinition/cqfm-testCaseDescription","valueMarkdown":"Patient receives CMO during inpatient encounter. No ED. No Observation. Testing day of operator with ospitalizationWithObservation function.\n"}],"modifierExtension":[{"url":"http://hl7.org/fhir/us/cqfmeasures/StructureDefinition/cqfm-isTestCase","valueBoolean":true}],"status":"complete","type":"individual","measure":"https://madie.cms.gov/Measure/CMS104FHIRSTKDCAntithrombotic","period":{"start":"2026-01-01","end":"2026-12-31"},"group":[{"population":[{"code":{"coding":[{"system":"http://terminology.hl7.org/CodeSystem/measure-population","code":"initial-population","display":"Initial Population"}]},"count":1},{"code":{"coding":[{"system":"http://terminology.hl7.org/CodeSystem/measure-population","code":"denominator","display":"Denominator"}]},"count":1},{"code":{"coding":[{"system":"http://terminology.hl7.org/CodeSystem/measure-population","code":"denominator-exclusion","display":"Denominator Exclusion"}]},"count":1},{"code":{"coding":[{"system":"http://terminology.hl7.org/CodeSystem/measure-population","code":"numerator","display":"Numerator"}]},"count":0},{"code":{"coding":[{"system":"http://terminology.hl7.org/CodeSystem/measure-population","code":"denominator-exception","display":"Denominator Exception"}]},"count":0}]}]},"request":{"method":"PUT","url":"MeasureReport/dce8307a-c22b-42ff-a73b-14b5996f72ff"}}]}