{"resourceType":"Bundle","id":"tests-7c3ee345-c9da-4ce2-97e8-727de2e5023a-bundle","type":"transaction","entry":[{"fullUrl":"https://madie.cms.gov/Patient/7c3ee345-c9da-4ce2-97e8-727de2e5023a","resource":{"resourceType":"Patient","id":"7c3ee345-c9da-4ce2-97e8-727de2e5023a","meta":{"profile":["http://hl7.org/fhir/us/qicore/StructureDefinition/qicore-patient"]},"text":{"status":"generated","div":"<div xmlns=\"http://www.w3.org/1999/xhtml\"><div class=\"hapiHeaderText\">CMOdurED_ED=1hrObs=1hrBFEnc <b>DENEXPASS </b></div><table class=\"hapiPropertyTable\"><tbody><tr><td>Identifier</td><td>2af1bfa71528978fd91ee5e826bec671ef1ea1688c1d7786aa6df361c02306ba</td></tr><tr><td>Date of birth</td><td><span>21 August 1994</span></td></tr></tbody></table></div>"},"extension":[{"url":"http://hl7.org/fhir/us/core/StructureDefinition/us-core-race","extension":[{"url":"ombCategory","valueCoding":{"system":"urn:oid:2.16.840.1.113883.6.238","code":"1002-5","display":"American Indian or Alaska Native","userSelected":true}},{"url":"text","valueString":"American Indian or Alaska Native"}]},{"url":"http://hl7.org/fhir/us/core/StructureDefinition/us-core-ethnicity","extension":[{"url":"ombCategory","valueCoding":{"system":"urn:oid:2.16.840.1.113883.6.238","code":"2135-2","display":"Hispanic or Latino","userSelected":true}},{"url":"text","valueString":"Hispanic or Latino"}]}],"identifier":[{"type":{"coding":[{"system":"http://terminology.hl7.org/CodeSystem/v2-0203","code":"MR"}]},"system":"https://bonnie-fhir.healthit.gov/","value":"6129134e02c62a011f2e71b4"}],"active":true,"name":[{"use":"usual","family":"DENEXPass","given":["CMOdurED_ED=1hrObs=1hrBFEnc"]}],"gender":"male","birthDate":"1995-08-21"},"request":{"method":"PUT","url":"Patient/7c3ee345-c9da-4ce2-97e8-727de2e5023a"}},{"fullUrl":"https://madie.cms.gov/Encounter/179edf4d-5ce1-4170-a0ab-5bf9d1cb9cce","resource":{"resourceType":"Encounter","id":"179edf4d-5ce1-4170-a0ab-5bf9d1cb9cce","meta":{"profile":["http://hl7.org/fhir/us/qicore/StructureDefinition/qicore-encounter"]},"status":"finished","class":{"system":"http://terminology.hl7.org/CodeSystem/v3-ActCode","code":"EMER","display":"emergency","userSelected":true},"type":[{"coding":[{"system":"http://snomed.info/sct","code":"4525004"}]}],"subject":{"reference":"Patient/7c3ee345-c9da-4ce2-97e8-727de2e5023a"},"period":{"start":"2026-10-10T09:30:00.000+00:00","end":"2026-10-10T10:30:00.000+00:00"},"length":{"value":0,"unit":"days"}},"request":{"method":"PUT","url":"Encounter/179edf4d-5ce1-4170-a0ab-5bf9d1cb9cce"}},{"fullUrl":"https://madie.cms.gov/Encounter/33887f88-00f4-4041-b7a9-c1d795d23e21","resource":{"resourceType":"Encounter","id":"33887f88-00f4-4041-b7a9-c1d795d23e21","meta":{"profile":["http://hl7.org/fhir/us/qicore/StructureDefinition/qicore-encounter"]},"status":"finished","class":{"system":"http://terminology.hl7.org/CodeSystem/v3-ActCode","code":"OBSENC","display":"observation encounter","userSelected":true},"type":[{"coding":[{"system":"http://snomed.info/sct","code":"448851000124103"}]}],"subject":{"reference":"Patient/7c3ee345-c9da-4ce2-97e8-727de2e5023a"},"period":{"start":"2026-10-10T10:30:00.000+00:00","end":"2026-10-10T10:35:00.000+00:00"},"length":{"value":0,"unit":"days"}},"request":{"method":"PUT","url":"Encounter/33887f88-00f4-4041-b7a9-c1d795d23e21"}},{"fullUrl":"https://madie.cms.gov/Encounter/50e21bba-a8b9-4bdc-b8e1-f86d96c407e8","resource":{"resourceType":"Encounter","id":"50e21bba-a8b9-4bdc-b8e1-f86d96c407e8","meta":{"profile":["http://hl7.org/fhir/us/qicore/StructureDefinition/qicore-encounter"]},"status":"finished","class":{"system":"http://terminology.hl7.org/CodeSystem/v3-ActCode","code":"IMP","display":"inpatient encounter","userSelected":true},"type":[{"coding":[{"system":"http://snomed.info/sct","code":"32485007"}]}],"subject":{"reference":"Patient/7c3ee345-c9da-4ce2-97e8-727de2e5023a"},"period":{"start":"2026-10-10T10:35:00.000+00:00","end":"2026-10-12T11:30:00.000+00:00"},"length":{"value":2,"unit":"days"},"diagnosis":[{"condition":{"reference":"Condition/56bd2df9-f094-4bcc-a17b-6150c3fabe87"},"use":{"coding":[{"system":"http://terminology.hl7.org/CodeSystem/diagnosis-role","code":"billing","display":"Billing"}]},"rank":1}]},"request":{"method":"PUT","url":"Encounter/50e21bba-a8b9-4bdc-b8e1-f86d96c407e8"}},{"fullUrl":"https://madie.cms.gov/ServiceRequest/ae507a72-bac5-4fee-a348-59abb5f3db38","resource":{"resourceType":"ServiceRequest","id":"ae507a72-bac5-4fee-a348-59abb5f3db38","meta":{"profile":["http://hl7.org/fhir/us/qicore/StructureDefinition/qicore-servicerequest"]},"status":"active","intent":"order","code":{"coding":[{"system":"http://snomed.info/sct","code":"133918004"}]},"subject":{"reference":"Patient/7c3ee345-c9da-4ce2-97e8-727de2e5023a"},"authoredOn":"2026-10-10T09:30:00.000+00:00"},"request":{"method":"PUT","url":"ServiceRequest/ae507a72-bac5-4fee-a348-59abb5f3db38"}},{"fullUrl":"https://madie.cms.gov/Condition/56bd2df9-f094-4bcc-a17b-6150c3fabe87","resource":{"resourceType":"Condition","id":"56bd2df9-f094-4bcc-a17b-6150c3fabe87","meta":{"profile":["http://hl7.org/fhir/us/qicore/StructureDefinition/qicore-condition"]},"clinicalStatus":{"coding":[{"system":"http://terminology.hl7.org/CodeSystem/condition-clinical","code":"active"}]},"verificationStatus":{"coding":[{"system":"http://terminology.hl7.org/CodeSystem/condition-ver-status","code":"confirmed"}]},"category":[{"coding":[{"system":"http://terminology.hl7.org/CodeSystem/condition-category","code":"encounter-diagnosis","display":"Encounter Diagnosis"}]}],"code":{"coding":[{"system":"http://snomed.info/sct","version":"2020-09","code":"111297002","display":"Nonparalytic stroke (disorder)","userSelected":true}]},"subject":{"reference":"Patient/7c3ee345-c9da-4ce2-97e8-727de2e5023a"},"recordedDate":"2026-07-14T08:00:00.000+00:00"},"request":{"method":"PUT","url":"Condition/56bd2df9-f094-4bcc-a17b-6150c3fabe87"}},{"fullUrl":"https://madie.cms.gov/Coverage/d5c73f98-775a-41b1-9dcc-6dc9afc0ca40","resource":{"resourceType":"Coverage","id":"d5c73f98-775a-41b1-9dcc-6dc9afc0ca40","meta":{"profile":["http://hl7.org/fhir/us/qicore/StructureDefinition/qicore-coverage"]},"status":"active","beneficiary":{"reference":"Patient/7c3ee345-c9da-4ce2-97e8-727de2e5023a"},"payor":[{"reference":"Organization/607fdef9-3983-4cef-ab1a-95434d29b463"}]},"request":{"method":"PUT","url":"Coverage/d5c73f98-775a-41b1-9dcc-6dc9afc0ca40"}},{"fullUrl":"https://madie.cms.gov/Organization/db4e6af6-bec9-4a14-abc0-668201750f4d","resource":{"resourceType":"Organization","id":"607fdef9-3983-4cef-ab1a-95434d29b463","meta":{"profile":["http://hl7.org/fhir/us/qicore/StructureDefinition/qicore-organization"]},"identifier":[{"use":"temp","system":"urn:oid:2.16.840.1.113883.4.4","value":"21-3259825"}],"active":true,"type":[{"coding":[{"system":"http://terminology.hl7.org/CodeSystem/organization-type","code":"pay","display":"Payer"}]}],"name":"Blue Cross Blue Shield of Texas","telecom":[{"system":"phone","value":"(+1) 972-766-6900"}],"address":[{"use":"billing","type":"postal","line":["P.O. Box 660044"],"city":"Dallas","state":"TX","postalCode":"75266-0044","country":"USA"}]},"request":{"method":"PUT","url":"Organization/607fdef9-3983-4cef-ab1a-95434d29b463"}},{"fullUrl":"https://madie.cms.gov/MeasureReport/26fa840a-f1d4-4ea4-bab5-2853cf850461","resource":{"resourceType":"MeasureReport","id":"26fa840a-f1d4-4ea4-bab5-2853cf850461","meta":{"profile":["http://hl7.org/fhir/us/cqfmeasures/StructureDefinition/test-case-cqfm"]},"contained":[{"resourceType":"Parameters","id":"c9cf9a7a-770d-42c1-a7e1-2bb616e3f6b6-parameters","parameter":[{"name":"subject","valueString":"7c3ee345-c9da-4ce2-97e8-727de2e5023a"}]}],"extension":[{"url":"http://hl7.org/fhir/us/cqfmeasures/StructureDefinition/cqfm-inputParameters","valueReference":{"reference":"#c9cf9a7a-770d-42c1-a7e1-2bb616e3f6b6-parameters"}},{"url":"http://hl7.org/fhir/us/cqfmeasures/StructureDefinition/cqfm-testCaseDescription","valueMarkdown":"Patient receives CMO during ED. ED ends 60 minute before Observation. Obs ends 60 min before IP start. Testing day of operator with HospitalizationWithObservation function."}],"modifierExtension":[{"url":"http://hl7.org/fhir/us/cqfmeasures/StructureDefinition/cqfm-isTestCase","valueBoolean":true}],"status":"complete","type":"individual","measure":"https://madie.cms.gov/Measure/CMS104FHIRSTKDCAntithrombotic","period":{"start":"2026-01-01","end":"2026-12-31"},"group":[{"population":[{"code":{"coding":[{"system":"http://terminology.hl7.org/CodeSystem/measure-population","code":"initial-population","display":"Initial Population"}]},"count":1},{"code":{"coding":[{"system":"http://terminology.hl7.org/CodeSystem/measure-population","code":"denominator","display":"Denominator"}]},"count":1},{"code":{"coding":[{"system":"http://terminology.hl7.org/CodeSystem/measure-population","code":"denominator-exclusion","display":"Denominator Exclusion"}]},"count":1},{"code":{"coding":[{"system":"http://terminology.hl7.org/CodeSystem/measure-population","code":"numerator","display":"Numerator"}]},"count":0},{"code":{"coding":[{"system":"http://terminology.hl7.org/CodeSystem/measure-population","code":"denominator-exception","display":"Denominator Exception"}]},"count":0}]}]},"request":{"method":"PUT","url":"MeasureReport/26fa840a-f1d4-4ea4-bab5-2853cf850461"}}]}