{"resourceType":"Bundle","id":"tests-2d54a94c-edf1-4f92-baf8-3813a8ef452d-bundle","type":"transaction","entry":[{"fullUrl":"https://madie.cms.gov/Patient/2d54a94c-edf1-4f92-baf8-3813a8ef452d","resource":{"resourceType":"Patient","id":"2d54a94c-edf1-4f92-baf8-3813a8ef452d","meta":{"profile":["http://hl7.org/fhir/us/qicore/StructureDefinition/qicore-patient"]},"text":{"status":"generated","div":"<div xmlns=\"http://www.w3.org/1999/xhtml\"><div class=\"hapiHeaderText\">PatRefDuringEncIp <b>DENEXCEPPASS </b></div><table class=\"hapiPropertyTable\"><tbody><tr><td>Identifier</td><td>f27996c6545ea958dc5266f6c01bdf6c</td></tr><tr><td>Date of birth</td><td><span>21 August 1994</span></td></tr></tbody></table></div>"},"extension":[{"url":"http://hl7.org/fhir/us/core/StructureDefinition/us-core-race","extension":[{"url":"ombCategory","valueCoding":{"system":"urn:oid:2.16.840.1.113883.6.238","code":"1002-5","display":"American Indian or Alaska Native","userSelected":true}},{"url":"text","valueString":"American Indian or Alaska Native"}]},{"url":"http://hl7.org/fhir/us/core/StructureDefinition/us-core-ethnicity","extension":[{"url":"ombCategory","valueCoding":{"system":"urn:oid:2.16.840.1.113883.6.238","code":"2135-2","display":"Hispanic or Latino","userSelected":true}},{"url":"text","valueString":"Hispanic or Latino"}]}],"identifier":[{"type":{"coding":[{"system":"http://terminology.hl7.org/CodeSystem/v2-0203","code":"MR"}]},"system":"https://bonnie-fhir.healthit.gov/","value":"6129134402c62a011f2e6c9e"}],"active":true,"name":[{"use":"usual","family":"DENEXCEPPass","given":["PatRefDuringEncIp"]}],"gender":"male","birthDate":"1995-08-21"},"request":{"method":"PUT","url":"Patient/2d54a94c-edf1-4f92-baf8-3813a8ef452d"}},{"fullUrl":"https://madie.cms.gov/Encounter/f6c35bfa-5bce-422e-8cc9-35a323b0fa0a","resource":{"resourceType":"Encounter","id":"f6c35bfa-5bce-422e-8cc9-35a323b0fa0a","meta":{"profile":["http://hl7.org/fhir/us/qicore/StructureDefinition/qicore-encounter"]},"status":"finished","class":{"system":"http://terminology.hl7.org/CodeSystem/v3-ActCode","code":"IMP","display":"inpatient encounter","userSelected":true},"type":[{"coding":[{"system":"http://snomed.info/sct","code":"32485007"}]}],"subject":{"reference":"Patient/2d54a94c-edf1-4f92-baf8-3813a8ef452d"},"period":{"start":"2026-10-10T09:30:00.000+00:00","end":"2026-10-12T10:30:00.000+00:00"},"length":{"value":2,"unit":"days"},"diagnosis":[{"condition":{"reference":"Condition/347db263-d7ca-4e02-bb3e-6fbd5abbc371"},"use":{"coding":[{"system":"http://terminology.hl7.org/CodeSystem/diagnosis-role","code":"billing","display":"Billing"}]},"rank":1}]},"request":{"method":"PUT","url":"Encounter/f6c35bfa-5bce-422e-8cc9-35a323b0fa0a"}},{"fullUrl":"https://madie.cms.gov/MedicationRequest/d9c95b01-c371-4eec-a7eb-3859f22e7d56","resource":{"resourceType":"MedicationRequest","id":"d9c95b01-c371-4eec-a7eb-3859f22e7d56","meta":{"profile":["http://hl7.org/fhir/us/qicore/StructureDefinition/qicore-mednotrequested"]},"status":"completed","intent":"order","category":[{"coding":[{"system":"http://terminology.hl7.org/CodeSystem/medicationrequest-category","code":"community"}]}],"doNotPerform":true,"medicationCodeableConcept":{"coding":[{"system":"http://www.nlm.nih.gov/research/umls/rxnorm","code":"1037045"}]},"subject":{"reference":"Patient/2d54a94c-edf1-4f92-baf8-3813a8ef452d"},"authoredOn":"2026-10-12T09:30:00.000+00:00","requester":{"reference":"Practitioner/example"},"reasonCode":[{"coding":[{"system":"http://snomed.info/sct","code":"443390004","display":"Refused"}]}]},"request":{"method":"PUT","url":"MedicationRequest/d9c95b01-c371-4eec-a7eb-3859f22e7d56"}},{"fullUrl":"https://madie.cms.gov/Condition/347db263-d7ca-4e02-bb3e-6fbd5abbc371","resource":{"resourceType":"Condition","id":"347db263-d7ca-4e02-bb3e-6fbd5abbc371","meta":{"profile":["http://hl7.org/fhir/us/qicore/StructureDefinition/qicore-condition"]},"clinicalStatus":{"coding":[{"system":"http://terminology.hl7.org/CodeSystem/condition-clinical","code":"active"}]},"verificationStatus":{"coding":[{"system":"http://terminology.hl7.org/CodeSystem/condition-ver-status","code":"confirmed"}]},"category":[{"coding":[{"system":"http://terminology.hl7.org/CodeSystem/condition-category","code":"encounter-diagnosis","display":"Encounter Diagnosis"}]}],"code":{"coding":[{"system":"http://snomed.info/sct","version":"2020-09","code":"111297002","display":"Nonparalytic stroke (disorder)","userSelected":true}]},"subject":{"reference":"Patient/2d54a94c-edf1-4f92-baf8-3813a8ef452d"},"recordedDate":"2026-07-14T08:00:00.000+00:00"},"request":{"method":"PUT","url":"Condition/347db263-d7ca-4e02-bb3e-6fbd5abbc371"}},{"fullUrl":"https://madie.cms.gov/Coverage/7836ec12-f0dc-4096-9a75-c50e99dd9d5c","resource":{"resourceType":"Coverage","id":"7836ec12-f0dc-4096-9a75-c50e99dd9d5c","meta":{"profile":["http://hl7.org/fhir/us/qicore/StructureDefinition/qicore-coverage"]},"status":"active","beneficiary":{"reference":"Patient/2d54a94c-edf1-4f92-baf8-3813a8ef452d"},"payor":[{"reference":"Organization/5ad6ea38-07e9-4482-9e1b-c09eee595be9"}]},"request":{"method":"PUT","url":"Coverage/7836ec12-f0dc-4096-9a75-c50e99dd9d5c"}},{"fullUrl":"https://madie.cms.gov/Organization/14b21f91-ea95-4570-b65f-bfef66f64925","resource":{"resourceType":"Organization","id":"5ad6ea38-07e9-4482-9e1b-c09eee595be9","meta":{"profile":["http://hl7.org/fhir/us/qicore/StructureDefinition/qicore-organization"]},"identifier":[{"use":"temp","system":"urn:oid:2.16.840.1.113883.4.4","value":"21-3259825"}],"active":true,"type":[{"coding":[{"system":"http://terminology.hl7.org/CodeSystem/organization-type","code":"pay","display":"Payer"}]}],"name":"Blue Cross Blue Shield of Texas","telecom":[{"system":"phone","value":"(+1) 972-766-6900"}],"address":[{"use":"billing","type":"postal","line":["P.O. Box 660044"],"city":"Dallas","state":"TX","postalCode":"75266-0044","country":"USA"}]},"request":{"method":"PUT","url":"Organization/5ad6ea38-07e9-4482-9e1b-c09eee595be9"}},{"fullUrl":"https://madie.cms.gov/MeasureReport/2fb3d64e-9ca6-466b-92d5-5817c30794cd","resource":{"resourceType":"MeasureReport","id":"2fb3d64e-9ca6-466b-92d5-5817c30794cd","meta":{"profile":["http://hl7.org/fhir/us/cqfmeasures/StructureDefinition/test-case-cqfm"]},"contained":[{"resourceType":"Parameters","id":"785b20d4-c88a-4970-8001-ef8172b40dab-parameters","parameter":[{"name":"subject","valueString":"2d54a94c-edf1-4f92-baf8-3813a8ef452d"}]}],"extension":[{"url":"http://hl7.org/fhir/us/cqfmeasures/StructureDefinition/cqfm-inputParameters","valueReference":{"reference":"#785b20d4-c88a-4970-8001-ef8172b40dab-parameters"}},{"url":"http://hl7.org/fhir/us/cqfmeasures/StructureDefinition/cqfm-testCaseDescription","valueMarkdown":"PatRefDuringEncIp\n"}],"modifierExtension":[{"url":"http://hl7.org/fhir/us/cqfmeasures/StructureDefinition/cqfm-isTestCase","valueBoolean":true}],"status":"complete","type":"individual","measure":"https://madie.cms.gov/Measure/CMS104FHIRSTKDCAntithrombotic","period":{"start":"2026-01-01","end":"2026-12-31"},"group":[{"population":[{"code":{"coding":[{"system":"http://terminology.hl7.org/CodeSystem/measure-population","code":"initial-population","display":"Initial Population"}]},"count":1},{"code":{"coding":[{"system":"http://terminology.hl7.org/CodeSystem/measure-population","code":"denominator","display":"Denominator"}]},"count":1},{"code":{"coding":[{"system":"http://terminology.hl7.org/CodeSystem/measure-population","code":"denominator-exclusion","display":"Denominator Exclusion"}]},"count":0},{"code":{"coding":[{"system":"http://terminology.hl7.org/CodeSystem/measure-population","code":"numerator","display":"Numerator"}]},"count":0},{"code":{"coding":[{"system":"http://terminology.hl7.org/CodeSystem/measure-population","code":"denominator-exception","display":"Denominator Exception"}]},"count":1}]}]},"request":{"method":"PUT","url":"MeasureReport/2fb3d64e-9ca6-466b-92d5-5817c30794cd"}}]}