{"resourceType":"Bundle","id":"tests-eb5173bb-769a-4c95-b0e9-362a271f72ea-bundle","type":"transaction","entry":[{"fullUrl":"https://madie.cms.gov/Patient/eb5173bb-769a-4c95-b0e9-362a271f72ea","resource":{"resourceType":"Patient","id":"eb5173bb-769a-4c95-b0e9-362a271f72ea","meta":{"profile":["http://hl7.org/fhir/us/qicore/StructureDefinition/qicore-patient"]},"text":{"status":"generated","div":"<div xmlns=\"http://www.w3.org/1999/xhtml\"><div class=\"hapiHeaderText\">CMOdurObs_NoEDObs&lt;1hrBFEnc <b>DENEXPASS </b></div><table class=\"hapiPropertyTable\"><tbody><tr><td>Identifier</td><td>5a7e040e256dded60537a54bf9421da8</td></tr><tr><td>Date of birth</td><td><span>21 August 1994</span></td></tr></tbody></table></div>"},"extension":[{"url":"http://hl7.org/fhir/us/core/StructureDefinition/us-core-race","extension":[{"url":"ombCategory","valueCoding":{"system":"urn:oid:2.16.840.1.113883.6.238","code":"1002-5","display":"American Indian or Alaska Native","userSelected":true}},{"url":"text","valueString":"American Indian or Alaska Native"}]},{"url":"http://hl7.org/fhir/us/core/StructureDefinition/us-core-ethnicity","extension":[{"url":"ombCategory","valueCoding":{"system":"urn:oid:2.16.840.1.113883.6.238","code":"2135-2","display":"Hispanic or Latino","userSelected":true}},{"url":"text","valueString":"Hispanic or Latino"}]}],"identifier":[{"type":{"coding":[{"system":"http://terminology.hl7.org/CodeSystem/v2-0203","code":"MR"}]},"system":"https://bonnie-fhir.healthit.gov/","value":"6129133a02c62a011f2e6844"}],"active":true,"name":[{"use":"usual","family":"DENEXPass","given":["CMOdurObs_NoEDObs<1hrBFEnc"]}],"gender":"male","birthDate":"1995-08-21"},"request":{"method":"PUT","url":"Patient/eb5173bb-769a-4c95-b0e9-362a271f72ea"}},{"fullUrl":"https://madie.cms.gov/Encounter/4ceaea5c-594c-4885-9807-f862a51c7224","resource":{"resourceType":"Encounter","id":"4ceaea5c-594c-4885-9807-f862a51c7224","meta":{"profile":["http://hl7.org/fhir/us/qicore/StructureDefinition/qicore-encounter"]},"status":"finished","class":{"system":"http://terminology.hl7.org/CodeSystem/v3-ActCode","code":"OBSENC","display":"observation encounter","userSelected":true},"type":[{"coding":[{"system":"http://snomed.info/sct","code":"448951000124107"}]}],"subject":{"reference":"Patient/eb5173bb-769a-4c95-b0e9-362a271f72ea"},"period":{"start":"2026-10-10T07:30:00.000+00:00","end":"2026-10-10T08:00:00.000+00:00"},"length":{"value":0,"unit":"days"}},"request":{"method":"PUT","url":"Encounter/4ceaea5c-594c-4885-9807-f862a51c7224"}},{"fullUrl":"https://madie.cms.gov/Encounter/3e19aa09-95ee-46cd-a49e-8dd6dafa737d","resource":{"resourceType":"Encounter","id":"3e19aa09-95ee-46cd-a49e-8dd6dafa737d","meta":{"profile":["http://hl7.org/fhir/us/qicore/StructureDefinition/qicore-encounter"]},"status":"finished","class":{"system":"http://terminology.hl7.org/CodeSystem/v3-ActCode","code":"IMP","display":"inpatient encounter","userSelected":true},"type":[{"coding":[{"system":"http://snomed.info/sct","code":"32485007"}]}],"subject":{"reference":"Patient/eb5173bb-769a-4c95-b0e9-362a271f72ea"},"period":{"start":"2026-10-10T08:01:00.000+00:00","end":"2026-10-12T10:30:00.000+00:00"},"length":{"value":2,"unit":"days"},"diagnosis":[{"condition":{"reference":"Condition/3d5c6eb4-96ec-4638-9cb1-b431c1352425"},"use":{"coding":[{"system":"http://terminology.hl7.org/CodeSystem/diagnosis-role","code":"billing","display":"Billing"}]},"rank":1}]},"request":{"method":"PUT","url":"Encounter/3e19aa09-95ee-46cd-a49e-8dd6dafa737d"}},{"fullUrl":"https://madie.cms.gov/ServiceRequest/61f8ba64-7468-4a35-bf45-d1aaec36d977","resource":{"resourceType":"ServiceRequest","id":"61f8ba64-7468-4a35-bf45-d1aaec36d977","meta":{"profile":["http://hl7.org/fhir/us/qicore/StructureDefinition/qicore-servicerequest"]},"status":"active","intent":"order","code":{"coding":[{"system":"http://snomed.info/sct","code":"133918004"}]},"subject":{"reference":"Patient/eb5173bb-769a-4c95-b0e9-362a271f72ea"},"authoredOn":"2026-10-10T07:30:00.000+00:00"},"request":{"method":"PUT","url":"ServiceRequest/61f8ba64-7468-4a35-bf45-d1aaec36d977"}},{"fullUrl":"https://madie.cms.gov/Condition/3d5c6eb4-96ec-4638-9cb1-b431c1352425","resource":{"resourceType":"Condition","id":"3d5c6eb4-96ec-4638-9cb1-b431c1352425","meta":{"profile":["http://hl7.org/fhir/us/qicore/StructureDefinition/qicore-condition"]},"clinicalStatus":{"coding":[{"system":"http://terminology.hl7.org/CodeSystem/condition-clinical","code":"active"}]},"verificationStatus":{"coding":[{"system":"http://terminology.hl7.org/CodeSystem/condition-ver-status","code":"confirmed"}]},"category":[{"coding":[{"system":"http://terminology.hl7.org/CodeSystem/condition-category","code":"encounter-diagnosis","display":"Encounter Diagnosis"}]}],"code":{"coding":[{"system":"http://snomed.info/sct","version":"2020-09","code":"111297002","display":"Nonparalytic stroke (disorder)","userSelected":true}]},"subject":{"reference":"Patient/eb5173bb-769a-4c95-b0e9-362a271f72ea"},"recordedDate":"2026-07-15T08:00:00.000+00:00"},"request":{"method":"PUT","url":"Condition/3d5c6eb4-96ec-4638-9cb1-b431c1352425"}},{"fullUrl":"https://madie.cms.gov/Coverage/41f2f497-2519-47c5-8182-b8e8b189f388","resource":{"resourceType":"Coverage","id":"41f2f497-2519-47c5-8182-b8e8b189f388","meta":{"profile":["http://hl7.org/fhir/us/qicore/StructureDefinition/qicore-coverage"]},"status":"active","beneficiary":{"reference":"Patient/eb5173bb-769a-4c95-b0e9-362a271f72ea"},"payor":[{"reference":"Organization/db141f66-a1cc-407b-9e95-adac27adee14"}]},"request":{"method":"PUT","url":"Coverage/41f2f497-2519-47c5-8182-b8e8b189f388"}},{"fullUrl":"https://madie.cms.gov/Organization/2b5a53d0-ae7c-4fdb-ba48-ab763461cfcf","resource":{"resourceType":"Organization","id":"db141f66-a1cc-407b-9e95-adac27adee14","meta":{"profile":["http://hl7.org/fhir/us/qicore/StructureDefinition/qicore-organization"]},"identifier":[{"use":"temp","system":"urn:oid:2.16.840.1.113883.4.4","value":"21-3259825"}],"active":true,"type":[{"coding":[{"system":"http://terminology.hl7.org/CodeSystem/organization-type","code":"pay","display":"Payer"}]}],"name":"Blue Cross Blue Shield of Texas","telecom":[{"system":"phone","value":"(+1) 972-766-6900"}],"address":[{"use":"billing","type":"postal","line":["P.O. Box 660044"],"city":"Dallas","state":"TX","postalCode":"75266-0044","country":"USA"}]},"request":{"method":"PUT","url":"Organization/db141f66-a1cc-407b-9e95-adac27adee14"}},{"fullUrl":"https://madie.cms.gov/MeasureReport/5e9cd58e-ec1f-44ec-9ba0-e3a91af98ab1","resource":{"resourceType":"MeasureReport","id":"5e9cd58e-ec1f-44ec-9ba0-e3a91af98ab1","meta":{"profile":["http://hl7.org/fhir/us/cqfmeasures/StructureDefinition/test-case-cqfm"]},"contained":[{"resourceType":"Parameters","id":"7369098e-ad70-4c91-8a48-b35a95949365-parameters","parameter":[{"name":"subject","valueString":"eb5173bb-769a-4c95-b0e9-362a271f72ea"}]}],"extension":[{"url":"http://hl7.org/fhir/us/cqfmeasures/StructureDefinition/cqfm-inputParameters","valueReference":{"reference":"#7369098e-ad70-4c91-8a48-b35a95949365-parameters"}},{"url":"http://hl7.org/fhir/us/cqfmeasures/StructureDefinition/cqfm-testCaseDescription","valueMarkdown":"Patient receives CMP during inpatient encounter. No ED. No Observation. Testing day of operator with HospitalizationWithObservation function.\n"}],"modifierExtension":[{"url":"http://hl7.org/fhir/us/cqfmeasures/StructureDefinition/cqfm-isTestCase","valueBoolean":true}],"status":"complete","type":"individual","measure":"https://madie.cms.gov/Measure/CMS104FHIRSTKDCAntithrombotic","period":{"start":"2026-01-01","end":"2026-12-31"},"group":[{"population":[{"code":{"coding":[{"system":"http://terminology.hl7.org/CodeSystem/measure-population","code":"initial-population","display":"Initial Population"}]},"count":1},{"code":{"coding":[{"system":"http://terminology.hl7.org/CodeSystem/measure-population","code":"denominator","display":"Denominator"}]},"count":1},{"code":{"coding":[{"system":"http://terminology.hl7.org/CodeSystem/measure-population","code":"denominator-exclusion","display":"Denominator Exclusion"}]},"count":1},{"code":{"coding":[{"system":"http://terminology.hl7.org/CodeSystem/measure-population","code":"numerator","display":"Numerator"}]},"count":0},{"code":{"coding":[{"system":"http://terminology.hl7.org/CodeSystem/measure-population","code":"denominator-exception","display":"Denominator Exception"}]},"count":0}]}]},"request":{"method":"PUT","url":"MeasureReport/5e9cd58e-ec1f-44ec-9ba0-e3a91af98ab1"}}]}