{"resourceType":"Bundle","id":"tests-e8e62dbf-ce54-4f04-b2d9-f574b8ded2c4-bundle","type":"transaction","entry":[{"fullUrl":"https://madie.cms.gov/Patient/e8e62dbf-ce54-4f04-b2d9-f574b8ded2c4","resource":{"resourceType":"Patient","id":"e8e62dbf-ce54-4f04-b2d9-f574b8ded2c4","meta":{"profile":["http://hl7.org/fhir/us/qicore/StructureDefinition/qicore-patient"]},"text":{"status":"generated","div":"<div xmlns=\"http://www.w3.org/1999/xhtml\"><div class=\"hapiHeaderText\"> CMOdurDiffEDTestOccur <b>DENEXPASS </b></div><table class=\"hapiPropertyTable\"><tbody><tr><td>Identifier</td><td>8ca2b35206ea67637d1637609c7d085ff3b14c20bc19eae5b26464da239a5345</td></tr><tr><td>Date of birth</td><td><span>21 August 1994</span></td></tr></tbody></table></div>"},"extension":[{"url":"http://hl7.org/fhir/us/core/StructureDefinition/us-core-race","extension":[{"url":"ombCategory","valueCoding":{"system":"urn:oid:2.16.840.1.113883.6.238","code":"1002-5","display":"American Indian or Alaska Native","userSelected":true}},{"url":"text","valueString":"American Indian or Alaska Native"}]},{"url":"http://hl7.org/fhir/us/core/StructureDefinition/us-core-ethnicity","extension":[{"url":"ombCategory","valueCoding":{"system":"urn:oid:2.16.840.1.113883.6.238","code":"2135-2","display":"Hispanic or Latino","userSelected":true}},{"url":"text","valueString":"Hispanic or Latino"}]}],"identifier":[{"type":{"coding":[{"system":"http://terminology.hl7.org/CodeSystem/v2-0203","code":"MR"}]},"system":"https://bonnie-fhir.healthit.gov/","value":"6129135502c62a011f2e752c"}],"active":true,"name":[{"use":"usual","family":"DENEXFail","given":["CMOdurDiffEDTestOccur"]}],"gender":"male","birthDate":"1995-08-21"},"request":{"method":"PUT","url":"Patient/e8e62dbf-ce54-4f04-b2d9-f574b8ded2c4"}},{"fullUrl":"https://madie.cms.gov/Encounter/afca5486-51b1-46dd-91a2-5ea3cb109b67","resource":{"resourceType":"Encounter","id":"afca5486-51b1-46dd-91a2-5ea3cb109b67","meta":{"profile":["http://hl7.org/fhir/us/qicore/StructureDefinition/qicore-encounter"]},"status":"finished","class":{"system":"http://terminology.hl7.org/CodeSystem/v3-ActCode","code":"EMER","display":"emergency","userSelected":true},"type":[{"coding":[{"system":"http://snomed.info/sct","code":"4525004"}]}],"subject":{"reference":"Patient/e8e62dbf-ce54-4f04-b2d9-f574b8ded2c4"},"period":{"start":"2026-10-10T12:31:00.000+00:00","end":"2026-10-10T12:46:00.000+00:00"},"length":{"value":0,"unit":"days"}},"request":{"method":"PUT","url":"Encounter/afca5486-51b1-46dd-91a2-5ea3cb109b67"}},{"fullUrl":"https://madie.cms.gov/Encounter/16b25fbd-eba0-43fb-ae5c-ca6b2a0f0290","resource":{"resourceType":"Encounter","id":"16b25fbd-eba0-43fb-ae5c-ca6b2a0f0290","meta":{"profile":["http://hl7.org/fhir/us/qicore/StructureDefinition/qicore-encounter"]},"status":"finished","class":{"system":"http://terminology.hl7.org/CodeSystem/v3-ActCode","code":"EMER","display":"emergency","userSelected":true},"type":[{"coding":[{"system":"http://snomed.info/sct","code":"4525004"}]}],"subject":{"reference":"Patient/e8e62dbf-ce54-4f04-b2d9-f574b8ded2c4"},"period":{"start":"2026-10-11T10:30:00.000+00:00","end":"2026-10-11T11:30:00.000+00:00"},"length":{"value":0,"unit":"days"}},"request":{"method":"PUT","url":"Encounter/16b25fbd-eba0-43fb-ae5c-ca6b2a0f0290"}},{"fullUrl":"https://madie.cms.gov/Encounter/d4c51031-451b-4f7b-95a9-96c2b3a0c26e","resource":{"resourceType":"Encounter","id":"d4c51031-451b-4f7b-95a9-96c2b3a0c26e","meta":{"profile":["http://hl7.org/fhir/us/qicore/StructureDefinition/qicore-encounter"]},"status":"finished","class":{"system":"http://terminology.hl7.org/CodeSystem/v3-ActCode","code":"IMP","display":"inpatient encounter","userSelected":true},"type":[{"coding":[{"system":"http://snomed.info/sct","code":"32485007"}]}],"subject":{"reference":"Patient/e8e62dbf-ce54-4f04-b2d9-f574b8ded2c4"},"period":{"start":"2026-10-11T12:30:00.000+00:00","end":"2026-10-13T11:30:00.000+00:00"},"length":{"value":2,"unit":"days"},"diagnosis":[{"condition":{"reference":"Condition/8d76bea4-22c4-4ffe-9bc5-9ded9ea58844"},"use":{"coding":[{"system":"http://terminology.hl7.org/CodeSystem/diagnosis-role","code":"billing","display":"Billing"}]},"rank":1}]},"request":{"method":"PUT","url":"Encounter/d4c51031-451b-4f7b-95a9-96c2b3a0c26e"}},{"fullUrl":"https://madie.cms.gov/ServiceRequest/2d30f8d2-9b7f-4f17-a958-b8acd3412375","resource":{"resourceType":"ServiceRequest","id":"2d30f8d2-9b7f-4f17-a958-b8acd3412375","meta":{"profile":["http://hl7.org/fhir/us/qicore/StructureDefinition/qicore-servicerequest"]},"status":"active","intent":"order","code":{"coding":[{"system":"http://snomed.info/sct","code":"133918004"}]},"subject":{"reference":"Patient/e8e62dbf-ce54-4f04-b2d9-f574b8ded2c4"},"authoredOn":"2026-10-11T12:31:00.000+00:00"},"request":{"method":"PUT","url":"ServiceRequest/2d30f8d2-9b7f-4f17-a958-b8acd3412375"}},{"fullUrl":"https://madie.cms.gov/Condition/8d76bea4-22c4-4ffe-9bc5-9ded9ea58844","resource":{"resourceType":"Condition","id":"8d76bea4-22c4-4ffe-9bc5-9ded9ea58844","meta":{"profile":["http://hl7.org/fhir/us/qicore/StructureDefinition/qicore-condition"]},"clinicalStatus":{"coding":[{"system":"http://terminology.hl7.org/CodeSystem/condition-clinical","code":"active"}]},"verificationStatus":{"coding":[{"system":"http://terminology.hl7.org/CodeSystem/condition-ver-status","code":"confirmed"}]},"category":[{"coding":[{"system":"http://terminology.hl7.org/CodeSystem/condition-category","code":"encounter-diagnosis","display":"Encounter Diagnosis"}]}],"code":{"coding":[{"system":"http://snomed.info/sct","version":"2020-09","code":"111297002","display":"Nonparalytic stroke (disorder)","userSelected":true}]},"subject":{"reference":"Patient/e8e62dbf-ce54-4f04-b2d9-f574b8ded2c4"},"recordedDate":"2026-07-14T08:00:00.000+00:00"},"request":{"method":"PUT","url":"Condition/8d76bea4-22c4-4ffe-9bc5-9ded9ea58844"}},{"fullUrl":"https://madie.cms.gov/Coverage/7a419c8d-1d02-42b1-b011-5c4e6e745cb6","resource":{"resourceType":"Coverage","id":"7a419c8d-1d02-42b1-b011-5c4e6e745cb6","meta":{"profile":["http://hl7.org/fhir/us/qicore/StructureDefinition/qicore-coverage"]},"status":"active","beneficiary":{"reference":"Patient/e8e62dbf-ce54-4f04-b2d9-f574b8ded2c4"},"payor":[{"reference":"Organization/5ad6ea38-07e9-4482-9e1b-c09eee595be9"}]},"request":{"method":"PUT","url":"Coverage/7a419c8d-1d02-42b1-b011-5c4e6e745cb6"}},{"fullUrl":"https://madie.cms.gov/Organization/d01b5d8b-284f-4914-8a6e-0a53b3f1f6ce","resource":{"resourceType":"Organization","id":"5ad6ea38-07e9-4482-9e1b-c09eee595be9","meta":{"profile":["http://hl7.org/fhir/us/qicore/StructureDefinition/qicore-organization"]},"identifier":[{"use":"temp","system":"urn:oid:2.16.840.1.113883.4.4","value":"21-3259825"}],"active":true,"type":[{"coding":[{"system":"http://terminology.hl7.org/CodeSystem/organization-type","code":"pay","display":"Payer"}]}],"name":"Blue Cross Blue Shield of Texas","telecom":[{"system":"phone","value":"(+1) 972-766-6900"}],"address":[{"use":"billing","type":"postal","line":["P.O. Box 660044"],"city":"Dallas","state":"TX","postalCode":"75266-0044","country":"USA"}]},"request":{"method":"PUT","url":"Organization/5ad6ea38-07e9-4482-9e1b-c09eee595be9"}},{"fullUrl":"https://madie.cms.gov/MeasureReport/c5c9c755-25cd-41df-bb9f-f538bc9a6adc","resource":{"resourceType":"MeasureReport","id":"c5c9c755-25cd-41df-bb9f-f538bc9a6adc","meta":{"profile":["http://hl7.org/fhir/us/cqfmeasures/StructureDefinition/test-case-cqfm"]},"contained":[{"resourceType":"Parameters","id":"c8a2b266-b652-4125-a88b-01b5b085638b-parameters","parameter":[{"name":"subject","valueString":"e8e62dbf-ce54-4f04-b2d9-f574b8ded2c4"}]}],"extension":[{"url":"http://hl7.org/fhir/us/cqfmeasures/StructureDefinition/cqfm-inputParameters","valueReference":{"reference":"#c8a2b266-b652-4125-a88b-01b5b085638b-parameters"}},{"url":"http://hl7.org/fhir/us/cqfmeasures/StructureDefinition/cqfm-testCaseDescription","valueMarkdown":"Patient receives CMO during inpatient encounter. No ED.  Observation ends 1 min before IP start. Testing day of operator with HospitalizationWithObservation function."}],"modifierExtension":[{"url":"http://hl7.org/fhir/us/cqfmeasures/StructureDefinition/cqfm-isTestCase","valueBoolean":true}],"status":"complete","type":"individual","measure":"https://madie.cms.gov/Measure/CMS104FHIRSTKDCAntithrombotic","period":{"start":"2026-01-01","end":"2026-12-31"},"group":[{"population":[{"code":{"coding":[{"system":"http://terminology.hl7.org/CodeSystem/measure-population","code":"initial-population","display":"Initial Population"}]},"count":1},{"code":{"coding":[{"system":"http://terminology.hl7.org/CodeSystem/measure-population","code":"denominator","display":"Denominator"}]},"count":1},{"code":{"coding":[{"system":"http://terminology.hl7.org/CodeSystem/measure-population","code":"denominator-exclusion","display":"Denominator Exclusion"}]},"count":1},{"code":{"coding":[{"system":"http://terminology.hl7.org/CodeSystem/measure-population","code":"numerator","display":"Numerator"}]},"count":0},{"code":{"coding":[{"system":"http://terminology.hl7.org/CodeSystem/measure-population","code":"denominator-exception","display":"Denominator Exception"}]},"count":0}]}]},"request":{"method":"PUT","url":"MeasureReport/c5c9c755-25cd-41df-bb9f-f538bc9a6adc"}}]}