{
  "resourceType": "Bundle",
  "id": "6129132502c62a011f2e5f9a",
  "type": "transaction",
  "entry": [ {
    "fullUrl": "https://madie.cms.gov/Patient/1af15788-9e3f-4e3a-9cc0-c352ec1d9593",
    "resource": {
      "resourceType": "Patient",
      "id": "1af15788-9e3f-4e3a-9cc0-c352ec1d9593",
      "meta": {
        "profile": [ "http://hl7.org/fhir/us/qicore/StructureDefinition/qicore-patient" ]
      },
      "text": {
        "status": "generated",
        "div": "<div xmlns=\"http://www.w3.org/1999/xhtml\"><div class=\"hapiHeaderText\">TooYoung <b>IPFAIL </b></div><table class=\"hapiPropertyTable\"><tbody><tr><td>Identifier</td><td>14c9f066db6bab69f468149015c4a894</td></tr><tr><td>Date of birth</td><td><span>22 August 1994</span></td></tr></tbody></table></div>"
      },
      "extension": [ {
        "url": "http://hl7.org/fhir/us/core/StructureDefinition/us-core-race",
        "extension": [ {
          "url": "ombCategory",
          "valueCoding": {
            "system": "urn:oid:2.16.840.1.113883.6.238",
            "code": "1002-5",
            "display": "American Indian or Alaska Native",
            "userSelected": true
          }
        }, {
          "url": "text",
          "valueString": "American Indian or Alaska Native"
        } ]
      }, {
        "url": "http://hl7.org/fhir/us/core/StructureDefinition/us-core-ethnicity",
        "extension": [ {
          "url": "ombCategory",
          "valueCoding": {
            "system": "urn:oid:2.16.840.1.113883.6.238",
            "code": "2135-2",
            "display": "Hispanic or Latino",
            "userSelected": true
          }
        }, {
          "url": "text",
          "valueString": "Hispanic or Latino"
        } ]
      } ],
      "identifier": [ {
        "type": {
          "coding": [ {
            "system": "http://terminology.hl7.org/CodeSystem/v2-0203",
            "code": "MR"
          } ]
        },
        "system": "https://bonnie-fhir.healthit.gov/",
        "value": "6129132502c62a011f2e5f9a"
      } ],
      "active": true,
      "name": [ {
        "use": "usual",
        "family": "IPFail",
        "given": [ "TooYoung" ]
      } ],
      "gender": "male",
      "birthDate": "2008-08-22"
    },
    "request": {
      "method": "PUT",
      "url": "Patient/1af15788-9e3f-4e3a-9cc0-c352ec1d9593"
    }
  }, {
    "fullUrl": "https://madie.cms.gov/Encounter/6aaa60ac-2c0d-48ff-b8ec-44127a85db29",
    "resource": {
      "resourceType": "Encounter",
      "id": "6aaa60ac-2c0d-48ff-b8ec-44127a85db29",
      "meta": {
        "profile": [ "http://hl7.org/fhir/us/qicore/StructureDefinition/qicore-encounter" ]
      },
      "status": "finished",
      "class": {
        "system": "http://terminology.hl7.org/CodeSystem/v3-ActCode",
        "code": "IMP",
        "display": "inpatient encounter",
        "userSelected": true
      },
      "type": [ {
        "coding": [ {
          "system": "http://snomed.info/sct",
          "code": "32485007"
        } ]
      } ],
      "subject": {
        "reference": "Patient/1af15788-9e3f-4e3a-9cc0-c352ec1d9593"
      },
      "period": {
        "start": "2026-08-21T08:00:00.000+00:00",
        "end": "2026-12-19T08:15:00.000+00:00"
      },
      "length": {
        "value": 120,
        "unit": "days"
      },
      "diagnosis": [ {
        "condition": {
          "reference": "Condition/9f30d40c-1e09-4720-9909-5633efa007c3"
        },
        "use": {
          "coding": [ {
            "system": "http://terminology.hl7.org/CodeSystem/diagnosis-role",
            "code": "billing",
            "display": "Billing"
          } ]
        },
        "rank": 1
      } ]
    },
    "request": {
      "method": "PUT",
      "url": "Encounter/6aaa60ac-2c0d-48ff-b8ec-44127a85db29"
    }
  }, {
    "fullUrl": "https://madie.cms.gov/Condition/9f30d40c-1e09-4720-9909-5633efa007c3",
    "resource": {
      "resourceType": "Condition",
      "id": "9f30d40c-1e09-4720-9909-5633efa007c3",
      "meta": {
        "profile": [ "http://hl7.org/fhir/us/qicore/StructureDefinition/qicore-condition" ]
      },
      "clinicalStatus": {
        "coding": [ {
          "system": "http://terminology.hl7.org/CodeSystem/condition-clinical",
          "code": "active"
        } ]
      },
      "verificationStatus": {
        "coding": [ {
          "system": "http://terminology.hl7.org/CodeSystem/condition-ver-status",
          "code": "confirmed"
        } ]
      },
      "category": [ {
        "coding": [ {
          "system": "http://terminology.hl7.org/CodeSystem/condition-category",
          "code": "encounter-diagnosis",
          "display": "Encounter Diagnosis"
        } ]
      } ],
      "code": {
        "coding": [ {
          "system": "http://snomed.info/sct",
          "version": "2020-09",
          "code": "111297002",
          "display": "Nonparalytic stroke (disorder)",
          "userSelected": true
        } ]
      },
      "subject": {
        "reference": "Patient/1af15788-9e3f-4e3a-9cc0-c352ec1d9593"
      },
      "recordedDate": "2026-07-15T08:00:00.000+00:00"
    },
    "request": {
      "method": "PUT",
      "url": "Condition/9f30d40c-1e09-4720-9909-5633efa007c3"
    }
  }, {
    "fullUrl": "https://madie.cms.gov/Coverage/1b82a1a8-b001-4f55-a118-490ce9c3207b",
    "resource": {
      "resourceType": "Coverage",
      "id": "1b82a1a8-b001-4f55-a118-490ce9c3207b",
      "meta": {
        "profile": [ "http://hl7.org/fhir/us/qicore/StructureDefinition/qicore-coverage" ]
      },
      "status": "active",
      "beneficiary": {
        "reference": "Patient/1af15788-9e3f-4e3a-9cc0-c352ec1d9593"
      },
      "payor": [ {
        "reference": "Organization/a2f298da-8bda-4208-b3e2-bc5141e63839"
      } ]
    },
    "request": {
      "method": "PUT",
      "url": "Coverage/1b82a1a8-b001-4f55-a118-490ce9c3207b"
    }
  }, {
    "fullUrl": "https://madie.cms.gov/Organization/a2f298da-8bda-4208-b3e2-bc5141e63839",
    "resource": {
      "resourceType": "Organization",
      "id": "a2f298da-8bda-4208-b3e2-bc5141e63839",
      "meta": {
        "profile": [ "http://hl7.org/fhir/us/qicore/StructureDefinition/qicore-organization" ]
      },
      "identifier": [ {
        "use": "temp",
        "system": "urn:oid:2.16.840.1.113883.4.4",
        "value": "21-3259825"
      } ],
      "active": true,
      "type": [ {
        "coding": [ {
          "system": "http://terminology.hl7.org/CodeSystem/organization-type",
          "code": "pay",
          "display": "Payer"
        } ]
      } ],
      "name": "Blue Cross Blue Shield of Texas",
      "telecom": [ {
        "system": "phone",
        "value": "(+1) 972-766-6900"
      } ],
      "address": [ {
        "use": "billing",
        "type": "postal",
        "line": [ "P.O. Box 660044" ],
        "city": "Dallas",
        "state": "TX",
        "postalCode": "75266-0044",
        "country": "USA"
      } ]
    },
    "request": {
      "method": "PUT",
      "url": "Organization/a2f298da-8bda-4208-b3e2-bc5141e63839"
    }
  }, {
    "fullUrl": "https://madie.cms.gov/MeasureReport/3a1bf404-31c0-4a98-81b4-844704c1ede5",
    "resource": {
      "resourceType": "MeasureReport",
      "id": "3a1bf404-31c0-4a98-81b4-844704c1ede5",
      "meta": {
        "profile": [ "http://hl7.org/fhir/us/cqfmeasures/StructureDefinition/test-case-cqfm" ]
      },
      "contained": [ {
        "resourceType": "Parameters",
        "id": "a001b0b2-a6f1-4e88-a41d-8e4a40acba05-parameters",
        "parameter": [ {
          "name": "subject",
          "valueString": "1af15788-9e3f-4e3a-9cc0-c352ec1d9593"
        } ]
      } ],
      "extension": [ {
        "url": "http://hl7.org/fhir/us/cqfmeasures/StructureDefinition/cqfm-inputParameters",
        "valueReference": {
          "reference": "#a001b0b2-a6f1-4e88-a41d-8e4a40acba05-parameters"
        }
      }, {
        "url": "http://hl7.org/fhir/us/cqfmeasures/StructureDefinition/cqfm-testCaseDescription",
        "valueMarkdown": "Patient is 17 with Non-Elective Inpatient Encounter (LOS 120 days) with principal diagnosis of ischemic stroke ends during MP.\n"
      } ],
      "modifierExtension": [ {
        "url": "http://hl7.org/fhir/us/cqfmeasures/StructureDefinition/cqfm-isTestCase",
        "valueBoolean": true
      } ],
      "status": "complete",
      "type": "individual",
      "measure": "https://madie.cms.gov/Measure/CMS104FHIRSTKDCAntithrombotic",
      "period": {
        "start": "2026-01-01",
        "end": "2026-12-31"
      },
      "group": [ {
        "population": [ {
          "code": {
            "coding": [ {
              "system": "http://terminology.hl7.org/CodeSystem/measure-population",
              "code": "initial-population",
              "display": "Initial Population"
            } ]
          },
          "count": 0
        }, {
          "code": {
            "coding": [ {
              "system": "http://terminology.hl7.org/CodeSystem/measure-population",
              "code": "denominator",
              "display": "Denominator"
            } ]
          },
          "count": 0
        }, {
          "code": {
            "coding": [ {
              "system": "http://terminology.hl7.org/CodeSystem/measure-population",
              "code": "denominator-exclusion",
              "display": "Denominator Exclusion"
            } ]
          },
          "count": 0
        }, {
          "code": {
            "coding": [ {
              "system": "http://terminology.hl7.org/CodeSystem/measure-population",
              "code": "numerator",
              "display": "Numerator"
            } ]
          },
          "count": 0
        }, {
          "code": {
            "coding": [ {
              "system": "http://terminology.hl7.org/CodeSystem/measure-population",
              "code": "denominator-exception",
              "display": "Denominator Exception"
            } ]
          },
          "count": 0
        } ]
      } ],
      "evaluatedResource": [ {
        "reference": "Patient/1af15788-9e3f-4e3a-9cc0-c352ec1d9593"
      }, {
        "reference": "Encounter/6aaa60ac-2c0d-48ff-b8ec-44127a85db29"
      }, {
        "reference": "Condition/9f30d40c-1e09-4720-9909-5633efa007c3"
      }, {
        "reference": "Coverage/1b82a1a8-b001-4f55-a118-490ce9c3207b"
      }, {
        "reference": "Organization/a2f298da-8bda-4208-b3e2-bc5141e63839"
      } ]
    },
    "request": {
      "method": "PUT",
      "url": "MeasureReport/3a1bf404-31c0-4a98-81b4-844704c1ede5"
    }
  } ]
}